"trial_type","trial_index","time_elapsed","internal_node_id","participant_id","subject_id","age","gender","rocket_sides","red_planet_first_rocket","red_display_order","purple_display_order","interactions","blur_events","focus_events","fullscreenenter_events","fullscreenexit_events","rt","stimulus","key_press","button_pressed","success","duration","valid_pressed","rts","keys","planet_text","right_text","left_text","center_text","chosen_text","reward_text","trial_stage","practice_trial","transition_type","choice","transition","reward","timestamp"
"pavlovia","0","8","0.0-0.0","124","657","12","Male","false","false","false","false","
","
","
","
","
","","","","","","","","","","","","","","","","","","","","","",""
"html-keyboard-response","1","6029","0.0-1.0","124","657","12","Male","false","false","false","false","
","
","
","
","
","6017.600000023842","Welcome! Press the space bar to begin.","32","","","","","","","","","","","","","","","","","","",""
"audio-keyboard-response","2","9784","0.0-2.0","124","657","12","Male","false","false","false","false","
","
","
","
","
","3411","audio/beep_loop.wav","32","","","","","","","","","","","","","","","","","","",""
"audio-button-response","3","15119","0.0-3.0","124","657","12","Male","false","false","false","false","
","
","
","
","
","NaN","audio/fish.mp3","","1","","","","","","","","","","","","","","","","","",""
"audio-button-response","4","18497","0.0-4.0","124","657","12","Male","false","false","false","false","""event"",""trial"",""time""
""fullscreenenter"",""5"",""24040""
","
","
","""event"",""trial"",""time""
""fullscreenenter"",""5"",""24040""
","
","NaN","audio/tiger.mp3","","4","","","","","","","","","","","","","","","","","",""
"fullscreen","5","24940","0.0-5.0","124","657","12","Male","false","false","false","false","""event"",""trial"",""time""
""fullscreenenter"",""5"",""24040""
","
","
","""event"",""trial"",""time""
""fullscreenenter"",""5"",""24040""
","
","","","","","true","","","","","","","","","","","","","","","","",""
"d3-instructions","6","40066","0.0-6.0","124","657","12","Male","false","false","false","false","""event"",""trial"",""time""
""fullscreenenter"",""5"",""24040""
","
","
","""event"",""trial"",""time""
""fullscreenenter"",""5"",""24040""
","
","","","","","","","","","","","","","","","","","","","","","",""
"d3-instructions","7","48644","0.0-7.0","124","657","12","Male","false","false","false","false","""event"",""trial"",""time""
""fullscreenenter"",""5"",""24040""
","
","
","""event"",""trial"",""time""
""fullscreenenter"",""5"",""24040""
","
","","","","","","","","","","","","","","","","","","","","","",""
"d3-instructions","8","56139","0.0-8.0","124","657","12","Male","false","false","false","false","""event"",""trial"",""time""
""fullscreenenter"",""5"",""24040""
","
","
","""event"",""trial"",""time""
""fullscreenenter"",""5"",""24040""
","
","","","","","","","","","","","","","","","","","","","","","",""
"d3-instructions","9","71647","0.0-9.0","124","657","12","Male","false","false","false","false","""event"",""trial"",""time""
""fullscreenenter"",""5"",""24040""
","
","
","""event"",""trial"",""time""
""fullscreenenter"",""5"",""24040""
","
","","","","","","","","","","","","","","","","","","","","","",""
"d3-instructions","10","91692","0.0-10.0","124","657","12","Male","false","false","false","false","""event"",""trial"",""time""
""fullscreenenter"",""5"",""24040""
","
","
","""event"",""trial"",""time""
""fullscreenenter"",""5"",""24040""
","
","","","","","","","","","","","","","","","","","","","","","",""
"d3-animate-choice","11","94934","0.0-11.0","124","657","12","Male","false","false","false","false","""event"",""trial"",""time""
""fullscreenenter"",""5"",""24040""
","
","
","""event"",""trial"",""time""
""fullscreenenter"",""5"",""24040""
","
","1213.2999999523163","","49","","","3000","1","","","images/tutgreenplanet.jpg","images/tutalien1","images/tutalien2","null","images/tutalien2","","NA","practice","null","","","",""
"d3-animate-choice","12","97620","0.0-12.0","124","657","12","Male","false","false","false","false","""event"",""trial"",""time""
""fullscreenenter"",""5"",""24040""
","
","
","""event"",""trial"",""time""
""fullscreenenter"",""5"",""24040""
","
","679.3999999761581","","48","","","3000","1","","","images/tutgreenplanet.jpg","images/tutalien1","images/tutalien2","null","images/tutalien1","","NA","practice","null","","","",""
"d3-animate-choice","13","100295","0.0-13.0","124","657","12","Male","false","false","false","false","""event"",""trial"",""time""
""fullscreenenter"",""5"",""24040""
","
","
","""event"",""trial"",""time""
""fullscreenenter"",""5"",""24040""
","
","659","","49","","","3000","1","","","images/tutgreenplanet.jpg","images/tutalien1","images/tutalien2","null","images/tutalien2","","NA","practice","null","","","",""
"d3-animate-choice","14","102744","0.0-14.0","124","657","12","Male","false","false","false","false","""event"",""trial"",""time""
""fullscreenenter"",""5"",""24040""
","
","
","""event"",""trial"",""time""
""fullscreenenter"",""5"",""24040""
","
","439","","48","","","3000","1","","","images/tutgreenplanet.jpg","images/tutalien1","images/tutalien2","null","images/tutalien1","","NA","practice","null","","","",""
"d3-instructions","15","109726","0.0-15.0","124","657","12","Male","false","false","false","false","""event"",""trial"",""time""
""fullscreenenter"",""5"",""24040""
","
","
","""event"",""trial"",""time""
""fullscreenenter"",""5"",""24040""
","
","","","","","","","","","","","","","","","","","","","","","",""
"d3-instructions","16","117837","0.0-16.0","124","657","12","Male","false","false","false","false","""event"",""trial"",""time""
""fullscreenenter"",""5"",""24040""
","
","
","""event"",""trial"",""time""
""fullscreenenter"",""5"",""24040""
","
","","","","","","","","","","","","","","","","","","","","","",""
"d3-instructions","17","128097","0.0-17.0","124","657","12","Male","false","false","false","false","""event"",""trial"",""time""
""fullscreenenter"",""5"",""24040""
","
","
","""event"",""trial"",""time""
""fullscreenenter"",""5"",""24040""
","
","","","","","","","","","","","","","","","","","","","","","",""
"d3-instructions","18","143955","0.0-18.0","124","657","12","Male","false","false","false","false","""event"",""trial"",""time""
""fullscreenenter"",""5"",""24040""
","
","
","""event"",""trial"",""time""
""fullscreenenter"",""5"",""24040""
","
","","","","","","","","","","","","","","","","","","","","","",""
"d3-instructions","19","157838","0.0-19.0","124","657","12","Male","false","false","false","false","""event"",""trial"",""time""
""fullscreenenter"",""5"",""24040""
","
","
","""event"",""trial"",""time""
""fullscreenenter"",""5"",""24040""
","
","","","","","","","","","","","","","","","","","","","","","",""
"d3-animate-choice","20","161241","0.0-20.0","124","657","12","Male","false","false","false","false","""event"",""trial"",""time""
""fullscreenenter"",""5"",""24040""
","
","
","""event"",""trial"",""time""
""fullscreenenter"",""5"",""24040""
","
","1383.8999999761581","","49","","","3000","1","","","images/tutyellowplanet.jpg","null","images/tutalien3","null","images/tutalien3","images/t.png","NA","practice","null","","","",""
"d3-animate-choice","21","163869","0.0-21.0","124","657","12","Male","false","false","false","false","""event"",""trial"",""time""
""fullscreenenter"",""5"",""24040""
","
","
","""event"",""trial"",""time""
""fullscreenenter"",""5"",""24040""
","
","613.8000000715256","","49","","","3000","1","","","images/tutyellowplanet.jpg","null","images/tutalien3","null","images/tutalien3","images/t.png","NA","practice","null","","","",""
"d3-animate-choice","22","166681","0.0-22.0","124","657","12","Male","false","false","false","false","""event"",""trial"",""time""
""fullscreenenter"",""5"",""24040""
","
","
","""event"",""trial"",""time""
""fullscreenenter"",""5"",""24040""
","
","786.8000000715256","","49","","","3000","1","","","images/tutyellowplanet.jpg","null","images/tutalien3","null","images/tutalien3","images/nothing.png","NA","practice","null","","","",""
"d3-animate-choice","23","169180","0.0-23.0","124","657","12","Male","false","false","false","false","""event"",""trial"",""time""
""fullscreenenter"",""5"",""24040""
","
","
","""event"",""trial"",""time""
""fullscreenenter"",""5"",""24040""
","
","491.60000002384186","","49","","","3000","1","","","images/tutyellowplanet.jpg","null","images/tutalien3","null","images/tutalien3","images/t.png","NA","practice","null","","","",""
"d3-animate-choice","24","171726","0.0-24.0","124","657","12","Male","false","false","false","false","""event"",""trial"",""time""
""fullscreenenter"",""5"",""24040""
","
","
","""event"",""trial"",""time""
""fullscreenenter"",""5"",""24040""
","
","521.1000000238419","","49","","","3000","1","","","images/tutyellowplanet.jpg","null","images/tutalien3","null","images/tutalien3","images/t.png","NA","practice","null","","","",""
"d3-animate-choice","25","174261","0.0-25.0","124","657","12","Male","false","false","false","false","""event"",""trial"",""time""
""fullscreenenter"",""5"",""24040""
","
","
","""event"",""trial"",""time""
""fullscreenenter"",""5"",""24040""
","
","518.5","","49","","","3000","1","","","images/tutyellowplanet.jpg","null","images/tutalien3","null","images/tutalien3","images/nothing.png","NA","practice","null","","","",""
"d3-animate-choice","26","176800","0.0-26.0","124","657","12","Male","false","false","false","false","""event"",""trial"",""time""
""fullscreenenter"",""5"",""24040""
","
","
","""event"",""trial"",""time""
""fullscreenenter"",""5"",""24040""
","
","515.5","","49","","","3000","1","","","images/tutyellowplanet.jpg","null","images/tutalien3","null","images/tutalien3","images/t.png","NA","practice","null","","","",""
"d3-animate-choice","27","179241","0.0-27.0","124","657","12","Male","false","false","false","false","""event"",""trial"",""time""
""fullscreenenter"",""5"",""24040""
","
","
","""event"",""trial"",""time""
""fullscreenenter"",""5"",""24040""
","
","433.2999999523163","","49","","","3000","1","","","images/tutyellowplanet.jpg","null","images/tutalien3","null","images/tutalien3","images/t.png","NA","practice","null","","","",""
"d3-animate-choice","28","181740","0.0-28.0","124","657","12","Male","false","false","false","false","""event"",""trial"",""time""
""fullscreenenter"",""5"",""24040""
","
","
","""event"",""trial"",""time""
""fullscreenenter"",""5"",""24040""
","
","486.7000000476837","","49","","","3000","1","","","images/tutyellowplanet.jpg","null","images/tutalien3","null","images/tutalien3","images/t.png","NA","practice","null","","","",""
"d3-animate-choice","29","184260","0.0-29.0","124","657","12","Male","false","false","false","false","""event"",""trial"",""time""
""fullscreenenter"",""5"",""24040""
","
","
","""event"",""trial"",""time""
""fullscreenenter"",""5"",""24040""
","
","505.39999997615814","","49","","","3000","1","","","images/tutyellowplanet.jpg","null","images/tutalien3","null","images/tutalien3","images/t.png","NA","practice","null","","","",""
"d3-instructions","30","192691","0.0-30.0","124","657","12","Male","false","false","false","false","""event"",""trial"",""time""
""fullscreenenter"",""5"",""24040""
","
","
","""event"",""trial"",""time""
""fullscreenenter"",""5"",""24040""
","
","","","","","","","","","","","","","","","","","","","","","",""
"d3-instructions","31","204481","0.0-31.0","124","657","12","Male","false","false","false","false","""event"",""trial"",""time""
""fullscreenenter"",""5"",""24040""
","
","
","""event"",""trial"",""time""
""fullscreenenter"",""5"",""24040""
","
","","","","","","","","","","","","","","","","","","","","","",""
"d3-instructions","32","212723","0.0-32.0","124","657","12","Male","false","false","false","false","""event"",""trial"",""time""
""fullscreenenter"",""5"",""24040""
","
","
","""event"",""trial"",""time""
""fullscreenenter"",""5"",""24040""
","
","","","","","","","","","","","","","","","","","","","","","",""
"d3-instructions","33","222187","0.0-33.0","124","657","12","Male","false","false","false","false","""event"",""trial"",""time""
""fullscreenenter"",""5"",""24040""
","
","
","""event"",""trial"",""time""
""fullscreenenter"",""5"",""24040""
","
","","","","","","","","","","","","","","","","","","","","","",""
"d3-animate-choice","34","225459","0.0-34.0","124","657","12","Male","false","false","false","false","""event"",""trial"",""time""
""fullscreenenter"",""5"",""24040""
","
","
","""event"",""trial"",""time""
""fullscreenenter"",""5"",""24040""
","
","1263.2999999523163","","49","","","3000","1","","","images/tutgreenplanet.jpg","images/tutalien1","images/tutalien2","null","images/tutalien2","images/t.png","NA","practice","null","","","",""
"d3-animate-choice","35","228001","0.0-35.0","124","657","12","Male","false","false","false","false","""event"",""trial"",""time""
""fullscreenenter"",""5"",""24040""
","
","
","""event"",""trial"",""time""
""fullscreenenter"",""5"",""24040""
","
","523.5999999046326","","49","","","3000","1","","","images/tutgreenplanet.jpg","images/tutalien1","images/tutalien2","null","images/tutalien2","images/t.png","NA","practice","null","","","",""
"d3-animate-choice","36","230492","0.0-36.0","124","657","12","Male","false","false","false","false","""event"",""trial"",""time""
""fullscreenenter"",""5"",""24040""
","
","
","""event"",""trial"",""time""
""fullscreenenter"",""5"",""24040""
","
","476","","49","","","3000","1","","","images/tutgreenplanet.jpg","images/tutalien1","images/tutalien2","null","images/tutalien2","images/t.png","NA","practice","null","","","",""
"d3-animate-choice","37","232926","0.0-37.0","124","657","12","Male","false","false","false","false","""event"",""trial"",""time""
""fullscreenenter"",""5"",""24040""
","
","
","""event"",""trial"",""time""
""fullscreenenter"",""5"",""24040""
","
","425.60000002384186","","49","","","3000","1","","","images/tutgreenplanet.jpg","images/tutalien1","images/tutalien2","null","images/tutalien2","images/t.png","NA","practice","null","","","",""
"d3-animate-choice","38","235360","0.0-38.0","124","657","12","Male","false","false","false","false","""event"",""trial"",""time""
""fullscreenenter"",""5"",""24040""
","
","
","""event"",""trial"",""time""
""fullscreenenter"",""5"",""24040""
","
","427.2999999523163","","49","","","3000","1","","","images/tutgreenplanet.jpg","images/tutalien1","images/tutalien2","null","images/tutalien2","images/nothing.png","NA","practice","null","","","",""
"d3-animate-choice","39","237789","0.0-39.0","124","657","12","Male","false","false","false","false","""event"",""trial"",""time""
""fullscreenenter"",""5"",""24040""
","
","
","""event"",""trial"",""time""
""fullscreenenter"",""5"",""24040""
","
","422","","49","","","3000","1","","","images/tutgreenplanet.jpg","images/tutalien1","images/tutalien2","null","images/tutalien2","images/t.png","NA","practice","null","","","",""
"d3-animate-choice","40","240207","0.0-40.0","124","657","12","Male","false","false","false","false","""event"",""trial"",""time""
""fullscreenenter"",""5"",""24040""
","
","
","""event"",""trial"",""time""
""fullscreenenter"",""5"",""24040""
","
","401.39999997615814","","49","","","3000","1","","","images/tutgreenplanet.jpg","images/tutalien1","images/tutalien2","null","images/tutalien2","images/t.png","NA","practice","null","","","",""
"d3-animate-choice","41","242621","0.0-41.0","124","657","12","Male","false","false","false","false","""event"",""trial"",""time""
""fullscreenenter"",""5"",""24040""
","
","
","""event"",""trial"",""time""
""fullscreenenter"",""5"",""24040""
","
","395.2000000476837","","49","","","3000","1","","","images/tutgreenplanet.jpg","images/tutalien1","images/tutalien2","null","images/tutalien2","images/t.png","NA","practice","null","","","",""
"d3-animate-choice","42","245121","0.0-42.0","124","657","12","Male","false","false","false","false","""event"",""trial"",""time""
""fullscreenenter"",""5"",""24040""
","
","
","""event"",""trial"",""time""
""fullscreenenter"",""5"",""24040""
","
","485.1999999284744","","49","","","3000","1","","","images/tutgreenplanet.jpg","images/tutalien1","images/tutalien2","null","images/tutalien2","images/t.png","NA","practice","null","","","",""
"d3-animate-choice","43","247531","0.0-43.0","124","657","12","Male","false","false","false","false","""event"",""trial"",""time""
""fullscreenenter"",""5"",""24040""
","
","
","""event"",""trial"",""time""
""fullscreenenter"",""5"",""24040""
","
","391","","49","","","3000","1","","","images/tutgreenplanet.jpg","images/tutalien1","images/tutalien2","null","images/tutalien2","images/t.png","NA","practice","null","","","",""
"d3-instructions","44","261678","0.0-44.0","124","657","12","Male","false","false","false","false","""event"",""trial"",""time""
""fullscreenenter"",""5"",""24040""
","
","
","""event"",""trial"",""time""
""fullscreenenter"",""5"",""24040""
","
","","","","","","","","","","","","","","","","","","","","","",""
"d3-instructions","45","269045","0.0-45.0","124","657","12","Male","false","false","false","false","""event"",""trial"",""time""
""fullscreenenter"",""5"",""24040""
","
","
","""event"",""trial"",""time""
""fullscreenenter"",""5"",""24040""
","
","","","","","","","","","","","","","","","","","","","","","",""
"d3-instructions","46","273800","0.0-46.0","124","657","12","Male","false","false","false","false","""event"",""trial"",""time""
""fullscreenenter"",""5"",""24040""
","
","
","""event"",""trial"",""time""
""fullscreenenter"",""5"",""24040""
","
","","","","","","","","","","","","","","","","","","","","","",""
"d3-instructions","47","291218","0.0-47.0","124","657","12","Male","false","false","false","false","""event"",""trial"",""time""
""fullscreenenter"",""5"",""24040""
","
","
","""event"",""trial"",""time""
""fullscreenenter"",""5"",""24040""
","
","","","","","","","","","","","","","","","","","","","","","",""
"d3-instructions","48","299113","0.0-48.0","124","657","12","Male","false","false","false","false","""event"",""trial"",""time""
""fullscreenenter"",""5"",""24040""
","
","
","""event"",""trial"",""time""
""fullscreenenter"",""5"",""24040""
","
","","","","","","","","","","","","","","","","","","","","","",""
"d3-instructions","49","309745","0.0-49.0","124","657","12","Male","false","false","false","false","""event"",""trial"",""time""
""fullscreenenter"",""5"",""24040""
","
","
","""event"",""trial"",""time""
""fullscreenenter"",""5"",""24040""
","
","","","","","","","","","","","","","","","","","","","","","",""
"d3-instructions","50","319625","0.0-50.0","124","657","12","Male","false","false","false","false","""event"",""trial"",""time""
""fullscreenenter"",""5"",""24040""
","
","
","""event"",""trial"",""time""
""fullscreenenter"",""5"",""24040""
","
","","","","","","","","","","","","","","","","","","","","","",""
"d3-instructions","51","322458","0.0-51.0","124","657","12","Male","false","false","false","false","""event"",""trial"",""time""
""fullscreenenter"",""5"",""24040""
","
","
","""event"",""trial"",""time""
""fullscreenenter"",""5"",""24040""
","
","","","","","","","","","","","","","","","","","","","","","",""
"d3-instructions","52","327123","0.0-52.0","124","657","12","Male","false","false","false","false","""event"",""trial"",""time""
""fullscreenenter"",""5"",""24040""
","
","
","""event"",""trial"",""time""
""fullscreenenter"",""5"",""24040""
","
","","","","","","","","","","","","","","","","","","","","","",""
"d3-instructions","53","339104","0.0-53.0","124","657","12","Male","false","false","false","false","""event"",""trial"",""time""
""fullscreenenter"",""5"",""24040""
","
","
","""event"",""trial"",""time""
""fullscreenenter"",""5"",""24040""
","
","","","","","","","","","","","","","","","","","","","","","",""
"d3-instructions","54","353275","0.0-54.0","124","657","12","Male","false","false","false","false","""event"",""trial"",""time""
""fullscreenenter"",""5"",""24040""
","
","
","""event"",""trial"",""time""
""fullscreenenter"",""5"",""24040""
","
","","","","","","","","","","","","","","","","","","","","","",""
"d3-instructions","55","363657","0.0-55.0","124","657","12","Male","false","false","false","false","""event"",""trial"",""time""
""fullscreenenter"",""5"",""24040""
","
","
","""event"",""trial"",""time""
""fullscreenenter"",""5"",""24040""
","
","","","","","","","","","","","","","","","","","","","","","",""
"d3-instructions","56","372327","0.0-56.0","124","657","12","Male","false","false","false","false","""event"",""trial"",""time""
""fullscreenenter"",""5"",""24040""
","
","
","""event"",""trial"",""time""
""fullscreenenter"",""5"",""24040""
","
","","","","","","","","","","","","","","","","","","","","","",""
"d3-instructions","57","382968","0.0-57.0","124","657","12","Male","false","false","false","false","""event"",""trial"",""time""
""fullscreenenter"",""5"",""24040""
","
","
","""event"",""trial"",""time""
""fullscreenenter"",""5"",""24040""
","
","","","","","","","","","","","","","","","","","","","","","",""
"d3-instructions","58","393864","0.0-58.0","124","657","12","Male","false","false","false","false","""event"",""trial"",""time""
""fullscreenenter"",""5"",""24040""
","
","
","""event"",""trial"",""time""
""fullscreenenter"",""5"",""24040""
","
","","","","","","","","","","","","","","","","","","","","","",""
"d3-instructions","59","399035","0.0-59.0","124","657","12","Male","false","false","false","false","""event"",""trial"",""time""
""fullscreenenter"",""5"",""24040""
","
","
","""event"",""trial"",""time""
""fullscreenenter"",""5"",""24040""
","
","","","","","","","","","","","","","","","","","","","","","",""
"d3-instructions","60","406659","0.0-60.0","124","657","12","Male","false","false","false","false","""event"",""trial"",""time""
""fullscreenenter"",""5"",""24040""
","
","
","""event"",""trial"",""time""
""fullscreenenter"",""5"",""24040""
","
","","","","","","","","","","","","","","","","","","","","","",""
"d3-animate-choice","61","410137","0.0-61.0-0.0","124","657","12","Male","false","false","false","false","""event"",""trial"",""time""
""fullscreenenter"",""5"",""24040""
","
","
","""event"",""trial"",""time""
""fullscreenenter"",""5"",""24040""
","
","1453.3000000715256","","49","","","3000","1","","","images/earth.jpg","images/tutrocket2","images/tutrocket1","null","images/tutrocket1","","1","practice","null","1","","",""
"d3-animate-choice","62","413153","0.0-61.0-1.0","124","657","12","Male","false","false","false","false","""event"",""trial"",""time""
""fullscreenenter"",""5"",""24040""
","
","
","""event"",""trial"",""time""
""fullscreenenter"",""5"",""24040""
","
","1000.5","","49","","","3000","1","","","images/tutyellowplanet.jpg","images/tutalien4","images/tutalien3","images/tutrocket1","images/tutalien3","images/t.png","2","practice","true","1","common","1","2022-02-03 18:02:27.306"
"two-step-fixation","63","414171","0.0-61.0-2.0","124","657","12","Male","false","false","false","false","""event"",""trial"",""time""
""fullscreenenter"",""5"",""24040""
","
","
","""event"",""trial"",""time""
""fullscreenenter"",""5"",""24040""
","
","","images/earth.jpg","","","","","","","","","","","","","","fixation","","","","","",""
"d3-animate-choice","64","416802","0.0-61.0-0.1","124","657","12","Male","false","false","false","false","""event"",""trial"",""time""
""fullscreenenter"",""5"",""24040""
","
","
","""event"",""trial"",""time""
""fullscreenenter"",""5"",""24040""
","
","611.0999999046326","","49","","","3000","1","","","images/earth.jpg","images/tutrocket2","images/tutrocket1","null","images/tutrocket1","","1","practice","null","1","","",""
"d3-animate-choice","65","419398","0.0-61.0-1.1","124","657","12","Male","false","false","false","false","""event"",""trial"",""time""
""fullscreenenter"",""5"",""24040""
","
","
","""event"",""trial"",""time""
""fullscreenenter"",""5"",""24040""
","
","584.5","","49","","","3000","1","","","images/tutyellowplanet.jpg","images/tutalien4","images/tutalien3","images/tutrocket1","images/tutalien3","images/nothing.png","2","practice","true","1","common","0","2022-02-03 18:02:33.550"
"two-step-fixation","66","420403","0.0-61.0-2.1","124","657","12","Male","false","false","false","false","""event"",""trial"",""time""
""fullscreenenter"",""5"",""24040""
","
","
","""event"",""trial"",""time""
""fullscreenenter"",""5"",""24040""
","
","","images/earth.jpg","","","","","","","","","","","","","","fixation","","","","","",""
"d3-animate-choice","67","422879","0.0-61.0-0.2","124","657","12","Male","false","false","false","false","""event"",""trial"",""time""
""fullscreenenter"",""5"",""24040""
","
","
","""event"",""trial"",""time""
""fullscreenenter"",""5"",""24040""
","
","468.7000000476837","","49","","","3000","1","","","images/earth.jpg","images/tutrocket2","images/tutrocket1","null","images/tutrocket1","","1","practice","null","1","","",""
"d3-animate-choice","68","425517","0.0-61.0-1.2","124","657","12","Male","false","false","false","false","""event"",""trial"",""time""
""fullscreenenter"",""5"",""24040""
","
","
","""event"",""trial"",""time""
""fullscreenenter"",""5"",""24040""
","
","617.4000000953674","","48","","","3000","1","","","images/tutyellowplanet.jpg","images/tutalien4","images/tutalien3","images/tutrocket1","images/tutalien4","images/nothing.png","2","practice","true","2","common","0","2022-02-03 18:02:39.669"
"two-step-fixation","69","426528","0.0-61.0-2.2","124","657","12","Male","false","false","false","false","""event"",""trial"",""time""
""fullscreenenter"",""5"",""24040""
","
","
","""event"",""trial"",""time""
""fullscreenenter"",""5"",""24040""
","
","","images/earth.jpg","","","","","","","","","","","","","","fixation","","","","","",""
"d3-animate-choice","70","429082","0.0-61.0-0.3","124","657","12","Male","false","false","false","false","""event"",""trial"",""time""
""fullscreenenter"",""5"",""24040""
","
","
","""event"",""trial"",""time""
""fullscreenenter"",""5"",""24040""
","
","528.9000000953674","","48","","","3000","1","","","images/earth.jpg","images/tutrocket2","images/tutrocket1","null","images/tutrocket2","","1","practice","null","2","","",""
"d3-animate-choice","71","431683","0.0-61.0-1.3","124","657","12","Male","false","false","false","false","""event"",""trial"",""time""
""fullscreenenter"",""5"",""24040""
","
","
","""event"",""trial"",""time""
""fullscreenenter"",""5"",""24040""
","
","581.5","","48","","","3000","1","","","images/tutgreenplanet.jpg","images/tutalien2","images/tutalien1","images/tutrocket2","images/tutalien2","images/nothing.png","2","practice","true","2","common","0","2022-02-03 18:02:45.835"
"two-step-fixation","72","432698","0.0-61.0-2.3","124","657","12","Male","false","false","false","false","""event"",""trial"",""time""
""fullscreenenter"",""5"",""24040""
","
","
","""event"",""trial"",""time""
""fullscreenenter"",""5"",""24040""
","
","","images/earth.jpg","","","","","","","","","","","","","","fixation","","","","","",""
"d3-animate-choice","73","435157","0.0-61.0-0.4","124","657","12","Male","false","false","false","false","""event"",""trial"",""time""
""fullscreenenter"",""5"",""24040""
","
","
","""event"",""trial"",""time""
""fullscreenenter"",""5"",""24040""
","
","449.89999997615814","","48","","","3000","1","","","images/earth.jpg","images/tutrocket2","images/tutrocket1","null","images/tutrocket2","","1","practice","null","2","","",""
"d3-animate-choice","74","437635","0.0-61.0-1.4","124","657","12","Male","false","false","false","false","""event"",""trial"",""time""
""fullscreenenter"",""5"",""24040""
","
","
","""event"",""trial"",""time""
""fullscreenenter"",""5"",""24040""
","
","470.5","","49","","","3000","1","","","images/tutgreenplanet.jpg","images/tutalien2","images/tutalien1","images/tutrocket2","images/tutalien1","images/t.png","2","practice","true","1","common","1","2022-02-03 18:02:51.787"
"two-step-fixation","75","438639","0.0-61.0-2.4","124","657","12","Male","false","false","false","false","""event"",""trial"",""time""
""fullscreenenter"",""5"",""24040""
","
","
","""event"",""trial"",""time""
""fullscreenenter"",""5"",""24040""
","
","","images/earth.jpg","","","","","","","","","","","","","","fixation","","","","","",""
"d3-animate-choice","76","441019","0.0-61.0-0.5","124","657","12","Male","false","false","false","false","""event"",""trial"",""time""
""fullscreenenter"",""5"",""24040""
","
","
","""event"",""trial"",""time""
""fullscreenenter"",""5"",""24040""
","
","372.10000002384186","","48","","","3000","1","","","images/earth.jpg","images/tutrocket2","images/tutrocket1","null","images/tutrocket2","","1","practice","null","2","","",""
"d3-animate-choice","77","443579","0.0-61.0-1.5","124","657","12","Male","false","false","false","false","""event"",""trial"",""time""
""fullscreenenter"",""5"",""24040""
","
","
","""event"",""trial"",""time""
""fullscreenenter"",""5"",""24040""
","
","551.0999999046326","","49","","","3000","1","","","images/tutgreenplanet.jpg","images/tutalien2","images/tutalien1","images/tutrocket2","images/tutalien1","images/nothing.png","2","practice","true","1","common","0","2022-02-03 18:02:57.731"
"two-step-fixation","78","444587","0.0-61.0-2.5","124","657","12","Male","false","false","false","false","""event"",""trial"",""time""
""fullscreenenter"",""5"",""24040""
","
","
","""event"",""trial"",""time""
""fullscreenenter"",""5"",""24040""
","
","","images/earth.jpg","","","","","","","","","","","","","","fixation","","","","","",""
"d3-animate-choice","79","447077","0.0-61.0-0.6","124","657","12","Male","false","false","false","false","""event"",""trial"",""time""
""fullscreenenter"",""5"",""24040""
","
","
","""event"",""trial"",""time""
""fullscreenenter"",""5"",""24040""
","
","482.60000002384186","","49","","","3000","1","","","images/earth.jpg","images/tutrocket2","images/tutrocket1","null","images/tutrocket1","","1","practice","null","1","","",""
"d3-animate-choice","80","449673","0.0-61.0-1.6","124","657","12","Male","false","false","false","false","""event"",""trial"",""time""
""fullscreenenter"",""5"",""24040""
","
","
","""event"",""trial"",""time""
""fullscreenenter"",""5"",""24040""
","
","584.5","","49","","","3000","1","","","images/tutyellowplanet.jpg","images/tutalien4","images/tutalien3","images/tutrocket1","images/tutalien3","images/t.png","2","practice","true","1","common","1","2022-02-03 18:03:03.825"
"two-step-fixation","81","450680","0.0-61.0-2.6","124","657","12","Male","false","false","false","false","""event"",""trial"",""time""
""fullscreenenter"",""5"",""24040""
","
","
","""event"",""trial"",""time""
""fullscreenenter"",""5"",""24040""
","
","","images/earth.jpg","","","","","","","","","","","","","","fixation","","","","","",""
"d3-animate-choice","82","453055","0.0-61.0-0.7","124","657","12","Male","false","false","false","false","""event"",""trial"",""time""
""fullscreenenter"",""5"",""24040""
","
","
","""event"",""trial"",""time""
""fullscreenenter"",""5"",""24040""
","
","365","","49","","","3000","1","","","images/earth.jpg","images/tutrocket2","images/tutrocket1","null","images/tutrocket1","","1","practice","null","1","","",""
"d3-animate-choice","83","455539","0.0-61.0-1.7","124","657","12","Male","false","false","false","false","""event"",""trial"",""time""
""fullscreenenter"",""5"",""24040""
","
","
","""event"",""trial"",""time""
""fullscreenenter"",""5"",""24040""
","
","472.39999997615814","","49","","","3000","1","","","images/tutyellowplanet.jpg","images/tutalien4","images/tutalien3","images/tutrocket1","images/tutalien3","images/t.png","2","practice","true","1","common","1","2022-02-03 18:03:09.691"
"two-step-fixation","84","456547","0.0-61.0-2.7","124","657","12","Male","false","false","false","false","""event"",""trial"",""time""
""fullscreenenter"",""5"",""24040""
","
","
","""event"",""trial"",""time""
""fullscreenenter"",""5"",""24040""
","
","","images/earth.jpg","","","","","","","","","","","","","","fixation","","","","","",""
"d3-animate-choice","85","458906","0.0-61.0-0.8","124","657","12","Male","false","false","false","false","""event"",""trial"",""time""
""fullscreenenter"",""5"",""24040""
","
","
","""event"",""trial"",""time""
""fullscreenenter"",""5"",""24040""
","
","349","","49","","","3000","1","","","images/earth.jpg","images/tutrocket2","images/tutrocket1","null","images/tutrocket1","","1","practice","null","1","","",""
"d3-animate-choice","86","461710","0.0-61.0-1.8","124","657","12","Male","false","false","false","false","""event"",""trial"",""time""
""fullscreenenter"",""5"",""24040""
","
","
","""event"",""trial"",""time""
""fullscreenenter"",""5"",""24040""
","
","793.5","","49","","","3000","1","","","images/tutyellowplanet.jpg","images/tutalien4","images/tutalien3","images/tutrocket1","images/tutalien3","images/nothing.png","2","practice","true","1","common","0","2022-02-03 18:03:15.862"
"two-step-fixation","87","462717","0.0-61.0-2.8","124","657","12","Male","false","false","false","false","""event"",""trial"",""time""
""fullscreenenter"",""5"",""24040""
","
","
","""event"",""trial"",""time""
""fullscreenenter"",""5"",""24040""
","
","","images/earth.jpg","","","","","","","","","","","","","","fixation","","","","","",""
"d3-animate-choice","88","465229","0.0-61.0-0.9","124","657","12","Male","false","false","false","false","""event"",""trial"",""time""
""fullscreenenter"",""5"",""24040""
","
","
","""event"",""trial"",""time""
""fullscreenenter"",""5"",""24040""
","
","501.60000002384186","","49","","","3000","1","","","images/earth.jpg","images/tutrocket2","images/tutrocket1","null","images/tutrocket1","","1","practice","null","1","","",""
"d3-animate-choice","89","467778","0.0-61.0-1.9","124","657","12","Male","false","false","false","false","""event"",""trial"",""time""
""fullscreenenter"",""5"",""24040""
","
","
","""event"",""trial"",""time""
""fullscreenenter"",""5"",""24040""
","
","539.6000000238419","","49","","","3000","1","","","images/tutyellowplanet.jpg","images/tutalien4","images/tutalien3","images/tutrocket1","images/tutalien3","images/nothing.png","2","practice","true","1","common","0","2022-02-03 18:03:21.930"
"two-step-fixation","90","468785","0.0-61.0-2.9","124","657","12","Male","false","false","false","false","""event"",""trial"",""time""
""fullscreenenter"",""5"",""24040""
","
","
","""event"",""trial"",""time""
""fullscreenenter"",""5"",""24040""
","
","","images/earth.jpg","","","","","","","","","","","","","","fixation","","","","","",""
"d3-animate-choice","91","471341","0.0-61.0-0.10","124","657","12","Male","false","false","false","false","""event"",""trial"",""time""
""fullscreenenter"",""5"",""24040""
","
","
","""event"",""trial"",""time""
""fullscreenenter"",""5"",""24040""
","
","549.1000000238419","","48","","","3000","1","","","images/earth.jpg","images/tutrocket2","images/tutrocket1","null","images/tutrocket2","","1","practice","null","2","","",""
"d3-animate-choice","92","474439","0.0-61.0-1.10","124","657","12","Male","false","false","false","false","""event"",""trial"",""time""
""fullscreenenter"",""5"",""24040""
","
","
","""event"",""trial"",""time""
""fullscreenenter"",""5"",""24040""
","
","1086.6999999284744","","49","","","3000","1","","","images/tutgreenplanet.jpg","images/tutalien2","images/tutalien1","images/tutrocket2","images/tutalien1","images/nothing.png","2","practice","true","1","common","0","2022-02-03 18:03:28.592"
"two-step-fixation","93","475447","0.0-61.0-2.10","124","657","12","Male","false","false","false","false","""event"",""trial"",""time""
""fullscreenenter"",""5"",""24040""
","
","
","""event"",""trial"",""time""
""fullscreenenter"",""5"",""24040""
","
","","images/earth.jpg","","","","","","","","","","","","","","fixation","","","","","",""
"d3-animate-choice","94","477925","0.0-61.0-0.11","124","657","12","Male","false","false","false","false","""event"",""trial"",""time""
""fullscreenenter"",""5"",""24040""
","
","
","""event"",""trial"",""time""
""fullscreenenter"",""5"",""24040""
","
","470.10000002384186","","49","","","3000","1","","","images/earth.jpg","images/tutrocket2","images/tutrocket1","null","images/tutrocket1","","1","practice","null","1","","",""
"d3-animate-choice","95","480444","0.0-61.0-1.11","124","657","12","Male","false","false","false","false","""event"",""trial"",""time""
""fullscreenenter"",""5"",""24040""
","
","
","""event"",""trial"",""time""
""fullscreenenter"",""5"",""24040""
","
","508.5","","48","","","3000","1","","","images/tutgreenplanet.jpg","images/tutalien2","images/tutalien1","images/tutrocket1","images/tutalien2","images/nothing.png","2","practice","false","2","rare","0","2022-02-03 18:03:34.596"
"two-step-fixation","96","481452","0.0-61.0-2.11","124","657","12","Male","false","false","false","false","""event"",""trial"",""time""
""fullscreenenter"",""5"",""24040""
","
","
","""event"",""trial"",""time""
""fullscreenenter"",""5"",""24040""
","
","","images/earth.jpg","","","","","","","","","","","","","","fixation","","","","","",""
"d3-animate-choice","97","483881","0.0-61.0-0.12","124","657","12","Male","false","false","false","false","""event"",""trial"",""time""
""fullscreenenter"",""5"",""24040""
","
","
","""event"",""trial"",""time""
""fullscreenenter"",""5"",""24040""
","
","421.89999997615814","","49","","","3000","1","","","images/earth.jpg","images/tutrocket2","images/tutrocket1","null","images/tutrocket1","","1","practice","null","1","","",""
"d3-animate-choice","98","486390","0.0-61.0-1.12","124","657","12","Male","false","false","false","false","""event"",""trial"",""time""
""fullscreenenter"",""5"",""24040""
","
","
","""event"",""trial"",""time""
""fullscreenenter"",""5"",""24040""
","
","499.7999999523163","","49","","","3000","1","","","images/tutgreenplanet.jpg","images/tutalien2","images/tutalien1","images/tutrocket1","images/tutalien1","images/nothing.png","2","practice","false","1","rare","0","2022-02-03 18:03:40.542"
"two-step-fixation","99","487398","0.0-61.0-2.12","124","657","12","Male","false","false","false","false","""event"",""trial"",""time""
""fullscreenenter"",""5"",""24040""
","
","
","""event"",""trial"",""time""
""fullscreenenter"",""5"",""24040""
","
","","images/earth.jpg","","","","","","","","","","","","","","fixation","","","","","",""
"d3-animate-choice","100","489965","0.0-61.0-0.13","124","657","12","Male","false","false","false","false","""event"",""trial"",""time""
""fullscreenenter"",""5"",""24040""
","
","
","""event"",""trial"",""time""
""fullscreenenter"",""5"",""24040""
","
","559.8000000715256","","48","","","3000","1","","","images/earth.jpg","images/tutrocket2","images/tutrocket1","null","images/tutrocket2","","1","practice","null","2","","",""
"d3-animate-choice","101","492611","0.0-61.0-1.13","124","657","12","Male","false","false","false","false","""event"",""trial"",""time""
""fullscreenenter"",""5"",""24040""
","
","
","""event"",""trial"",""time""
""fullscreenenter"",""5"",""24040""
","
","635.7999999523163","","49","","","3000","1","","","images/tutgreenplanet.jpg","images/tutalien2","images/tutalien1","images/tutrocket2","images/tutalien1","images/nothing.png","2","practice","true","1","common","0","2022-02-03 18:03:46.764"
"two-step-fixation","102","493619","0.0-61.0-2.13","124","657","12","Male","false","false","false","false","""event"",""trial"",""time""
""fullscreenenter"",""5"",""24040""
","
","
","""event"",""trial"",""time""
""fullscreenenter"",""5"",""24040""
","
","","images/earth.jpg","","","","","","","","","","","","","","fixation","","","","","",""
"d3-animate-choice","103","496062","0.0-61.0-0.14","124","657","12","Male","false","false","false","false","""event"",""trial"",""time""
""fullscreenenter"",""5"",""24040""
","
","
","""event"",""trial"",""time""
""fullscreenenter"",""5"",""24040""
","
","435.39999997615814","","48","","","3000","1","","","images/earth.jpg","images/tutrocket2","images/tutrocket1","null","images/tutrocket2","","1","practice","null","2","","",""
"d3-animate-choice","104","498939","0.0-61.0-1.14","124","657","12","Male","false","false","false","false","""event"",""trial"",""time""
""fullscreenenter"",""5"",""24040""
","
","
","""event"",""trial"",""time""
""fullscreenenter"",""5"",""24040""
","
","867.8999999761581","","48","","","3000","1","","","images/tutyellowplanet.jpg","images/tutalien4","images/tutalien3","images/tutrocket2","images/tutalien4","images/t.png","2","practice","false","2","rare","1","2022-02-03 18:03:53.092"
"two-step-fixation","105","499947","0.0-61.0-2.14","124","657","12","Male","false","false","false","false","""event"",""trial"",""time""
""fullscreenenter"",""5"",""24040""
","
","
","""event"",""trial"",""time""
""fullscreenenter"",""5"",""24040""
","
","","images/earth.jpg","","","","","","","","","","","","","","fixation","","","","","",""
"d3-animate-choice","106","502477","0.0-61.0-0.15","124","657","12","Male","false","false","false","false","""event"",""trial"",""time""
""fullscreenenter"",""5"",""24040""
","
","
","""event"",""trial"",""time""
""fullscreenenter"",""5"",""24040""
","
","520.6999999284744","","48","","","3000","1","","","images/earth.jpg","images/tutrocket2","images/tutrocket1","null","images/tutrocket2","","1","practice","null","2","","",""
"d3-animate-choice","107","505682","0.0-61.0-1.15","124","657","12","Male","false","false","false","false","""event"",""trial"",""time""
""fullscreenenter"",""5"",""24040""
","
","
","""event"",""trial"",""time""
""fullscreenenter"",""5"",""24040""
","
","1193.2000000476837","","49","","","3000","1","","","images/tutgreenplanet.jpg","images/tutalien2","images/tutalien1","images/tutrocket2","images/tutalien1","images/t.png","2","practice","true","1","common","1","2022-02-03 18:03:59.834"
"two-step-fixation","108","506689","0.0-61.0-2.15","124","657","12","Male","false","false","false","false","""event"",""trial"",""time""
""fullscreenenter"",""5"",""24040""
","
","
","""event"",""trial"",""time""
""fullscreenenter"",""5"",""24040""
","
","","images/earth.jpg","","","","","","","","","","","","","","fixation","","","","","",""
"d3-animate-choice","109","509361","0.0-61.0-0.16","124","657","12","Male","false","false","false","false","""event"",""trial"",""time""
""fullscreenenter"",""5"",""24040""
","
","
","""event"",""trial"",""time""
""fullscreenenter"",""5"",""24040""
","
","663.5","","48","","","3000","1","","","images/earth.jpg","images/tutrocket2","images/tutrocket1","null","images/tutrocket2","","1","practice","null","2","","",""
"d3-animate-choice","110","512187","0.0-61.0-1.16","124","657","12","Male","false","false","false","false","""event"",""trial"",""time""
""fullscreenenter"",""5"",""24040""
","
","
","""event"",""trial"",""time""
""fullscreenenter"",""5"",""24040""
","
","813","","49","","","3000","1","","","images/tutgreenplanet.jpg","images/tutalien2","images/tutalien1","images/tutrocket2","images/tutalien1","images/t.png","2","practice","true","1","common","1","2022-02-03 18:04:06.339"
"two-step-fixation","111","513194","0.0-61.0-2.16","124","657","12","Male","false","false","false","false","""event"",""trial"",""time""
""fullscreenenter"",""5"",""24040""
","
","
","""event"",""trial"",""time""
""fullscreenenter"",""5"",""24040""
","
","","images/earth.jpg","","","","","","","","","","","","","","fixation","","","","","",""
"d3-animate-choice","112","516030","0.0-61.0-0.17","124","657","12","Male","false","false","false","false","""event"",""trial"",""time""
""fullscreenenter"",""5"",""24040""
","
","
","""event"",""trial"",""time""
""fullscreenenter"",""5"",""24040""
","
","828.1000000238419","","48","","","3000","1","","","images/earth.jpg","images/tutrocket2","images/tutrocket1","null","images/tutrocket2","","1","practice","null","2","","",""
"d3-animate-choice","113","518912","0.0-61.0-1.17","124","657","12","Male","false","false","false","false","""event"",""trial"",""time""
""fullscreenenter"",""5"",""24040""
","
","
","""event"",""trial"",""time""
""fullscreenenter"",""5"",""24040""
","
","870.8999999761581","","49","","","3000","1","","","images/tutgreenplanet.jpg","images/tutalien2","images/tutalien1","images/tutrocket2","images/tutalien1","images/nothing.png","2","practice","true","1","common","0","2022-02-03 18:04:13.064"
"two-step-fixation","114","519920","0.0-61.0-2.17","124","657","12","Male","false","false","false","false","""event"",""trial"",""time""
""fullscreenenter"",""5"",""24040""
","
","
","""event"",""trial"",""time""
""fullscreenenter"",""5"",""24040""
","
","","images/earth.jpg","","","","","","","","","","","","","","fixation","","","","","",""
"d3-animate-choice","115","522420","0.0-61.0-0.18","124","657","12","Male","false","false","false","false","""event"",""trial"",""time""
""fullscreenenter"",""5"",""24040""
","
","
","""event"",""trial"",""time""
""fullscreenenter"",""5"",""24040""
","
","490.89999997615814","","49","","","3000","1","","","images/earth.jpg","images/tutrocket2","images/tutrocket1","null","images/tutrocket1","","1","practice","null","1","","",""
"d3-animate-choice","116","525304","0.0-61.0-1.18","124","657","12","Male","false","false","false","false","""event"",""trial"",""time""
""fullscreenenter"",""5"",""24040""
","
","
","""event"",""trial"",""time""
""fullscreenenter"",""5"",""24040""
","
","870.2999999523163","","48","","","3000","1","","","images/tutyellowplanet.jpg","images/tutalien4","images/tutalien3","images/tutrocket1","images/tutalien4","images/nothing.png","2","practice","true","2","common","0","2022-02-03 18:04:19.456"
"two-step-fixation","117","526310","0.0-61.0-2.18","124","657","12","Male","false","false","false","false","""event"",""trial"",""time""
""fullscreenenter"",""5"",""24040""
","
","
","""event"",""trial"",""time""
""fullscreenenter"",""5"",""24040""
","
","","images/earth.jpg","","","","","","","","","","","","","","fixation","","","","","",""
"d3-animate-choice","118","528965","0.0-61.0-0.19","124","657","12","Male","false","false","false","false","""event"",""trial"",""time""
""fullscreenenter"",""5"",""24040""
","
","
","""event"",""trial"",""time""
""fullscreenenter"",""5"",""24040""
","
","646.8000000715256","","49","","","3000","1","","","images/earth.jpg","images/tutrocket2","images/tutrocket1","null","images/tutrocket1","","1","practice","null","1","","",""
"d3-animate-choice","119","531450","0.0-61.0-1.19","124","657","12","Male","false","false","false","false","""event"",""trial"",""time""
""fullscreenenter"",""5"",""24040""
","
","
","""event"",""trial"",""time""
""fullscreenenter"",""5"",""24040""
","
","473.60000002384186","","49","","","3000","1","","","images/tutyellowplanet.jpg","images/tutalien4","images/tutalien3","images/tutrocket1","images/tutalien3","images/nothing.png","2","practice","true","1","common","0","2022-02-03 18:04:25.602"
"two-step-fixation","120","532457","0.0-61.0-2.19","124","657","12","Male","false","false","false","false","""event"",""trial"",""time""
""fullscreenenter"",""5"",""24040""
","
","
","""event"",""trial"",""time""
""fullscreenenter"",""5"",""24040""
","
","","images/earth.jpg","","","","","","","","","","","","","","fixation","","","","","",""
"d3-instructions","121","539761","0.0-62.0","124","657","12","Male","false","false","false","false","""event"",""trial"",""time""
""fullscreenenter"",""5"",""24040""
","
","
","""event"",""trial"",""time""
""fullscreenenter"",""5"",""24040""
","
","","","","","","","","","","","","","","","","","","","","","",""
"audio-keyboard-response","122","546499","0.0-63.0","124","657","12","Male","false","false","false","false","""event"",""trial"",""time""
""fullscreenenter"",""5"",""24040""
","
","
","""event"",""trial"",""time""
""fullscreenenter"",""5"",""24040""
","
","6731","audio/instructions/treasure_feedback.wav","32","","","","","","","","","","","","","","","","","","",""
"d3-instructions","123","566086","0.0-64.0","124","657","12","Male","false","false","false","false","""event"",""trial"",""time""
""fullscreenenter"",""5"",""24040""
","
","
","""event"",""trial"",""time""
""fullscreenenter"",""5"",""24040""
","
","","","","","","","","","","","","","","","","","","","","","",""
"d3-instructions","124","579995","0.0-65.0","124","657","12","Male","false","false","false","false","""event"",""trial"",""time""
""fullscreenenter"",""5"",""24040""
","
","
","""event"",""trial"",""time""
""fullscreenenter"",""5"",""24040""
","
","","","","","","","","","","","","","","","","","","","","","",""
"d3-instructions","125","604617","0.0-66.0","124","657","12","Male","false","false","false","false","""event"",""trial"",""time""
""fullscreenenter"",""5"",""24040""
","
","
","""event"",""trial"",""time""
""fullscreenenter"",""5"",""24040""
","
","","","","","","","","","","","","","","","","","","","","","",""
"d3-instructions","126","620565","0.0-67.0","124","657","12","Male","false","false","false","false","""event"",""trial"",""time""
""fullscreenenter"",""5"",""24040""
","
","
","""event"",""trial"",""time""
""fullscreenenter"",""5"",""24040""
","
","","","","","","","","","","","","","","","","","","","","","",""
"d3-instructions","127","628927","0.0-68.0","124","657","12","Male","false","false","false","false","""event"",""trial"",""time""
""fullscreenenter"",""5"",""24040""
","
","
","""event"",""trial"",""time""
""fullscreenenter"",""5"",""24040""
","
","","","","","","","","","","","","","","","","","","","","","",""
"instructions-quiz","128","632534","0.0-69.0","124","657","12","Male","false","false","false","false","""event"",""trial"",""time""
""fullscreenenter"",""5"",""24040""
","
","
","""event"",""trial"",""time""
""fullscreenenter"",""5"",""24040""
","
","3602.5","audio/quiz/Q1_Prompt.wav","","1","","","","","","","","","","","","","","","","","",""
"audio-keyboard-response","129","641703","0.0-70.0","124","657","12","Male","false","false","false","false","""event"",""trial"",""time""
""fullscreenenter"",""5"",""24040""
","
","
","""event"",""trial"",""time""
""fullscreenenter"",""5"",""24040""
","
","null","audio/quiz/Q1_Correct.wav","null","","","","","","","","","","","","","","","","","","",""
"instructions-quiz","130","648127","0.0-71.0","124","657","12","Male","false","false","false","false","""event"",""trial"",""time""
""fullscreenenter"",""5"",""24040""
","
","
","""event"",""trial"",""time""
""fullscreenenter"",""5"",""24040""
","
","6421","audio/quiz/Q2_Prompt.wav","","0","","","","","","","","","","","","","","","","","",""
"audio-keyboard-response","131","660995","0.0-72.0","124","657","12","Male","false","false","false","false","""event"",""trial"",""time""
""fullscreenenter"",""5"",""24040""
","
","
","""event"",""trial"",""time""
""fullscreenenter"",""5"",""24040""
","
","null","audio/quiz/Q2_Correct.wav","null","","","","","","","","","","","","","","","","","","",""
"instructions-quiz","132","665397","0.0-73.0","124","657","12","Male","false","false","false","false","""event"",""trial"",""time""
""fullscreenenter"",""5"",""24040""
","
","
","""event"",""trial"",""time""
""fullscreenenter"",""5"",""24040""
","
","4397.800000071526","audio/quiz/Q3_Prompt.wav","","1","","","","","","","","","","","","","","","","","",""
"audio-keyboard-response","133","671195","0.0-74.0","124","657","12","Male","false","false","false","false","""event"",""trial"",""time""
""fullscreenenter"",""5"",""24040""
","
","
","""event"",""trial"",""time""
""fullscreenenter"",""5"",""24040""
","
","null","audio/quiz/Q3_Correct.wav","null","","","","","","","","","","","","","","","","","","",""
"d3-instructions","134","684575","0.0-75.0","124","657","12","Male","false","false","false","false","""event"",""trial"",""time""
""fullscreenenter"",""5"",""24040""
","
","
","""event"",""trial"",""time""
""fullscreenenter"",""5"",""24040""
","
","","","","","","","","","","","","","","","","","","","","","",""
"d3-animate-choice","135","688124","0.0-76.0-0.0","124","657","12","Male","false","false","false","false","""event"",""trial"",""time""
""fullscreenenter"",""5"",""24040""
","
","
","""event"",""trial"",""time""
""fullscreenenter"",""5"",""24040""
","
","1539.1000000238419","","49","","","3000","1","","","images/earth.jpg","images/rocket1","images/rocket2","null","images/rocket2","","1","real","null","1","","",""
"d3-animate-choice","136","691027","0.0-76.0-1.0","124","657","12","Male","false","false","false","false","""event"",""trial"",""time""
""fullscreenenter"",""5"",""24040""
","
","
","""event"",""trial"",""time""
""fullscreenenter"",""5"",""24040""
","
","890.2999999523163","","49","","","3000","1","","","images/redplanet1.jpg","images/alien2","images/alien1","images/rocket2","images/alien1","images/nothing.png","2","real","true","1","common","0","2022-02-03 18:07:05.179"
"two-step-fixation","137","692035","0.0-76.0-2.0","124","657","12","Male","false","false","false","false","""event"",""trial"",""time""
""fullscreenenter"",""5"",""24040""
","
","
","""event"",""trial"",""time""
""fullscreenenter"",""5"",""24040""
","
","","images/earth.jpg","","","","","","","","","","","","","","fixation","","","","","",""
"d3-animate-choice","138","694524","0.0-76.0-0.1","124","657","12","Male","false","false","false","false","""event"",""trial"",""time""
""fullscreenenter"",""5"",""24040""
","
","
","""event"",""trial"",""time""
""fullscreenenter"",""5"",""24040""
","
","476.7999999523163","","49","","","3000","1","","","images/earth.jpg","images/rocket1","images/rocket2","null","images/rocket2","","1","real","null","1","","",""
"d3-animate-choice","139","697297","0.0-76.0-1.1","124","657","12","Male","false","false","false","false","""event"",""trial"",""time""
""fullscreenenter"",""5"",""24040""
","
","
","""event"",""trial"",""time""
""fullscreenenter"",""5"",""24040""
","
","756.7000000476837","","48","","","3000","1","","","images/redplanet1.jpg","images/alien2","images/alien1","images/rocket2","images/alien2","images/nothing.png","2","real","true","2","common","0","2022-02-03 18:07:11.449"
"two-step-fixation","140","698309","0.0-76.0-2.1","124","657","12","Male","false","false","false","false","""event"",""trial"",""time""
""fullscreenenter"",""5"",""24040""
","
","
","""event"",""trial"",""time""
""fullscreenenter"",""5"",""24040""
","
","","images/earth.jpg","","","","","","","","","","","","","","fixation","","","","","",""
"d3-animate-choice","141","700827","0.0-76.0-0.2","124","657","12","Male","false","false","false","false","""event"",""trial"",""time""
""fullscreenenter"",""5"",""24040""
","
","
","""event"",""trial"",""time""
""fullscreenenter"",""5"",""24040""
","
","509.5","","48","","","3000","1","","","images/earth.jpg","images/rocket1","images/rocket2","null","images/rocket1","","1","real","null","2","","",""
"d3-animate-choice","142","704125","0.0-76.0-1.2","124","657","12","Male","false","false","false","false","""event"",""trial"",""time""
""fullscreenenter"",""5"",""24040""
","
","
","""event"",""trial"",""time""
""fullscreenenter"",""5"",""24040""
","
","1285.3000000715256","","49","","","3000","1","","","images/purpleplanet.jpg","images/alien4","images/alien3","images/rocket1","images/alien3","images/t.png","2","real","true","1","common","1","2022-02-03 18:07:18.277"
"two-step-fixation","143","705132","0.0-76.0-2.2","124","657","12","Male","false","false","false","false","""event"",""trial"",""time""
""fullscreenenter"",""5"",""24040""
","
","
","""event"",""trial"",""time""
""fullscreenenter"",""5"",""24040""
","
","","images/earth.jpg","","","","","","","","","","","","","","fixation","","","","","",""
"d3-animate-choice","144","707597","0.0-76.0-0.3","124","657","12","Male","false","false","false","false","""event"",""trial"",""time""
""fullscreenenter"",""5"",""24040""
","
","
","""event"",""trial"",""time""
""fullscreenenter"",""5"",""24040""
","
","454.5","","48","","","3000","1","","","images/earth.jpg","images/rocket1","images/rocket2","null","images/rocket1","","1","real","null","2","","",""
"d3-animate-choice","145","710164","0.0-76.0-1.3","124","657","12","Male","false","false","false","false","""event"",""trial"",""time""
""fullscreenenter"",""5"",""24040""
","
","
","""event"",""trial"",""time""
""fullscreenenter"",""5"",""24040""
","
","536.2999999523163","","49","","","3000","1","","","images/purpleplanet.jpg","images/alien4","images/alien3","images/rocket1","images/alien3","images/t.png","2","real","true","1","common","1","2022-02-03 18:07:24.316"
"two-step-fixation","146","711184","0.0-76.0-2.3","124","657","12","Male","false","false","false","false","""event"",""trial"",""time""
""fullscreenenter"",""5"",""24040""
","
","
","""event"",""trial"",""time""
""fullscreenenter"",""5"",""24040""
","
","","images/earth.jpg","","","","","","","","","","","","","","fixation","","","","","",""
"d3-animate-choice","147","713700","0.0-76.0-0.4","124","657","12","Male","false","false","false","false","""event"",""trial"",""time""
""fullscreenenter"",""5"",""24040""
","
","
","""event"",""trial"",""time""
""fullscreenenter"",""5"",""24040""
","
","505.39999997615814","","48","","","3000","1","","","images/earth.jpg","images/rocket1","images/rocket2","null","images/rocket1","","1","real","null","2","","",""
"d3-animate-choice","148","716259","0.0-76.0-1.4","124","657","12","Male","false","false","false","false","""event"",""trial"",""time""
""fullscreenenter"",""5"",""24040""
","
","
","""event"",""trial"",""time""
""fullscreenenter"",""5"",""24040""
","
","550.5","","49","","","3000","1","","","images/redplanet1.jpg","images/alien2","images/alien1","images/rocket1","images/alien1","images/nothing.png","2","real","false","1","rare","0","2022-02-03 18:07:30.412"
"two-step-fixation","149","717268","0.0-76.0-2.4","124","657","12","Male","false","false","false","false","""event"",""trial"",""time""
""fullscreenenter"",""5"",""24040""
","
","
","""event"",""trial"",""time""
""fullscreenenter"",""5"",""24040""
","
","","images/earth.jpg","","","","","","","","","","","","","","fixation","","","","","",""
"d3-animate-choice","150","719679","0.0-76.0-0.5","124","657","12","Male","false","false","false","false","""event"",""trial"",""time""
""fullscreenenter"",""5"",""24040""
","
","
","""event"",""trial"",""time""
""fullscreenenter"",""5"",""24040""
","
","402","","48","","","3000","1","","","images/earth.jpg","images/rocket1","images/rocket2","null","images/rocket1","","1","real","null","2","","",""
"d3-animate-choice","151","722222","0.0-76.0-1.5","124","657","12","Male","false","false","false","false","""event"",""trial"",""time""
""fullscreenenter"",""5"",""24040""
","
","
","""event"",""trial"",""time""
""fullscreenenter"",""5"",""24040""
","
","533.1000000238419","","49","","","3000","1","","","images/purpleplanet.jpg","images/alien4","images/alien3","images/rocket1","images/alien3","images/nothing.png","2","real","true","1","common","0","2022-02-03 18:07:36.374"
"two-step-fixation","152","723230","0.0-76.0-2.5","124","657","12","Male","false","false","false","false","""event"",""trial"",""time""
""fullscreenenter"",""5"",""24040""
","
","
","""event"",""trial"",""time""
""fullscreenenter"",""5"",""24040""
","
","","images/earth.jpg","","","","","","","","","","","","","","fixation","","","","","",""
"d3-animate-choice","153","725701","0.0-76.0-0.6","124","657","12","Male","false","false","false","false","""event"",""trial"",""time""
""fullscreenenter"",""5"",""24040""
","
","
","""event"",""trial"",""time""
""fullscreenenter"",""5"",""24040""
","
","461.09999990463257","","48","","","3000","1","","","images/earth.jpg","images/rocket1","images/rocket2","null","images/rocket1","","1","real","null","2","","",""
"d3-animate-choice","154","728207","0.0-76.0-1.6","124","657","12","Male","false","false","false","false","""event"",""trial"",""time""
""fullscreenenter"",""5"",""24040""
","
","
","""event"",""trial"",""time""
""fullscreenenter"",""5"",""24040""
","
","494.5","","49","","","3000","1","","","images/purpleplanet.jpg","images/alien4","images/alien3","images/rocket1","images/alien3","images/nothing.png","2","real","true","1","common","0","2022-02-03 18:07:42.359"
"two-step-fixation","155","729216","0.0-76.0-2.6","124","657","12","Male","false","false","false","false","""event"",""trial"",""time""
""fullscreenenter"",""5"",""24040""
","
","
","""event"",""trial"",""time""
""fullscreenenter"",""5"",""24040""
","
","","images/earth.jpg","","","","","","","","","","","","","","fixation","","","","","",""
"d3-animate-choice","156","732188","0.0-76.0-0.7","124","657","12","Male","false","false","false","false","""event"",""trial"",""time""
""fullscreenenter"",""5"",""24040""
","
","
","""event"",""trial"",""time""
""fullscreenenter"",""5"",""24040""
","
","960.6999999284744","","48","","","3000","1","","","images/earth.jpg","images/rocket1","images/rocket2","null","images/rocket1","","1","real","null","2","","",""
"d3-animate-choice","157","734733","0.0-76.0-1.7","124","657","12","Male","false","false","false","false","""event"",""trial"",""time""
""fullscreenenter"",""5"",""24040""
","
","
","""event"",""trial"",""time""
""fullscreenenter"",""5"",""24040""
","
","532.8000000715256","","49","","","3000","1","","","images/redplanet1.jpg","images/alien2","images/alien1","images/rocket1","images/alien1","images/nothing.png","2","real","false","1","rare","0","2022-02-03 18:07:48.885"
"two-step-fixation","158","735740","0.0-76.0-2.7","124","657","12","Male","false","false","false","false","""event"",""trial"",""time""
""fullscreenenter"",""5"",""24040""
","
","
","""event"",""trial"",""time""
""fullscreenenter"",""5"",""24040""
","
","","images/earth.jpg","","","","","","","","","","","","","","fixation","","","","","",""
"d3-animate-choice","159","738303","0.0-76.0-0.8","124","657","12","Male","false","false","false","false","""event"",""trial"",""time""
""fullscreenenter"",""5"",""24040""
","
","
","""event"",""trial"",""time""
""fullscreenenter"",""5"",""24040""
","
","552.8999999761581","","48","","","3000","1","","","images/earth.jpg","images/rocket1","images/rocket2","null","images/rocket1","","1","real","null","2","","",""
"d3-animate-choice","160","740810","0.0-76.0-1.8","124","657","12","Male","false","false","false","false","""event"",""trial"",""time""
""fullscreenenter"",""5"",""24040""
","
","
","""event"",""trial"",""time""
""fullscreenenter"",""5"",""24040""
","
","496.3000000715256","","49","","","3000","1","","","images/redplanet1.jpg","images/alien2","images/alien1","images/rocket1","images/alien1","images/nothing.png","2","real","false","1","rare","0","2022-02-03 18:07:54.963"
"two-step-fixation","161","741818","0.0-76.0-2.8","124","657","12","Male","false","false","false","false","""event"",""trial"",""time""
""fullscreenenter"",""5"",""24040""
","
","
","""event"",""trial"",""time""
""fullscreenenter"",""5"",""24040""
","
","","images/earth.jpg","","","","","","","","","","","","","","fixation","","","","","",""
"d3-animate-choice","162","744288","0.0-76.0-0.9","124","657","12","Male","false","false","false","false","""event"",""trial"",""time""
""fullscreenenter"",""5"",""24040""
","
","
","""event"",""trial"",""time""
""fullscreenenter"",""5"",""24040""
","
","459.2999999523163","","48","","","3000","1","","","images/earth.jpg","images/rocket1","images/rocket2","null","images/rocket1","","1","real","null","2","","",""
"d3-animate-choice","163","747358","0.0-76.0-1.9","124","657","12","Male","false","false","false","false","""event"",""trial"",""time""
""fullscreenenter"",""5"",""24040""
","
","
","""event"",""trial"",""time""
""fullscreenenter"",""5"",""24040""
","
","1056.7000000476837","","49","","","3000","1","","","images/purpleplanet.jpg","images/alien4","images/alien3","images/rocket1","images/alien3","images/t.png","2","real","true","1","common","1","2022-02-03 18:08:01.510"
"two-step-fixation","164","748365","0.0-76.0-2.9","124","657","12","Male","false","false","false","false","""event"",""trial"",""time""
""fullscreenenter"",""5"",""24040""
","
","
","""event"",""trial"",""time""
""fullscreenenter"",""5"",""24040""
","
","","images/earth.jpg","","","","","","","","","","","","","","fixation","","","","","",""
"d3-animate-choice","165","750981","0.0-76.0-0.10","124","657","12","Male","false","false","false","false","""event"",""trial"",""time""
""fullscreenenter"",""5"",""24040""
","
","
","""event"",""trial"",""time""
""fullscreenenter"",""5"",""24040""
","
","606.6000000238419","","49","","","3000","1","","","images/earth.jpg","images/rocket1","images/rocket2","null","images/rocket2","","1","real","null","1","","",""
"d3-animate-choice","166","753948","0.0-76.0-1.10","124","657","12","Male","false","false","false","false","""event"",""trial"",""time""
""fullscreenenter"",""5"",""24040""
","
","
","""event"",""trial"",""time""
""fullscreenenter"",""5"",""24040""
","
","954.7999999523163","","48","","","3000","1","","","images/redplanet1.jpg","images/alien2","images/alien1","images/rocket2","images/alien2","images/t.png","2","real","true","2","common","1","2022-02-03 18:08:08.100"
"two-step-fixation","167","754957","0.0-76.0-2.10","124","657","12","Male","false","false","false","false","""event"",""trial"",""time""
""fullscreenenter"",""5"",""24040""
","
","
","""event"",""trial"",""time""
""fullscreenenter"",""5"",""24040""
","
","","images/earth.jpg","","","","","","","","","","","","","","fixation","","","","","",""
"d3-animate-choice","168","757463","0.0-76.0-0.11","124","657","12","Male","false","false","false","false","""event"",""trial"",""time""
""fullscreenenter"",""5"",""24040""
","
","
","""event"",""trial"",""time""
""fullscreenenter"",""5"",""24040""
","
","496","","48","","","3000","1","","","images/earth.jpg","images/rocket1","images/rocket2","null","images/rocket1","","1","real","null","2","","",""
"d3-animate-choice","169","760121","0.0-76.0-1.11","124","657","12","Male","false","false","false","false","""event"",""trial"",""time""
""fullscreenenter"",""5"",""24040""
","
","
","""event"",""trial"",""time""
""fullscreenenter"",""5"",""24040""
","
","647.8999999761581","","49","","","3000","1","","","images/purpleplanet.jpg","images/alien4","images/alien3","images/rocket1","images/alien3","images/t.png","2","real","true","1","common","1","2022-02-03 18:08:14.274"
"two-step-fixation","170","761130","0.0-76.0-2.11","124","657","12","Male","false","false","false","false","""event"",""trial"",""time""
""fullscreenenter"",""5"",""24040""
","
","
","""event"",""trial"",""time""
""fullscreenenter"",""5"",""24040""
","
","","images/earth.jpg","","","","","","","","","","","","","","fixation","","","","","",""
"d3-animate-choice","171","764148","0.0-76.0-0.12","124","657","12","Male","false","false","false","false","""event"",""trial"",""time""
""fullscreenenter"",""5"",""24040""
","
","
","""event"",""trial"",""time""
""fullscreenenter"",""5"",""24040""
","
","1008.3000000715256","","48","","","3000","1","","","images/earth.jpg","images/rocket1","images/rocket2","null","images/rocket1","","1","real","null","2","","",""
"d3-animate-choice","172","766984","0.0-76.0-1.12","124","657","12","Male","false","false","false","false","""event"",""trial"",""time""
""fullscreenenter"",""5"",""24040""
","
","
","""event"",""trial"",""time""
""fullscreenenter"",""5"",""24040""
","
","824.0999999046326","","49","","","3000","1","","","images/purpleplanet.jpg","images/alien4","images/alien3","images/rocket1","images/alien3","images/nothing.png","2","real","true","1","common","0","2022-02-03 18:08:21.136"
"two-step-fixation","173","767992","0.0-76.0-2.12","124","657","12","Male","false","false","false","false","""event"",""trial"",""time""
""fullscreenenter"",""5"",""24040""
","
","
","""event"",""trial"",""time""
""fullscreenenter"",""5"",""24040""
","
","","images/earth.jpg","","","","","","","","","","","","","","fixation","","","","","",""
"d3-animate-choice","174","770456","0.0-76.0-0.13","124","657","12","Male","false","false","false","false","""event"",""trial"",""time""
""fullscreenenter"",""5"",""24040""
","
","
","""event"",""trial"",""time""
""fullscreenenter"",""5"",""24040""
","
","453.5","","48","","","3000","1","","","images/earth.jpg","images/rocket1","images/rocket2","null","images/rocket1","","1","real","null","2","","",""
"d3-animate-choice","175","773099","0.0-76.0-1.13","124","657","12","Male","false","false","false","false","""event"",""trial"",""time""
""fullscreenenter"",""5"",""24040""
","
","
","""event"",""trial"",""time""
""fullscreenenter"",""5"",""24040""
","
","629.1000000238419","","49","","","3000","1","","","images/purpleplanet.jpg","images/alien4","images/alien3","images/rocket1","images/alien3","images/t.png","2","real","true","1","common","1","2022-02-03 18:08:27.251"
"two-step-fixation","176","774106","0.0-76.0-2.13","124","657","12","Male","false","false","false","false","""event"",""trial"",""time""
""fullscreenenter"",""5"",""24040""
","
","
","""event"",""trial"",""time""
""fullscreenenter"",""5"",""24040""
","
","","images/earth.jpg","","","","","","","","","","","","","","fixation","","","","","",""
"d3-animate-choice","177","776956","0.0-76.0-0.14","124","657","12","Male","false","false","false","false","""event"",""trial"",""time""
""fullscreenenter"",""5"",""24040""
","
","
","""event"",""trial"",""time""
""fullscreenenter"",""5"",""24040""
","
","841.2000000476837","","48","","","3000","1","","","images/earth.jpg","images/rocket1","images/rocket2","null","images/rocket1","","1","real","null","2","","",""
"d3-animate-choice","178","779582","0.0-76.0-1.14","124","657","12","Male","false","false","false","false","""event"",""trial"",""time""
""fullscreenenter"",""5"",""24040""
","
","
","""event"",""trial"",""time""
""fullscreenenter"",""5"",""24040""
","
","615.6999999284744","","49","","","3000","1","","","images/purpleplanet.jpg","images/alien4","images/alien3","images/rocket1","images/alien3","images/nothing.png","2","real","true","1","common","0","2022-02-03 18:08:33.734"
"two-step-fixation","179","780588","0.0-76.0-2.14","124","657","12","Male","false","false","false","false","""event"",""trial"",""time""
""fullscreenenter"",""5"",""24040""
","
","
","""event"",""trial"",""time""
""fullscreenenter"",""5"",""24040""
","
","","images/earth.jpg","","","","","","","","","","","","","","fixation","","","","","",""
"d3-animate-choice","180","783266","0.0-76.0-0.15","124","657","12","Male","false","false","false","false","""event"",""trial"",""time""
""fullscreenenter"",""5"",""24040""
","
","
","""event"",""trial"",""time""
""fullscreenenter"",""5"",""24040""
","
","668.7999999523163","","48","","","3000","1","","","images/earth.jpg","images/rocket1","images/rocket2","null","images/rocket1","","1","real","null","2","","",""
"d3-animate-choice","181","786081","0.0-76.0-1.15","124","657","12","Male","false","false","false","false","""event"",""trial"",""time""
""fullscreenenter"",""5"",""24040""
","
","
","""event"",""trial"",""time""
""fullscreenenter"",""5"",""24040""
","
","806.6000000238419","","49","","","3000","1","","","images/purpleplanet.jpg","images/alien4","images/alien3","images/rocket1","images/alien3","images/nothing.png","2","real","true","1","common","0","2022-02-03 18:08:40.233"
"two-step-fixation","182","787087","0.0-76.0-2.15","124","657","12","Male","false","false","false","false","""event"",""trial"",""time""
""fullscreenenter"",""5"",""24040""
","
","
","""event"",""trial"",""time""
""fullscreenenter"",""5"",""24040""
","
","","images/earth.jpg","","","","","","","","","","","","","","fixation","","","","","",""
"d3-animate-choice","183","789888","0.0-76.0-0.16","124","657","12","Male","false","false","false","false","""event"",""trial"",""time""
""fullscreenenter"",""5"",""24040""
","
","
","""event"",""trial"",""time""
""fullscreenenter"",""5"",""24040""
","
","791.8000000715256","","48","","","3000","1","","","images/earth.jpg","images/rocket1","images/rocket2","null","images/rocket1","","1","real","null","2","","",""
"d3-animate-choice","184","793010","0.0-76.0-1.16","124","657","12","Male","false","false","false","false","""event"",""trial"",""time""
""fullscreenenter"",""5"",""24040""
","
","
","""event"",""trial"",""time""
""fullscreenenter"",""5"",""24040""
","
","1113","","48","","","3000","1","","","images/redplanet1.jpg","images/alien2","images/alien1","images/rocket1","images/alien2","images/nothing.png","2","real","false","2","rare","0","2022-02-03 18:08:47.162"
"two-step-fixation","185","794013","0.0-76.0-2.16","124","657","12","Male","false","false","false","false","""event"",""trial"",""time""
""fullscreenenter"",""5"",""24040""
","
","
","""event"",""trial"",""time""
""fullscreenenter"",""5"",""24040""
","
","","images/earth.jpg","","","","","","","","","","","","","","fixation","","","","","",""
"d3-animate-choice","186","796692","0.0-76.0-0.17","124","657","12","Male","false","false","false","false","""event"",""trial"",""time""
""fullscreenenter"",""5"",""24040""
","
","
","""event"",""trial"",""time""
""fullscreenenter"",""5"",""24040""
","
","670.5","","48","","","3000","1","","","images/earth.jpg","images/rocket1","images/rocket2","null","images/rocket1","","1","real","null","2","","",""
"d3-animate-choice","187","799956","0.0-76.0-1.17","124","657","12","Male","false","false","false","false","""event"",""trial"",""time""
""fullscreenenter"",""5"",""24040""
","
","
","""event"",""trial"",""time""
""fullscreenenter"",""5"",""24040""
","
","1255.7000000476837","","48","","","3000","1","","","images/redplanet1.jpg","images/alien2","images/alien1","images/rocket1","images/alien2","images/t.png","2","real","false","2","rare","1","2022-02-03 18:08:54.108"
"two-step-fixation","188","800963","0.0-76.0-2.17","124","657","12","Male","false","false","false","false","""event"",""trial"",""time""
""fullscreenenter"",""5"",""24040""
","
","
","""event"",""trial"",""time""
""fullscreenenter"",""5"",""24040""
","
","","images/earth.jpg","","","","","","","","","","","","","","fixation","","","","","",""
"d3-animate-choice","189","803462","0.0-76.0-0.18","124","657","12","Male","false","false","false","false","""event"",""trial"",""time""
""fullscreenenter"",""5"",""24040""
","
","
","""event"",""trial"",""time""
""fullscreenenter"",""5"",""24040""
","
","492.5","","48","","","3000","1","","","images/earth.jpg","images/rocket1","images/rocket2","null","images/rocket1","","1","real","null","2","","",""
"d3-animate-choice","190","806392","0.0-76.0-1.18","124","657","12","Male","false","false","false","false","""event"",""trial"",""time""
""fullscreenenter"",""5"",""24040""
","
","
","""event"",""trial"",""time""
""fullscreenenter"",""5"",""24040""
","
","920.2999999523163","","49","","","3000","1","","","images/purpleplanet.jpg","images/alien4","images/alien3","images/rocket1","images/alien3","images/nothing.png","2","real","true","1","common","0","2022-02-03 18:09:00.545"
"two-step-fixation","191","807398","0.0-76.0-2.18","124","657","12","Male","false","false","false","false","""event"",""trial"",""time""
""fullscreenenter"",""5"",""24040""
","
","
","""event"",""trial"",""time""
""fullscreenenter"",""5"",""24040""
","
","","images/earth.jpg","","","","","","","","","","","","","","fixation","","","","","",""
"d3-animate-choice","192","809928","0.0-76.0-0.19","124","657","12","Male","false","false","false","false","""event"",""trial"",""time""
""fullscreenenter"",""5"",""24040""
","
","
","""event"",""trial"",""time""
""fullscreenenter"",""5"",""24040""
","
","521.1000000238419","","48","","","3000","1","","","images/earth.jpg","images/rocket1","images/rocket2","null","images/rocket1","","1","real","null","2","","",""
"d3-animate-choice","193","812606","0.0-76.0-1.19","124","657","12","Male","false","false","false","false","""event"",""trial"",""time""
""fullscreenenter"",""5"",""24040""
","
","
","""event"",""trial"",""time""
""fullscreenenter"",""5"",""24040""
","
","669.1000000238419","","49","","","3000","1","","","images/purpleplanet.jpg","images/alien4","images/alien3","images/rocket1","images/alien3","images/t.png","2","real","true","1","common","1","2022-02-03 18:09:06.758"
"two-step-fixation","194","813611","0.0-76.0-2.19","124","657","12","Male","false","false","false","false","""event"",""trial"",""time""
""fullscreenenter"",""5"",""24040""
","
","
","""event"",""trial"",""time""
""fullscreenenter"",""5"",""24040""
","
","","images/earth.jpg","","","","","","","","","","","","","","fixation","","","","","",""
"d3-animate-choice","195","816171","0.0-76.0-0.20","124","657","12","Male","false","false","false","false","""event"",""trial"",""time""
""fullscreenenter"",""5"",""24040""
","
","
","""event"",""trial"",""time""
""fullscreenenter"",""5"",""24040""
","
","551.8999999761581","","48","","","3000","1","","","images/earth.jpg","images/rocket1","images/rocket2","null","images/rocket1","","1","real","null","2","","",""
"d3-animate-choice","196","818949","0.0-76.0-1.20","124","657","12","Male","false","false","false","false","""event"",""trial"",""time""
""fullscreenenter"",""5"",""24040""
","
","
","""event"",""trial"",""time""
""fullscreenenter"",""5"",""24040""
","
","768.5999999046326","","49","","","3000","1","","","images/purpleplanet.jpg","images/alien4","images/alien3","images/rocket1","images/alien3","images/t.png","2","real","true","1","common","1","2022-02-03 18:09:13.101"
"two-step-fixation","197","819956","0.0-76.0-2.20","124","657","12","Male","false","false","false","false","""event"",""trial"",""time""
""fullscreenenter"",""5"",""24040""
","
","
","""event"",""trial"",""time""
""fullscreenenter"",""5"",""24040""
","
","","images/earth.jpg","","","","","","","","","","","","","","fixation","","","","","",""
"d3-animate-choice","198","822750","0.0-76.0-0.21","124","657","12","Male","false","false","false","false","""event"",""trial"",""time""
""fullscreenenter"",""5"",""24040""
","
","
","""event"",""trial"",""time""
""fullscreenenter"",""5"",""24040""
","
","786.6000000238419","","48","","","3000","1","","","images/earth.jpg","images/rocket1","images/rocket2","null","images/rocket1","","1","real","null","2","","",""
"d3-animate-choice","199","825742","0.0-76.0-1.21","124","657","12","Male","false","false","false","false","""event"",""trial"",""time""
""fullscreenenter"",""5"",""24040""
","
","
","""event"",""trial"",""time""
""fullscreenenter"",""5"",""24040""
","
","981.7000000476837","","48","","","3000","1","","","images/redplanet1.jpg","images/alien2","images/alien1","images/rocket1","images/alien2","images/nothing.png","2","real","false","2","rare","0","2022-02-03 18:09:19.894"
"two-step-fixation","200","826748","0.0-76.0-2.21","124","657","12","Male","false","false","false","false","""event"",""trial"",""time""
""fullscreenenter"",""5"",""24040""
","
","
","""event"",""trial"",""time""
""fullscreenenter"",""5"",""24040""
","
","","images/earth.jpg","","","","","","","","","","","","","","fixation","","","","","",""
"d3-animate-choice","201","829377","0.0-76.0-0.22","124","657","12","Male","false","false","false","false","""event"",""trial"",""time""
""fullscreenenter"",""5"",""24040""
","
","
","""event"",""trial"",""time""
""fullscreenenter"",""5"",""24040""
","
","621.5","","48","","","3000","1","","","images/earth.jpg","images/rocket1","images/rocket2","null","images/rocket1","","1","real","null","2","","",""
"d3-animate-choice","202","832434","0.0-76.0-1.22","124","657","12","Male","false","false","false","false","""event"",""trial"",""time""
""fullscreenenter"",""5"",""24040""
","
","
","""event"",""trial"",""time""
""fullscreenenter"",""5"",""24040""
","
","1050.5","","48","","","3000","1","","","images/redplanet1.jpg","images/alien2","images/alien1","images/rocket1","images/alien2","images/nothing.png","2","real","false","2","rare","0","2022-02-03 18:09:26.586"
"two-step-fixation","203","833437","0.0-76.0-2.22","124","657","12","Male","false","false","false","false","""event"",""trial"",""time""
""fullscreenenter"",""5"",""24040""
","
","
","""event"",""trial"",""time""
""fullscreenenter"",""5"",""24040""
","
","","images/earth.jpg","","","","","","","","","","","","","","fixation","","","","","",""
"d3-animate-choice","204","836067","0.0-76.0-0.23","124","657","12","Male","false","false","false","false","""event"",""trial"",""time""
""fullscreenenter"",""5"",""24040""
","
","
","""event"",""trial"",""time""
""fullscreenenter"",""5"",""24040""
","
","625.5","","48","","","3000","1","","","images/earth.jpg","images/rocket1","images/rocket2","null","images/rocket1","","1","real","null","2","","",""
"d3-animate-choice","205","839307","0.0-76.0-1.23","124","657","12","Male","false","false","false","false","""event"",""trial"",""time""
""fullscreenenter"",""5"",""24040""
","
","
","""event"",""trial"",""time""
""fullscreenenter"",""5"",""24040""
","
","1233","","49","","","3000","1","","","images/purpleplanet.jpg","images/alien4","images/alien3","images/rocket1","images/alien3","images/nothing.png","2","real","true","1","common","0","2022-02-03 18:09:33.459"
"two-step-fixation","206","840315","0.0-76.0-2.23","124","657","12","Male","false","false","false","false","""event"",""trial"",""time""
""fullscreenenter"",""5"",""24040""
","
","
","""event"",""trial"",""time""
""fullscreenenter"",""5"",""24040""
","
","","images/earth.jpg","","","","","","","","","","","","","","fixation","","","","","",""
"d3-animate-choice","207","843163","0.0-76.0-0.24","124","657","12","Male","false","false","false","false","""event"",""trial"",""time""
""fullscreenenter"",""5"",""24040""
","
","
","""event"",""trial"",""time""
""fullscreenenter"",""5"",""24040""
","
","838.3000000715256","","48","","","3000","1","","","images/earth.jpg","images/rocket1","images/rocket2","null","images/rocket1","","1","real","null","2","","",""
"d3-animate-choice","208","845982","0.0-76.0-1.24","124","657","12","Male","false","false","false","false","""event"",""trial"",""time""
""fullscreenenter"",""5"",""24040""
","
","
","""event"",""trial"",""time""
""fullscreenenter"",""5"",""24040""
","
","809.5","","48","","","3000","1","","","images/purpleplanet.jpg","images/alien4","images/alien3","images/rocket1","images/alien4","images/nothing.png","2","real","true","2","common","0","2022-02-03 18:09:40.134"
"two-step-fixation","209","846987","0.0-76.0-2.24","124","657","12","Male","false","false","false","false","""event"",""trial"",""time""
""fullscreenenter"",""5"",""24040""
","
","
","""event"",""trial"",""time""
""fullscreenenter"",""5"",""24040""
","
","","images/earth.jpg","","","","","","","","","","","","","","fixation","","","","","",""
"d3-animate-choice","210","849676","0.0-76.0-0.25","124","657","12","Male","false","false","false","false","""event"",""trial"",""time""
""fullscreenenter"",""5"",""24040""
","
","
","""event"",""trial"",""time""
""fullscreenenter"",""5"",""24040""
","
","680.6999999284744","","48","","","3000","1","","","images/earth.jpg","images/rocket1","images/rocket2","null","images/rocket1","","1","real","null","2","","",""
"d3-animate-choice","211","853135","0.0-76.0-1.25","124","657","12","Male","false","false","false","false","""event"",""trial"",""time""
""fullscreenenter"",""5"",""24040""
","
","
","""event"",""trial"",""time""
""fullscreenenter"",""5"",""24040""
","
","1452.2000000476837","","49","","","3000","1","","","images/redplanet1.jpg","images/alien2","images/alien1","images/rocket1","images/alien1","images/t.png","2","real","false","1","rare","1","2022-02-03 18:09:47.287"
"two-step-fixation","212","854143","0.0-76.0-2.25","124","657","12","Male","false","false","false","false","""event"",""trial"",""time""
""fullscreenenter"",""5"",""24040""
","
","
","""event"",""trial"",""time""
""fullscreenenter"",""5"",""24040""
","
","","images/earth.jpg","","","","","","","","","","","","","","fixation","","","","","",""
"d3-animate-choice","213","856832","0.0-76.0-0.26","124","657","12","Male","false","false","false","false","""event"",""trial"",""time""
""fullscreenenter"",""5"",""24040""
","
","
","""event"",""trial"",""time""
""fullscreenenter"",""5"",""24040""
","
","682.1000000238419","","48","","","3000","1","","","images/earth.jpg","images/rocket1","images/rocket2","null","images/rocket1","","1","real","null","2","","",""
"d3-animate-choice","214","859452","0.0-76.0-1.26","124","657","12","Male","false","false","false","false","""event"",""trial"",""time""
""fullscreenenter"",""5"",""24040""
","
","
","""event"",""trial"",""time""
""fullscreenenter"",""5"",""24040""
","
","608.1000000238419","","49","","","3000","1","","","images/purpleplanet.jpg","images/alien4","images/alien3","images/rocket1","images/alien3","images/nothing.png","2","real","true","1","common","0","2022-02-03 18:09:53.604"
"two-step-fixation","215","860458","0.0-76.0-2.26","124","657","12","Male","false","false","false","false","""event"",""trial"",""time""
""fullscreenenter"",""5"",""24040""
","
","
","""event"",""trial"",""time""
""fullscreenenter"",""5"",""24040""
","
","","images/earth.jpg","","","","","","","","","","","","","","fixation","","","","","",""
"d3-animate-choice","216","863398","0.0-76.0-0.27","124","657","12","Male","false","false","false","false","""event"",""trial"",""time""
""fullscreenenter"",""5"",""24040""
","
","
","""event"",""trial"",""time""
""fullscreenenter"",""5"",""24040""
","
","932.7000000476837","","48","","","3000","1","","","images/earth.jpg","images/rocket1","images/rocket2","null","images/rocket1","","1","real","null","2","","",""
"d3-animate-choice","217","866309","0.0-76.0-1.27","124","657","12","Male","false","false","false","false","""event"",""trial"",""time""
""fullscreenenter"",""5"",""24040""
","
","
","""event"",""trial"",""time""
""fullscreenenter"",""5"",""24040""
","
","899.3999999761581","","49","","","3000","1","","","images/purpleplanet.jpg","images/alien4","images/alien3","images/rocket1","images/alien3","images/t.png","2","real","true","1","common","1","2022-02-03 18:10:00.461"
"two-step-fixation","218","867316","0.0-76.0-2.27","124","657","12","Male","false","false","false","false","""event"",""trial"",""time""
""fullscreenenter"",""5"",""24040""
","
","
","""event"",""trial"",""time""
""fullscreenenter"",""5"",""24040""
","
","","images/earth.jpg","","","","","","","","","","","","","","fixation","","","","","",""
"d3-animate-choice","219","869772","0.0-76.0-0.28","124","657","12","Male","false","false","false","false","""event"",""trial"",""time""
""fullscreenenter"",""5"",""24040""
","
","
","""event"",""trial"",""time""
""fullscreenenter"",""5"",""24040""
","
","448.40000009536743","","48","","","3000","1","","","images/earth.jpg","images/rocket1","images/rocket2","null","images/rocket1","","1","real","null","2","","",""
"d3-animate-choice","220","873187","0.0-76.0-1.28","124","657","12","Male","false","false","false","false","""event"",""trial"",""time""
""fullscreenenter"",""5"",""24040""
","
","
","""event"",""trial"",""time""
""fullscreenenter"",""5"",""24040""
","
","1405.1000000238419","","49","","","3000","1","","","images/redplanet1.jpg","images/alien2","images/alien1","images/rocket1","images/alien1","images/t.png","2","real","false","1","rare","1","2022-02-03 18:10:07.339"
"two-step-fixation","221","874194","0.0-76.0-2.28","124","657","12","Male","false","false","false","false","""event"",""trial"",""time""
""fullscreenenter"",""5"",""24040""
","
","
","""event"",""trial"",""time""
""fullscreenenter"",""5"",""24040""
","
","","images/earth.jpg","","","","","","","","","","","","","","fixation","","","","","",""
"d3-animate-choice","222","876667","0.0-76.0-0.29","124","657","12","Male","false","false","false","false","""event"",""trial"",""time""
""fullscreenenter"",""5"",""24040""
","
","
","""event"",""trial"",""time""
""fullscreenenter"",""5"",""24040""
","
","463.89999997615814","","49","","","3000","1","","","images/earth.jpg","images/rocket1","images/rocket2","null","images/rocket2","","1","real","null","1","","",""
"d3-animate-choice","223","880479","0.0-76.0-1.29","124","657","12","Male","false","false","false","false","""event"",""trial"",""time""
""fullscreenenter"",""5"",""24040""
","
","
","""event"",""trial"",""time""
""fullscreenenter"",""5"",""24040""
","
","1800.2000000476837","","49","","","3000","1","","","images/purpleplanet.jpg","images/alien4","images/alien3","images/rocket2","images/alien3","images/nothing.png","2","real","false","1","rare","0","2022-02-03 18:10:14.631"
"two-step-fixation","224","881485","0.0-76.0-2.29","124","657","12","Male","false","false","false","false","""event"",""trial"",""time""
""fullscreenenter"",""5"",""24040""
","
","
","""event"",""trial"",""time""
""fullscreenenter"",""5"",""24040""
","
","","images/earth.jpg","","","","","","","","","","","","","","fixation","","","","","",""
"d3-animate-choice","225","884157","0.0-76.0-0.30","124","657","12","Male","false","false","false","false","""event"",""trial"",""time""
""fullscreenenter"",""5"",""24040""
","
","
","""event"",""trial"",""time""
""fullscreenenter"",""5"",""24040""
","
","663.2999999523163","","49","","","3000","1","","","images/earth.jpg","images/rocket1","images/rocket2","null","images/rocket2","","1","real","null","1","","",""
"d3-animate-choice","226","888093","0.0-76.0-1.30","124","657","12","Male","false","false","false","false","""event"",""trial"",""time""
""fullscreenenter"",""5"",""24040""
","
","
","""event"",""trial"",""time""
""fullscreenenter"",""5"",""24040""
","
","1927.1000000238419","","49","","","3000","1","","","images/purpleplanet.jpg","images/alien4","images/alien3","images/rocket2","images/alien3","images/nothing.png","2","real","false","1","rare","0","2022-02-03 18:10:22.245"
"two-step-fixation","227","889100","0.0-76.0-2.30","124","657","12","Male","false","false","false","false","""event"",""trial"",""time""
""fullscreenenter"",""5"",""24040""
","
","
","""event"",""trial"",""time""
""fullscreenenter"",""5"",""24040""
","
","","images/earth.jpg","","","","","","","","","","","","","","fixation","","","","","",""
"d3-animate-choice","228","891772","0.0-76.0-0.31","124","657","12","Male","false","false","false","false","""event"",""trial"",""time""
""fullscreenenter"",""5"",""24040""
","
","
","""event"",""trial"",""time""
""fullscreenenter"",""5"",""24040""
","
","664.4000000953674","","49","","","3000","1","","","images/earth.jpg","images/rocket1","images/rocket2","null","images/rocket2","","1","real","null","1","","",""
"d3-animate-choice","229","894937","0.0-76.0-1.31","124","657","12","Male","false","false","false","false","""event"",""trial"",""time""
""fullscreenenter"",""5"",""24040""
","
","
","""event"",""trial"",""time""
""fullscreenenter"",""5"",""24040""
","
","1155.5","","48","","","3000","1","","","images/purpleplanet.jpg","images/alien4","images/alien3","images/rocket2","images/alien4","images/nothing.png","2","real","false","2","rare","0","2022-02-03 18:10:29.089"
"two-step-fixation","230","895944","0.0-76.0-2.31","124","657","12","Male","false","false","false","false","""event"",""trial"",""time""
""fullscreenenter"",""5"",""24040""
","
","
","""event"",""trial"",""time""
""fullscreenenter"",""5"",""24040""
","
","","images/earth.jpg","","","","","","","","","","","","","","fixation","","","","","",""
"d3-animate-choice","231","898474","0.0-76.0-0.32","124","657","12","Male","false","false","false","false","""event"",""trial"",""time""
""fullscreenenter"",""5"",""24040""
","
","
","""event"",""trial"",""time""
""fullscreenenter"",""5"",""24040""
","
","522.1000000238419","","48","","","3000","1","","","images/earth.jpg","images/rocket1","images/rocket2","null","images/rocket1","","1","real","null","2","","",""
"d3-animate-choice","232","901512","0.0-76.0-1.32","124","657","12","Male","false","false","false","false","""event"",""trial"",""time""
""fullscreenenter"",""5"",""24040""
","
","
","""event"",""trial"",""time""
""fullscreenenter"",""5"",""24040""
","
","1028.8000000715256","","49","","","3000","1","","","images/redplanet1.jpg","images/alien2","images/alien1","images/rocket1","images/alien1","images/t.png","2","real","false","1","rare","1","2022-02-03 18:10:35.664"
"two-step-fixation","233","902518","0.0-76.0-2.32","124","657","12","Male","false","false","false","false","""event"",""trial"",""time""
""fullscreenenter"",""5"",""24040""
","
","
","""event"",""trial"",""time""
""fullscreenenter"",""5"",""24040""
","
","","images/earth.jpg","","","","","","","","","","","","","","fixation","","","","","",""
"d3-animate-choice","234","905049","0.0-76.0-0.33","124","657","12","Male","false","false","false","false","""event"",""trial"",""time""
""fullscreenenter"",""5"",""24040""
","
","
","""event"",""trial"",""time""
""fullscreenenter"",""5"",""24040""
","
","522.6000000238419","","48","","","3000","1","","","images/earth.jpg","images/rocket1","images/rocket2","null","images/rocket1","","1","real","null","2","","",""
"d3-animate-choice","235","907963","0.0-76.0-1.33","124","657","12","Male","false","false","false","false","""event"",""trial"",""time""
""fullscreenenter"",""5"",""24040""
","
","
","""event"",""trial"",""time""
""fullscreenenter"",""5"",""24040""
","
","907.1000000238419","","49","","","3000","1","","","images/redplanet1.jpg","images/alien2","images/alien1","images/rocket1","images/alien1","images/nothing.png","2","real","false","1","rare","0","2022-02-03 18:10:42.115"
"two-step-fixation","236","908970","0.0-76.0-2.33","124","657","12","Male","false","false","false","false","""event"",""trial"",""time""
""fullscreenenter"",""5"",""24040""
","
","
","""event"",""trial"",""time""
""fullscreenenter"",""5"",""24040""
","
","","images/earth.jpg","","","","","","","","","","","","","","fixation","","","","","",""
"d3-animate-choice","237","911443","0.0-76.0-0.34","124","657","12","Male","false","false","false","false","""event"",""trial"",""time""
""fullscreenenter"",""5"",""24040""
","
","
","""event"",""trial"",""time""
""fullscreenenter"",""5"",""24040""
","
","465.89999997615814","","48","","","3000","1","","","images/earth.jpg","images/rocket1","images/rocket2","null","images/rocket1","","1","real","null","2","","",""
"d3-animate-choice","238","914550","0.0-76.0-1.34","124","657","12","Male","false","false","false","false","""event"",""trial"",""time""
""fullscreenenter"",""5"",""24040""
","
","
","""event"",""trial"",""time""
""fullscreenenter"",""5"",""24040""
","
","1094.6000000238419","","48","","","3000","1","","","images/purpleplanet.jpg","images/alien4","images/alien3","images/rocket1","images/alien4","images/t.png","2","real","true","2","common","1","2022-02-03 18:10:48.702"
"two-step-fixation","239","915557","0.0-76.0-2.34","124","657","12","Male","false","false","false","false","""event"",""trial"",""time""
""fullscreenenter"",""5"",""24040""
","
","
","""event"",""trial"",""time""
""fullscreenenter"",""5"",""24040""
","
","","images/earth.jpg","","","","","","","","","","","","","","fixation","","","","","",""
"d3-animate-choice","240","918381","0.0-76.0-0.35","124","657","12","Male","false","false","false","false","""event"",""trial"",""time""
""fullscreenenter"",""5"",""24040""
","
","
","""event"",""trial"",""time""
""fullscreenenter"",""5"",""24040""
","
","815.7999999523163","","49","","","3000","1","","","images/earth.jpg","images/rocket1","images/rocket2","null","images/rocket2","","1","real","null","1","","",""
"d3-animate-choice","241","921415","0.0-76.0-1.35","124","657","12","Male","false","false","false","false","""event"",""trial"",""time""
""fullscreenenter"",""5"",""24040""
","
","
","""event"",""trial"",""time""
""fullscreenenter"",""5"",""24040""
","
","1024.2999999523163","","49","","","3000","1","","","images/redplanet1.jpg","images/alien2","images/alien1","images/rocket2","images/alien1","images/nothing.png","2","real","true","1","common","0","2022-02-03 18:10:55.570"
"two-step-fixation","242","922425","0.0-76.0-2.35","124","657","12","Male","false","false","false","false","""event"",""trial"",""time""
""fullscreenenter"",""5"",""24040""
","
","
","""event"",""trial"",""time""
""fullscreenenter"",""5"",""24040""
","
","","images/earth.jpg","","","","","","","","","","","","","","fixation","","","","","",""
"d3-animate-choice","243","924975","0.0-76.0-0.36","124","657","12","Male","false","false","false","false","""event"",""trial"",""time""
""fullscreenenter"",""5"",""24040""
","
","
","""event"",""trial"",""time""
""fullscreenenter"",""5"",""24040""
","
","542.1999999284744","","48","","","3000","1","","","images/earth.jpg","images/rocket1","images/rocket2","null","images/rocket1","","1","real","null","2","","",""
"d3-animate-choice","244","928521","0.0-76.0-1.36","124","657","12","Male","false","false","false","false","""event"",""trial"",""time""
""fullscreenenter"",""5"",""24040""
","
","
","""event"",""trial"",""time""
""fullscreenenter"",""5"",""24040""
","
","1536.5","","49","","","3000","1","","","images/redplanet1.jpg","images/alien2","images/alien1","images/rocket1","images/alien1","images/t.png","2","real","false","1","rare","1","2022-02-03 18:11:02.674"
"two-step-fixation","245","929528","0.0-76.0-2.36","124","657","12","Male","false","false","false","false","""event"",""trial"",""time""
""fullscreenenter"",""5"",""24040""
","
","
","""event"",""trial"",""time""
""fullscreenenter"",""5"",""24040""
","
","","images/earth.jpg","","","","","","","","","","","","","","fixation","","","","","",""
"d3-animate-choice","246","932265","0.0-76.0-0.37","124","657","12","Male","false","false","false","false","""event"",""trial"",""time""
""fullscreenenter"",""5"",""24040""
","
","
","""event"",""trial"",""time""
""fullscreenenter"",""5"",""24040""
","
","726.7000000476837","","48","","","3000","1","","","images/earth.jpg","images/rocket1","images/rocket2","null","images/rocket1","","1","real","null","2","","",""
