"trial_type","trial_index","time_elapsed","internal_node_id","participant_id","subject_id","age","gender","rocket_sides","red_planet_first_rocket","red_display_order","purple_display_order","interactions","blur_events","focus_events","fullscreenenter_events","fullscreenexit_events","rt","stimulus","key_press","button_pressed","success","duration","valid_pressed","rts","keys","planet_text","right_text","left_text","center_text","chosen_text","reward_text","trial_stage","practice_trial","transition_type","choice","transition","reward","timestamp"
"pavlovia","0","2","0.0-0.0","2695","4969","14","Male","true","false","true","false","
","
","
","
","
","","","","","","","","","","","","","","","","","","","","","",""
"html-keyboard-response","1","786","0.0-1.0","2695","4969","14","Male","true","false","true","false","
","
","
","
","
","782.4000000953674","Welcome! Press the space bar to begin.","32","","","","","","","","","","","","","","","","","","",""
"audio-keyboard-response","2","3380","0.0-2.0","2695","4969","14","Male","true","false","true","false","
","
","
","
","
","2501","audio/beep_loop.wav","32","","","","","","","","","","","","","","","","","","",""
"audio-button-response","3","4621","0.0-3.0","2695","4969","14","Male","true","false","true","false","
","
","
","
","
","NaN","audio/fish.mp3","","1","","","","","","","","","","","","","","","","","",""
"audio-button-response","4","6942","0.0-4.0","2695","4969","14","Male","true","false","true","false","""event"",""trial"",""time""
""fullscreenenter"",""5"",""8967""
","
","
","""event"",""trial"",""time""
""fullscreenenter"",""5"",""8967""
","
","NaN","audio/tiger.mp3","","4","","","","","","","","","","","","","","","","","",""
"fullscreen","5","9960","0.0-5.0","2695","4969","14","Male","true","false","true","false","""event"",""trial"",""time""
""fullscreenenter"",""5"",""8967""
","
","
","""event"",""trial"",""time""
""fullscreenenter"",""5"",""8967""
","
","","","","","true","","","","","","","","","","","","","","","","",""
"d3-instructions","6","11238","0.0-6.0","2695","4969","14","Male","true","false","true","false","""event"",""trial"",""time""
""fullscreenenter"",""5"",""8967""
","
","
","""event"",""trial"",""time""
""fullscreenenter"",""5"",""8967""
","
","","","","","","","","","","","","","","","","","","","","","",""
"d3-instructions","7","11824","0.0-7.0","2695","4969","14","Male","true","false","true","false","""event"",""trial"",""time""
""fullscreenenter"",""5"",""8967""
","
","
","""event"",""trial"",""time""
""fullscreenenter"",""5"",""8967""
","
","","","","","","","","","","","","","","","","","","","","","",""
"d3-instructions","8","12250","0.0-8.0","2695","4969","14","Male","true","false","true","false","""event"",""trial"",""time""
""fullscreenenter"",""5"",""8967""
","
","
","""event"",""trial"",""time""
""fullscreenenter"",""5"",""8967""
","
","","","","","","","","","","","","","","","","","","","","","",""
"d3-instructions","9","12653","0.0-9.0","2695","4969","14","Male","true","false","true","false","""event"",""trial"",""time""
""fullscreenenter"",""5"",""8967""
","
","
","""event"",""trial"",""time""
""fullscreenenter"",""5"",""8967""
","
","","","","","","","","","","","","","","","","","","","","","",""
"d3-instructions","10","12983","0.0-10.0","2695","4969","14","Male","true","false","true","false","""event"",""trial"",""time""
""fullscreenenter"",""5"",""8967""
","
","
","""event"",""trial"",""time""
""fullscreenenter"",""5"",""8967""
","
","","","","","","","","","","","","","","","","","","","","","",""
"d3-animate-choice","11","17680","0.0-11.0","2695","4969","14","Male","true","false","true","false","""event"",""trial"",""time""
""fullscreenenter"",""5"",""8967""
","
","
","""event"",""trial"",""time""
""fullscreenenter"",""5"",""8967""
","
","2663.7000002861023","","49","","","3000","1","","","images/tutgreenplanet.jpg","images/tutalien1","images/tutalien2","null","images/tutalien2","","NA","practice","null","","","",""
"d3-animate-choice","12","20461","0.0-12.0","2695","4969","14","Male","true","false","true","false","""event"",""trial"",""time""
""fullscreenenter"",""5"",""8967""
","
","
","""event"",""trial"",""time""
""fullscreenenter"",""5"",""8967""
","
","761.9000000953674","","48","","","3000","1","","","images/tutgreenplanet.jpg","images/tutalien1","images/tutalien2","null","images/tutalien1","","NA","practice","null","","","",""
"d3-animate-choice","13","23320","0.0-13.0","2695","4969","14","Male","true","false","true","false","""event"",""trial"",""time""
""fullscreenenter"",""5"",""8967""
","
","
","""event"",""trial"",""time""
""fullscreenenter"",""5"",""8967""
","
","847.8000001907349","","49","","","3000","1","2354.800000190735,2632.6000003814697","48,48","images/tutgreenplanet.jpg","images/tutalien1","images/tutalien2","null","images/tutalien2","","NA","practice","null","","","",""
"d3-animate-choice","14","25401","0.0-14.0","2695","4969","14","Male","true","false","true","false","""event"",""trial"",""time""
""fullscreenenter"",""5"",""8967""
","
","
","""event"",""trial"",""time""
""fullscreenenter"",""5"",""8967""
","
","53.30000019073486","","48","","","3000","1","300.59999990463257","48","images/tutgreenplanet.jpg","images/tutalien1","images/tutalien2","null","images/tutalien1","","NA","practice","null","","","",""
"d3-instructions","15","26179","0.0-15.0","2695","4969","14","Male","true","false","true","false","""event"",""trial"",""time""
""fullscreenenter"",""5"",""8967""
","
","
","""event"",""trial"",""time""
""fullscreenenter"",""5"",""8967""
","
","","","","","","","","","","","","","","","","","","","","","",""
"d3-instructions","16","26513","0.0-16.0","2695","4969","14","Male","true","false","true","false","""event"",""trial"",""time""
""fullscreenenter"",""5"",""8967""
","
","
","""event"",""trial"",""time""
""fullscreenenter"",""5"",""8967""
","
","","","","","","","","","","","","","","","","","","","","","",""
"d3-instructions","17","26752","0.0-17.0","2695","4969","14","Male","true","false","true","false","""event"",""trial"",""time""
""fullscreenenter"",""5"",""8967""
","
","
","""event"",""trial"",""time""
""fullscreenenter"",""5"",""8967""
","
","","","","","","","","","","","","","","","","","","","","","",""
"d3-instructions","18","27039","0.0-18.0","2695","4969","14","Male","true","false","true","false","""event"",""trial"",""time""
""fullscreenenter"",""5"",""8967""
","
","
","""event"",""trial"",""time""
""fullscreenenter"",""5"",""8967""
","
","","","","","","","","","","","","","","","","","","","","","",""
"d3-instructions","19","27595","0.0-19.0","2695","4969","14","Male","true","false","true","false","""event"",""trial"",""time""
""fullscreenenter"",""5"",""8967""
","
","
","""event"",""trial"",""time""
""fullscreenenter"",""5"",""8967""
","
","","","","","","","","","","","","","","","","","","","","","",""
"d3-animate-choice","20","31160","0.0-20.0","2695","4969","14","Male","true","false","true","false","""event"",""trial"",""time""
""fullscreenenter"",""5"",""8967""
","
","
","""event"",""trial"",""time""
""fullscreenenter"",""5"",""8967""
","
","312.3999996185303","","32","","","3000","1","1550.1999998092651","49","images/tutyellowplanet.jpg","null","images/tutalien3","null","images/tutalien3","images/t.png","NA","practice","null","","","",""
"d3-animate-choice","21","33309","0.0-21.0","2695","4969","14","Male","true","false","true","false","""event"",""trial"",""time""
""fullscreenenter"",""5"",""8967""
","
","
","""event"",""trial"",""time""
""fullscreenenter"",""5"",""8967""
","
","132.40000009536743","","49","","","3000","1","348.69999980926514,556.5,867.9000000953674,1122.4000000953674,1530.8000001907349,1825.4000000953674","49,49,49,49,49,49","images/tutyellowplanet.jpg","null","images/tutalien3","null","images/tutalien3","images/t.png","NA","practice","null","","","",""
"d3-animate-choice","22","35330","0.0-22.0","2695","4969","14","Male","true","false","true","false","""event"",""trial"",""time""
""fullscreenenter"",""5"",""8967""
","
","
","""event"",""trial"",""time""
""fullscreenenter"",""5"",""8967""
","
","8.100000381469727","","49","","","3000","1","301.7000002861023,888.3000001907349,1127,1607.1000003814697,1824.3000001907349","49,49,49,49,49","images/tutyellowplanet.jpg","null","images/tutalien3","null","images/tutalien3","images/nothing.png","NA","practice","null","","","",""
"d3-animate-choice","23","37370","0.0-23.0","2695","4969","14","Male","true","false","true","false","""event"",""trial"",""time""
""fullscreenenter"",""5"",""8967""
","
","
","""event"",""trial"",""time""
""fullscreenenter"",""5"",""8967""
","
","28.200000286102295","","49","","","3000","1","267,708.7000002861023,947.4000000953674,1256.6000003814697,1558.2000002861023,1828.7000002861023","49,49,49,49,49,49","images/tutyellowplanet.jpg","null","images/tutalien3","null","images/tutalien3","images/t.png","NA","practice","null","","","",""
"d3-animate-choice","24","39453","0.0-24.0","2695","4969","14","Male","true","false","true","false","""event"",""trial"",""time""
""fullscreenenter"",""5"",""8967""
","
","
","""event"",""trial"",""time""
""fullscreenenter"",""5"",""8967""
","
","72.2999997138977","","49","","","3000","1","328.59999990463257,992,1495.0999999046326,1749.6999998092651,1973.7999997138977","49,49,49,49,49","images/tutyellowplanet.jpg","null","images/tutalien3","null","images/tutalien3","images/t.png","NA","practice","null","","","",""
"d3-animate-choice","25","41590","0.0-25.0","2695","4969","14","Male","true","false","true","false","""event"",""trial"",""time""
""fullscreenenter"",""5"",""8967""
","
","
","""event"",""trial"",""time""
""fullscreenenter"",""5"",""8967""
","
","114.69999980926514","","49","","","3000","1","354.59999990463257,617,887.0999999046326,1142.5,1396.7999997138977,1676.2999997138977,1930.2999997138977","49,49,49,49,49,49,49","images/tutyellowplanet.jpg","null","images/tutalien3","null","images/tutalien3","images/t.png","NA","practice","null","","","",""
"d3-animate-choice","26","43710","0.0-26.0","2695","4969","14","Male","true","false","true","false","""event"",""trial"",""time""
""fullscreenenter"",""5"",""8967""
","
","
","""event"",""trial"",""time""
""fullscreenenter"",""5"",""8967""
","
","95.2999997138977","","49","","","3000","1","380.2999997138977,665.5,1068.2999997138977,1339.0999999046326,1630.5,1910.6999998092651","49,49,49,49,49,49","images/tutyellowplanet.jpg","null","images/tutalien3","null","images/tutalien3","images/t.png","NA","practice","null","","","",""
"d3-animate-choice","27","45810","0.0-27.0","2695","4969","14","Male","true","false","true","false","""event"",""trial"",""time""
""fullscreenenter"",""5"",""8967""
","
","
","""event"",""trial"",""time""
""fullscreenenter"",""5"",""8967""
","
","84.19999980926514","","49","","","3000","1","393.30000019073486,702.3000001907349,1088.8000001907349,1405.4000000953674,1669,1969.1999998092651","49,49,49,49,49,49","images/tutyellowplanet.jpg","null","images/tutalien3","null","images/tutalien3","images/nothing.png","NA","practice","null","","","",""
"d3-animate-choice","28","47990","0.0-28.0","2695","4969","14","Male","true","false","true","false","""event"",""trial"",""time""
""fullscreenenter"",""5"",""8967""
","
","
","""event"",""trial"",""time""
""fullscreenenter"",""5"",""8967""
","
","170.69999980926514","","49","","","3000","1","457.40000009536743,718.7999997138977,1035,1321.9000000953674,1568.9000000953674,1862.9000000953674,2172","49,49,49,49,49,49,49","images/tutyellowplanet.jpg","null","images/tutalien3","null","images/tutalien3","images/t.png","NA","practice","null","","","",""
"d3-animate-choice","29","50350","0.0-29.0","2695","4969","14","Male","true","false","true","false","""event"",""trial"",""time""
""fullscreenenter"",""5"",""8967""
","
","
","""event"",""trial"",""time""
""fullscreenenter"",""5"",""8967""
","
","331.5","","49","","","3000","1","593.7000002861023,864.6000003814697,1104.4000000953674,1660.2000002861023,1898.3000001907349,2139","49,49,49,49,49,49","images/tutyellowplanet.jpg","null","images/tutalien3","null","images/tutalien3","images/t.png","NA","practice","null","","","",""
"d3-instructions","30","52473","0.0-30.0","2695","4969","14","Male","true","false","true","false","""event"",""trial"",""time""
""fullscreenenter"",""5"",""8967""
","
","
","""event"",""trial"",""time""
""fullscreenenter"",""5"",""8967""
","
","","","","","","","","","","","","","","","","","","","","","",""
"d3-instructions","31","52773","0.0-31.0","2695","4969","14","Male","true","false","true","false","""event"",""trial"",""time""
""fullscreenenter"",""5"",""8967""
","
","
","""event"",""trial"",""time""
""fullscreenenter"",""5"",""8967""
","
","","","","","","","","","","","","","","","","","","","","","",""
"d3-instructions","32","53037","0.0-32.0","2695","4969","14","Male","true","false","true","false","""event"",""trial"",""time""
""fullscreenenter"",""5"",""8967""
","
","
","""event"",""trial"",""time""
""fullscreenenter"",""5"",""8967""
","
","","","","","","","","","","","","","","","","","","","","","",""
"d3-instructions","33","53302","0.0-33.0","2695","4969","14","Male","true","false","true","false","""event"",""trial"",""time""
""fullscreenenter"",""5"",""8967""
""fullscreenexit"",""34"",""54426""
","
","
","""event"",""trial"",""time""
""fullscreenenter"",""5"",""8967""
","""event"",""trial"",""time""
""fullscreenexit"",""34"",""54426""
","","","","","","","","","","","","","","","","","","","","","",""
"d3-animate-choice","34","56439","0.0-34.0","2695","4969","14","Male","true","false","true","false","""event"",""trial"",""time""
""fullscreenenter"",""5"",""8967""
""fullscreenexit"",""34"",""54426""
","
","
","""event"",""trial"",""time""
""fullscreenenter"",""5"",""8967""
","""event"",""trial"",""time""
""fullscreenexit"",""34"",""54426""
","337.5","","32","","","3000","1","1132.4000000953674","49","images/tutgreenplanet.jpg","images/tutalien1","images/tutalien2","null","images/tutalien2","images/t.png","NA","practice","null","","","",""
"d3-animate-choice","35","62380","0.0-35.0","2695","4969","14","Male","true","false","true","false","""event"",""trial"",""time""
""fullscreenenter"",""5"",""8967""
""fullscreenexit"",""34"",""54426""
","
","
","""event"",""trial"",""time""
""fullscreenenter"",""5"",""8967""
","""event"",""trial"",""time""
""fullscreenexit"",""34"",""54426""
","1870.2999997138977","","122","","","3000","1","3910.2999997138977","49","images/tutgreenplanet.jpg","images/tutalien1","images/tutalien2","null","images/tutalien2","images/t.png","NA","practice","null","","","",""
"d3-animate-choice","36","64810","0.0-36.0","2695","4969","14","Male","true","false","true","false","""event"",""trial"",""time""
""fullscreenenter"",""5"",""8967""
""fullscreenexit"",""34"",""54426""
","
","
","""event"",""trial"",""time""
""fullscreenenter"",""5"",""8967""
","""event"",""trial"",""time""
""fullscreenexit"",""34"",""54426""
","407.5","","49","","","3000","1","1844.3000001907349,2106.800000190735,2331","49,49,49","images/tutgreenplanet.jpg","images/tutalien1","images/tutalien2","null","images/tutalien2","images/t.png","NA","practice","null","","","",""
"d3-animate-choice","37","66957","0.0-37.0","2695","4969","14","Male","true","false","true","false","""event"",""trial"",""time""
""fullscreenenter"",""5"",""8967""
""fullscreenexit"",""34"",""54426""
","
","
","""event"",""trial"",""time""
""fullscreenenter"",""5"",""8967""
","""event"",""trial"",""time""
""fullscreenexit"",""34"",""54426""
","139.30000019073486","","49","","","3000","1","355.30000019073486,564.3000001907349,757.7000002861023,980,1166.9000000953674,1352.1000003814697,1545,1736.9000000953674,1924,2100.800000190735","49,49,49,49,49,49,49,49,49,49","images/tutgreenplanet.jpg","images/tutalien1","images/tutalien2","null","images/tutalien2","images/t.png","NA","practice","null","","","",""
"d3-animate-choice","38","69133","0.0-38.0","2695","4969","14","Male","true","false","true","false","""event"",""trial"",""time""
""fullscreenenter"",""5"",""8967""
""fullscreenexit"",""34"",""54426""
","
","
","""event"",""trial"",""time""
""fullscreenenter"",""5"",""8967""
","""event"",""trial"",""time""
""fullscreenexit"",""34"",""54426""
","164","","49","","","3000","1","388.19999980926514,627,859,1160.3999996185303,1422.5999999046326,1693.7999997138977,2011","49,49,49,49,49,49,49","images/tutgreenplanet.jpg","images/tutalien1","images/tutalien2","null","images/tutalien2","images/t.png","NA","practice","null","","","",""
"d3-animate-choice","39","71255","0.0-39.0","2695","4969","14","Male","true","false","true","false","""event"",""trial"",""time""
""fullscreenenter"",""5"",""8967""
""fullscreenexit"",""34"",""54426""
","
","
","""event"",""trial"",""time""
""fullscreenenter"",""5"",""8967""
","""event"",""trial"",""time""
""fullscreenexit"",""34"",""54426""
","105.7999997138977","","49","","","3000","1","336.19999980926514,545.6999998092651,776.4000000953674,1001.0999999046326,1250.5999999046326,1480,1766.1999998092651,1996.4000000953674","49,49,49,49,49,49,49,49","images/tutgreenplanet.jpg","images/tutalien1","images/tutalien2","null","images/tutalien2","images/t.png","NA","practice","null","","","",""
"d3-animate-choice","40","73384","0.0-40.0","2695","4969","14","Male","true","false","true","false","""event"",""trial"",""time""
""fullscreenenter"",""5"",""8967""
""fullscreenexit"",""34"",""54426""
","
","
","""event"",""trial"",""time""
""fullscreenenter"",""5"",""8967""
","""event"",""trial"",""time""
""fullscreenexit"",""34"",""54426""
","124","","49","","","3000","1","332.5,563.7999997138977,780,980.5999999046326,1204.7999997138977,1429.9000000953674,1624.0999999046326,1825,2011.0999999046326","49,49,49,49,49,49,49,49,49","images/tutgreenplanet.jpg","images/tutalien1","images/tutalien2","null","images/tutalien2","images/t.png","NA","practice","null","","","",""
"d3-animate-choice","41","75461","0.0-41.0","2695","4969","14","Male","true","false","true","false","""event"",""trial"",""time""
""fullscreenenter"",""5"",""8967""
""fullscreenexit"",""34"",""54426""
","
","
","""event"",""trial"",""time""
""fullscreenenter"",""5"",""8967""
","""event"",""trial"",""time""
""fullscreenexit"",""34"",""54426""
","63.59999990463257","","49","","","3000","1","273.19999980926514,466.30000019073486,643.8000001907349,836.5,1014.8000001907349,1208.6999998092651,1424.1999998092651,1625,1826.0999999046326,2050.199999809265","49,49,49,49,49,49,49,49,49,49","images/tutgreenplanet.jpg","images/tutalien1","images/tutalien2","null","images/tutalien2","images/nothing.png","NA","practice","null","","","",""
"d3-animate-choice","42","77700","0.0-42.0","2695","4969","14","Male","true","false","true","false","""event"",""trial"",""time""
""fullscreenenter"",""5"",""8967""
""fullscreenexit"",""34"",""54426""
","
","
","""event"",""trial"",""time""
""fullscreenenter"",""5"",""8967""
","""event"",""trial"",""time""
""fullscreenexit"",""34"",""54426""
","212.80000019073486","","49","","","3000","1","397.30000019073486,607.3000001907349,815.9000000953674,1024.9000000953674,1233.5,1458,1673.8000001907349,1882.8000001907349,2113.9000000953674","49,49,49,49,49,49,49,49,49","images/tutgreenplanet.jpg","images/tutalien1","images/tutalien2","null","images/tutalien2","images/t.png","NA","practice","null","","","",""
"d3-animate-choice","43","79819","0.0-43.0","2695","4969","14","Male","true","false","true","false","""event"",""trial"",""time""
""fullscreenenter"",""5"",""8967""
""fullscreenexit"",""34"",""54426""
","
","
","""event"",""trial"",""time""
""fullscreenenter"",""5"",""8967""
","""event"",""trial"",""time""
""fullscreenexit"",""34"",""54426""
","98.90000009536743","","49","","","3000","1","338.19999980926514,554.6999998092651,762.6999998092651,1002.5,1219,1428.6999998092651,1659.9000000953674,1897.5999999046326,2114.4000000953674","49,49,49,49,49,49,49,49,49","images/tutgreenplanet.jpg","images/tutalien1","images/tutalien2","null","images/tutalien2","images/t.png","NA","practice","null","","","",""
"d3-instructions","44","82208","0.0-44.0","2695","4969","14","Male","true","false","true","false","""event"",""trial"",""time""
""fullscreenenter"",""5"",""8967""
""fullscreenexit"",""34"",""54426""
","
","
","""event"",""trial"",""time""
""fullscreenenter"",""5"",""8967""
","""event"",""trial"",""time""
""fullscreenexit"",""34"",""54426""
","","","","","","","","","","","","","","","","","","","","","",""
"d3-instructions","45","82525","0.0-45.0","2695","4969","14","Male","true","false","true","false","""event"",""trial"",""time""
""fullscreenenter"",""5"",""8967""
""fullscreenexit"",""34"",""54426""
","
","
","""event"",""trial"",""time""
""fullscreenenter"",""5"",""8967""
","""event"",""trial"",""time""
""fullscreenexit"",""34"",""54426""
","","","","","","","","","","","","","","","","","","","","","",""
"d3-instructions","46","82785","0.0-46.0","2695","4969","14","Male","true","false","true","false","""event"",""trial"",""time""
""fullscreenenter"",""5"",""8967""
""fullscreenexit"",""34"",""54426""
","
","
","""event"",""trial"",""time""
""fullscreenenter"",""5"",""8967""
","""event"",""trial"",""time""
""fullscreenexit"",""34"",""54426""
","","","","","","","","","","","","","","","","","","","","","",""
"d3-instructions","47","83496","0.0-47.0","2695","4969","14","Male","true","false","true","false","""event"",""trial"",""time""
""fullscreenenter"",""5"",""8967""
""fullscreenexit"",""34"",""54426""
","
","
","""event"",""trial"",""time""
""fullscreenenter"",""5"",""8967""
","""event"",""trial"",""time""
""fullscreenexit"",""34"",""54426""
","","","","","","","","","","","","","","","","","","","","","",""
"d3-instructions","48","83777","0.0-48.0","2695","4969","14","Male","true","false","true","false","""event"",""trial"",""time""
""fullscreenenter"",""5"",""8967""
""fullscreenexit"",""34"",""54426""
","
","
","""event"",""trial"",""time""
""fullscreenenter"",""5"",""8967""
","""event"",""trial"",""time""
""fullscreenexit"",""34"",""54426""
","","","","","","","","","","","","","","","","","","","","","",""
"d3-instructions","49","84038","0.0-49.0","2695","4969","14","Male","true","false","true","false","""event"",""trial"",""time""
""fullscreenenter"",""5"",""8967""
""fullscreenexit"",""34"",""54426""
","
","
","""event"",""trial"",""time""
""fullscreenenter"",""5"",""8967""
","""event"",""trial"",""time""
""fullscreenexit"",""34"",""54426""
","","","","","","","","","","","","","","","","","","","","","",""
"d3-instructions","50","84439","0.0-50.0","2695","4969","14","Male","true","false","true","false","""event"",""trial"",""time""
""fullscreenenter"",""5"",""8967""
""fullscreenexit"",""34"",""54426""
","
","
","""event"",""trial"",""time""
""fullscreenenter"",""5"",""8967""
","""event"",""trial"",""time""
""fullscreenexit"",""34"",""54426""
","","","","","","","","","","","","","","","","","","","","","",""
"d3-instructions","51","84793","0.0-51.0","2695","4969","14","Male","true","false","true","false","""event"",""trial"",""time""
""fullscreenenter"",""5"",""8967""
""fullscreenexit"",""34"",""54426""
","
","
","""event"",""trial"",""time""
""fullscreenenter"",""5"",""8967""
","""event"",""trial"",""time""
""fullscreenexit"",""34"",""54426""
","","","","","","","","","","","","","","","","","","","","","",""
"d3-instructions","52","85461","0.0-52.0","2695","4969","14","Male","true","false","true","false","""event"",""trial"",""time""
""fullscreenenter"",""5"",""8967""
""fullscreenexit"",""34"",""54426""
","
","
","""event"",""trial"",""time""
""fullscreenenter"",""5"",""8967""
","""event"",""trial"",""time""
""fullscreenexit"",""34"",""54426""
","","","","","","","","","","","","","","","","","","","","","",""
"d3-instructions","53","85831","0.0-53.0","2695","4969","14","Male","true","false","true","false","""event"",""trial"",""time""
""fullscreenenter"",""5"",""8967""
""fullscreenexit"",""34"",""54426""
","
","
","""event"",""trial"",""time""
""fullscreenenter"",""5"",""8967""
","""event"",""trial"",""time""
""fullscreenexit"",""34"",""54426""
","","","","","","","","","","","","","","","","","","","","","",""
"d3-instructions","54","86147","0.0-54.0","2695","4969","14","Male","true","false","true","false","""event"",""trial"",""time""
""fullscreenenter"",""5"",""8967""
""fullscreenexit"",""34"",""54426""
","
","
","""event"",""trial"",""time""
""fullscreenenter"",""5"",""8967""
","""event"",""trial"",""time""
""fullscreenexit"",""34"",""54426""
","","","","","","","","","","","","","","","","","","","","","",""
"d3-instructions","55","86867","0.0-55.0","2695","4969","14","Male","true","false","true","false","""event"",""trial"",""time""
""fullscreenenter"",""5"",""8967""
""fullscreenexit"",""34"",""54426""
","
","
","""event"",""trial"",""time""
""fullscreenenter"",""5"",""8967""
","""event"",""trial"",""time""
""fullscreenexit"",""34"",""54426""
","","","","","","","","","","","","","","","","","","","","","",""
"d3-instructions","56","87215","0.0-56.0","2695","4969","14","Male","true","false","true","false","""event"",""trial"",""time""
""fullscreenenter"",""5"",""8967""
""fullscreenexit"",""34"",""54426""
","
","
","""event"",""trial"",""time""
""fullscreenenter"",""5"",""8967""
","""event"",""trial"",""time""
""fullscreenexit"",""34"",""54426""
","","","","","","","","","","","","","","","","","","","","","",""
"d3-instructions","57","87500","0.0-57.0","2695","4969","14","Male","true","false","true","false","""event"",""trial"",""time""
""fullscreenenter"",""5"",""8967""
""fullscreenexit"",""34"",""54426""
","
","
","""event"",""trial"",""time""
""fullscreenenter"",""5"",""8967""
","""event"",""trial"",""time""
""fullscreenexit"",""34"",""54426""
","","","","","","","","","","","","","","","","","","","","","",""
"d3-instructions","58","87802","0.0-58.0","2695","4969","14","Male","true","false","true","false","""event"",""trial"",""time""
""fullscreenenter"",""5"",""8967""
""fullscreenexit"",""34"",""54426""
","
","
","""event"",""trial"",""time""
""fullscreenenter"",""5"",""8967""
","""event"",""trial"",""time""
""fullscreenexit"",""34"",""54426""
","","","","","","","","","","","","","","","","","","","","","",""
"d3-instructions","59","88326","0.0-59.0","2695","4969","14","Male","true","false","true","false","""event"",""trial"",""time""
""fullscreenenter"",""5"",""8967""
""fullscreenexit"",""34"",""54426""
","
","
","""event"",""trial"",""time""
""fullscreenenter"",""5"",""8967""
","""event"",""trial"",""time""
""fullscreenexit"",""34"",""54426""
","","","","","","","","","","","","","","","","","","","","","",""
"d3-instructions","60","88674","0.0-60.0","2695","4969","14","Male","true","false","true","false","""event"",""trial"",""time""
""fullscreenenter"",""5"",""8967""
""fullscreenexit"",""34"",""54426""
","
","
","""event"",""trial"",""time""
""fullscreenenter"",""5"",""8967""
","""event"",""trial"",""time""
""fullscreenexit"",""34"",""54426""
","","","","","","","","","","","","","","","","","","","","","",""
"d3-animate-choice","61","91890","0.0-61.0-0.0","2695","4969","14","Male","true","false","true","false","""event"",""trial"",""time""
""fullscreenenter"",""5"",""8967""
""fullscreenexit"",""34"",""54426""
","
","
","""event"",""trial"",""time""
""fullscreenenter"",""5"",""8967""
","""event"",""trial"",""time""
""fullscreenexit"",""34"",""54426""
","1183.1999998092651","","49","","","3000","1","","","images/earth.jpg","images/tutrocket1","images/tutrocket2","null","images/tutrocket2","","1","practice","null","1","","",""
"d3-animate-choice","62","94969","0.0-61.0-1.0","2695","4969","14","Male","true","false","true","false","""event"",""trial"",""time""
""fullscreenenter"",""5"",""8967""
""fullscreenexit"",""34"",""54426""
","
","
","""event"",""trial"",""time""
""fullscreenenter"",""5"",""8967""
","""event"",""trial"",""time""
""fullscreenexit"",""34"",""54426""
","1058.5999999046326","","49","","","3000","1","","","images/tutgreenplanet.jpg","images/tutalien2","images/tutalien1","images/tutrocket2","images/tutalien1","images/t.png","2","practice","true","1","common","1","2022-12-07 04:27:15.507"
"two-step-fixation","63","95999","0.0-61.0-2.0","2695","4969","14","Male","true","false","true","false","""event"",""trial"",""time""
""fullscreenenter"",""5"",""8967""
""fullscreenexit"",""34"",""54426""
","
","
","""event"",""trial"",""time""
""fullscreenenter"",""5"",""8967""
","""event"",""trial"",""time""
""fullscreenexit"",""34"",""54426""
","","images/earth.jpg","","","","","","","","","","","","","","fixation","","","","","",""
"d3-animate-choice","64","99276","0.0-61.0-0.1","2695","4969","14","Male","true","false","true","false","""event"",""trial"",""time""
""fullscreenenter"",""5"",""8967""
""fullscreenexit"",""34"",""54426""
","
","
","""event"",""trial"",""time""
""fullscreenenter"",""5"",""8967""
","""event"",""trial"",""time""
""fullscreenexit"",""34"",""54426""
","1268.3000001907349","","48","","","3000","1","","","images/earth.jpg","images/tutrocket1","images/tutrocket2","null","images/tutrocket1","","1","practice","null","2","","",""
"d3-animate-choice","65","102328","0.0-61.0-1.1","2695","4969","14","Male","true","false","true","false","""event"",""trial"",""time""
""fullscreenenter"",""5"",""8967""
""fullscreenexit"",""34"",""54426""
","
","
","""event"",""trial"",""time""
""fullscreenenter"",""5"",""8967""
","""event"",""trial"",""time""
""fullscreenexit"",""34"",""54426""
","1046.6999998092651","","49","","","3000","1","","","images/tutyellowplanet.jpg","images/tutalien4","images/tutalien3","images/tutrocket1","images/tutalien3","images/t.png","2","practice","true","1","common","1","2022-12-07 04:27:22.865"
"two-step-fixation","66","103344","0.0-61.0-2.1","2695","4969","14","Male","true","false","true","false","""event"",""trial"",""time""
""fullscreenenter"",""5"",""8967""
""fullscreenexit"",""34"",""54426""
","
","
","""event"",""trial"",""time""
""fullscreenenter"",""5"",""8967""
","""event"",""trial"",""time""
""fullscreenexit"",""34"",""54426""
","","images/earth.jpg","","","","","","","","","","","","","","fixation","","","","","",""
"d3-animate-choice","67","106425","0.0-61.0-0.2","2695","4969","14","Male","true","false","true","false","""event"",""trial"",""time""
""fullscreenenter"",""5"",""8967""
""fullscreenexit"",""34"",""54426""
","
","
","""event"",""trial"",""time""
""fullscreenenter"",""5"",""8967""
","""event"",""trial"",""time""
""fullscreenexit"",""34"",""54426""
","1066.4000000953674","","49","","","3000","1","","","images/earth.jpg","images/tutrocket1","images/tutrocket2","null","images/tutrocket2","","1","practice","null","1","","",""
"d3-animate-choice","68","109303","0.0-61.0-1.2","2695","4969","14","Male","true","false","true","false","""event"",""trial"",""time""
""fullscreenenter"",""5"",""8967""
""fullscreenexit"",""34"",""54426""
","
","
","""event"",""trial"",""time""
""fullscreenenter"",""5"",""8967""
","""event"",""trial"",""time""
""fullscreenexit"",""34"",""54426""
","867.5","","49","","","3000","1","","","images/tutgreenplanet.jpg","images/tutalien2","images/tutalien1","images/tutrocket2","images/tutalien1","images/t.png","2","practice","true","1","common","1","2022-12-07 04:27:29.840"
"two-step-fixation","69","110324","0.0-61.0-2.2","2695","4969","14","Male","true","false","true","false","""event"",""trial"",""time""
""fullscreenenter"",""5"",""8967""
""fullscreenexit"",""34"",""54426""
","
","
","""event"",""trial"",""time""
""fullscreenenter"",""5"",""8967""
","""event"",""trial"",""time""
""fullscreenexit"",""34"",""54426""
","","images/earth.jpg","","","","","","","","","","","","","","fixation","","","","","",""
"d3-animate-choice","70","112913","0.0-61.0-0.3","2695","4969","14","Male","true","false","true","false","""event"",""trial"",""time""
""fullscreenenter"",""5"",""8967""
""fullscreenexit"",""34"",""54426""
","
","
","""event"",""trial"",""time""
""fullscreenenter"",""5"",""8967""
","""event"",""trial"",""time""
""fullscreenexit"",""34"",""54426""
","576.4000000953674","","49","","","3000","1","","","images/earth.jpg","images/tutrocket1","images/tutrocket2","null","images/tutrocket2","","1","practice","null","1","","",""
"d3-animate-choice","71","115735","0.0-61.0-1.3","2695","4969","14","Male","true","false","true","false","""event"",""trial"",""time""
""fullscreenenter"",""5"",""8967""
""fullscreenexit"",""34"",""54426""
","
","
","""event"",""trial"",""time""
""fullscreenenter"",""5"",""8967""
","""event"",""trial"",""time""
""fullscreenexit"",""34"",""54426""
","810.3999996185303","","49","","","3000","1","","","images/tutgreenplanet.jpg","images/tutalien2","images/tutalien1","images/tutrocket2","images/tutalien1","images/nothing.png","2","practice","true","1","common","0","2022-12-07 04:27:36.272"
"two-step-fixation","72","116754","0.0-61.0-2.3","2695","4969","14","Male","true","false","true","false","""event"",""trial"",""time""
""fullscreenenter"",""5"",""8967""
""fullscreenexit"",""34"",""54426""
","
","
","""event"",""trial"",""time""
""fullscreenenter"",""5"",""8967""
","""event"",""trial"",""time""
""fullscreenexit"",""34"",""54426""
","","images/earth.jpg","","","","","","","","","","","","","","fixation","","","","","",""
"d3-animate-choice","73","119143","0.0-61.0-0.4","2695","4969","14","Male","true","false","true","false","""event"",""trial"",""time""
""fullscreenenter"",""5"",""8967""
""fullscreenexit"",""34"",""54426""
","
","
","""event"",""trial"",""time""
""fullscreenenter"",""5"",""8967""
","""event"",""trial"",""time""
""fullscreenexit"",""34"",""54426""
","374.7000002861023","","49","","","3000","1","","","images/earth.jpg","images/tutrocket1","images/tutrocket2","null","images/tutrocket2","","1","practice","null","1","","",""
"d3-animate-choice","74","121775","0.0-61.0-1.4","2695","4969","14","Male","true","false","true","false","""event"",""trial"",""time""
""fullscreenenter"",""5"",""8967""
""fullscreenexit"",""34"",""54426""
","
","
","""event"",""trial"",""time""
""fullscreenenter"",""5"",""8967""
","""event"",""trial"",""time""
""fullscreenexit"",""34"",""54426""
","622.4000000953674","","49","","","3000","1","","","images/tutgreenplanet.jpg","images/tutalien2","images/tutalien1","images/tutrocket2","images/tutalien1","images/nothing.png","2","practice","true","1","common","0","2022-12-07 04:27:42.312"
"two-step-fixation","75","122783","0.0-61.0-2.4","2695","4969","14","Male","true","false","true","false","""event"",""trial"",""time""
""fullscreenenter"",""5"",""8967""
""fullscreenexit"",""34"",""54426""
","
","
","""event"",""trial"",""time""
""fullscreenenter"",""5"",""8967""
","""event"",""trial"",""time""
""fullscreenexit"",""34"",""54426""
","","images/earth.jpg","","","","","","","","","","","","","","fixation","","","","","",""
"d3-animate-choice","76","125191","0.0-61.0-0.5","2695","4969","14","Male","true","false","true","false","""event"",""trial"",""time""
""fullscreenenter"",""5"",""8967""
""fullscreenexit"",""34"",""54426""
","
","
","""event"",""trial"",""time""
""fullscreenenter"",""5"",""8967""
","""event"",""trial"",""time""
""fullscreenexit"",""34"",""54426""
","395.30000019073486","","49","","","3000","1","","","images/earth.jpg","images/tutrocket1","images/tutrocket2","null","images/tutrocket2","","1","practice","null","1","","",""
"d3-animate-choice","77","127600","0.0-61.0-1.5","2695","4969","14","Male","true","false","true","false","""event"",""trial"",""time""
""fullscreenenter"",""5"",""8967""
""fullscreenexit"",""34"",""54426""
","
","
","""event"",""trial"",""time""
""fullscreenenter"",""5"",""8967""
","""event"",""trial"",""time""
""fullscreenexit"",""34"",""54426""
","398.5","","49","","","3000","1","","","images/tutyellowplanet.jpg","images/tutalien4","images/tutalien3","images/tutrocket2","images/tutalien3","images/nothing.png","2","practice","false","1","rare","0","2022-12-07 04:27:48.137"
"two-step-fixation","78","128615","0.0-61.0-2.5","2695","4969","14","Male","true","false","true","false","""event"",""trial"",""time""
""fullscreenenter"",""5"",""8967""
""fullscreenexit"",""34"",""54426""
","
","
","""event"",""trial"",""time""
""fullscreenenter"",""5"",""8967""
","""event"",""trial"",""time""
""fullscreenexit"",""34"",""54426""
","","images/earth.jpg","","","","","","","","","","","","","","fixation","","","","","",""
"d3-animate-choice","79","130910","0.0-61.0-0.6","2695","4969","14","Male","true","false","true","false","""event"",""trial"",""time""
""fullscreenenter"",""5"",""8967""
""fullscreenexit"",""34"",""54426""
","
","
","""event"",""trial"",""time""
""fullscreenenter"",""5"",""8967""
","""event"",""trial"",""time""
""fullscreenexit"",""34"",""54426""
","282.09999990463257","","48","","","3000","1","","","images/earth.jpg","images/tutrocket1","images/tutrocket2","null","images/tutrocket1","","1","practice","null","2","","",""
"d3-animate-choice","80","133207","0.0-61.0-1.6","2695","4969","14","Male","true","false","true","false","""event"",""trial"",""time""
""fullscreenenter"",""5"",""8967""
""fullscreenexit"",""34"",""54426""
","
","
","""event"",""trial"",""time""
""fullscreenenter"",""5"",""8967""
","""event"",""trial"",""time""
""fullscreenexit"",""34"",""54426""
","288.30000019073486","","48","","","3000","1","2119.6000003814697","48","images/tutyellowplanet.jpg","images/tutalien4","images/tutalien3","images/tutrocket1","images/tutalien4","images/nothing.png","2","practice","true","2","common","0","2022-12-07 04:27:53.745"
"two-step-fixation","81","134216","0.0-61.0-2.6","2695","4969","14","Male","true","false","true","false","""event"",""trial"",""time""
""fullscreenenter"",""5"",""8967""
""fullscreenexit"",""34"",""54426""
","
","
","""event"",""trial"",""time""
""fullscreenenter"",""5"",""8967""
","""event"",""trial"",""time""
""fullscreenexit"",""34"",""54426""
","","images/earth.jpg","","","","","","","","","","","","","","fixation","","","","","",""
"d3-animate-choice","82","136343","0.0-61.0-0.7","2695","4969","14","Male","true","false","true","false","""event"",""trial"",""time""
""fullscreenenter"",""5"",""8967""
""fullscreenexit"",""34"",""54426""
","
","
","""event"",""trial"",""time""
""fullscreenenter"",""5"",""8967""
","""event"",""trial"",""time""
""fullscreenexit"",""34"",""54426""
","112.5","","48","","","3000","1","","","images/earth.jpg","images/tutrocket1","images/tutrocket2","null","images/tutrocket1","","1","practice","null","2","","",""
"d3-animate-choice","83","138696","0.0-61.0-1.7","2695","4969","14","Male","true","false","true","false","""event"",""trial"",""time""
""fullscreenenter"",""5"",""8967""
""fullscreenexit"",""34"",""54426""
","
","
","""event"",""trial"",""time""
""fullscreenenter"",""5"",""8967""
","""event"",""trial"",""time""
""fullscreenexit"",""34"",""54426""
","343.19999980926514","","48","","","3000","1","","","images/tutgreenplanet.jpg","images/tutalien2","images/tutalien1","images/tutrocket1","images/tutalien2","images/nothing.png","2","practice","false","2","rare","0","2022-12-07 04:27:59.233"
"two-step-fixation","84","139703","0.0-61.0-2.7","2695","4969","14","Male","true","false","true","false","""event"",""trial"",""time""
""fullscreenenter"",""5"",""8967""
""fullscreenexit"",""34"",""54426""
","
","
","""event"",""trial"",""time""
""fullscreenenter"",""5"",""8967""
","""event"",""trial"",""time""
""fullscreenexit"",""34"",""54426""
","","images/earth.jpg","","","","","","","","","","","","","","fixation","","","","","",""
"d3-animate-choice","85","141863","0.0-61.0-0.8","2695","4969","14","Male","true","false","true","false","""event"",""trial"",""time""
""fullscreenenter"",""5"",""8967""
""fullscreenexit"",""34"",""54426""
","
","
","""event"",""trial"",""time""
""fullscreenenter"",""5"",""8967""
","""event"",""trial"",""time""
""fullscreenexit"",""34"",""54426""
","151.40000009536743","","48","","","3000","1","","","images/earth.jpg","images/tutrocket1","images/tutrocket2","null","images/tutrocket1","","1","practice","null","2","","",""
"d3-animate-choice","86","144288","0.0-61.0-1.8","2695","4969","14","Male","true","false","true","false","""event"",""trial"",""time""
""fullscreenenter"",""5"",""8967""
""fullscreenexit"",""34"",""54426""
","
","
","""event"",""trial"",""time""
""fullscreenenter"",""5"",""8967""
","""event"",""trial"",""time""
""fullscreenexit"",""34"",""54426""
","416.5","","48","","","3000","1","","","images/tutyellowplanet.jpg","images/tutalien4","images/tutalien3","images/tutrocket1","images/tutalien4","images/t.png","2","practice","true","2","common","1","2022-12-07 04:28:04.825"
"two-step-fixation","87","145303","0.0-61.0-2.8","2695","4969","14","Male","true","false","true","false","""event"",""trial"",""time""
""fullscreenenter"",""5"",""8967""
""fullscreenexit"",""34"",""54426""
","
","
","""event"",""trial"",""time""
""fullscreenenter"",""5"",""8967""
","""event"",""trial"",""time""
""fullscreenexit"",""34"",""54426""
","","images/earth.jpg","","","","","","","","","","","","","","fixation","","","","","",""
"d3-animate-choice","88","147327","0.0-61.0-0.9","2695","4969","14","Male","true","false","true","false","""event"",""trial"",""time""
""fullscreenenter"",""5"",""8967""
""fullscreenexit"",""34"",""54426""
","
","
","""event"",""trial"",""time""
""fullscreenenter"",""5"",""8967""
","""event"",""trial"",""time""
""fullscreenexit"",""34"",""54426""
","10.5","","48","","","3000","1","1169.3000001907349,1602.0999999046326,1917.8000001907349","48,48,48","images/earth.jpg","images/tutrocket1","images/tutrocket2","null","images/tutrocket1","","1","practice","null","2","","",""
"d3-animate-choice","89","149567","0.0-61.0-1.9","2695","4969","14","Male","true","false","true","false","""event"",""trial"",""time""
""fullscreenenter"",""5"",""8967""
""fullscreenexit"",""34"",""54426""
","
","
","""event"",""trial"",""time""
""fullscreenenter"",""5"",""8967""
","""event"",""trial"",""time""
""fullscreenexit"",""34"",""54426""
","227.69999980926514","","48","","","3000","1","","","images/tutyellowplanet.jpg","images/tutalien4","images/tutalien3","images/tutrocket1","images/tutalien4","images/nothing.png","2","practice","true","2","common","0","2022-12-07 04:28:10.104"
"two-step-fixation","90","150575","0.0-61.0-2.9","2695","4969","14","Male","true","false","true","false","""event"",""trial"",""time""
""fullscreenenter"",""5"",""8967""
""fullscreenexit"",""34"",""54426""
","
","
","""event"",""trial"",""time""
""fullscreenenter"",""5"",""8967""
","""event"",""trial"",""time""
""fullscreenexit"",""34"",""54426""
","","images/earth.jpg","","","","","","","","","","","","","","fixation","","","","","",""
"d3-animate-choice","91","152623","0.0-61.0-0.10","2695","4969","14","Male","true","false","true","false","""event"",""trial"",""time""
""fullscreenenter"",""5"",""8967""
""fullscreenexit"",""34"",""54426""
","
","
","""event"",""trial"",""time""
""fullscreenenter"",""5"",""8967""
","""event"",""trial"",""time""
""fullscreenexit"",""34"",""54426""
","41","","48","","","3000","1","318.80000019073486,574.0999999046326,822,1146.5","48,48,48,48","images/earth.jpg","images/tutrocket1","images/tutrocket2","null","images/tutrocket1","","1","practice","null","2","","",""
"d3-animate-choice","92","155336","0.0-61.0-1.10","2695","4969","14","Male","true","false","true","false","""event"",""trial"",""time""
""fullscreenenter"",""5"",""8967""
""fullscreenexit"",""34"",""54426""
","
","
","""event"",""trial"",""time""
""fullscreenenter"",""5"",""8967""
","""event"",""trial"",""time""
""fullscreenexit"",""34"",""54426""
","703","","48","","","3000","1","967.1000003814697,1283,1607.5,1933.4000000953674,2256.6000003814697,2651.9000000953674","48,48,48,48,48,48","images/tutgreenplanet.jpg","images/tutalien2","images/tutalien1","images/tutrocket1","images/tutalien2","images/t.png","2","practice","false","2","rare","1","2022-12-07 04:28:15.873"
"two-step-fixation","93","156343","0.0-61.0-2.10","2695","4969","14","Male","true","false","true","false","""event"",""trial"",""time""
""fullscreenenter"",""5"",""8967""
""fullscreenexit"",""34"",""54426""
","
","
","""event"",""trial"",""time""
""fullscreenenter"",""5"",""8967""
","""event"",""trial"",""time""
""fullscreenexit"",""34"",""54426""
","","images/earth.jpg","","","","","","","","","","","","","","fixation","","","","","",""
"d3-animate-choice","94","158424","0.0-61.0-0.11","2695","4969","14","Male","true","false","true","false","""event"",""trial"",""time""
""fullscreenenter"",""5"",""8967""
""fullscreenexit"",""34"",""54426""
","
","
","""event"",""trial"",""time""
""fullscreenenter"",""5"",""8967""
","""event"",""trial"",""time""
""fullscreenexit"",""34"",""54426""
","70.40000009536743","","48","","","3000","1","347.69999980926514,549.4000000953674,758.6999998092651,1005.0999999046326,1268.2999997138977,1508.0999999046326,1769.9000000953674,2047.1999998092651","48,48,48,48,48,48,48,48","images/earth.jpg","images/tutrocket1","images/tutrocket2","null","images/tutrocket1","","1","practice","null","2","","",""
"d3-animate-choice","95","160669","0.0-61.0-1.11","2695","4969","14","Male","true","false","true","false","""event"",""trial"",""time""
""fullscreenenter"",""5"",""8967""
""fullscreenexit"",""34"",""54426""
","
","
","""event"",""trial"",""time""
""fullscreenenter"",""5"",""8967""
","""event"",""trial"",""time""
""fullscreenexit"",""34"",""54426""
","227.5","","48","","","3000","1","499.80000019073486,768.3000001907349,1037.4000000953674,1317,1618.0999999046326,2112.0999999046326","48,48,48,48,48,48","images/tutyellowplanet.jpg","images/tutalien4","images/tutalien3","images/tutrocket1","images/tutalien4","images/nothing.png","2","practice","true","2","common","0","2022-12-07 04:28:21.206"
"two-step-fixation","96","161677","0.0-61.0-2.11","2695","4969","14","Male","true","false","true","false","""event"",""trial"",""time""
""fullscreenenter"",""5"",""8967""
""fullscreenexit"",""34"",""54426""
","
","
","""event"",""trial"",""time""
""fullscreenenter"",""5"",""8967""
","""event"",""trial"",""time""
""fullscreenexit"",""34"",""54426""
","","images/earth.jpg","","","","","","","","","","","","","","fixation","","","","","",""
"d3-animate-choice","97","163813","0.0-61.0-0.12","2695","4969","14","Male","true","false","true","false","""event"",""trial"",""time""
""fullscreenenter"",""5"",""8967""
""fullscreenexit"",""34"",""54426""
","
","
","""event"",""trial"",""time""
""fullscreenenter"",""5"",""8967""
","""event"",""trial"",""time""
""fullscreenexit"",""34"",""54426""
","125.60000038146973","","48","","","3000","1","372.40000009536743,595.9000000953674,890,1168.7000002861023,1469.2000002861023,1778.3000001907349,2057.6000003814697","48,48,48,48,48,48,48","images/earth.jpg","images/tutrocket1","images/tutrocket2","null","images/tutrocket1","","1","practice","null","2","","",""
"d3-animate-choice","98","166038","0.0-61.0-1.12","2695","4969","14","Male","true","false","true","false","""event"",""trial"",""time""
""fullscreenenter"",""5"",""8967""
""fullscreenexit"",""34"",""54426""
","
","
","""event"",""trial"",""time""
""fullscreenenter"",""5"",""8967""
","""event"",""trial"",""time""
""fullscreenexit"",""34"",""54426""
","217.19999980926514","","48","","","3000","1","495.69999980926514,789.6999998092651,1052,1307.0999999046326,1577,1839.6999998092651,2109.5999999046326","48,48,48,48,48,48,48","images/tutyellowplanet.jpg","images/tutalien4","images/tutalien3","images/tutrocket1","images/tutalien4","images/t.png","2","practice","true","2","common","1","2022-12-07 04:28:26.575"
"two-step-fixation","99","167046","0.0-61.0-2.12","2695","4969","14","Male","true","false","true","false","""event"",""trial"",""time""
""fullscreenenter"",""5"",""8967""
""fullscreenexit"",""34"",""54426""
","
","
","""event"",""trial"",""time""
""fullscreenenter"",""5"",""8967""
","""event"",""trial"",""time""
""fullscreenexit"",""34"",""54426""
","","images/earth.jpg","","","","","","","","","","","","","","fixation","","","","","",""
"d3-animate-choice","100","169277","0.0-61.0-0.13","2695","4969","14","Male","true","false","true","false","""event"",""trial"",""time""
""fullscreenenter"",""5"",""8967""
""fullscreenexit"",""34"",""54426""
","
","
","""event"",""trial"",""time""
""fullscreenenter"",""5"",""8967""
","""event"",""trial"",""time""
""fullscreenexit"",""34"",""54426""
","218.2999997138977","","48","","","3000","1","457.19999980926514,704.5999999046326,960.1999998092651,1207.1999998092651,1484,1739.5999999046326,1994.9000000953674","48,48,48,48,48,48,48","images/earth.jpg","images/tutrocket1","images/tutrocket2","null","images/tutrocket1","","1","practice","null","2","","",""
"d3-animate-choice","101","171325","0.0-61.0-1.13","2695","4969","14","Male","true","false","true","false","""event"",""trial"",""time""
""fullscreenenter"",""5"",""8967""
""fullscreenexit"",""34"",""54426""
","
","
","""event"",""trial"",""time""
""fullscreenenter"",""5"",""8967""
","""event"",""trial"",""time""
""fullscreenexit"",""34"",""54426""
","34.60000038146973","","48","","","3000","1","350.40000009536743,598.7000002861023,923.7000002861023,1163.5,1464.2000002861023,1804.1000003814697","48,48,48,48,48,48","images/tutgreenplanet.jpg","images/tutalien2","images/tutalien1","images/tutrocket1","images/tutalien2","images/nothing.png","2","practice","false","2","rare","0","2022-12-07 04:28:31.862"
"two-step-fixation","102","172339","0.0-61.0-2.13","2695","4969","14","Male","true","false","true","false","""event"",""trial"",""time""
""fullscreenenter"",""5"",""8967""
""fullscreenexit"",""34"",""54426""
","
","
","""event"",""trial"",""time""
""fullscreenenter"",""5"",""8967""
","""event"",""trial"",""time""
""fullscreenexit"",""34"",""54426""
","","images/earth.jpg","","","","","","","","","","","","","","fixation","","","","","",""
"d3-animate-choice","103","174381","0.0-61.0-0.14","2695","4969","14","Male","true","false","true","false","""event"",""trial"",""time""
""fullscreenenter"",""5"",""8967""
""fullscreenexit"",""34"",""54426""
","
","
","""event"",""trial"",""time""
""fullscreenenter"",""5"",""8967""
","""event"",""trial"",""time""
""fullscreenexit"",""34"",""54426""
","35.59999990463257","","48","","","3000","1","320.5,615.0999999046326,900.7999997138977,1184.5,1472,1765.7999997138977","48,48,48,48,48,48","images/earth.jpg","images/tutrocket1","images/tutrocket2","null","images/tutrocket1","","1","practice","null","2","","",""
"d3-animate-choice","104","176405","0.0-61.0-1.14","2695","4969","14","Male","true","false","true","false","""event"",""trial"",""time""
""fullscreenenter"",""5"",""8967""
""fullscreenexit"",""34"",""54426""
","
","
","""event"",""trial"",""time""
""fullscreenenter"",""5"",""8967""
","""event"",""trial"",""time""
""fullscreenexit"",""34"",""54426""
","15.700000286102295","","48","","","3000","1","333.09999990463257,587.5999999046326,858.9000000953674,1175.3000001907349,1894.5","48,48,48,48,48","images/tutyellowplanet.jpg","images/tutalien4","images/tutalien3","images/tutrocket1","images/tutalien4","images/t.png","2","practice","true","2","common","1","2022-12-07 04:28:36.943"
"two-step-fixation","105","177413","0.0-61.0-2.14","2695","4969","14","Male","true","false","true","false","""event"",""trial"",""time""
""fullscreenenter"",""5"",""8967""
""fullscreenexit"",""34"",""54426""
","
","
","""event"",""trial"",""time""
""fullscreenenter"",""5"",""8967""
","""event"",""trial"",""time""
""fullscreenexit"",""34"",""54426""
","","images/earth.jpg","","","","","","","","","","","","","","fixation","","","","","",""
"d3-animate-choice","106","179476","0.0-61.0-0.15","2695","4969","14","Male","true","false","true","false","""event"",""trial"",""time""
""fullscreenenter"",""5"",""8967""
""fullscreenexit"",""34"",""54426""
","
","
","""event"",""trial"",""time""
""fullscreenenter"",""5"",""8967""
","""event"",""trial"",""time""
""fullscreenexit"",""34"",""54426""
","51.80000019073486","","48","","","3000","1","352.7000002861023,631.8000001907349,932.7000002861023,1264.7000002861023,1543.3000001907349,1867.8000001907349","48,48,48,48,48,48","images/earth.jpg","images/tutrocket1","images/tutrocket2","null","images/tutrocket1","","1","practice","null","2","","",""
"d3-animate-choice","107","181540","0.0-61.0-1.15","2695","4969","14","Male","true","false","true","false","""event"",""trial"",""time""
""fullscreenenter"",""5"",""8967""
""fullscreenexit"",""34"",""54426""
","
","
","""event"",""trial"",""time""
""fullscreenenter"",""5"",""8967""
","""event"",""trial"",""time""
""fullscreenexit"",""34"",""54426""
","51.09999990463257","","48","","","3000","1","366.90000009536743,754.5,1086.5999999046326,1341.9000000953674,1658.2999997138977","48,48,48,48,48","images/tutgreenplanet.jpg","images/tutalien2","images/tutalien1","images/tutrocket1","images/tutalien2","images/t.png","2","practice","false","2","rare","1","2022-12-07 04:28:42.077"
"two-step-fixation","108","182558","0.0-61.0-2.15","2695","4969","14","Male","true","false","true","false","""event"",""trial"",""time""
""fullscreenenter"",""5"",""8967""
""fullscreenexit"",""34"",""54426""
","
","
","""event"",""trial"",""time""
""fullscreenenter"",""5"",""8967""
","""event"",""trial"",""time""
""fullscreenexit"",""34"",""54426""
","","images/earth.jpg","","","","","","","","","","","","","","fixation","","","","","",""
"d3-animate-choice","109","184932","0.0-61.0-0.16","2695","4969","14","Male","true","false","true","false","""event"",""trial"",""time""
""fullscreenenter"",""5"",""8967""
""fullscreenexit"",""34"",""54426""
","
","
","""event"",""trial"",""time""
""fullscreenenter"",""5"",""8967""
","""event"",""trial"",""time""
""fullscreenexit"",""34"",""54426""
","362.40000009536743","","48","","","3000","1","685.7999997138977,1891.0999999046326,2223.7999997138977","48,48,48","images/earth.jpg","images/tutrocket1","images/tutrocket2","null","images/tutrocket1","","1","practice","null","2","","",""
"d3-animate-choice","110","187100","0.0-61.0-1.16","2695","4969","14","Male","true","false","true","false","""event"",""trial"",""time""
""fullscreenenter"",""5"",""8967""
""fullscreenexit"",""34"",""54426""
","
","
","""event"",""trial"",""time""
""fullscreenenter"",""5"",""8967""
","""event"",""trial"",""time""
""fullscreenexit"",""34"",""54426""
","159.40000009536743","","48","","","3000","1","390.5,707.6999998092651,1046.7999997138977","48,48,48","images/tutyellowplanet.jpg","images/tutalien4","images/tutalien3","images/tutrocket1","images/tutalien4","images/t.png","2","practice","true","2","common","1","2022-12-07 04:28:47.638"
"two-step-fixation","111","188107","0.0-61.0-2.16","2695","4969","14","Male","true","false","true","false","""event"",""trial"",""time""
""fullscreenenter"",""5"",""8967""
""fullscreenexit"",""34"",""54426""
","
","
","""event"",""trial"",""time""
""fullscreenenter"",""5"",""8967""
","""event"",""trial"",""time""
""fullscreenexit"",""34"",""54426""
","","images/earth.jpg","","","","","","","","","","","","","","fixation","","","","","",""
"d3-animate-choice","112","190133","0.0-61.0-0.17","2695","4969","14","Male","true","false","true","false","""event"",""trial"",""time""
""fullscreenenter"",""5"",""8967""
""fullscreenexit"",""34"",""54426""
","
","
","""event"",""trial"",""time""
""fullscreenenter"",""5"",""8967""
","""event"",""trial"",""time""
""fullscreenexit"",""34"",""54426""
","13.899999618530273","","48","","","3000","1","538.0999999046326,1535.0999999046326,1845.3999996185303","48,48,48","images/earth.jpg","images/tutrocket1","images/tutrocket2","null","images/tutrocket1","","1","practice","null","2","","",""
"d3-animate-choice","113","192341","0.0-61.0-1.17","2695","4969","14","Male","true","false","true","false","""event"",""trial"",""time""
""fullscreenenter"",""5"",""8967""
""fullscreenexit"",""34"",""54426""
","
","
","""event"",""trial"",""time""
""fullscreenenter"",""5"",""8967""
","""event"",""trial"",""time""
""fullscreenexit"",""34"",""54426""
","196.5","","48","","","3000","1","513.5999999046326,799.2999997138977,1116.0999999046326,1332,1594.6999998092651,1881,2151","48,48,48,48,48,48,48","images/tutyellowplanet.jpg","images/tutalien4","images/tutalien3","images/tutrocket1","images/tutalien4","images/t.png","2","practice","true","2","common","1","2022-12-07 04:28:52.879"
"two-step-fixation","114","193349","0.0-61.0-2.17","2695","4969","14","Male","true","false","true","false","""event"",""trial"",""time""
""fullscreenenter"",""5"",""8967""
""fullscreenexit"",""34"",""54426""
","
","
","""event"",""trial"",""time""
""fullscreenenter"",""5"",""8967""
","""event"",""trial"",""time""
""fullscreenexit"",""34"",""54426""
","","images/earth.jpg","","","","","","","","","","","","","","fixation","","","","","",""
"d3-animate-choice","115","197221","0.0-61.0-0.18","2695","4969","14","Male","true","false","true","false","""event"",""trial"",""time""
""fullscreenenter"",""5"",""8967""
""fullscreenexit"",""34"",""54426""
","
","
","""event"",""trial"",""time""
""fullscreenenter"",""5"",""8967""
","""event"",""trial"",""time""
""fullscreenexit"",""34"",""54426""
","1863.6999998092651","","48","","","3000","1","2103.699999809265,2327.2999997138977,2559.0999999046326,3385.8999996185303,3702.5","48,48,48,48,48","images/earth.jpg","images/tutrocket1","images/tutrocket2","null","images/tutrocket1","","1","practice","null","2","","",""
"d3-animate-choice","116","199365","0.0-61.0-1.18","2695","4969","14","Male","true","false","true","false","""event"",""trial"",""time""
""fullscreenenter"",""5"",""8967""
""fullscreenexit"",""34"",""54426""
","
","
","""event"",""trial"",""time""
""fullscreenenter"",""5"",""8967""
","""event"",""trial"",""time""
""fullscreenexit"",""34"",""54426""
","130.80000019073486","","48","","","3000","1","463.40000009536743,709.9000000953674,941.7000002861023,1219.8000001907349,1553.2000002861023,1923","48,48,48,48,48,48","images/tutyellowplanet.jpg","images/tutalien4","images/tutalien3","images/tutrocket1","images/tutalien4","images/t.png","2","practice","true","2","common","1","2022-12-07 04:28:59.902"
"two-step-fixation","117","200381","0.0-61.0-2.18","2695","4969","14","Male","true","false","true","false","""event"",""trial"",""time""
""fullscreenenter"",""5"",""8967""
""fullscreenexit"",""34"",""54426""
","
","
","""event"",""trial"",""time""
""fullscreenenter"",""5"",""8967""
","""event"",""trial"",""time""
""fullscreenexit"",""34"",""54426""
","","images/earth.jpg","","","","","","","","","","","","","","fixation","","","","","",""
"d3-animate-choice","118","202605","0.0-61.0-0.19","2695","4969","14","Male","true","false","true","false","""event"",""trial"",""time""
""fullscreenenter"",""5"",""8967""
""fullscreenexit"",""34"",""54426""
","
","
","""event"",""trial"",""time""
""fullscreenenter"",""5"",""8967""
","""event"",""trial"",""time""
""fullscreenexit"",""34"",""54426""
","209.7000002861023","","48","","","3000","1","495.40000009536743,820.7000002861023,1700.8000001907349,2056.9000000953674","48,48,48,48","images/earth.jpg","images/tutrocket1","images/tutrocket2","null","images/tutrocket1","","1","practice","null","2","","",""
"d3-animate-choice","119","204770","0.0-61.0-1.19","2695","4969","14","Male","true","false","true","false","""event"",""trial"",""time""
""fullscreenenter"",""5"",""8967""
""fullscreenexit"",""34"",""54426""
","
","
","""event"",""trial"",""time""
""fullscreenenter"",""5"",""8967""
","""event"",""trial"",""time""
""fullscreenexit"",""34"",""54426""
","153.7999997138977","","48","","","3000","1","455.19999980926514,764.6999998092651,1027.4000000953674,1312.1999998092651,1643.6999998092651,1969.9000000953674","48,48,48,48,48,48","images/tutyellowplanet.jpg","images/tutalien4","images/tutalien3","images/tutrocket1","images/tutalien4","images/nothing.png","2","practice","true","2","common","0","2022-12-07 04:29:05.307"
"two-step-fixation","120","205781","0.0-61.0-2.19","2695","4969","14","Male","true","false","true","false","""event"",""trial"",""time""
""fullscreenenter"",""5"",""8967""
""fullscreenexit"",""34"",""54426""
","
","
","""event"",""trial"",""time""
""fullscreenenter"",""5"",""8967""
","""event"",""trial"",""time""
""fullscreenexit"",""34"",""54426""
","","images/earth.jpg","","","","","","","","","","","","","","fixation","","","","","",""
"d3-instructions","121","210207","0.0-62.0","2695","4969","14","Male","true","false","true","false","""event"",""trial"",""time""
""fullscreenenter"",""5"",""8967""
""fullscreenexit"",""34"",""54426""
","
","
","""event"",""trial"",""time""
""fullscreenenter"",""5"",""8967""
","""event"",""trial"",""time""
""fullscreenexit"",""34"",""54426""
","","","","","","","","","","","","","","","","","","","","","",""
"audio-keyboard-response","122","212057","0.0-63.0","2695","4969","14","Male","true","false","true","false","""event"",""trial"",""time""
""fullscreenenter"",""5"",""8967""
""fullscreenexit"",""34"",""54426""
","
","
","""event"",""trial"",""time""
""fullscreenenter"",""5"",""8967""
","""event"",""trial"",""time""
""fullscreenexit"",""34"",""54426""
","1851","audio/instructions/treasure_feedback.wav","32","","","","","","","","","","","","","","","","","","",""
"d3-instructions","123","217655","0.0-64.0","2695","4969","14","Male","true","false","true","false","""event"",""trial"",""time""
""fullscreenenter"",""5"",""8967""
""fullscreenexit"",""34"",""54426""
","
","
","""event"",""trial"",""time""
""fullscreenenter"",""5"",""8967""
","""event"",""trial"",""time""
""fullscreenexit"",""34"",""54426""
","","","","","","","","","","","","","","","","","","","","","",""
"d3-instructions","124","225453","0.0-65.0","2695","4969","14","Male","true","false","true","false","""event"",""trial"",""time""
""fullscreenenter"",""5"",""8967""
""fullscreenexit"",""34"",""54426""
","
","
","""event"",""trial"",""time""
""fullscreenenter"",""5"",""8967""
","""event"",""trial"",""time""
""fullscreenexit"",""34"",""54426""
","","","","","","","","","","","","","","","","","","","","","",""
"d3-instructions","125","235188","0.0-66.0","2695","4969","14","Male","true","false","true","false","""event"",""trial"",""time""
""fullscreenenter"",""5"",""8967""
""fullscreenexit"",""34"",""54426""
","
","
","""event"",""trial"",""time""
""fullscreenenter"",""5"",""8967""
","""event"",""trial"",""time""
""fullscreenexit"",""34"",""54426""
","","","","","","","","","","","","","","","","","","","","","",""
"d3-instructions","126","241300","0.0-67.0","2695","4969","14","Male","true","false","true","false","""event"",""trial"",""time""
""fullscreenenter"",""5"",""8967""
""fullscreenexit"",""34"",""54426""
","
","
","""event"",""trial"",""time""
""fullscreenenter"",""5"",""8967""
","""event"",""trial"",""time""
""fullscreenexit"",""34"",""54426""
","","","","","","","","","","","","","","","","","","","","","",""
"d3-instructions","127","244089","0.0-68.0","2695","4969","14","Male","true","false","true","false","""event"",""trial"",""time""
""fullscreenenter"",""5"",""8967""
""fullscreenexit"",""34"",""54426""
","
","
","""event"",""trial"",""time""
""fullscreenenter"",""5"",""8967""
","""event"",""trial"",""time""
""fullscreenexit"",""34"",""54426""
","","","","","","","","","","","","","","","","","","","","","",""
"instructions-quiz","128","247011","0.0-69.0","2695","4969","14","Male","true","false","true","false","""event"",""trial"",""time""
""fullscreenenter"",""5"",""8967""
""fullscreenexit"",""34"",""54426""
","
","
","""event"",""trial"",""time""
""fullscreenenter"",""5"",""8967""
","""event"",""trial"",""time""
""fullscreenexit"",""34"",""54426""
","2918.699999809265","audio/quiz/Q1_Prompt.wav","","1","","","","","","","","","","","","","","","","","",""
"audio-keyboard-response","129","248879","0.0-70.0","2695","4969","14","Male","true","false","true","false","""event"",""trial"",""time""
""fullscreenenter"",""5"",""8967""
""fullscreenexit"",""34"",""54426""
","
","
","""event"",""trial"",""time""
""fullscreenenter"",""5"",""8967""
","""event"",""trial"",""time""
""fullscreenexit"",""34"",""54426""
","1869","audio/quiz/Q1_Correct.wav","32","","","","","","","","","","","","","","","","","","",""
"instructions-quiz","130","252629","0.0-71.0","2695","4969","14","Male","true","false","true","false","""event"",""trial"",""time""
""fullscreenenter"",""5"",""8967""
""fullscreenexit"",""34"",""54426""
","
","
","""event"",""trial"",""time""
""fullscreenenter"",""5"",""8967""
","""event"",""trial"",""time""
""fullscreenexit"",""34"",""54426""
","3747.800000190735","audio/quiz/Q2_Prompt.wav","","1","","","","","","","","","","","","","","","","","",""
"audio-keyboard-response","131","252975","0.0-72.0","2695","4969","14","Male","true","false","true","false","""event"",""trial"",""time""
""fullscreenenter"",""5"",""8967""
""fullscreenexit"",""34"",""54426""
","
","
","""event"",""trial"",""time""
""fullscreenenter"",""5"",""8967""
","""event"",""trial"",""time""
""fullscreenexit"",""34"",""54426""
","341","audio/quiz/Q2_Incorrect.wav","32","","","","","","","","","","","","","","","","","","",""
"instructions-quiz","132","256741","0.0-73.0","2695","4969","14","Male","true","false","true","false","""event"",""trial"",""time""
""fullscreenenter"",""5"",""8967""
""fullscreenexit"",""34"",""54426""
","
","
","""event"",""trial"",""time""
""fullscreenenter"",""5"",""8967""
","""event"",""trial"",""time""
""fullscreenexit"",""34"",""54426""
","3764.2000002861023","audio/quiz/Q3_Prompt.wav","","1","","","","","","","","","","","","","","","","","",""
"audio-keyboard-response","133","257356","0.0-74.0","2695","4969","14","Male","true","false","true","false","""event"",""trial"",""time""
""fullscreenenter"",""5"",""8967""
""fullscreenexit"",""34"",""54426""
","
","
","""event"",""trial"",""time""
""fullscreenenter"",""5"",""8967""
","""event"",""trial"",""time""
""fullscreenexit"",""34"",""54426""
","619","audio/quiz/Q3_Correct.wav","32","","","","","","","","","","","","","","","","","","",""
"d3-instructions","134","260207","0.0-75.0","2695","4969","14","Male","true","false","true","false","""event"",""trial"",""time""
""fullscreenenter"",""5"",""8967""
""fullscreenexit"",""34"",""54426""
","
","
","""event"",""trial"",""time""
""fullscreenenter"",""5"",""8967""
","""event"",""trial"",""time""
""fullscreenexit"",""34"",""54426""
","","","","","","","","","","","","","","","","","","","","","",""
"d3-animate-choice","135","263789","0.0-76.0-0.0","2695","4969","14","Male","true","false","true","false","""event"",""trial"",""time""
""fullscreenenter"",""5"",""8967""
""fullscreenexit"",""34"",""54426""
","
","
","""event"",""trial"",""time""
""fullscreenenter"",""5"",""8967""
","""event"",""trial"",""time""
""fullscreenexit"",""34"",""54426""
","1570.2999997138977","","49","","","3000","1","","","images/earth.jpg","images/rocket2","images/rocket1","null","images/rocket1","","1","real","null","1","","",""
"d3-animate-choice","136","266901","0.0-76.0-1.0","2695","4969","14","Male","true","false","true","false","""event"",""trial"",""time""
""fullscreenenter"",""5"",""8967""
""fullscreenexit"",""34"",""54426""
","
","
","""event"",""trial"",""time""
""fullscreenenter"",""5"",""8967""
","""event"",""trial"",""time""
""fullscreenexit"",""34"",""54426""
","1102.3999996185303","","49","","","3000","1","","","images/purpleplanet.jpg","images/alien4","images/alien3","images/rocket1","images/alien3","images/nothing.png","2","real","true","1","common","0","2022-12-07 04:30:07.439"
"two-step-fixation","137","267914","0.0-76.0-2.0","2695","4969","14","Male","true","false","true","false","""event"",""trial"",""time""
""fullscreenenter"",""5"",""8967""
""fullscreenexit"",""34"",""54426""
","
","
","""event"",""trial"",""time""
""fullscreenenter"",""5"",""8967""
","""event"",""trial"",""time""
""fullscreenexit"",""34"",""54426""
","","images/earth.jpg","","","","","","","","","","","","","","fixation","","","","","",""
"d3-animate-choice","138","270318","0.0-76.0-0.1","2695","4969","14","Male","true","false","true","false","""event"",""trial"",""time""
""fullscreenenter"",""5"",""8967""
""fullscreenexit"",""34"",""54426""
","
","
","""event"",""trial"",""time""
""fullscreenenter"",""5"",""8967""
","""event"",""trial"",""time""
""fullscreenexit"",""34"",""54426""
","393.5","","49","","","3000","1","","","images/earth.jpg","images/rocket2","images/rocket1","null","images/rocket1","","1","real","null","1","","",""
"d3-animate-choice","139","272725","0.0-76.0-1.1","2695","4969","14","Male","true","false","true","false","""event"",""trial"",""time""
""fullscreenenter"",""5"",""8967""
""fullscreenexit"",""34"",""54426""
","
","
","""event"",""trial"",""time""
""fullscreenenter"",""5"",""8967""
","""event"",""trial"",""time""
""fullscreenexit"",""34"",""54426""
","399.3999996185303","","48","","","3000","1","","","images/purpleplanet.jpg","images/alien4","images/alien3","images/rocket1","images/alien4","images/t.png","2","real","true","2","common","1","2022-12-07 04:30:13.262"
"two-step-fixation","140","273733","0.0-76.0-2.1","2695","4969","14","Male","true","false","true","false","""event"",""trial"",""time""
""fullscreenenter"",""5"",""8967""
""fullscreenexit"",""34"",""54426""
","
","
","""event"",""trial"",""time""
""fullscreenenter"",""5"",""8967""
","""event"",""trial"",""time""
""fullscreenexit"",""34"",""54426""
","","images/earth.jpg","","","","","","","","","","","","","","fixation","","","","","",""
"d3-animate-choice","141","276535","0.0-76.0-0.2","2695","4969","14","Male","true","false","true","false","""event"",""trial"",""time""
""fullscreenenter"",""5"",""8967""
""fullscreenexit"",""34"",""54426""
","
","
","""event"",""trial"",""time""
""fullscreenenter"",""5"",""8967""
","""event"",""trial"",""time""
""fullscreenexit"",""34"",""54426""
","785.5","","49","","","3000","1","","","images/earth.jpg","images/rocket2","images/rocket1","null","images/rocket1","","1","real","null","1","","",""
"d3-animate-choice","142","279024","0.0-76.0-1.2","2695","4969","14","Male","true","false","true","false","""event"",""trial"",""time""
""fullscreenenter"",""5"",""8967""
""fullscreenexit"",""34"",""54426""
","
","
","""event"",""trial"",""time""
""fullscreenenter"",""5"",""8967""
","""event"",""trial"",""time""
""fullscreenexit"",""34"",""54426""
","464.30000019073486","","48","","","3000","1","","","images/purpleplanet.jpg","images/alien4","images/alien3","images/rocket1","images/alien4","images/nothing.png","2","real","true","2","common","0","2022-12-07 04:30:19.561"
"two-step-fixation","143","280044","0.0-76.0-2.2","2695","4969","14","Male","true","false","true","false","""event"",""trial"",""time""
""fullscreenenter"",""5"",""8967""
""fullscreenexit"",""34"",""54426""
","
","
","""event"",""trial"",""time""
""fullscreenenter"",""5"",""8967""
","""event"",""trial"",""time""
""fullscreenexit"",""34"",""54426""
","","images/earth.jpg","","","","","","","","","","","","","","fixation","","","","","",""
"d3-animate-choice","144","282398","0.0-76.0-0.3","2695","4969","14","Male","true","false","true","false","""event"",""trial"",""time""
""fullscreenenter"",""5"",""8967""
""fullscreenexit"",""34"",""54426""
","
","
","""event"",""trial"",""time""
""fullscreenenter"",""5"",""8967""
","""event"",""trial"",""time""
""fullscreenexit"",""34"",""54426""
","340.6000003814697","","49","","","3000","1","","","images/earth.jpg","images/rocket2","images/rocket1","null","images/rocket1","","1","real","null","1","","",""
"d3-animate-choice","145","285093","0.0-76.0-1.3","2695","4969","14","Male","true","false","true","false","""event"",""trial"",""time""
""fullscreenenter"",""5"",""8967""
""fullscreenexit"",""34"",""54426""
","
","
","""event"",""trial"",""time""
""fullscreenenter"",""5"",""8967""
","""event"",""trial"",""time""
""fullscreenexit"",""34"",""54426""
","681.8000001907349","","48","","","3000","1","","","images/redplanet1.jpg","images/alien2","images/alien1","images/rocket1","images/alien2","images/nothing.png","2","real","false","2","rare","0","2022-12-07 04:30:25.630"
"two-step-fixation","146","286100","0.0-76.0-2.3","2695","4969","14","Male","true","false","true","false","""event"",""trial"",""time""
""fullscreenenter"",""5"",""8967""
""fullscreenexit"",""34"",""54426""
","
","
","""event"",""trial"",""time""
""fullscreenenter"",""5"",""8967""
","""event"",""trial"",""time""
""fullscreenexit"",""34"",""54426""
","","images/earth.jpg","","","","","","","","","","","","","","fixation","","","","","",""
"d3-animate-choice","147","288350","0.0-76.0-0.4","2695","4969","14","Male","true","false","true","false","""event"",""trial"",""time""
""fullscreenenter"",""5"",""8967""
""fullscreenexit"",""34"",""54426""
","
","
","""event"",""trial"",""time""
""fullscreenenter"",""5"",""8967""
","""event"",""trial"",""time""
""fullscreenexit"",""34"",""54426""
","239.89999961853027","","49","","","3000","1","","","images/earth.jpg","images/rocket2","images/rocket1","null","images/rocket1","","1","real","null","1","","",""
"d3-animate-choice","148","291358","0.0-76.0-1.4","2695","4969","14","Male","true","false","true","false","""event"",""trial"",""time""
""fullscreenenter"",""5"",""8967""
""fullscreenexit"",""34"",""54426""
","
","
","""event"",""trial"",""time""
""fullscreenenter"",""5"",""8967""
","""event"",""trial"",""time""
""fullscreenexit"",""34"",""54426""
","995.3000001907349","","49","","","3000","1","","","images/redplanet1.jpg","images/alien2","images/alien1","images/rocket1","images/alien1","images/t.png","2","real","false","1","rare","1","2022-12-07 04:30:31.895"
"two-step-fixation","149","292366","0.0-76.0-2.4","2695","4969","14","Male","true","false","true","false","""event"",""trial"",""time""
""fullscreenenter"",""5"",""8967""
""fullscreenexit"",""34"",""54426""
","
","
","""event"",""trial"",""time""
""fullscreenenter"",""5"",""8967""
","""event"",""trial"",""time""
""fullscreenexit"",""34"",""54426""
","","images/earth.jpg","","","","","","","","","","","","","","fixation","","","","","",""
"d3-animate-choice","150","294590","0.0-76.0-0.5","2695","4969","14","Male","true","false","true","false","""event"",""trial"",""time""
""fullscreenenter"",""5"",""8967""
""fullscreenexit"",""34"",""54426""
","
","
","""event"",""trial"",""time""
""fullscreenenter"",""5"",""8967""
","""event"",""trial"",""time""
""fullscreenexit"",""34"",""54426""
","210.2999997138977","","49","","","3000","1","","","images/earth.jpg","images/rocket2","images/rocket1","null","images/rocket1","","1","real","null","1","","",""
"d3-animate-choice","151","297514","0.0-76.0-1.5","2695","4969","14","Male","true","false","true","false","""event"",""trial"",""time""
""fullscreenenter"",""5"",""8967""
""fullscreenexit"",""34"",""54426""
","
","
","""event"",""trial"",""time""
""fullscreenenter"",""5"",""8967""
","""event"",""trial"",""time""
""fullscreenexit"",""34"",""54426""
","915.1999998092651","","48","","","3000","1","","","images/purpleplanet.jpg","images/alien4","images/alien3","images/rocket1","images/alien4","images/t.png","2","real","true","2","common","1","2022-12-07 04:30:38.051"
"two-step-fixation","152","298526","0.0-76.0-2.5","2695","4969","14","Male","true","false","true","false","""event"",""trial"",""time""
""fullscreenenter"",""5"",""8967""
""fullscreenexit"",""34"",""54426""
","
","
","""event"",""trial"",""time""
""fullscreenenter"",""5"",""8967""
","""event"",""trial"",""time""
""fullscreenexit"",""34"",""54426""
","","images/earth.jpg","","","","","","","","","","","","","","fixation","","","","","",""
"d3-animate-choice","153","301326","0.0-76.0-0.6","2695","4969","14","Male","true","false","true","false","""event"",""trial"",""time""
""fullscreenenter"",""5"",""8967""
""fullscreenexit"",""34"",""54426""
","
","
","""event"",""trial"",""time""
""fullscreenenter"",""5"",""8967""
","""event"",""trial"",""time""
""fullscreenexit"",""34"",""54426""
","787.4000000953674","","49","","","3000","1","","","images/earth.jpg","images/rocket2","images/rocket1","null","images/rocket1","","1","real","null","1","","",""
"d3-animate-choice","154","303812","0.0-76.0-1.6","2695","4969","14","Male","true","false","true","false","""event"",""trial"",""time""
""fullscreenenter"",""5"",""8967""
""fullscreenexit"",""34"",""54426""
","
","
","""event"",""trial"",""time""
""fullscreenenter"",""5"",""8967""
","""event"",""trial"",""time""
""fullscreenexit"",""34"",""54426""
","471.40000009536743","","48","","","3000","1","","","images/purpleplanet.jpg","images/alien4","images/alien3","images/rocket1","images/alien4","images/nothing.png","2","real","true","2","common","0","2022-12-07 04:30:44.350"
"two-step-fixation","155","304821","0.0-76.0-2.6","2695","4969","14","Male","true","false","true","false","""event"",""trial"",""time""
""fullscreenenter"",""5"",""8967""
""fullscreenexit"",""34"",""54426""
","
","
","""event"",""trial"",""time""
""fullscreenenter"",""5"",""8967""
","""event"",""trial"",""time""
""fullscreenexit"",""34"",""54426""
","","images/earth.jpg","","","","","","","","","","","","","","fixation","","","","","",""
"d3-animate-choice","156","306941","0.0-76.0-0.7","2695","4969","14","Male","true","false","true","false","""event"",""trial"",""time""
""fullscreenenter"",""5"",""8967""
""fullscreenexit"",""34"",""54426""
","
","
","""event"",""trial"",""time""
""fullscreenenter"",""5"",""8967""
","""event"",""trial"",""time""
""fullscreenexit"",""34"",""54426""
","106.80000019073486","","49","","","3000","1","","","images/earth.jpg","images/rocket2","images/rocket1","null","images/rocket1","","1","real","null","1","","",""
"d3-animate-choice","157","309406","0.0-76.0-1.7","2695","4969","14","Male","true","false","true","false","""event"",""trial"",""time""
""fullscreenenter"",""5"",""8967""
""fullscreenexit"",""34"",""54426""
","
","
","""event"",""trial"",""time""
""fullscreenenter"",""5"",""8967""
","""event"",""trial"",""time""
""fullscreenexit"",""34"",""54426""
","458","","48","","","3000","1","","","images/redplanet1.jpg","images/alien2","images/alien1","images/rocket1","images/alien2","images/t.png","2","real","false","2","rare","1","2022-12-07 04:30:49.943"
"two-step-fixation","158","310414","0.0-76.0-2.7","2695","4969","14","Male","true","false","true","false","""event"",""trial"",""time""
""fullscreenenter"",""5"",""8967""
""fullscreenexit"",""34"",""54426""
","
","
","""event"",""trial"",""time""
""fullscreenenter"",""5"",""8967""
","""event"",""trial"",""time""
""fullscreenexit"",""34"",""54426""
","","images/earth.jpg","","","","","","","","","","","","","","fixation","","","","","",""
"d3-animate-choice","159","312662","0.0-76.0-0.8","2695","4969","14","Male","true","false","true","false","""event"",""trial"",""time""
""fullscreenenter"",""5"",""8967""
""fullscreenexit"",""34"",""54426""
","
","
","""event"",""trial"",""time""
""fullscreenenter"",""5"",""8967""
","""event"",""trial"",""time""
""fullscreenexit"",""34"",""54426""
","240.10000038146973","","49","","","3000","1","","","images/earth.jpg","images/rocket2","images/rocket1","null","images/rocket1","","1","real","null","1","","",""
"d3-animate-choice","160","315173","0.0-76.0-1.8","2695","4969","14","Male","true","false","true","false","""event"",""trial"",""time""
""fullscreenenter"",""5"",""8967""
""fullscreenexit"",""34"",""54426""
","
","
","""event"",""trial"",""time""
""fullscreenenter"",""5"",""8967""
","""event"",""trial"",""time""
""fullscreenexit"",""34"",""54426""
","498.90000009536743","","48","","","3000","1","","","images/purpleplanet.jpg","images/alien4","images/alien3","images/rocket1","images/alien4","images/t.png","2","real","true","2","common","1","2022-12-07 04:30:55.710"
"two-step-fixation","161","316182","0.0-76.0-2.8","2695","4969","14","Male","true","false","true","false","""event"",""trial"",""time""
""fullscreenenter"",""5"",""8967""
""fullscreenexit"",""34"",""54426""
","
","
","""event"",""trial"",""time""
""fullscreenenter"",""5"",""8967""
","""event"",""trial"",""time""
""fullscreenexit"",""34"",""54426""
","","images/earth.jpg","","","","","","","","","","","","","","fixation","","","","","",""
"d3-animate-choice","162","318550","0.0-76.0-0.9","2695","4969","14","Male","true","false","true","false","""event"",""trial"",""time""
""fullscreenenter"",""5"",""8967""
""fullscreenexit"",""34"",""54426""
","
","
","""event"",""trial"",""time""
""fullscreenenter"",""5"",""8967""
","""event"",""trial"",""time""
""fullscreenexit"",""34"",""54426""
","354.90000009536743","","49","","","3000","1","","","images/earth.jpg","images/rocket2","images/rocket1","null","images/rocket1","","1","real","null","1","","",""
"d3-animate-choice","163","321133","0.0-76.0-1.9","2695","4969","14","Male","true","false","true","false","""event"",""trial"",""time""
""fullscreenenter"",""5"",""8967""
""fullscreenexit"",""34"",""54426""
","
","
","""event"",""trial"",""time""
""fullscreenenter"",""5"",""8967""
","""event"",""trial"",""time""
""fullscreenexit"",""34"",""54426""
","574.9000000953674","","49","","","3000","1","","","images/purpleplanet.jpg","images/alien4","images/alien3","images/rocket1","images/alien3","images/nothing.png","2","real","true","1","common","0","2022-12-07 04:31:01.670"
"two-step-fixation","164","322142","0.0-76.0-2.9","2695","4969","14","Male","true","false","true","false","""event"",""trial"",""time""
""fullscreenenter"",""5"",""8967""
""fullscreenexit"",""34"",""54426""
","
","
","""event"",""trial"",""time""
""fullscreenenter"",""5"",""8967""
","""event"",""trial"",""time""
""fullscreenexit"",""34"",""54426""
","","images/earth.jpg","","","","","","","","","","","","","","fixation","","","","","",""
"d3-animate-choice","165","324274","0.0-76.0-0.10","2695","4969","14","Male","true","false","true","false","""event"",""trial"",""time""
""fullscreenenter"",""5"",""8967""
""fullscreenexit"",""34"",""54426""
","
","
","""event"",""trial"",""time""
""fullscreenenter"",""5"",""8967""
","""event"",""trial"",""time""
""fullscreenexit"",""34"",""54426""
","121.10000038146973","","49","","","3000","1","","","images/earth.jpg","images/rocket2","images/rocket1","null","images/rocket1","","1","real","null","1","","",""
"d3-animate-choice","166","326806","0.0-76.0-1.10","2695","4969","14","Male","true","false","true","false","""event"",""trial"",""time""
""fullscreenenter"",""5"",""8967""
""fullscreenexit"",""34"",""54426""
","
","
","""event"",""trial"",""time""
""fullscreenenter"",""5"",""8967""
","""event"",""trial"",""time""
""fullscreenexit"",""34"",""54426""
","522.8000001907349","","48","","","3000","1","","","images/purpleplanet.jpg","images/alien4","images/alien3","images/rocket1","images/alien4","images/t.png","2","real","true","2","common","1","2022-12-07 04:31:07.344"
"two-step-fixation","167","327813","0.0-76.0-2.10","2695","4969","14","Male","true","false","true","false","""event"",""trial"",""time""
""fullscreenenter"",""5"",""8967""
""fullscreenexit"",""34"",""54426""
","
","
","""event"",""trial"",""time""
""fullscreenenter"",""5"",""8967""
","""event"",""trial"",""time""
""fullscreenexit"",""34"",""54426""
","","images/earth.jpg","","","","","","","","","","","","","","fixation","","","","","",""
"d3-animate-choice","168","330646","0.0-76.0-0.11","2695","4969","14","Male","true","false","true","false","""event"",""trial"",""time""
""fullscreenenter"",""5"",""8967""
""fullscreenexit"",""34"",""54426""
","
","
","""event"",""trial"",""time""
""fullscreenenter"",""5"",""8967""
","""event"",""trial"",""time""
""fullscreenexit"",""34"",""54426""
","825.5999999046326","","49","","","3000","1","","","images/earth.jpg","images/rocket2","images/rocket1","null","images/rocket1","","1","real","null","1","","",""
"d3-animate-choice","169","333893","0.0-76.0-1.11","2695","4969","14","Male","true","false","true","false","""event"",""trial"",""time""
""fullscreenenter"",""5"",""8967""
""fullscreenexit"",""34"",""54426""
","
","
","""event"",""trial"",""time""
""fullscreenenter"",""5"",""8967""
","""event"",""trial"",""time""
""fullscreenexit"",""34"",""54426""
","1234.5999999046326","","49","","","3000","1","","","images/redplanet1.jpg","images/alien2","images/alien1","images/rocket1","images/alien1","images/nothing.png","2","real","false","1","rare","0","2022-12-07 04:31:14.430"
"two-step-fixation","170","334901","0.0-76.0-2.11","2695","4969","14","Male","true","false","true","false","""event"",""trial"",""time""
""fullscreenenter"",""5"",""8967""
""fullscreenexit"",""34"",""54426""
","
","
","""event"",""trial"",""time""
""fullscreenenter"",""5"",""8967""
","""event"",""trial"",""time""
""fullscreenexit"",""34"",""54426""
","","images/earth.jpg","","","","","","","","","","","","","","fixation","","","","","",""
"d3-animate-choice","171","337046","0.0-76.0-0.12","2695","4969","14","Male","true","false","true","false","""event"",""trial"",""time""
""fullscreenenter"",""5"",""8967""
""fullscreenexit"",""34"",""54426""
","
","
","""event"",""trial"",""time""
""fullscreenenter"",""5"",""8967""
","""event"",""trial"",""time""
""fullscreenexit"",""34"",""54426""
","133.59999990463257","","49","","","3000","1","","","images/earth.jpg","images/rocket2","images/rocket1","null","images/rocket1","","1","real","null","1","","",""
"d3-animate-choice","172","339413","0.0-76.0-1.12","2695","4969","14","Male","true","false","true","false","""event"",""trial"",""time""
""fullscreenenter"",""5"",""8967""
""fullscreenexit"",""34"",""54426""
","
","
","""event"",""trial"",""time""
""fullscreenenter"",""5"",""8967""
","""event"",""trial"",""time""
""fullscreenexit"",""34"",""54426""
","357.80000019073486","","48","","","3000","1","","","images/purpleplanet.jpg","images/alien4","images/alien3","images/rocket1","images/alien4","images/nothing.png","2","real","true","2","common","0","2022-12-07 04:31:19.950"
"two-step-fixation","173","340421","0.0-76.0-2.12","2695","4969","14","Male","true","false","true","false","""event"",""trial"",""time""
""fullscreenenter"",""5"",""8967""
""fullscreenexit"",""34"",""54426""
","
","
","""event"",""trial"",""time""
""fullscreenenter"",""5"",""8967""
","""event"",""trial"",""time""
""fullscreenexit"",""34"",""54426""
","","images/earth.jpg","","","","","","","","","","","","","","fixation","","","","","",""
"d3-animate-choice","174","342621","0.0-76.0-0.13","2695","4969","14","Male","true","false","true","false","""event"",""trial"",""time""
""fullscreenenter"",""5"",""8967""
""fullscreenexit"",""34"",""54426""
","
","
","""event"",""trial"",""time""
""fullscreenenter"",""5"",""8967""
","""event"",""trial"",""time""
""fullscreenexit"",""34"",""54426""
","192.7999997138977","","48","","","3000","1","449.5","48","images/earth.jpg","images/rocket2","images/rocket1","null","images/rocket2","","1","real","null","2","","",""
"d3-animate-choice","175","345519","0.0-76.0-1.13","2695","4969","14","Male","true","false","true","false","""event"",""trial"",""time""
""fullscreenenter"",""5"",""8967""
""fullscreenexit"",""34"",""54426""
","
","
","""event"",""trial"",""time""
""fullscreenenter"",""5"",""8967""
","""event"",""trial"",""time""
""fullscreenexit"",""34"",""54426""
","892.4000000953674","","49","","","3000","1","","","images/purpleplanet.jpg","images/alien4","images/alien3","images/rocket2","images/alien3","images/nothing.png","2","real","false","1","rare","0","2022-12-07 04:31:26.056"
"two-step-fixation","176","346534","0.0-76.0-2.13","2695","4969","14","Male","true","false","true","false","""event"",""trial"",""time""
""fullscreenenter"",""5"",""8967""
""fullscreenexit"",""34"",""54426""
","
","
","""event"",""trial"",""time""
""fullscreenenter"",""5"",""8967""
","""event"",""trial"",""time""
""fullscreenexit"",""34"",""54426""
","","images/earth.jpg","","","","","","","","","","","","","","fixation","","","","","",""
"d3-animate-choice","177","348573","0.0-76.0-0.14","2695","4969","14","Male","true","false","true","false","""event"",""trial"",""time""
""fullscreenenter"",""5"",""8967""
""fullscreenexit"",""34"",""54426""
","
","
","""event"",""trial"",""time""
""fullscreenenter"",""5"",""8967""
","""event"",""trial"",""time""
""fullscreenexit"",""34"",""54426""
","29.200000286102295","","48","","","3000","1","252.10000038146973","48","images/earth.jpg","images/rocket2","images/rocket1","null","images/rocket2","","1","real","null","2","","",""
"d3-animate-choice","178","350989","0.0-76.0-1.14","2695","4969","14","Male","true","false","true","false","""event"",""trial"",""time""
""fullscreenenter"",""5"",""8967""
""fullscreenexit"",""34"",""54426""
","
","
","""event"",""trial"",""time""
""fullscreenenter"",""5"",""8967""
","""event"",""trial"",""time""
""fullscreenexit"",""34"",""54426""
","402.19999980926514","","49","","","3000","1","","","images/redplanet1.jpg","images/alien2","images/alien1","images/rocket2","images/alien1","images/nothing.png","2","real","true","1","common","0","2022-12-07 04:31:31.526"
"two-step-fixation","179","351998","0.0-76.0-2.14","2695","4969","14","Male","true","false","true","false","""event"",""trial"",""time""
""fullscreenenter"",""5"",""8967""
""fullscreenexit"",""34"",""54426""
","
","
","""event"",""trial"",""time""
""fullscreenenter"",""5"",""8967""
","""event"",""trial"",""time""
""fullscreenexit"",""34"",""54426""
","","images/earth.jpg","","","","","","","","","","","","","","fixation","","","","","",""
"d3-animate-choice","180","354197","0.0-76.0-0.15","2695","4969","14","Male","true","false","true","false","""event"",""trial"",""time""
""fullscreenenter"",""5"",""8967""
""fullscreenexit"",""34"",""54426""
","
","
","""event"",""trial"",""time""
""fullscreenenter"",""5"",""8967""
","""event"",""trial"",""time""
""fullscreenexit"",""34"",""54426""
","188.30000019073486","","48","","","3000","1","","","images/earth.jpg","images/rocket2","images/rocket1","null","images/rocket2","","1","real","null","2","","",""
"d3-animate-choice","181","356621","0.0-76.0-1.15","2695","4969","14","Male","true","false","true","false","""event"",""trial"",""time""
""fullscreenenter"",""5"",""8967""
""fullscreenexit"",""34"",""54426""
","
","
","""event"",""trial"",""time""
""fullscreenenter"",""5"",""8967""
","""event"",""trial"",""time""
""fullscreenexit"",""34"",""54426""
","414.5","","49","","","3000","1","","","images/redplanet1.jpg","images/alien2","images/alien1","images/rocket2","images/alien1","images/nothing.png","2","real","true","1","common","0","2022-12-07 04:31:37.158"
"two-step-fixation","182","357628","0.0-76.0-2.15","2695","4969","14","Male","true","false","true","false","""event"",""trial"",""time""
""fullscreenenter"",""5"",""8967""
""fullscreenexit"",""34"",""54426""
","
","
","""event"",""trial"",""time""
""fullscreenenter"",""5"",""8967""
","""event"",""trial"",""time""
""fullscreenexit"",""34"",""54426""
","","images/earth.jpg","","","","","","","","","","","","","","fixation","","","","","",""
"d3-animate-choice","183","359982","0.0-76.0-0.16","2695","4969","14","Male","true","false","true","false","""event"",""trial"",""time""
""fullscreenenter"",""5"",""8967""
""fullscreenexit"",""34"",""54426""
","
","
","""event"",""trial"",""time""
""fullscreenenter"",""5"",""8967""
","""event"",""trial"",""time""
""fullscreenexit"",""34"",""54426""
","339","","48","","","3000","1","","","images/earth.jpg","images/rocket2","images/rocket1","null","images/rocket2","","1","real","null","2","","",""
"d3-animate-choice","184","363036","0.0-76.0-1.16","2695","4969","14","Male","true","false","true","false","""event"",""trial"",""time""
""fullscreenenter"",""5"",""8967""
""fullscreenexit"",""34"",""54426""
","
","
","""event"",""trial"",""time""
""fullscreenenter"",""5"",""8967""
","""event"",""trial"",""time""
""fullscreenexit"",""34"",""54426""
","1044.4000000953674","","48","","","3000","1","","","images/purpleplanet.jpg","images/alien4","images/alien3","images/rocket2","images/alien4","images/nothing.png","2","real","false","2","rare","0","2022-12-07 04:31:43.573"
"two-step-fixation","185","364044","0.0-76.0-2.16","2695","4969","14","Male","true","false","true","false","""event"",""trial"",""time""
""fullscreenenter"",""5"",""8967""
""fullscreenexit"",""34"",""54426""
","
","
","""event"",""trial"",""time""
""fullscreenenter"",""5"",""8967""
","""event"",""trial"",""time""
""fullscreenexit"",""34"",""54426""
","","images/earth.jpg","","","","","","","","","","","","","","fixation","","","","","",""
"d3-animate-choice","186","366509","0.0-76.0-0.17","2695","4969","14","Male","true","false","true","false","""event"",""trial"",""time""
""fullscreenenter"",""5"",""8967""
""fullscreenexit"",""34"",""54426""
","
","
","""event"",""trial"",""time""
""fullscreenenter"",""5"",""8967""
","""event"",""trial"",""time""
""fullscreenexit"",""34"",""54426""
","451.5","","48","","","3000","1","","","images/earth.jpg","images/rocket2","images/rocket1","null","images/rocket2","","1","real","null","2","","",""
"d3-animate-choice","187","368861","0.0-76.0-1.17","2695","4969","14","Male","true","false","true","false","""event"",""trial"",""time""
""fullscreenenter"",""5"",""8967""
""fullscreenexit"",""34"",""54426""
","
","
","""event"",""trial"",""time""
""fullscreenenter"",""5"",""8967""
","""event"",""trial"",""time""
""fullscreenexit"",""34"",""54426""
","343.5","","48","","","3000","1","521.5,745.5999999046326","48,48","images/purpleplanet.jpg","images/alien4","images/alien3","images/rocket2","images/alien4","images/t.png","2","real","false","2","rare","1","2022-12-07 04:31:49.399"
"two-step-fixation","188","369870","0.0-76.0-2.17","2695","4969","14","Male","true","false","true","false","""event"",""trial"",""time""
""fullscreenenter"",""5"",""8967""
""fullscreenexit"",""34"",""54426""
","
","
","""event"",""trial"",""time""
""fullscreenenter"",""5"",""8967""
","""event"",""trial"",""time""
""fullscreenexit"",""34"",""54426""
","","images/earth.jpg","","","","","","","","","","","","","","fixation","","","","","",""
"d3-animate-choice","189","372701","0.0-76.0-0.18","2695","4969","14","Male","true","false","true","false","""event"",""trial"",""time""
""fullscreenenter"",""5"",""8967""
""fullscreenexit"",""34"",""54426""
","
","
","""event"",""trial"",""time""
""fullscreenenter"",""5"",""8967""
","""event"",""trial"",""time""
""fullscreenexit"",""34"",""54426""
","821.6000003814697","","48","","","3000","1","1054","48","images/earth.jpg","images/rocket2","images/rocket1","null","images/rocket2","","1","real","null","2","","",""
"d3-animate-choice","190","375301","0.0-76.0-1.18","2695","4969","14","Male","true","false","true","false","""event"",""trial"",""time""
""fullscreenenter"",""5"",""8967""
""fullscreenexit"",""34"",""54426""
","
","
","""event"",""trial"",""time""
""fullscreenenter"",""5"",""8967""
","""event"",""trial"",""time""
""fullscreenexit"",""34"",""54426""
","587.0999999046326","","48","","","3000","1","","","images/purpleplanet.jpg","images/alien4","images/alien3","images/rocket2","images/alien4","images/t.png","2","real","false","2","rare","1","2022-12-07 04:31:55.838"
"two-step-fixation","191","376308","0.0-76.0-2.18","2695","4969","14","Male","true","false","true","false","""event"",""trial"",""time""
""fullscreenenter"",""5"",""8967""
""fullscreenexit"",""34"",""54426""
","
","
","""event"",""trial"",""time""
""fullscreenenter"",""5"",""8967""
","""event"",""trial"",""time""
""fullscreenexit"",""34"",""54426""
","","images/earth.jpg","","","","","","","","","","","","","","fixation","","","","","",""
"d3-animate-choice","192","378533","0.0-76.0-0.19","2695","4969","14","Male","true","false","true","false","""event"",""trial"",""time""
""fullscreenenter"",""5"",""8967""
""fullscreenexit"",""34"",""54426""
","
","
","""event"",""trial"",""time""
""fullscreenenter"",""5"",""8967""
","""event"",""trial"",""time""
""fullscreenexit"",""34"",""54426""
","209.59999990463257","","48","","","3000","1","425.59999990463257","48","images/earth.jpg","images/rocket2","images/rocket1","null","images/rocket2","","1","real","null","2","","",""
"d3-animate-choice","193","381926","0.0-76.0-1.19","2695","4969","14","Male","true","false","true","false","""event"",""trial"",""time""
""fullscreenenter"",""5"",""8967""
""fullscreenexit"",""34"",""54426""
","
","
","""event"",""trial"",""time""
""fullscreenenter"",""5"",""8967""
","""event"",""trial"",""time""
""fullscreenexit"",""34"",""54426""
","1385","","48","","","3000","1","","","images/redplanet1.jpg","images/alien2","images/alien1","images/rocket2","images/alien2","images/t.png","2","real","true","2","common","1","2022-12-07 04:32:02.463"
"two-step-fixation","194","382933","0.0-76.0-2.19","2695","4969","14","Male","true","false","true","false","""event"",""trial"",""time""
""fullscreenenter"",""5"",""8967""
""fullscreenexit"",""34"",""54426""
","
","
","""event"",""trial"",""time""
""fullscreenenter"",""5"",""8967""
","""event"",""trial"",""time""
""fullscreenexit"",""34"",""54426""
","","images/earth.jpg","","","","","","","","","","","","","","fixation","","","","","",""
"d3-animate-choice","195","385021","0.0-76.0-0.20","2695","4969","14","Male","true","false","true","false","""event"",""trial"",""time""
""fullscreenenter"",""5"",""8967""
""fullscreenexit"",""34"",""54426""
","
","
","""event"",""trial"",""time""
""fullscreenenter"",""5"",""8967""
","""event"",""trial"",""time""
""fullscreenexit"",""34"",""54426""
","77.09999990463257","","48","","","3000","1","301.69999980926514,493.59999990463257,1645,1953.8999996185303","48,48,48,48","images/earth.jpg","images/rocket2","images/rocket1","null","images/rocket2","","1","real","null","2","","",""
"d3-animate-choice","196","387141","0.0-76.0-1.20","2695","4969","14","Male","true","false","true","false","""event"",""trial"",""time""
""fullscreenenter"",""5"",""8967""
""fullscreenexit"",""34"",""54426""
","
","
","""event"",""trial"",""time""
""fullscreenenter"",""5"",""8967""
","""event"",""trial"",""time""
""fullscreenexit"",""34"",""54426""
