"trial_type","trial_index","time_elapsed","internal_node_id","participant_id","subject_id","age","gender","rocket_sides","red_planet_first_rocket","red_display_order","purple_display_order","interactions","blur_events","focus_events","fullscreenenter_events","fullscreenexit_events","rt","stimulus","key_press","button_pressed","success","duration","valid_pressed","rts","keys","planet_text","right_text","left_text","center_text","chosen_text","reward_text","trial_stage","practice_trial","transition_type","choice","transition","reward","timestamp"
"pavlovia","0","2","0.0-0.0","978","4986","22","Male","false","false","false","true","
","
","
","
","
","","","","","","","","","","","","","","","","","","","","","",""
"html-keyboard-response","1","2148","0.0-1.0","978","4986","22","Male","false","false","false","true","
","
","
","
","
","2144.4000000059605","Welcome! Press the space bar to begin.","32","","","","","","","","","","","","","","","","","","",""
"audio-keyboard-response","2","6074","0.0-2.0","978","4986","22","Male","false","false","false","true","
","
","
","
","
","3520","audio/beep_loop.wav","32","","","","","","","","","","","","","","","","","","",""
"audio-button-response","3","8917","0.0-3.0","978","4986","22","Male","false","false","false","true","
","
","
","
","
","NaN","audio/fish.mp3","","1","","","","","","","","","","","","","","","","","",""
"audio-button-response","4","11895","0.0-4.0","978","4986","22","Male","false","false","false","true","""event"",""trial"",""time""
""fullscreenenter"",""5"",""16028""
","
","
","""event"",""trial"",""time""
""fullscreenenter"",""5"",""16028""
","
","NaN","audio/tiger.mp3","","4","","","","","","","","","","","","","","","","","",""
"fullscreen","5","17012","0.0-5.0","978","4986","22","Male","false","false","false","true","""event"",""trial"",""time""
""fullscreenenter"",""5"",""16028""
","
","
","""event"",""trial"",""time""
""fullscreenenter"",""5"",""16028""
","
","","","","","true","","","","","","","","","","","","","","","","",""
"d3-instructions","6","28567","0.0-6.0","978","4986","22","Male","false","false","false","true","""event"",""trial"",""time""
""fullscreenenter"",""5"",""16028""
","
","
","""event"",""trial"",""time""
""fullscreenenter"",""5"",""16028""
","
","","","","","","","","","","","","","","","","","","","","","",""
"d3-instructions","7","37302","0.0-7.0","978","4986","22","Male","false","false","false","true","""event"",""trial"",""time""
""fullscreenenter"",""5"",""16028""
","
","
","""event"",""trial"",""time""
""fullscreenenter"",""5"",""16028""
","
","","","","","","","","","","","","","","","","","","","","","",""
"d3-instructions","8","45756","0.0-8.0","978","4986","22","Male","false","false","false","true","""event"",""trial"",""time""
""fullscreenenter"",""5"",""16028""
","
","
","""event"",""trial"",""time""
""fullscreenenter"",""5"",""16028""
","
","","","","","","","","","","","","","","","","","","","","","",""
"d3-instructions","9","57043","0.0-9.0","978","4986","22","Male","false","false","false","true","""event"",""trial"",""time""
""fullscreenenter"",""5"",""16028""
","
","
","""event"",""trial"",""time""
""fullscreenenter"",""5"",""16028""
","
","","","","","","","","","","","","","","","","","","","","","",""
"d3-instructions","10","69754","0.0-10.0","978","4986","22","Male","false","false","false","true","""event"",""trial"",""time""
""fullscreenenter"",""5"",""16028""
","
","
","""event"",""trial"",""time""
""fullscreenenter"",""5"",""16028""
","
","","","","","","","","","","","","","","","","","","","","","",""
"d3-animate-choice","11","73911","0.0-11.0","978","4986","22","Male","false","false","false","true","""event"",""trial"",""time""
""fullscreenenter"",""5"",""16028""
","
","
","""event"",""trial"",""time""
""fullscreenenter"",""5"",""16028""
","
","2141.699999988079","","49","","","3000","1","","","images/tutgreenplanet.jpg","images/tutalien1","images/tutalien2","null","images/tutalien2","","NA","practice","null","","","",""
"d3-animate-choice","12","76313","0.0-12.0","978","4986","22","Male","false","false","false","true","""event"",""trial"",""time""
""fullscreenenter"",""5"",""16028""
","
","
","""event"",""trial"",""time""
""fullscreenenter"",""5"",""16028""
","
","377.80000001192093","","48","","","3000","1","","","images/tutgreenplanet.jpg","images/tutalien1","images/tutalien2","null","images/tutalien1","","NA","practice","null","","","",""
"d3-animate-choice","13","79269","0.0-13.0","978","4986","22","Male","false","false","false","true","""event"",""trial"",""time""
""fullscreenenter"",""5"",""16028""
","
","
","""event"",""trial"",""time""
""fullscreenenter"",""5"",""16028""
","
","949.8000000119209","","49","","","3000","1","","","images/tutgreenplanet.jpg","images/tutalien1","images/tutalien2","null","images/tutalien2","","NA","practice","null","","","",""
"d3-animate-choice","14","81639","0.0-14.0","978","4986","22","Male","false","false","false","true","""event"",""trial"",""time""
""fullscreenenter"",""5"",""16028""
","
","
","""event"",""trial"",""time""
""fullscreenenter"",""5"",""16028""
","
","355.90000000596046","","48","","","3000","1","","","images/tutgreenplanet.jpg","images/tutalien1","images/tutalien2","null","images/tutalien1","","NA","practice","null","","","",""
"d3-instructions","15","87515","0.0-15.0","978","4986","22","Male","false","false","false","true","""event"",""trial"",""time""
""fullscreenenter"",""5"",""16028""
","
","
","""event"",""trial"",""time""
""fullscreenenter"",""5"",""16028""
","
","","","","","","","","","","","","","","","","","","","","","",""
"d3-instructions","16","91980","0.0-16.0","978","4986","22","Male","false","false","false","true","""event"",""trial"",""time""
""fullscreenenter"",""5"",""16028""
","
","
","""event"",""trial"",""time""
""fullscreenenter"",""5"",""16028""
","
","","","","","","","","","","","","","","","","","","","","","",""
"d3-instructions","17","97114","0.0-17.0","978","4986","22","Male","false","false","false","true","""event"",""trial"",""time""
""fullscreenenter"",""5"",""16028""
","
","
","""event"",""trial"",""time""
""fullscreenenter"",""5"",""16028""
","
","","","","","","","","","","","","","","","","","","","","","",""
"d3-instructions","18","104596","0.0-18.0","978","4986","22","Male","false","false","false","true","""event"",""trial"",""time""
""fullscreenenter"",""5"",""16028""
","
","
","""event"",""trial"",""time""
""fullscreenenter"",""5"",""16028""
","
","","","","","","","","","","","","","","","","","","","","","",""
"d3-instructions","19","111829","0.0-19.0","978","4986","22","Male","false","false","false","true","""event"",""trial"",""time""
""fullscreenenter"",""5"",""16028""
","
","
","""event"",""trial"",""time""
""fullscreenenter"",""5"",""16028""
","
","","","","","","","","","","","","","","","","","","","","","",""
"d3-animate-choice","20","114408","0.0-20.0","978","4986","22","Male","false","false","false","true","""event"",""trial"",""time""
""fullscreenenter"",""5"",""16028""
","
","
","""event"",""trial"",""time""
""fullscreenenter"",""5"",""16028""
","
","562.4000000059605","","49","","","3000","1","","","images/tutyellowplanet.jpg","null","images/tutalien3","null","images/tutalien3","images/t.png","NA","practice","null","","","",""
"d3-animate-choice","21","116738","0.0-21.0","978","4986","22","Male","false","false","false","true","""event"",""trial"",""time""
""fullscreenenter"",""5"",""16028""
","
","
","""event"",""trial"",""time""
""fullscreenenter"",""5"",""16028""
","
","311.5","","49","","","3000","1","1812.7999999821186,2228.199999988079","49,49","images/tutyellowplanet.jpg","null","images/tutalien3","null","images/tutalien3","images/t.png","NA","practice","null","","","",""
"d3-animate-choice","22","118857","0.0-22.0","978","4986","22","Male","false","false","false","true","""event"",""trial"",""time""
""fullscreenenter"",""5"",""16028""
","
","
","""event"",""trial"",""time""
""fullscreenenter"",""5"",""16028""
","
","94.2999999821186","","49","","","3000","1","1596.699999988079","49","images/tutyellowplanet.jpg","null","images/tutalien3","null","images/tutalien3","images/t.png","NA","practice","null","","","",""
"d3-animate-choice","23","121107","0.0-23.0","978","4986","22","Male","false","false","false","true","""event"",""trial"",""time""
""fullscreenenter"",""5"",""16028""
","
","
","""event"",""trial"",""time""
""fullscreenenter"",""5"",""16028""
","
","246.90000000596046","","49","","","3000","1","1753.300000011921","49","images/tutyellowplanet.jpg","null","images/tutalien3","null","images/tutalien3","images/t.png","NA","practice","null","","","",""
"d3-animate-choice","24","123267","0.0-24.0","978","4986","22","Male","false","false","false","true","""event"",""trial"",""time""
""fullscreenenter"",""5"",""16028""
","
","
","""event"",""trial"",""time""
""fullscreenenter"",""5"",""16028""
","
","138.59999999403954","","49","","","3000","1","1610.0999999940395","49","images/tutyellowplanet.jpg","null","images/tutalien3","null","images/tutalien3","images/t.png","NA","practice","null","","","",""
"d3-animate-choice","25","125508","0.0-25.0","978","4986","22","Male","false","false","false","true","""event"",""trial"",""time""
""fullscreenenter"",""5"",""16028""
","
","
","""event"",""trial"",""time""
""fullscreenenter"",""5"",""16028""
","
","220.69999998807907","","49","","","3000","1","1683.0999999940395","49","images/tutyellowplanet.jpg","null","images/tutalien3","null","images/tutalien3","images/t.png","NA","practice","null","","","",""
"d3-animate-choice","26","127757","0.0-26.0","978","4986","22","Male","false","false","false","true","""event"",""trial"",""time""
""fullscreenenter"",""5"",""16028""
","
","
","""event"",""trial"",""time""
""fullscreenenter"",""5"",""16028""
","
","239.19999998807907","","49","","","3000","1","","","images/tutyellowplanet.jpg","null","images/tutalien3","null","images/tutalien3","images/t.png","NA","practice","null","","","",""
"d3-animate-choice","27","130017","0.0-27.0","978","4986","22","Male","false","false","false","true","""event"",""trial"",""time""
""fullscreenenter"",""5"",""16028""
","
","
","""event"",""trial"",""time""
""fullscreenenter"",""5"",""16028""
","
","236.5","","49","","","3000","1","1672.2999999821186","49","images/tutyellowplanet.jpg","null","images/tutalien3","null","images/tutalien3","images/t.png","NA","practice","null","","","",""
"d3-animate-choice","28","132278","0.0-28.0","978","4986","22","Male","false","false","false","true","""event"",""trial"",""time""
""fullscreenenter"",""5"",""16028""
","
","
","""event"",""trial"",""time""
""fullscreenenter"",""5"",""16028""
","
","238.60000002384186","","49","","","3000","1","","","images/tutyellowplanet.jpg","null","images/tutalien3","null","images/tutalien3","images/nothing.png","NA","practice","null","","","",""
"d3-animate-choice","29","134667","0.0-29.0","978","4986","22","Male","false","false","false","true","""event"",""trial"",""time""
""fullscreenenter"",""5"",""16028""
","
","
","""event"",""trial"",""time""
""fullscreenenter"",""5"",""16028""
","
","376.10000002384186","","49","","","3000","1","","","images/tutyellowplanet.jpg","null","images/tutalien3","null","images/tutalien3","images/nothing.png","NA","practice","null","","","",""
"d3-instructions","30","136289","0.0-30.0","978","4986","22","Male","false","false","false","true","""event"",""trial"",""time""
""fullscreenenter"",""5"",""16028""
","
","
","""event"",""trial"",""time""
""fullscreenenter"",""5"",""16028""
","
","","","","","","","","","","","","","","","","","","","","","",""
"d3-instructions","31","142336","0.0-31.0","978","4986","22","Male","false","false","false","true","""event"",""trial"",""time""
""fullscreenenter"",""5"",""16028""
","
","
","""event"",""trial"",""time""
""fullscreenenter"",""5"",""16028""
","
","","","","","","","","","","","","","","","","","","","","","",""
"d3-instructions","32","146115","0.0-32.0","978","4986","22","Male","false","false","false","true","""event"",""trial"",""time""
""fullscreenenter"",""5"",""16028""
","
","
","""event"",""trial"",""time""
""fullscreenenter"",""5"",""16028""
","
","","","","","","","","","","","","","","","","","","","","","",""
"d3-instructions","33","148392","0.0-33.0","978","4986","22","Male","false","false","false","true","""event"",""trial"",""time""
""fullscreenenter"",""5"",""16028""
","
","
","""event"",""trial"",""time""
""fullscreenenter"",""5"",""16028""
","
","","","","","","","","","","","","","","","","","","","","","",""
"d3-animate-choice","34","151477","0.0-34.0","978","4986","22","Male","false","false","false","true","""event"",""trial"",""time""
""fullscreenenter"",""5"",""16028""
","
","
","""event"",""trial"",""time""
""fullscreenenter"",""5"",""16028""
","
","1075","","49","","","3000","1","","","images/tutgreenplanet.jpg","images/tutalien1","images/tutalien2","null","images/tutalien2","images/t.png","NA","practice","null","","","",""
"d3-animate-choice","35","153873","0.0-35.0","978","4986","22","Male","false","false","false","true","""event"",""trial"",""time""
""fullscreenenter"",""5"",""16028""
","
","
","""event"",""trial"",""time""
""fullscreenenter"",""5"",""16028""
","
","381.30000001192093","","49","","","3000","1","","","images/tutgreenplanet.jpg","images/tutalien1","images/tutalien2","null","images/tutalien2","images/nothing.png","NA","practice","null","","","",""
"d3-animate-choice","36","157297","0.0-36.0","978","4986","22","Male","false","false","false","true","""event"",""trial"",""time""
""fullscreenenter"",""5"",""16028""
","
","
","""event"",""trial"",""time""
""fullscreenenter"",""5"",""16028""
","
","138.80000001192093","","50","","","3000","1","679.0999999940395,1405","50,48","images/tutgreenplanet.jpg","images/tutalien1","images/tutalien2","null","images/tutalien1","images/nothing.png","NA","practice","null","","","",""
"d3-animate-choice","37","159588","0.0-37.0","978","4986","22","Male","false","false","false","true","""event"",""trial"",""time""
""fullscreenenter"",""5"",""16028""
","
","
","""event"",""trial"",""time""
""fullscreenenter"",""5"",""16028""
","
","282.90000000596046","","48","","","3000","1","","","images/tutgreenplanet.jpg","images/tutalien1","images/tutalien2","null","images/tutalien1","images/nothing.png","NA","practice","null","","","",""
"d3-animate-choice","38","161641","0.0-38.0","978","4986","22","Male","false","false","false","true","""event"",""trial"",""time""
""fullscreenenter"",""5"",""16028""
","
","
","""event"",""trial"",""time""
""fullscreenenter"",""5"",""16028""
","
","48.79999998211861","","49","","","3000","1","","","images/tutgreenplanet.jpg","images/tutalien1","images/tutalien2","null","images/tutalien2","images/t.png","NA","practice","null","","","",""
"d3-animate-choice","39","163887","0.0-39.0","978","4986","22","Male","false","false","false","true","""event"",""trial"",""time""
""fullscreenenter"",""5"",""16028""
","
","
","""event"",""trial"",""time""
""fullscreenenter"",""5"",""16028""
","
","228.19999998807907","","49","","","3000","1","","","images/tutgreenplanet.jpg","images/tutalien1","images/tutalien2","null","images/tutalien2","images/t.png","NA","practice","null","","","",""
"d3-animate-choice","40","166142","0.0-40.0","978","4986","22","Male","false","false","false","true","""event"",""trial"",""time""
""fullscreenenter"",""5"",""16028""
","
","
","""event"",""trial"",""time""
""fullscreenenter"",""5"",""16028""
","
","234.5","","49","","","3000","1","","","images/tutgreenplanet.jpg","images/tutalien1","images/tutalien2","null","images/tutalien2","images/t.png","NA","practice","null","","","",""
"d3-animate-choice","41","168342","0.0-41.0","978","4986","22","Male","false","false","false","true","""event"",""trial"",""time""
""fullscreenenter"",""5"",""16028""
","
","
","""event"",""trial"",""time""
""fullscreenenter"",""5"",""16028""
","
","187.2000000178814","","49","","","3000","1","","","images/tutgreenplanet.jpg","images/tutalien1","images/tutalien2","null","images/tutalien2","images/t.png","NA","practice","null","","","",""
"d3-animate-choice","42","170603","0.0-42.0","978","4986","22","Male","false","false","false","true","""event"",""trial"",""time""
""fullscreenenter"",""5"",""16028""
","
","
","""event"",""trial"",""time""
""fullscreenenter"",""5"",""16028""
","
","255.30000001192093","","49","","","3000","1","","","images/tutgreenplanet.jpg","images/tutalien1","images/tutalien2","null","images/tutalien2","images/nothing.png","NA","practice","null","","","",""
"d3-animate-choice","43","172630","0.0-43.0","978","4986","22","Male","false","false","false","true","""event"",""trial"",""time""
""fullscreenenter"",""5"",""16028""
","
","
","""event"",""trial"",""time""
""fullscreenenter"",""5"",""16028""
","
","24.700000017881393","","49","","","3000","1","","","images/tutgreenplanet.jpg","images/tutalien1","images/tutalien2","null","images/tutalien2","images/t.png","NA","practice","null","","","",""
"d3-instructions","44","177173","0.0-44.0","978","4986","22","Male","false","false","false","true","""event"",""trial"",""time""
""fullscreenenter"",""5"",""16028""
","
","
","""event"",""trial"",""time""
""fullscreenenter"",""5"",""16028""
","
","","","","","","","","","","","","","","","","","","","","","",""
"d3-instructions","45","180306","0.0-45.0","978","4986","22","Male","false","false","false","true","""event"",""trial"",""time""
""fullscreenenter"",""5"",""16028""
","
","
","""event"",""trial"",""time""
""fullscreenenter"",""5"",""16028""
","
","","","","","","","","","","","","","","","","","","","","","",""
"d3-instructions","46","183329","0.0-46.0","978","4986","22","Male","false","false","false","true","""event"",""trial"",""time""
""fullscreenenter"",""5"",""16028""
","
","
","""event"",""trial"",""time""
""fullscreenenter"",""5"",""16028""
","
","","","","","","","","","","","","","","","","","","","","","",""
"d3-instructions","47","198831","0.0-47.0","978","4986","22","Male","false","false","false","true","""event"",""trial"",""time""
""fullscreenenter"",""5"",""16028""
","
","
","""event"",""trial"",""time""
""fullscreenenter"",""5"",""16028""
","
","","","","","","","","","","","","","","","","","","","","","",""
"d3-instructions","48","202655","0.0-48.0","978","4986","22","Male","false","false","false","true","""event"",""trial"",""time""
""fullscreenenter"",""5"",""16028""
","
","
","""event"",""trial"",""time""
""fullscreenenter"",""5"",""16028""
","
","","","","","","","","","","","","","","","","","","","","","",""
"d3-instructions","49","205438","0.0-49.0","978","4986","22","Male","false","false","false","true","""event"",""trial"",""time""
""fullscreenenter"",""5"",""16028""
","
","
","""event"",""trial"",""time""
""fullscreenenter"",""5"",""16028""
","
","","","","","","","","","","","","","","","","","","","","","",""
"d3-instructions","50","217932","0.0-50.0","978","4986","22","Male","false","false","false","true","""event"",""trial"",""time""
""fullscreenenter"",""5"",""16028""
","
","
","""event"",""trial"",""time""
""fullscreenenter"",""5"",""16028""
","
","","","","","","","","","","","","","","","","","","","","","",""
"d3-instructions","51","222342","0.0-51.0","978","4986","22","Male","false","false","false","true","""event"",""trial"",""time""
""fullscreenenter"",""5"",""16028""
","
","
","""event"",""trial"",""time""
""fullscreenenter"",""5"",""16028""
","
","","","","","","","","","","","","","","","","","","","","","",""
"d3-instructions","52","224757","0.0-52.0","978","4986","22","Male","false","false","false","true","""event"",""trial"",""time""
""fullscreenenter"",""5"",""16028""
","
","
","""event"",""trial"",""time""
""fullscreenenter"",""5"",""16028""
","
","","","","","","","","","","","","","","","","","","","","","",""
"d3-instructions","53","240195","0.0-53.0","978","4986","22","Male","false","false","false","true","""event"",""trial"",""time""
""fullscreenenter"",""5"",""16028""
","
","
","""event"",""trial"",""time""
""fullscreenenter"",""5"",""16028""
","
","","","","","","","","","","","","","","","","","","","","","",""
"d3-instructions","54","251196","0.0-54.0","978","4986","22","Male","false","false","false","true","""event"",""trial"",""time""
""fullscreenenter"",""5"",""16028""
","
","
","""event"",""trial"",""time""
""fullscreenenter"",""5"",""16028""
","
","","","","","","","","","","","","","","","","","","","","","",""
"d3-instructions","55","256932","0.0-55.0","978","4986","22","Male","false","false","false","true","""event"",""trial"",""time""
""fullscreenenter"",""5"",""16028""
","
","
","""event"",""trial"",""time""
""fullscreenenter"",""5"",""16028""
","
","","","","","","","","","","","","","","","","","","","","","",""
"d3-instructions","56","264676","0.0-56.0","978","4986","22","Male","false","false","false","true","""event"",""trial"",""time""
""fullscreenenter"",""5"",""16028""
","
","
","""event"",""trial"",""time""
""fullscreenenter"",""5"",""16028""
","
","","","","","","","","","","","","","","","","","","","","","",""
"d3-instructions","57","269136","0.0-57.0","978","4986","22","Male","false","false","false","true","""event"",""trial"",""time""
""fullscreenenter"",""5"",""16028""
","
","
","""event"",""trial"",""time""
""fullscreenenter"",""5"",""16028""
","
","","","","","","","","","","","","","","","","","","","","","",""
"d3-instructions","58","275072","0.0-58.0","978","4986","22","Male","false","false","false","true","""event"",""trial"",""time""
""fullscreenenter"",""5"",""16028""
","
","
","""event"",""trial"",""time""
""fullscreenenter"",""5"",""16028""
","
","","","","","","","","","","","","","","","","","","","","","",""
"d3-instructions","59","277670","0.0-59.0","978","4986","22","Male","false","false","false","true","""event"",""trial"",""time""
""fullscreenenter"",""5"",""16028""
","
","
","""event"",""trial"",""time""
""fullscreenenter"",""5"",""16028""
","
","","","","","","","","","","","","","","","","","","","","","",""
"d3-instructions","60","279867","0.0-60.0","978","4986","22","Male","false","false","false","true","""event"",""trial"",""time""
""fullscreenenter"",""5"",""16028""
","
","
","""event"",""trial"",""time""
""fullscreenenter"",""5"",""16028""
","
","","","","","","","","","","","","","","","","","","","","","",""
"d3-animate-choice","61","283105","0.0-61.0-0.0","978","4986","22","Male","false","false","false","true","""event"",""trial"",""time""
""fullscreenenter"",""5"",""16028""
","
","
","""event"",""trial"",""time""
""fullscreenenter"",""5"",""16028""
","
","1228","","49","","","3000","1","","","images/earth.jpg","images/tutrocket2","images/tutrocket1","null","images/tutrocket1","","1","practice","null","1","","",""
"d3-animate-choice","62","287127","0.0-61.0-1.0","978","4986","22","Male","false","false","false","true","""event"",""trial"",""time""
""fullscreenenter"",""5"",""16028""
","
","
","""event"",""trial"",""time""
""fullscreenenter"",""5"",""16028""
","
","2315.100000023842","","49","","","3000","1","","","images/tutyellowplanet.jpg","images/tutalien4","images/tutalien3","images/tutrocket1","images/tutalien3","images/nothing.png","2","practice","true","1","common","0","2022-12-13 04:07:07.497"
"two-step-fixation","63","288145","0.0-61.0-2.0","978","4986","22","Male","false","false","false","true","""event"",""trial"",""time""
""fullscreenenter"",""5"",""16028""
","
","
","""event"",""trial"",""time""
""fullscreenenter"",""5"",""16028""
","
","","images/earth.jpg","","","","","","","","","","","","","","fixation","","","","","",""
"d3-animate-choice","64","292152","0.0-61.0-0.1","978","4986","22","Male","false","false","false","true","""event"",""trial"",""time""
""fullscreenenter"",""5"",""16028""
","
","
","""event"",""trial"",""time""
""fullscreenenter"",""5"",""16028""
","
","972.1999999880791","","50","","","3000","1","2669.5","48","images/earth.jpg","images/tutrocket2","images/tutrocket1","null","images/tutrocket2","","1","practice","null","","","",""
"d3-animate-choice","65","295593","0.0-61.0-1.1","978","4986","22","Male","false","false","false","true","""event"",""trial"",""time""
""fullscreenenter"",""5"",""16028""
","
","
","""event"",""trial"",""time""
""fullscreenenter"",""5"",""16028""
","
","1419.8999999761581","","49","","","3000","1","","","images/tutgreenplanet.jpg","images/tutalien2","images/tutalien1","images/tutrocket2","images/tutalien1","images/nothing.png","2","practice","true","1","common","0","2022-12-13 04:07:15.962"
"two-step-fixation","66","296602","0.0-61.0-2.1","978","4986","22","Male","false","false","false","true","""event"",""trial"",""time""
""fullscreenenter"",""5"",""16028""
","
","
","""event"",""trial"",""time""
""fullscreenenter"",""5"",""16028""
","
","","images/earth.jpg","","","","","","","","","","","","","","fixation","","","","","",""
"d3-animate-choice","67","299048","0.0-61.0-0.2","978","4986","22","Male","false","false","false","true","""event"",""trial"",""time""
""fullscreenenter"",""5"",""16028""
","
","
","""event"",""trial"",""time""
""fullscreenenter"",""5"",""16028""
","
","439.40000000596046","","49","","","3000","1","","","images/earth.jpg","images/tutrocket2","images/tutrocket1","null","images/tutrocket1","","1","practice","null","1","","",""
"d3-animate-choice","68","302575","0.0-61.0-1.2","978","4986","22","Male","false","false","false","true","""event"",""trial"",""time""
""fullscreenenter"",""5"",""16028""
","
","
","""event"",""trial"",""time""
""fullscreenenter"",""5"",""16028""
","
","1012.5","","50","","","3000","1","1522.7000000178814","48","images/tutyellowplanet.jpg","images/tutalien4","images/tutalien3","images/tutrocket1","images/tutalien4","images/nothing.png","2","practice","true","","common","0","2022-12-13 04:07:22.944"
"two-step-fixation","69","303582","0.0-61.0-2.2","978","4986","22","Male","false","false","false","true","""event"",""trial"",""time""
""fullscreenenter"",""5"",""16028""
","
","
","""event"",""trial"",""time""
""fullscreenenter"",""5"",""16028""
","
","","images/earth.jpg","","","","","","","","","","","","","","fixation","","","","","",""
"d3-animate-choice","70","307112","0.0-61.0-0.3","978","4986","22","Male","false","false","false","true","""event"",""trial"",""time""
""fullscreenenter"",""5"",""16028""
","
","
","""event"",""trial"",""time""
""fullscreenenter"",""5"",""16028""
","
","1511.699999988079","","49","","","3000","1","","","images/earth.jpg","images/tutrocket2","images/tutrocket1","null","images/tutrocket1","","1","practice","null","1","","",""
"d3-animate-choice","71","309552","0.0-61.0-1.3","978","4986","22","Male","false","false","false","true","""event"",""trial"",""time""
""fullscreenenter"",""5"",""16028""
","
","
","""event"",""trial"",""time""
""fullscreenenter"",""5"",""16028""
","
","426.39999997615814","","49","","","3000","1","","","images/tutgreenplanet.jpg","images/tutalien2","images/tutalien1","images/tutrocket1","images/tutalien1","images/nothing.png","2","practice","false","1","rare","0","2022-12-13 04:07:29.921"
"two-step-fixation","72","310558","0.0-61.0-2.3","978","4986","22","Male","false","false","false","true","""event"",""trial"",""time""
""fullscreenenter"",""5"",""16028""
","
","
","""event"",""trial"",""time""
""fullscreenenter"",""5"",""16028""
","
","","images/earth.jpg","","","","","","","","","","","","","","fixation","","","","","",""
"d3-animate-choice","73","312902","0.0-61.0-0.4","978","4986","22","Male","false","false","false","true","""event"",""trial"",""time""
""fullscreenenter"",""5"",""16028""
","
","
","""event"",""trial"",""time""
""fullscreenenter"",""5"",""16028""
","
","333.7000000178814","","49","","","3000","1","","","images/earth.jpg","images/tutrocket2","images/tutrocket1","null","images/tutrocket1","","1","practice","null","1","","",""
"d3-animate-choice","74","316646","0.0-61.0-1.4","978","4986","22","Male","false","false","false","true","""event"",""trial"",""time""
""fullscreenenter"",""5"",""16028""
","
","
","""event"",""trial"",""time""
""fullscreenenter"",""5"",""16028""
","
","1734.2999999821186","","49","","","3000","1","","","images/tutyellowplanet.jpg","images/tutalien4","images/tutalien3","images/tutrocket1","images/tutalien3","images/nothing.png","2","practice","true","1","common","0","2022-12-13 04:07:37.016"
"two-step-fixation","75","317655","0.0-61.0-2.4","978","4986","22","Male","false","false","false","true","""event"",""trial"",""time""
""fullscreenenter"",""5"",""16028""
","
","
","""event"",""trial"",""time""
""fullscreenenter"",""5"",""16028""
","
","","images/earth.jpg","","","","","","","","","","","","","","fixation","","","","","",""
"d3-animate-choice","76","320394","0.0-61.0-0.5","978","4986","22","Male","false","false","false","true","""event"",""trial"",""time""
""fullscreenenter"",""5"",""16028""
","
","
","""event"",""trial"",""time""
""fullscreenenter"",""5"",""16028""
","
","735.9000000059605","","49","","","3000","1","","","images/earth.jpg","images/tutrocket2","images/tutrocket1","null","images/tutrocket1","","1","practice","null","1","","",""
"d3-animate-choice","77","324303","0.0-61.0-1.5","978","4986","22","Male","false","false","false","true","""event"",""trial"",""time""
""fullscreenenter"",""5"",""16028""
","
","
","""event"",""trial"",""time""
""fullscreenenter"",""5"",""16028""
","
","890.2999999821186","","50","","","3000","1","1901.199999988079","48","images/tutgreenplanet.jpg","images/tutalien2","images/tutalien1","images/tutrocket1","images/tutalien2","images/nothing.png","2","practice","false","","rare","0","2022-12-13 04:07:44.672"
"two-step-fixation","78","325311","0.0-61.0-2.5","978","4986","22","Male","false","false","false","true","""event"",""trial"",""time""
""fullscreenenter"",""5"",""16028""
","
","
","""event"",""trial"",""time""
""fullscreenenter"",""5"",""16028""
","
","","images/earth.jpg","","","","","","","","","","","","","","fixation","","","","","",""
"d3-animate-choice","79","328950","0.0-61.0-0.6","978","4986","22","Male","false","false","false","true","""event"",""trial"",""time""
""fullscreenenter"",""5"",""16028""
","
","
","""event"",""trial"",""time""
""fullscreenenter"",""5"",""16028""
","
","1629.4000000059605","","48","","","3000","1","","","images/earth.jpg","images/tutrocket2","images/tutrocket1","null","images/tutrocket2","","1","practice","null","2","","",""
"d3-animate-choice","80","331847","0.0-61.0-1.6","978","4986","22","Male","false","false","false","true","""event"",""trial"",""time""
""fullscreenenter"",""5"",""16028""
","
","
","""event"",""trial"",""time""
""fullscreenenter"",""5"",""16028""
","
","893.3999999761581","","49","","","3000","1","","","images/tutyellowplanet.jpg","images/tutalien4","images/tutalien3","images/tutrocket2","images/tutalien3","images/t.png","2","practice","false","1","rare","1","2022-12-13 04:07:52.216"
"two-step-fixation","81","332854","0.0-61.0-2.6","978","4986","22","Male","false","false","false","true","""event"",""trial"",""time""
""fullscreenenter"",""5"",""16028""
","
","
","""event"",""trial"",""time""
""fullscreenenter"",""5"",""16028""
","
","","images/earth.jpg","","","","","","","","","","","","","","fixation","","","","","",""
"d3-animate-choice","82","335448","0.0-61.0-0.7","978","4986","22","Male","false","false","false","true","""event"",""trial"",""time""
""fullscreenenter"",""5"",""16028""
","
","
","""event"",""trial"",""time""
""fullscreenenter"",""5"",""16028""
","
","584.8000000119209","","48","","","3000","1","","","images/earth.jpg","images/tutrocket2","images/tutrocket1","null","images/tutrocket2","","1","practice","null","2","","",""
"d3-animate-choice","83","338494","0.0-61.0-1.7","978","4986","22","Male","false","false","false","true","""event"",""trial"",""time""
""fullscreenenter"",""5"",""16028""
","
","
","""event"",""trial"",""time""
""fullscreenenter"",""5"",""16028""
","
","1042.5","","49","","","3000","1","","","images/tutgreenplanet.jpg","images/tutalien2","images/tutalien1","images/tutrocket2","images/tutalien1","images/nothing.png","2","practice","true","1","common","0","2022-12-13 04:07:58.864"
"two-step-fixation","84","339504","0.0-61.0-2.7","978","4986","22","Male","false","false","false","true","""event"",""trial"",""time""
""fullscreenenter"",""5"",""16028""
","
","
","""event"",""trial"",""time""
""fullscreenenter"",""5"",""16028""
","
","","images/earth.jpg","","","","","","","","","","","","","","fixation","","","","","",""
"d3-animate-choice","85","342094","0.0-61.0-0.8","978","4986","22","Male","false","false","false","true","""event"",""trial"",""time""
""fullscreenenter"",""5"",""16028""
","
","
","""event"",""trial"",""time""
""fullscreenenter"",""5"",""16028""
","
","586.2999999821186","","48","","","3000","1","","","images/earth.jpg","images/tutrocket2","images/tutrocket1","null","images/tutrocket2","","1","practice","null","2","","",""
"d3-animate-choice","86","344840","0.0-61.0-1.8","978","4986","22","Male","false","false","false","true","""event"",""trial"",""time""
""fullscreenenter"",""5"",""16028""
","
","
","""event"",""trial"",""time""
""fullscreenenter"",""5"",""16028""
","
","734.0999999940395","","49","","","3000","1","","","images/tutyellowplanet.jpg","images/tutalien4","images/tutalien3","images/tutrocket2","images/tutalien3","images/nothing.png","2","practice","false","1","rare","0","2022-12-13 04:08:05.209"
"two-step-fixation","87","345847","0.0-61.0-2.8","978","4986","22","Male","false","false","false","true","""event"",""trial"",""time""
""fullscreenenter"",""5"",""16028""
","
","
","""event"",""trial"",""time""
""fullscreenenter"",""5"",""16028""
","
","","images/earth.jpg","","","","","","","","","","","","","","fixation","","","","","",""
"d3-animate-choice","88","348383","0.0-61.0-0.9","978","4986","22","Male","false","false","false","true","""event"",""trial"",""time""
""fullscreenenter"",""5"",""16028""
","
","
","""event"",""trial"",""time""
""fullscreenenter"",""5"",""16028""
","
","523.4000000059605","","48","","","3000","1","","","images/earth.jpg","images/tutrocket2","images/tutrocket1","null","images/tutrocket2","","1","practice","null","2","","",""
"d3-animate-choice","89","352086","0.0-61.0-1.9","978","4986","22","Male","false","false","false","true","""event"",""trial"",""time""
""fullscreenenter"",""5"",""16028""
","
","
","""event"",""trial"",""time""
""fullscreenenter"",""5"",""16028""
","
","1132.0999999940395","","50","","","3000","1","1693.199999988079","48","images/tutgreenplanet.jpg","images/tutalien2","images/tutalien1","images/tutrocket2","images/tutalien2","images/nothing.png","2","practice","true","","common","0","2022-12-13 04:08:12.455"
"two-step-fixation","90","353094","0.0-61.0-2.9","978","4986","22","Male","false","false","false","true","""event"",""trial"",""time""
""fullscreenenter"",""5"",""16028""
","
","
","""event"",""trial"",""time""
""fullscreenenter"",""5"",""16028""
","
","","images/earth.jpg","","","","","","","","","","","","","","fixation","","","","","",""
"d3-animate-choice","91","355690","0.0-61.0-0.10","978","4986","22","Male","false","false","false","true","""event"",""trial"",""time""
""fullscreenenter"",""5"",""16028""
","
","
","""event"",""trial"",""time""
""fullscreenenter"",""5"",""16028""
","
","585.9000000059605","","48","","","3000","1","","","images/earth.jpg","images/tutrocket2","images/tutrocket1","null","images/tutrocket2","","1","practice","null","2","","",""
"d3-animate-choice","92","358606","0.0-61.0-1.10","978","4986","22","Male","false","false","false","true","""event"",""trial"",""time""
""fullscreenenter"",""5"",""16028""
","
","
","""event"",""trial"",""time""
""fullscreenenter"",""5"",""16028""
","
","912.8999999761581","","49","","","3000","1","","","images/tutgreenplanet.jpg","images/tutalien2","images/tutalien1","images/tutrocket2","images/tutalien1","images/t.png","2","practice","true","1","common","1","2022-12-13 04:08:18.975"
"two-step-fixation","93","359614","0.0-61.0-2.10","978","4986","22","Male","false","false","false","true","""event"",""trial"",""time""
""fullscreenenter"",""5"",""16028""
","
","
","""event"",""trial"",""time""
""fullscreenenter"",""5"",""16028""
","
","","images/earth.jpg","","","","","","","","","","","","","","fixation","","","","","",""
"d3-animate-choice","94","362094","0.0-61.0-0.11","978","4986","22","Male","false","false","false","true","""event"",""trial"",""time""
""fullscreenenter"",""5"",""16028""
","
","
","""event"",""trial"",""time""
""fullscreenenter"",""5"",""16028""
","
","471.80000001192093","","48","","","3000","1","","","images/earth.jpg","images/tutrocket2","images/tutrocket1","null","images/tutrocket2","","1","practice","null","2","","",""
"d3-animate-choice","95","365095","0.0-61.0-1.11","978","4986","22","Male","false","false","false","true","""event"",""trial"",""time""
""fullscreenenter"",""5"",""16028""
","
","
","""event"",""trial"",""time""
""fullscreenenter"",""5"",""16028""
","
","990.7999999821186","","49","","","3000","1","","","images/tutgreenplanet.jpg","images/tutalien2","images/tutalien1","images/tutrocket2","images/tutalien1","images/nothing.png","2","practice","true","1","common","0","2022-12-13 04:08:25.464"
"two-step-fixation","96","366103","0.0-61.0-2.11","978","4986","22","Male","false","false","false","true","""event"",""trial"",""time""
""fullscreenenter"",""5"",""16028""
","
","
","""event"",""trial"",""time""
""fullscreenenter"",""5"",""16028""
","
","","images/earth.jpg","","","","","","","","","","","","","","fixation","","","","","",""
"d3-animate-choice","97","368382","0.0-61.0-0.12","978","4986","22","Male","false","false","false","true","""event"",""trial"",""time""
""fullscreenenter"",""5"",""16028""
","
","
","""event"",""trial"",""time""
""fullscreenenter"",""5"",""16028""
","
","271.19999998807907","","48","","","3000","1","","","images/earth.jpg","images/tutrocket2","images/tutrocket1","null","images/tutrocket2","","1","practice","null","2","","",""
"d3-animate-choice","98","371126","0.0-61.0-1.12","978","4986","22","Male","false","false","false","true","""event"",""trial"",""time""
""fullscreenenter"",""5"",""16028""
","
","
","""event"",""trial"",""time""
""fullscreenenter"",""5"",""16028""
","
","734.5","","49","","","3000","1","","","images/tutyellowplanet.jpg","images/tutalien4","images/tutalien3","images/tutrocket2","images/tutalien3","images/t.png","2","practice","false","1","rare","1","2022-12-13 04:08:31.495"
"two-step-fixation","99","372147","0.0-61.0-2.12","978","4986","22","Male","false","false","false","true","""event"",""trial"",""time""
""fullscreenenter"",""5"",""16028""
","
","
","""event"",""trial"",""time""
""fullscreenenter"",""5"",""16028""
","
","","images/earth.jpg","","","","","","","","","","","","","","fixation","","","","","",""
"d3-animate-choice","100","374452","0.0-61.0-0.13","978","4986","22","Male","false","false","false","true","""event"",""trial"",""time""
""fullscreenenter"",""5"",""16028""
","
","
","""event"",""trial"",""time""
""fullscreenenter"",""5"",""16028""
","
","298.59999999403954","","48","","","3000","1","","","images/earth.jpg","images/tutrocket2","images/tutrocket1","null","images/tutrocket2","","1","practice","null","2","","",""
"d3-animate-choice","101","377768","0.0-61.0-1.13","978","4986","22","Male","false","false","false","true","""event"",""trial"",""time""
""fullscreenenter"",""5"",""16028""
","
","
","""event"",""trial"",""time""
""fullscreenenter"",""5"",""16028""
","
","1311.5999999940395","","49","","","3000","1","","","images/tutgreenplanet.jpg","images/tutalien2","images/tutalien1","images/tutrocket2","images/tutalien1","images/t.png","2","practice","true","1","common","1","2022-12-13 04:08:38.137"
"two-step-fixation","102","378774","0.0-61.0-2.13","978","4986","22","Male","false","false","false","true","""event"",""trial"",""time""
""fullscreenenter"",""5"",""16028""
","
","
","""event"",""trial"",""time""
""fullscreenenter"",""5"",""16028""
","
","","images/earth.jpg","","","","","","","","","","","","","","fixation","","","","","",""
"d3-animate-choice","103","381422","0.0-61.0-0.14","978","4986","22","Male","false","false","false","true","""event"",""trial"",""time""
""fullscreenenter"",""5"",""16028""
","
","
","""event"",""trial"",""time""
""fullscreenenter"",""5"",""16028""
","
","642.9000000059605","","48","","","3000","1","","","images/earth.jpg","images/tutrocket2","images/tutrocket1","null","images/tutrocket2","","1","practice","null","2","","",""
"d3-animate-choice","104","384206","0.0-61.0-1.14","978","4986","22","Male","false","false","false","true","""event"",""trial"",""time""
""fullscreenenter"",""5"",""16028""
","
","
","""event"",""trial"",""time""
""fullscreenenter"",""5"",""16028""
","
","778.2999999821186","","49","","","3000","1","","","images/tutyellowplanet.jpg","images/tutalien4","images/tutalien3","images/tutrocket2","images/tutalien3","images/nothing.png","2","practice","false","1","rare","0","2022-12-13 04:08:44.575"
"two-step-fixation","105","385217","0.0-61.0-2.14","978","4986","22","Male","false","false","false","true","""event"",""trial"",""time""
""fullscreenenter"",""5"",""16028""
","
","
","""event"",""trial"",""time""
""fullscreenenter"",""5"",""16028""
","
","","images/earth.jpg","","","","","","","","","","","","","","fixation","","","","","",""
"d3-animate-choice","106","387831","0.0-61.0-0.15","978","4986","22","Male","false","false","false","true","""event"",""trial"",""time""
""fullscreenenter"",""5"",""16028""
","
","
","""event"",""trial"",""time""
""fullscreenenter"",""5"",""16028""
","
","602.6999999880791","","48","","","3000","1","","","images/earth.jpg","images/tutrocket2","images/tutrocket1","null","images/tutrocket2","","1","practice","null","2","","",""
"d3-animate-choice","107","390566","0.0-61.0-1.15","978","4986","22","Male","false","false","false","true","""event"",""trial"",""time""
""fullscreenenter"",""5"",""16028""
","
","
","""event"",""trial"",""time""
""fullscreenenter"",""5"",""16028""
","
","732.5","","49","","","3000","1","","","images/tutgreenplanet.jpg","images/tutalien2","images/tutalien1","images/tutrocket2","images/tutalien1","images/nothing.png","2","practice","true","1","common","0","2022-12-13 04:08:50.935"
"two-step-fixation","108","391575","0.0-61.0-2.15","978","4986","22","Male","false","false","false","true","""event"",""trial"",""time""
""fullscreenenter"",""5"",""16028""
","
","
","""event"",""trial"",""time""
""fullscreenenter"",""5"",""16028""
","
","","images/earth.jpg","","","","","","","","","","","","","","fixation","","","","","",""
"d3-animate-choice","109","394023","0.0-61.0-0.16","978","4986","22","Male","false","false","false","true","""event"",""trial"",""time""
""fullscreenenter"",""5"",""16028""
","
","
","""event"",""trial"",""time""
""fullscreenenter"",""5"",""16028""
","
","436.60000002384186","","48","","","3000","1","","","images/earth.jpg","images/tutrocket2","images/tutrocket1","null","images/tutrocket2","","1","practice","null","2","","",""
"d3-animate-choice","110","396847","0.0-61.0-1.16","978","4986","22","Male","false","false","false","true","""event"",""trial"",""time""
""fullscreenenter"",""5"",""16028""
","
","
","""event"",""trial"",""time""
""fullscreenenter"",""5"",""16028""
","
","817.9000000059605","","49","","","3000","1","","","images/tutgreenplanet.jpg","images/tutalien2","images/tutalien1","images/tutrocket2","images/tutalien1","images/nothing.png","2","practice","true","1","common","0","2022-12-13 04:08:57.216"
"two-step-fixation","111","397856","0.0-61.0-2.16","978","4986","22","Male","false","false","false","true","""event"",""trial"",""time""
""fullscreenenter"",""5"",""16028""
","
","
","""event"",""trial"",""time""
""fullscreenenter"",""5"",""16028""
","
","","images/earth.jpg","","","","","","","","","","","","","","fixation","","","","","",""
"d3-animate-choice","112","401103","0.0-61.0-0.17","978","4986","22","Male","false","false","false","true","""event"",""trial"",""time""
""fullscreenenter"",""5"",""16028""
","
","
","""event"",""trial"",""time""
""fullscreenenter"",""5"",""16028""
","
","1242.4000000059605","","48","","","3000","1","","","images/earth.jpg","images/tutrocket2","images/tutrocket1","null","images/tutrocket2","","1","practice","null","2","","",""
"d3-animate-choice","113","404930","0.0-61.0-1.17","978","4986","22","Male","false","false","false","true","""event"",""trial"",""time""
""fullscreenenter"",""5"",""16028""
","
","
","""event"",""trial"",""time""
""fullscreenenter"",""5"",""16028""
","
","1821.4000000059605","","49","","","3000","1","","","images/tutyellowplanet.jpg","images/tutalien4","images/tutalien3","images/tutrocket2","images/tutalien3","images/nothing.png","2","practice","false","1","rare","0","2022-12-13 04:09:05.299"
"two-step-fixation","114","405934","0.0-61.0-2.17","978","4986","22","Male","false","false","false","true","""event"",""trial"",""time""
""fullscreenenter"",""5"",""16028""
","
","
","""event"",""trial"",""time""
""fullscreenenter"",""5"",""16028""
","
","","images/earth.jpg","","","","","","","","","","","","","","fixation","","","","","",""
"d3-animate-choice","115","408720","0.0-61.0-0.18","978","4986","22","Male","false","false","false","true","""event"",""trial"",""time""
""fullscreenenter"",""5"",""16028""
","
","
","""event"",""trial"",""time""
""fullscreenenter"",""5"",""16028""
","
","772.7999999821186","","48","","","3000","1","","","images/earth.jpg","images/tutrocket2","images/tutrocket1","null","images/tutrocket2","","1","practice","null","2","","",""
"d3-animate-choice","116","412030","0.0-61.0-1.18","978","4986","22","Male","false","false","false","true","""event"",""trial"",""time""
""fullscreenenter"",""5"",""16028""
","
","
","""event"",""trial"",""time""
""fullscreenenter"",""5"",""16028""
","
","520.2999999821186","","50","","","3000","1","1305.7999999821186","48","images/tutgreenplanet.jpg","images/tutalien2","images/tutalien1","images/tutrocket2","images/tutalien2","images/nothing.png","2","practice","true","","common","0","2022-12-13 04:09:12.399"
"two-step-fixation","117","413039","0.0-61.0-2.18","978","4986","22","Male","false","false","false","true","""event"",""trial"",""time""
""fullscreenenter"",""5"",""16028""
","
","
","""event"",""trial"",""time""
""fullscreenenter"",""5"",""16028""
","
","","images/earth.jpg","","","","","","","","","","","","","","fixation","","","","","",""
"d3-animate-choice","118","415942","0.0-61.0-0.19","978","4986","22","Male","false","false","false","true","""event"",""trial"",""time""
""fullscreenenter"",""5"",""16028""
","
","
","""event"",""trial"",""time""
""fullscreenenter"",""5"",""16028""
","
","891.9000000059605","","48","","","3000","1","","","images/earth.jpg","images/tutrocket2","images/tutrocket1","null","images/tutrocket2","","1","practice","null","2","","",""
"d3-animate-choice","119","419382","0.0-61.0-1.19","978","4986","22","Male","false","false","false","true","""event"",""trial"",""time""
""fullscreenenter"",""5"",""16028""
","
","
","""event"",""trial"",""time""
""fullscreenenter"",""5"",""16028""
","
","671.1999999880791","","50","","","3000","1","1432.5","48","images/tutgreenplanet.jpg","images/tutalien2","images/tutalien1","images/tutrocket2","images/tutalien2","images/nothing.png","2","practice","true","","common","0","2022-12-13 04:09:19.751"
"two-step-fixation","120","420389","0.0-61.0-2.19","978","4986","22","Male","false","false","false","true","""event"",""trial"",""time""
""fullscreenenter"",""5"",""16028""
","
","
","""event"",""trial"",""time""
""fullscreenenter"",""5"",""16028""
","
","","images/earth.jpg","","","","","","","","","","","","","","fixation","","","","","",""
"d3-instructions","121","423774","0.0-62.0","978","4986","22","Male","false","false","false","true","""event"",""trial"",""time""
""fullscreenenter"",""5"",""16028""
","
","
","""event"",""trial"",""time""
""fullscreenenter"",""5"",""16028""
","
","","","","","","","","","","","","","","","","","","","","","",""
"audio-keyboard-response","122","426632","0.0-63.0","978","4986","22","Male","false","false","false","true","""event"",""trial"",""time""
""fullscreenenter"",""5"",""16028""
","
","
","""event"",""trial"",""time""
""fullscreenenter"",""5"",""16028""
","
","2848","audio/instructions/treasure_feedback.wav","32","","","","","","","","","","","","","","","","","","",""
"d3-instructions","123","435102","0.0-64.0","978","4986","22","Male","false","false","false","true","""event"",""trial"",""time""
""fullscreenenter"",""5"",""16028""
","
","
","""event"",""trial"",""time""
""fullscreenenter"",""5"",""16028""
","
","","","","","","","","","","","","","","","","","","","","","",""
"d3-instructions","124","445573","0.0-65.0","978","4986","22","Male","false","false","false","true","""event"",""trial"",""time""
""fullscreenenter"",""5"",""16028""
","
","
","""event"",""trial"",""time""
""fullscreenenter"",""5"",""16028""
","
","","","","","","","","","","","","","","","","","","","","","",""
"d3-instructions","125","465194","0.0-66.0","978","4986","22","Male","false","false","false","true","""event"",""trial"",""time""
""fullscreenenter"",""5"",""16028""
","
","
","""event"",""trial"",""time""
""fullscreenenter"",""5"",""16028""
","
","","","","","","","","","","","","","","","","","","","","","",""
"d3-instructions","126","480417","0.0-67.0","978","4986","22","Male","false","false","false","true","""event"",""trial"",""time""
""fullscreenenter"",""5"",""16028""
","
","
","""event"",""trial"",""time""
""fullscreenenter"",""5"",""16028""
","
","","","","","","","","","","","","","","","","","","","","","",""
"d3-instructions","127","484030","0.0-68.0","978","4986","22","Male","false","false","false","true","""event"",""trial"",""time""
""fullscreenenter"",""5"",""16028""
","
","
","""event"",""trial"",""time""
""fullscreenenter"",""5"",""16028""
","
","","","","","","","","","","","","","","","","","","","","","",""
"instructions-quiz","128","487643","0.0-69.0","978","4986","22","Male","false","false","false","true","""event"",""trial"",""time""
""fullscreenenter"",""5"",""16028""
","
","
","""event"",""trial"",""time""
""fullscreenenter"",""5"",""16028""
","
","3610","audio/quiz/Q1_Prompt.wav","","1","","","","","","","","","","","","","","","","","",""
"audio-keyboard-response","129","489082","0.0-70.0","978","4986","22","Male","false","false","false","true","""event"",""trial"",""time""
""fullscreenenter"",""5"",""16028""
","
","
","""event"",""trial"",""time""
""fullscreenenter"",""5"",""16028""
","
","1429","audio/quiz/Q1_Correct.wav","32","","","","","","","","","","","","","","","","","","",""
"instructions-quiz","130","493830","0.0-71.0","978","4986","22","Male","false","false","false","true","""event"",""trial"",""time""
""fullscreenenter"",""5"",""16028""
","
","
","""event"",""trial"",""time""
""fullscreenenter"",""5"",""16028""
","
","4745.4000000059605","audio/quiz/Q2_Prompt.wav","","0","","","","","","","","","","","","","","","","","",""
"audio-keyboard-response","131","495289","0.0-72.0","978","4986","22","Male","false","false","false","true","""event"",""trial"",""time""
""fullscreenenter"",""5"",""16028""
","
","
","""event"",""trial"",""time""
""fullscreenenter"",""5"",""16028""
","
","1461","audio/quiz/Q2_Correct.wav","32","","","","","","","","","","","","","","","","","","",""
"instructions-quiz","132","502121","0.0-73.0","978","4986","22","Male","false","false","false","true","""event"",""trial"",""time""
""fullscreenenter"",""5"",""16028""
","
","
","""event"",""trial"",""time""
""fullscreenenter"",""5"",""16028""
","
","6830.399999976158","audio/quiz/Q3_Prompt.wav","","1","","","","","","","","","","","","","","","","","",""
"audio-keyboard-response","133","503198","0.0-74.0","978","4986","22","Male","false","false","false","true","""event"",""trial"",""time""
""fullscreenenter"",""5"",""16028""
","
","
","""event"",""trial"",""time""
""fullscreenenter"",""5"",""16028""
","
","1069","audio/quiz/Q3_Correct.wav","32","","","","","","","","","","","","","","","","","","",""
"d3-instructions","134","506030","0.0-75.0","978","4986","22","Male","false","false","false","true","""event"",""trial"",""time""
""fullscreenenter"",""5"",""16028""
","
","
","""event"",""trial"",""time""
""fullscreenenter"",""5"",""16028""
","
","","","","","","","","","","","","","","","","","","","","","",""
"d3-animate-choice","135","509692","0.0-76.0-0.0","978","4986","22","Male","false","false","false","true","""event"",""trial"",""time""
""fullscreenenter"",""5"",""16028""
","
","
","""event"",""trial"",""time""
""fullscreenenter"",""5"",""16028""
","
","1639.7000000178814","","49","","","3000","1","","","images/earth.jpg","images/rocket1","images/rocket2","null","images/rocket2","","1","real","null","1","","",""
"d3-animate-choice","136","512632","0.0-76.0-1.0","978","4986","22","Male","false","false","false","true","""event"",""trial"",""time""
""fullscreenenter"",""5"",""16028""
","
","
","""event"",""trial"",""time""
""fullscreenenter"",""5"",""16028""
","
","926.8000000119209","","49","","","3000","1","","","images/redplanet1.jpg","images/alien2","images/alien1","images/rocket2","images/alien1","images/t.png","2","real","true","1","common","1","2022-12-13 04:10:53.001"
"two-step-fixation","137","513639","0.0-76.0-2.0","978","4986","22","Male","false","false","false","true","""event"",""trial"",""time""
""fullscreenenter"",""5"",""16028""
","
","
","""event"",""trial"",""time""
""fullscreenenter"",""5"",""16028""
","
","","images/earth.jpg","","","","","","","","","","","","","","fixation","","","","","",""
"d3-animate-choice","138","515966","0.0-76.0-0.1","978","4986","22","Male","false","false","false","true","""event"",""trial"",""time""
""fullscreenenter"",""5"",""16028""
","
","
","""event"",""trial"",""time""
""fullscreenenter"",""5"",""16028""
","
","323.2999999821186","","49","","","3000","1","","","images/earth.jpg","images/rocket1","images/rocket2","null","images/rocket2","","1","real","null","1","","",""
"d3-animate-choice","139","519352","0.0-76.0-1.1","978","4986","22","Male","false","false","false","true","""event"",""trial"",""time""
""fullscreenenter"",""5"",""16028""
","
","
","""event"",""trial"",""time""
""fullscreenenter"",""5"",""16028""
","
","1365.4000000059605","","49","","","3000","1","","","images/purpleplanet.jpg","images/alien4","images/alien3","images/rocket2","images/alien3","images/t.png","2","real","false","1","rare","1","2022-12-13 04:10:59.721"
"two-step-fixation","140","520372","0.0-76.0-2.1","978","4986","22","Male","false","false","false","true","""event"",""trial"",""time""
""fullscreenenter"",""5"",""16028""
","
","
","""event"",""trial"",""time""
""fullscreenenter"",""5"",""16028""
","
","","images/earth.jpg","","","","","","","","","","","","","","fixation","","","","","",""
"d3-animate-choice","141","522734","0.0-76.0-0.2","978","4986","22","Male","false","false","false","true","""event"",""trial"",""time""
""fullscreenenter"",""5"",""16028""
","
","
","""event"",""trial"",""time""
""fullscreenenter"",""5"",""16028""
","
","358.5","","49","","","3000","1","","","images/earth.jpg","images/rocket1","images/rocket2","null","images/rocket2","","1","real","null","1","","",""
"d3-animate-choice","142","525430","0.0-76.0-1.2","978","4986","22","Male","false","false","false","true","""event"",""trial"",""time""
""fullscreenenter"",""5"",""16028""
","
","
","""event"",""trial"",""time""
""fullscreenenter"",""5"",""16028""
","
","689.3999999761581","","49","","","3000","1","","","images/redplanet1.jpg","images/alien2","images/alien1","images/rocket2","images/alien1","images/nothing.png","2","real","true","1","common","0","2022-12-13 04:11:05.799"
"two-step-fixation","143","526438","0.0-76.0-2.2","978","4986","22","Male","false","false","false","true","""event"",""trial"",""time""
""fullscreenenter"",""5"",""16028""
","
","
","""event"",""trial"",""time""
""fullscreenenter"",""5"",""16028""
","
","","images/earth.jpg","","","","","","","","","","","","","","fixation","","","","","",""
"d3-animate-choice","144","528735","0.0-76.0-0.3","978","4986","22","Male","false","false","false","true","""event"",""trial"",""time""
""fullscreenenter"",""5"",""16028""
","
","
","""event"",""trial"",""time""
""fullscreenenter"",""5"",""16028""
","
","288.59999999403954","","49","","","3000","1","","","images/earth.jpg","images/rocket1","images/rocket2","null","images/rocket2","","1","real","null","1","","",""
"d3-animate-choice","145","531652","0.0-76.0-1.3","978","4986","22","Male","false","false","false","true","""event"",""trial"",""time""
""fullscreenenter"",""5"",""16028""
","
","
","""event"",""trial"",""time""
""fullscreenenter"",""5"",""16028""
","
","896.3000000119209","","49","","","3000","1","","","images/redplanet1.jpg","images/alien2","images/alien1","images/rocket2","images/alien1","images/t.png","2","real","true","1","common","1","2022-12-13 04:11:12.021"
"two-step-fixation","146","532682","0.0-76.0-2.3","978","4986","22","Male","false","false","false","true","""event"",""trial"",""time""
""fullscreenenter"",""5"",""16028""
","
","
","""event"",""trial"",""time""
""fullscreenenter"",""5"",""16028""
","
","","images/earth.jpg","","","","","","","","","","","","","","fixation","","","","","",""
"d3-animate-choice","147","534935","0.0-76.0-0.4","978","4986","22","Male","false","false","false","true","""event"",""trial"",""time""
""fullscreenenter"",""5"",""16028""
","
","
","""event"",""trial"",""time""
""fullscreenenter"",""5"",""16028""
","
","246.7000000178814","","49","","","3000","1","","","images/earth.jpg","images/rocket1","images/rocket2","null","images/rocket2","","1","real","null","1","","",""
"d3-animate-choice","148","537470","0.0-76.0-1.4","978","4986","22","Male","false","false","false","true","""event"",""trial"",""time""
""fullscreenenter"",""5"",""16028""
","
","
","""event"",""trial"",""time""
""fullscreenenter"",""5"",""16028""
","
","527.0999999940395","","49","","","3000","1","","","images/redplanet1.jpg","images/alien2","images/alien1","images/rocket2","images/alien1","images/nothing.png","2","real","true","1","common","0","2022-12-13 04:11:17.840"
"two-step-fixation","149","538478","0.0-76.0-2.4","978","4986","22","Male","false","false","false","true","""event"",""trial"",""time""
""fullscreenenter"",""5"",""16028""
","
","
","""event"",""trial"",""time""
""fullscreenenter"",""5"",""16028""
","
","","images/earth.jpg","","","","","","","","","","","","","","fixation","","","","","",""
"d3-animate-choice","150","540830","0.0-76.0-0.5","978","4986","22","Male","false","false","false","true","""event"",""trial"",""time""
""fullscreenenter"",""5"",""16028""
","
","
","""event"",""trial"",""time""
""fullscreenenter"",""5"",""16028""
","
","342.5","","49","","","3000","1","","","images/earth.jpg","images/rocket1","images/rocket2","null","images/rocket2","","1","real","null","1","","",""
"d3-animate-choice","151","543799","0.0-76.0-1.5","978","4986","22","Male","false","false","false","true","""event"",""trial"",""time""
""fullscreenenter"",""5"",""16028""
","
","
","""event"",""trial"",""time""
""fullscreenenter"",""5"",""16028""
","
","958.6999999880791","","49","","","3000","1","","","images/purpleplanet.jpg","images/alien4","images/alien3","images/rocket2","images/alien3","images/nothing.png","2","real","false","1","rare","0","2022-12-13 04:11:24.168"
"two-step-fixation","152","544805","0.0-76.0-2.5","978","4986","22","Male","false","false","false","true","""event"",""trial"",""time""
""fullscreenenter"",""5"",""16028""
","
","
","""event"",""trial"",""time""
""fullscreenenter"",""5"",""16028""
","
","","images/earth.jpg","","","","","","","","","","","","","","fixation","","","","","",""
"d3-animate-choice","153","547122","0.0-76.0-0.6","978","4986","22","Male","false","false","false","true","""event"",""trial"",""time""
""fullscreenenter"",""5"",""16028""
","
","
","""event"",""trial"",""time""
""fullscreenenter"",""5"",""16028""
","
","312.69999998807907","","49","","","3000","1","","","images/earth.jpg","images/rocket1","images/rocket2","null","images/rocket2","","1","real","null","1","","",""
"d3-animate-choice","154","551038","0.0-76.0-1.6","978","4986","22","Male","false","false","false","true","""event"",""trial"",""time""
""fullscreenenter"",""5"",""16028""
","
","
","""event"",""trial"",""time""
""fullscreenenter"",""5"",""16028""
","
","884.9000000059605","","50","","","3000","1","1906.5","48","images/redplanet1.jpg","images/alien2","images/alien1","images/rocket2","images/alien2","images/nothing.png","2","real","true","","common","0","2022-12-13 04:11:31.407"
"two-step-fixation","155","552047","0.0-76.0-2.6","978","4986","22","Male","false","false","false","true","""event"",""trial"",""time""
""fullscreenenter"",""5"",""16028""
","
","
","""event"",""trial"",""time""
""fullscreenenter"",""5"",""16028""
","
","","images/earth.jpg","","","","","","","","","","","","","","fixation","","","","","",""
"d3-animate-choice","156","554487","0.0-76.0-0.7","978","4986","22","Male","false","false","false","true","""event"",""trial"",""time""
""fullscreenenter"",""5"",""16028""
","
","
","""event"",""trial"",""time""
""fullscreenenter"",""5"",""16028""
","
","434.69999998807907","","49","","","3000","1","","","images/earth.jpg","images/rocket1","images/rocket2","null","images/rocket2","","1","real","null","1","","",""
"d3-animate-choice","157","558031","0.0-76.0-1.7","978","4986","22","Male","false","false","false","true","""event"",""trial"",""time""
""fullscreenenter"",""5"",""16028""
","
","
","""event"",""trial"",""time""
""fullscreenenter"",""5"",""16028""
","
","1534.0999999940395","","48","","","3000","1","","","images/purpleplanet.jpg","images/alien4","images/alien3","images/rocket2","images/alien4","images/nothing.png","2","real","false","2","rare","0","2022-12-13 04:11:38.400"
"two-step-fixation","158","559038","0.0-76.0-2.7","978","4986","22","Male","false","false","false","true","""event"",""trial"",""time""
""fullscreenenter"",""5"",""16028""
","
","
","""event"",""trial"",""time""
""fullscreenenter"",""5"",""16028""
","
","","images/earth.jpg","","","","","","","","","","","","","","fixation","","","","","",""
"d3-animate-choice","159","562236","0.0-76.0-0.8","978","4986","22","Male","false","false","false","true","""event"",""trial"",""time""
""fullscreenenter"",""5"",""16028""
","
","
","""event"",""trial"",""time""
""fullscreenenter"",""5"",""16028""
","
","1191.7999999821186","","48","","","3000","1","","","images/earth.jpg","images/rocket1","images/rocket2","null","images/rocket1","","1","real","null","2","","",""
"d3-animate-choice","160","565279","0.0-76.0-1.8","978","4986","22","Male","false","false","false","true","""event"",""trial"",""time""
""fullscreenenter"",""5"",""16028""
","
","
","""event"",""trial"",""time""
""fullscreenenter"",""5"",""16028""
","
","1032.7000000178814","","49","","","3000","1","","","images/purpleplanet.jpg","images/alien4","images/alien3","images/rocket1","images/alien3","images/t.png","2","real","true","1","common","1","2022-12-13 04:11:45.648"
"two-step-fixation","161","566286","0.0-76.0-2.8","978","4986","22","Male","false","false","false","true","""event"",""trial"",""time""
""fullscreenenter"",""5"",""16028""
","
","
","""event"",""trial"",""time""
""fullscreenenter"",""5"",""16028""
","
","","images/earth.jpg","","","","","","","","","","","","","","fixation","","","","","",""
"d3-animate-choice","162","569419","0.0-76.0-0.9","978","4986","22","Male","false","false","false","true","""event"",""trial"",""time""
""fullscreenenter"",""5"",""16028""
","
","
","""event"",""trial"",""time""
""fullscreenenter"",""5"",""16028""
","
","1126.5","","48","","","3000","1","","","images/earth.jpg","images/rocket1","images/rocket2","null","images/rocket1","","1","real","null","2","","",""
"d3-animate-choice","163","572438","0.0-76.0-1.9","978","4986","22","Male","false","false","false","true","""event"",""trial"",""time""
""fullscreenenter"",""5"",""16028""
","
","
","""event"",""trial"",""time""
""fullscreenenter"",""5"",""16028""
","
","1014","","48","","","3000","1","","","images/purpleplanet.jpg","images/alien4","images/alien3","images/rocket1","images/alien4","images/t.png","2","real","true","2","common","1","2022-12-13 04:11:52.807"
"two-step-fixation","164","573447","0.0-76.0-2.9","978","4986","22","Male","false","false","false","true","""event"",""trial"",""time""
""fullscreenenter"",""5"",""16028""
","
","
","""event"",""trial"",""time""
""fullscreenenter"",""5"",""16028""
","
","","images/earth.jpg","","","","","","","","","","","","","","fixation","","","","","",""
"d3-animate-choice","165","576286","0.0-76.0-0.10","978","4986","22","Male","false","false","false","true","""event"",""trial"",""time""
""fullscreenenter"",""5"",""16028""
","
","
","""event"",""trial"",""time""
""fullscreenenter"",""5"",""16028""
","
","828.8000000119209","","48","","","3000","1","","","images/earth.jpg","images/rocket1","images/rocket2","null","images/rocket1","","1","real","null","2","","",""
"d3-animate-choice","166","578784","0.0-76.0-1.10","978","4986","22","Male","false","false","false","true","""event"",""trial"",""time""
""fullscreenenter"",""5"",""16028""
","
","
","""event"",""trial"",""time""
""fullscreenenter"",""5"",""16028""
","
","493.69999998807907","","49","","","3000","1","","","images/purpleplanet.jpg","images/alien4","images/alien3","images/rocket1","images/alien3","images/nothing.png","2","real","true","1","common","0","2022-12-13 04:11:59.153"
"two-step-fixation","167","579791","0.0-76.0-2.10","978","4986","22","Male","false","false","false","true","""event"",""trial"",""time""
""fullscreenenter"",""5"",""16028""
","
","
","""event"",""trial"",""time""
""fullscreenenter"",""5"",""16028""
","
","","images/earth.jpg","","","","","","","","","","","","","","fixation","","","","","",""
"d3-animate-choice","168","581998","0.0-76.0-0.11","978","4986","22","Male","false","false","false","true","""event"",""trial"",""time""
""fullscreenenter"",""5"",""16028""
","
","
","""event"",""trial"",""time""
""fullscreenenter"",""5"",""16028""
","
","198.40000000596046","","48","","","3000","1","","","images/earth.jpg","images/rocket1","images/rocket2","null","images/rocket1","","1","real","null","2","","",""
"d3-animate-choice","169","584758","0.0-76.0-1.11","978","4986","22","Male","false","false","false","true","""event"",""trial"",""time""
""fullscreenenter"",""5"",""16028""
","
","
","""event"",""trial"",""time""
""fullscreenenter"",""5"",""16028""
","
","753.9000000059605","","48","","","3000","1","","","images/purpleplanet.jpg","images/alien4","images/alien3","images/rocket1","images/alien4","images/t.png","2","real","true","2","common","1","2022-12-13 04:12:05.127"
"two-step-fixation","170","585765","0.0-76.0-2.11","978","4986","22","Male","false","false","false","true","""event"",""trial"",""time""
""fullscreenenter"",""5"",""16028""
","
","
","""event"",""trial"",""time""
""fullscreenenter"",""5"",""16028""
","
","","images/earth.jpg","","","","","","","","","","","","","","fixation","","","","","",""
"d3-animate-choice","171","587862","0.0-76.0-0.12","978","4986","22","Male","false","false","false","true","""event"",""trial"",""time""
""fullscreenenter"",""5"",""16028""
","
","
","""event"",""trial"",""time""
""fullscreenenter"",""5"",""16028""
","
","90","","48","","","3000","1","","","images/earth.jpg","images/rocket1","images/rocket2","null","images/rocket1","","1","real","null","2","","",""
"d3-animate-choice","172","590413","0.0-76.0-1.12","978","4986","22","Male","false","false","false","true","""event"",""trial"",""time""
""fullscreenenter"",""5"",""16028""
","
","
","""event"",""trial"",""time""
""fullscreenenter"",""5"",""16028""
","
","546.2999999821186","","48","","","3000","1","","","images/purpleplanet.jpg","images/alien4","images/alien3","images/rocket1","images/alien4","images/t.png","2","real","true","2","common","1","2022-12-13 04:12:10.782"
"two-step-fixation","173","591422","0.0-76.0-2.12","978","4986","22","Male","false","false","false","true","""event"",""trial"",""time""
""fullscreenenter"",""5"",""16028""
","
","
","""event"",""trial"",""time""
""fullscreenenter"",""5"",""16028""
","
","","images/earth.jpg","","","","","","","","","","","","","","fixation","","","","","",""
"d3-animate-choice","174","593854","0.0-76.0-0.13","978","4986","22","Male","false","false","false","true","""event"",""trial"",""time""
""fullscreenenter"",""5"",""16028""
","
","
","""event"",""trial"",""time""
""fullscreenenter"",""5"",""16028""
","
","423.89999997615814","","48","","","3000","1","","","images/earth.jpg","images/rocket1","images/rocket2","null","images/rocket1","","1","real","null","2","","",""
"d3-animate-choice","175","596327","0.0-76.0-1.13","978","4986","22","Male","false","false","false","true","""event"",""trial"",""time""
""fullscreenenter"",""5"",""16028""
","
","
","""event"",""trial"",""time""
""fullscreenenter"",""5"",""16028""
","
","461.80000001192093","","48","","","3000","1","","","images/purpleplanet.jpg","images/alien4","images/alien3","images/rocket1","images/alien4","images/nothing.png","2","real","true","2","common","0","2022-12-13 04:12:16.696"
"two-step-fixation","176","597334","0.0-76.0-2.13","978","4986","22","Male","false","false","false","true","""event"",""trial"",""time""
""fullscreenenter"",""5"",""16028""
","
","
","""event"",""trial"",""time""
""fullscreenenter"",""5"",""16028""
","
","","images/earth.jpg","","","","","","","","","","","","","","fixation","","","","","",""
"d3-animate-choice","177","599445","0.0-76.0-0.14","978","4986","22","Male","false","false","false","true","""event"",""trial"",""time""
""fullscreenenter"",""5"",""16028""
","
","
","""event"",""trial"",""time""
""fullscreenenter"",""5"",""16028""
","
","100.60000002384186","","48","","","3000","1","","","images/earth.jpg","images/rocket1","images/rocket2","null","images/rocket1","","1","real","null","2","","",""
"d3-animate-choice","178","601942","0.0-76.0-1.14","978","4986","22","Male","false","false","false","true","""event"",""trial"",""time""
""fullscreenenter"",""5"",""16028""
","
","
","""event"",""trial"",""time""
""fullscreenenter"",""5"",""16028""
","
","491.30000001192093","","48","","","3000","1","","","images/purpleplanet.jpg","images/alien4","images/alien3","images/rocket1","images/alien4","images/t.png","2","real","true","2","common","1","2022-12-13 04:12:22.311"
"two-step-fixation","179","602946","0.0-76.0-2.14","978","4986","22","Male","false","false","false","true","""event"",""trial"",""time""
""fullscreenenter"",""5"",""16028""
","
","
","""event"",""trial"",""time""
""fullscreenenter"",""5"",""16028""
","
","","images/earth.jpg","","","","","","","","","","","","","","fixation","","","","","",""
"d3-animate-choice","180","605245","0.0-76.0-0.15","978","4986","22","Male","false","false","false","true","""event"",""trial"",""time""
""fullscreenenter"",""5"",""16028""
","
","
","""event"",""trial"",""time""
""fullscreenenter"",""5"",""16028""
","
","289.5","","48","","","3000","1","","","images/earth.jpg","images/rocket1","images/rocket2","null","images/rocket1","","1","real","null","2","","",""
"d3-animate-choice","181","607678","0.0-76.0-1.15","978","4986","22","Male","false","false","false","true","""event"",""trial"",""time""
""fullscreenenter"",""5"",""16028""
","
","
","""event"",""trial"",""time""
""fullscreenenter"",""5"",""16028""
","
","429.90000000596046","","48","","","3000","1","","","images/purpleplanet.jpg","images/alien4","images/alien3","images/rocket1","images/alien4","images/nothing.png","2","real","true","2","common","0","2022-12-13 04:12:28.047"
"two-step-fixation","182","608686","0.0-76.0-2.15","978","4986","22","Male","false","false","false","true","""event"",""trial"",""time""
""fullscreenenter"",""5"",""16028""
","
","
","""event"",""trial"",""time""
""fullscreenenter"",""5"",""16028""
","
","","images/earth.jpg","","","","","","","","","","","","","","fixation","","","","","",""
"d3-animate-choice","183","610765","0.0-76.0-0.16","978","4986","22","Male","false","false","false","true","""event"",""trial"",""time""
""fullscreenenter"",""5"",""16028""
","
","
","""event"",""trial"",""time""
""fullscreenenter"",""5"",""16028""
","
","75.59999999403954","","48","","","3000","1","","","images/earth.jpg","images/rocket1","images/rocket2","null","images/rocket1","","1","real","null","2","","",""
"d3-animate-choice","184","613144","0.0-76.0-1.16","978","4986","22","Male","false","false","false","true","""event"",""trial"",""time""
""fullscreenenter"",""5"",""16028""
","
","
","""event"",""trial"",""time""
""fullscreenenter"",""5"",""16028""
","
","374.40000000596046","","48","","","3000","1","","","images/purpleplanet.jpg","images/alien4","images/alien3","images/rocket1","images/alien4","images/t.png","2","real","true","2","common","1","2022-12-13 04:12:33.513"
"two-step-fixation","185","614151","0.0-76.0-2.16","978","4986","22","Male","false","false","false","true","""event"",""trial"",""time""
""fullscreenenter"",""5"",""16028""
","
","
","""event"",""trial"",""time""
""fullscreenenter"",""5"",""16028""
","
","","images/earth.jpg","","","","","","","","","","","","","","fixation","","","","","",""
"d3-animate-choice","186","616477","0.0-76.0-0.17","978","4986","22","Male","false","false","false","true","""event"",""trial"",""time""
""fullscreenenter"",""5"",""16028""
","
","
","""event"",""trial"",""time""
""fullscreenenter"",""5"",""16028""
","
","316.80000001192093","","48","","","3000","1","","","images/earth.jpg","images/rocket1","images/rocket2","null","images/rocket1","","1","real","null","2","","",""
"d3-animate-choice","187","618854","0.0-76.0-1.17","978","4986","22","Male","false","false","false","true","""event"",""trial"",""time""
""fullscreenenter"",""5"",""16028""
","
","
","""event"",""trial"",""time""
""fullscreenenter"",""5"",""16028""
","
","373.59999999403954","","48","","","3000","1","","","images/purpleplanet.jpg","images/alien4","images/alien3","images/rocket1","images/alien4","images/t.png","2","real","true","2","common","1","2022-12-13 04:12:39.223"
"two-step-fixation","188","619859","0.0-76.0-2.17","978","4986","22","Male","false","false","false","true","""event"",""trial"",""time""
""fullscreenenter"",""5"",""16028""
","
","
","""event"",""trial"",""time""
""fullscreenenter"",""5"",""16028""
","
","","images/earth.jpg","","","","","","","","","","","","","","fixation","","","","","",""
"d3-animate-choice","189","622222","0.0-76.0-0.18","978","4986","22","Male","false","false","false","true","""event"",""trial"",""time""
""fullscreenenter"",""5"",""16028""
","
","
","""event"",""trial"",""time""
""fullscreenenter"",""5"",""16028""
","
","352.59999999403954","","48","","","3000","1","","","images/earth.jpg","images/rocket1","images/rocket2","null","images/rocket1","","1","real","null","2","","",""
"d3-animate-choice","190","624494","0.0-76.0-1.18","978","4986","22","Male","false","false","false","true","""event"",""trial"",""time""
""fullscreenenter"",""5"",""16028""
","
","
","""event"",""trial"",""time""
""fullscreenenter"",""5"",""16028""
","
","261.30000001192093","","48","","","3000","1","","","images/purpleplanet.jpg","images/alien4","images/alien3","images/rocket1","images/alien4","images/t.png","2","real","true","2","common","1","2022-12-13 04:12:44.863"
"two-step-fixation","191","625501","0.0-76.0-2.18","978","4986","22","Male","false","false","false","true","""event"",""trial"",""time""
""fullscreenenter"",""5"",""16028""
","
","
","""event"",""trial"",""time""
""fullscreenenter"",""5"",""16028""
","
","","images/earth.jpg","","","","","","","","","","","","","","fixation","","","","","",""
"d3-animate-choice","192","627862","0.0-76.0-0.19","978","4986","22","Male","false","false","false","true","""event"",""trial"",""time""
""fullscreenenter"",""5"",""16028""
","
","
","""event"",""trial"",""time""
""fullscreenenter"",""5"",""16028""
","
","354.90000000596046","","48","","","3000","1","","","images/earth.jpg","images/rocket1","images/rocket2","null","images/rocket1","","1","real","null","2","","",""
"d3-animate-choice","193","630141","0.0-76.0-1.19","978","4986","22","Male","false","false","false","true","""event"",""trial"",""time""
""fullscreenenter"",""5"",""16028""
","
","
","""event"",""trial"",""time""
""fullscreenenter"",""5"",""16028""
","
","271.2000000178814","","48","","","3000","1","","","images/purpleplanet.jpg","images/alien4","images/alien3","images/rocket1","images/alien4","images/t.png","2","real","true","2","common","1","2022-12-13 04:12:50.510"
"two-step-fixation","194","631149","0.0-76.0-2.19","978","4986","22","Male","false","false","false","true","""event"",""trial"",""time""
""fullscreenenter"",""5"",""16028""
","
","
","""event"",""trial"",""time""
""fullscreenenter"",""5"",""16028""
","
","","images/earth.jpg","","","","","","","","","","","","","","fixation","","","","","",""
"d3-animate-choice","195","633366","0.0-76.0-0.20","978","4986","22","Male","false","false","false","true","""event"",""trial"",""time""
""fullscreenenter"",""5"",""16028""
","
","
","""event"",""trial"",""time""
""fullscreenenter"",""5"",""16028""
","
","209.19999998807907","","48","","","3000","1","","","images/earth.jpg","images/rocket1","images/rocket2","null","images/rocket1","","1","real","null","2","","",""
"d3-animate-choice","196","637118","0.0-76.0-1.20","978","4986","22","Male","false","false","false","true","""event"",""trial"",""time""
""fullscreenenter"",""5"",""16028""
","
","
","""event"",""trial"",""time""
""fullscreenenter"",""5"",""16028""
","
","1742.0999999940395","","48","","","3000","1","","","images/redplanet1.jpg","images/alien2","images/alien1","images/rocket1","images/alien2","images/nothing.png","2","real","false","2","rare","0","2022-12-13 04:12:57.487"
"two-step-fixation","197","638124","0.0-76.0-2.20","978","4986","22","Male","false","false","false","true","""event"",""trial"",""time""
""fullscreenenter"",""5"",""16028""
","
","
","""event"",""trial"",""time""
""fullscreenenter"",""5"",""16028""
","
","","images/earth.jpg","","","","","","","","","","","","","","fixation","","","","","",""
"d3-animate-choice","198","640271","0.0-76.0-0.21","978","4986","22","Male","false","false","false","true","""event"",""trial"",""time""
""fullscreenenter"",""5"",""16028""
","
","
","""event"",""trial"",""time""
""fullscreenenter"",""5"",""16028""
","
","137.5","","48","","","3000","1","","","images/earth.jpg","images/rocket1","images/rocket2","null","images/rocket1","","1","real","null","2","","",""
"d3-animate-choice","199","643325","0.0-76.0-1.21","978","4986","22","Male","false","false","false","true","""event"",""trial"",""time""
""fullscreenenter"",""5"",""16028""
","
","
","""event"",""trial"",""time""
""fullscreenenter"",""5"",""16028""
","
","1050.199999988079","","49","","","3000","1","","","images/redplanet1.jpg","images/alien2","images/alien1","images/rocket1","images/alien1","images/t.png","2","real","false","1","rare","1","2022-12-13 04:13:03.694"
"two-step-fixation","200","644334","0.0-76.0-2.21","978","4986","22","Male","false","false","false","true","""event"",""trial"",""time""
""fullscreenenter"",""5"",""16028""
","
","
","""event"",""trial"",""time""
""fullscreenenter"",""5"",""16028""
","
","","images/earth.jpg","","","","","","","","","","","","","","fixation","","","","","",""
"d3-animate-choice","201","646702","0.0-76.0-0.22","978","4986","22","Male","false","false","false","true","""event"",""trial"",""time""
""fullscreenenter"",""5"",""16028""
","
","
","""event"",""trial"",""time""
""fullscreenenter"",""5"",""16028""
","
","360.5","","48","","","3000","1","","","images/earth.jpg","images/rocket1","images/rocket2","null","images/rocket1","","1","real","null","2","","",""
"d3-animate-choice","202","649166","0.0-76.0-1.22","978","4986","22","Male","false","false","false","true","""event"",""trial"",""time""
""fullscreenenter"",""5"",""16028""
","
","
","""event"",""trial"",""time""
""fullscreenenter"",""5"",""16028""
","
","455.59999999403954","","49","","","3000","1","","","images/redplanet1.jpg","images/alien2","images/alien1","images/rocket1","images/alien1","images/nothing.png","2","real","false","1","rare","0","2022-12-13 04:13:09.535"
"two-step-fixation","203","650172","0.0-76.0-2.22","978","4986","22","Male","false","false","false","true","""event"",""trial"",""time""
""fullscreenenter"",""5"",""16028""
","
","
","""event"",""trial"",""time""
""fullscreenenter"",""5"",""16028""
","
","","images/earth.jpg","","","","","","","","","","","","","","fixation","","","","","",""
"d3-animate-choice","204","652495","0.0-76.0-0.23","978","4986","22","Male","false","false","false","true","""event"",""trial"",""time""
""fullscreenenter"",""5"",""16028""
","
","
","""event"",""trial"",""time""
""fullscreenenter"",""5"",""16028""
","
","314.09999999403954","","49","","","3000","1","","","images/earth.jpg","images/rocket1","images/rocket2","null","images/rocket2","","1","real","null","1","","",""
"d3-animate-choice","205","655319","0.0-76.0-1.23","978","4986","22","Male","false","false","false","true","""event"",""trial"",""time""
""fullscreenenter"",""5"",""16028""
","
","
","""event"",""trial"",""time""
""fullscreenenter"",""5"",""16028""
","
","816.1999999880791","","49","","","3000","1","","","images/redplanet1.jpg","images/alien2","images/alien1","images/rocket2","images/alien1","images/nothing.png","2","real","true","1","common","0","2022-12-13 04:13:15.688"
"two-step-fixation","206","656327","0.0-76.0-2.23","978","4986","22","Male","false","false","false","true","""event"",""trial"",""time""
""fullscreenenter"",""5"",""16028""
","
","
","""event"",""trial"",""time""
""fullscreenenter"",""5"",""16028""
","
","","images/earth.jpg","","","","","","","","","","","","","","fixation","","","","","",""
"d3-animate-choice","207","658695","0.0-76.0-0.24","978","4986","22","Male","false","false","false","true","""event"",""trial"",""time""
""fullscreenenter"",""5"",""16028""
","
","
","""event"",""trial"",""time""
""fullscreenenter"",""5"",""16028""
","
","361.59999999403954","","49","","","3000","1","","","images/earth.jpg","images/rocket1","images/rocket2","null","images/rocket2","","1","real","null","1","","",""
"d3-animate-choice","208","661094","0.0-76.0-1.24","978","4986","22","Male","false","false","false","true","""event"",""trial"",""time""
""fullscreenenter"",""5"",""16028""
","
","
","""event"",""trial"",""time""
""fullscreenenter"",""5"",""16028""
","
","391.80000001192093","","48","","","3000","1","","","images/redplanet1.jpg","images/alien2","images/alien1","images/rocket2","images/alien2","images/nothing.png","2","real","true","2","common","0","2022-12-13 04:13:21.463"
"two-step-fixation","209","662103","0.0-76.0-2.24","978","4986","22","Male","false","false","false","true","""event"",""trial"",""time""
""fullscreenenter"",""5"",""16028""
","
","
","""event"",""trial"",""time""
""fullscreenenter"",""5"",""16028""
","
","","images/earth.jpg","","","","","","","","","","","","","","fixation","","","","","",""
"d3-animate-choice","210","664382","0.0-76.0-0.25","978","4986","22","Male","false","false","false","true","""event"",""trial"",""time""
""fullscreenenter"",""5"",""16028""
","
","
","""event"",""trial"",""time""
""fullscreenenter"",""5"",""16028""
","
","267.7000000178814","","48","","","3000","1","","","images/earth.jpg","images/rocket1","images/rocket2","null","images/rocket1","","1","real","null","2","","",""
"d3-animate-choice","211","667311","0.0-76.0-1.25","978","4986","22","Male","false","false","false","true","""event"",""trial"",""time""
""fullscreenenter"",""5"",""16028""
","
","
","""event"",""trial"",""time""
""fullscreenenter"",""5"",""16028""
","
","917.8000000119209","","48","","","3000","1","","","images/redplanet1.jpg","images/alien2","images/alien1","images/rocket1","images/alien2","images/t.png","2","real","false","2","rare","1","2022-12-13 04:13:27.680"
"two-step-fixation","212","668319","0.0-76.0-2.25","978","4986","22","Male","false","false","false","true","""event"",""trial"",""time""
""fullscreenenter"",""5"",""16028""
","
","
","""event"",""trial"",""time""
""fullscreenenter"",""5"",""16028""
","
","","images/earth.jpg","","","","","","","","","","","","","","fixation","","","","","",""
"d3-animate-choice","213","670535","0.0-76.0-0.26","978","4986","22","Male","false","false","false","true","""event"",""trial"",""time""
""fullscreenenter"",""5"",""16028""
","
","
","""event"",""trial"",""time""
""fullscreenenter"",""5"",""16028""
","
","208.7000000178814","","48","","","3000","1","","","images/earth.jpg","images/rocket1","images/rocket2","null","images/rocket1","","1","real","null","2","","",""
"d3-animate-choice","214","673151","0.0-76.0-1.26","978","4986","22","Male","false","false","false","true","""event"",""trial"",""time""
""fullscreenenter"",""5"",""16028""
","
","
","""event"",""trial"",""time""
""fullscreenenter"",""5"",""16028""
","
","610.1999999880791","","48","","","3000","1","","","images/purpleplanet.jpg","images/alien4","images/alien3","images/rocket1","images/alien4","images/t.png","2","real","true","2","common","1","2022-12-13 04:13:33.520"
"two-step-fixation","215","674158","0.0-76.0-2.26","978","4986","22","Male","false","false","false","true","""event"",""trial"",""time""
""fullscreenenter"",""5"",""16028""
","
","
","""event"",""trial"",""time""
""fullscreenenter"",""5"",""16028""
","
","","images/earth.jpg","","","","","","","","","","","","","","fixation","","","","","",""
"d3-animate-choice","216","676417","0.0-76.0-0.27","978","4986","22","Male","false","false","false","true","""event"",""trial"",""time""
""fullscreenenter"",""5"",""16028""
","
","
","""event"",""trial"",""time""
""fullscreenenter"",""5"",""16028""
","
","256.59999999403954","","48","","","3000","1","","","images/earth.jpg","images/rocket1","images/rocket2","null","images/rocket1","","1","real","null","2","","",""
"d3-animate-choice","217","679206","0.0-76.0-1.27","978","4986","22","Male","false","false","false","true","""event"",""trial"",""time""
""fullscreenenter"",""5"",""16028""
","
","
","""event"",""trial"",""time""
""fullscreenenter"",""5"",""16028""
","
","785.6999999880791","","48","","","3000","1","","","images/redplanet1.jpg","images/alien2","images/alien1","images/rocket1","images/alien2","images/nothing.png","2","real","false","2","rare","0","2022-12-13 04:13:39.575"
"two-step-fixation","218","680215","0.0-76.0-2.27","978","4986","22","Male","false","false","false","true","""event"",""trial"",""time""
""fullscreenenter"",""5"",""16028""
","
","
","""event"",""trial"",""time""
""fullscreenenter"",""5"",""16028""
","
","","images/earth.jpg","","","","","","","","","","","","","","fixation","","","","","",""
"d3-animate-choice","219","682406","0.0-76.0-0.28","978","4986","22","Male","false","false","false","true","""event"",""trial"",""time""
""fullscreenenter"",""5"",""16028""
","
","
","""event"",""trial"",""time""
""fullscreenenter"",""5"",""16028""
","
","182.40000000596046","","48","","","3000","1","","","images/earth.jpg","images/rocket1","images/rocket2","null","images/rocket1","","1","real","null","2","","",""
"d3-animate-choice","220","684882","0.0-76.0-1.28","978","4986","22","Male","false","false","false","true","""event"",""trial"",""time""
""fullscreenenter"",""5"",""16028""
","
","
","""event"",""trial"",""time""
""fullscreenenter"",""5"",""16028""
","
","468.80000001192093","","48","","","3000","1","","","images/purpleplanet.jpg","images/alien4","images/alien3","images/rocket1","images/alien4","images/t.png","2","real","true","2","common","1","2022-12-13 04:13:45.252"
"two-step-fixation","221","685894","0.0-76.0-2.28","978","4986","22","Male","false","false","false","true","""event"",""trial"",""time""
""fullscreenenter"",""5"",""16028""
","
","
","""event"",""trial"",""time""
""fullscreenenter"",""5"",""16028""
","
","","images/earth.jpg","","","","","","","","","","","","","","fixation","","","","","",""
"d3-animate-choice","222","688166","0.0-76.0-0.29","978","4986","22","Male","false","false","false","true","""event"",""trial"",""time""
""fullscreenenter"",""5"",""16028""
","
","
","""event"",""trial"",""time""
""fullscreenenter"",""5"",""16028""
","
","268.09999999403954","","48","","","3000","1","","","images/earth.jpg","images/rocket1","images/rocket2","null","images/rocket1","","1","real","null","2","","",""
"d3-animate-choice","223","690748","0.0-76.0-1.29","978","4986","22","Male","false","false","false","true","""event"",""trial"",""time""
""fullscreenenter"",""5"",""16028""
","
","
","""event"",""trial"",""time""
""fullscreenenter"",""5"",""16028""
","
","576","","48","","","3000","1","","","images/purpleplanet.jpg","images/alien4","images/alien3","images/rocket1","images/alien4","images/t.png","2","real","true","2","common","1","2022-12-13 04:13:51.117"
"two-step-fixation","224","691759","0.0-76.0-2.29","978","4986","22","Male","false","false","false","true","""event"",""trial"",""time""
""fullscreenenter"",""5"",""16028""
","
","
","""event"",""trial"",""time""
""fullscreenenter"",""5"",""16028""
","
","","images/earth.jpg","","","","","","","","","","","","","","fixation","","","","","",""
"d3-animate-choice","225","694007","0.0-76.0-0.30","978","4986","22","Male","false","false","false","true","""event"",""trial"",""time""
""fullscreenenter"",""5"",""16028""
","
","
","""event"",""trial"",""time""
""fullscreenenter"",""5"",""16028""
","
","242.40000000596046","","48","","","3000","1","","","images/earth.jpg","images/rocket1","images/rocket2","null","images/rocket1","","1","real","null","2","","",""
"d3-animate-choice","226","697046","0.0-76.0-1.30","978","4986","22","Male","false","false","false","true","""event"",""trial"",""time""
""fullscreenenter"",""5"",""16028""
","
","
","""event"",""trial"",""time""
""fullscreenenter"",""5"",""16028""
","
","1028.300000011921","","48","","","3000","1","","","images/redplanet1.jpg","images/alien2","images/alien1","images/rocket1","images/alien2","images/t.png","2","real","false","2","rare","1","2022-12-13 04:13:57.416"
"two-step-fixation","227","698054","0.0-76.0-2.30","978","4986","22","Male","false","false","false","true","""event"",""trial"",""time""
""fullscreenenter"",""5"",""16028""
","
","
","""event"",""trial"",""time""
""fullscreenenter"",""5"",""16028""
","
","","images/earth.jpg","","","","","","","","","","","","","","fixation","","","","","",""
"d3-animate-choice","228","700174","0.0-76.0-0.31","978","4986","22","Male","false","false","false","true","""event"",""trial"",""time""
""fullscreenenter"",""5"",""16028""
","
","
","""event"",""trial"",""time""
""fullscreenenter"",""5"",""16028""
","
","109","","48","","","3000","1","","","images/earth.jpg","images/rocket1","images/rocket2","null","images/rocket1","","1","real","null","2","","",""
"d3-animate-choice","229","702702","0.0-76.0-1.31","978","4986","22","Male","false","false","false","true","""event"",""trial"",""time""
""fullscreenenter"",""5"",""16028""
","
","
","""event"",""trial"",""time""
""fullscreenenter"",""5"",""16028""
","
","521.9000000059605","","48","","","3000","1","","","images/purpleplanet.jpg","images/alien4","images/alien3","images/rocket1","images/alien4","images/t.png","2","real","true","2","common","1","2022-12-13 04:14:03.071"
"two-step-fixation","230","703711","0.0-76.0-2.31","978","4986","22","Male","false","false","false","true","""event"",""trial"",""time""
""fullscreenenter"",""5"",""16028""
","
","
","""event"",""trial"",""time""
""fullscreenenter"",""5"",""16028""
","
","","images/earth.jpg","","","","","","","","","","","","","","fixation","","","","","",""
"d3-animate-choice","231","705845","0.0-76.0-0.32","978","4986","22","Male","false","false","false","true","""event"",""trial"",""time""
""fullscreenenter"",""5"",""16028""
","
","
","""event"",""trial"",""time""
""fullscreenenter"",""5"",""16028""
","
","129.30000001192093","","48","","","3000","1","","","images/earth.jpg","images/rocket1","images/rocket2","null","images/rocket1","","1","real","null","2","","",""
"d3-animate-choice","232","708286","0.0-76.0-1.32","978","4986","22","Male","false","false","false","true","""event"",""trial"",""time""
""fullscreenenter"",""5"",""16028""
","
","
","""event"",""trial"",""time""
""fullscreenenter"",""5"",""16028""
","
","437.90000000596046","","48","","","3000","1","","","images/purpleplanet.jpg","images/alien4","images/alien3","images/rocket1","images/alien4","images/t.png","2","real","true","2","common","1","2022-12-13 04:14:08.655"
"two-step-fixation","233","709294","0.0-76.0-2.32","978","4986","22","Male","false","false","false","true","""event"",""trial"",""time""
""fullscreenenter"",""5"",""16028""
","
","
","""event"",""trial"",""time""
""fullscreenenter"",""5"",""16028""
","
","","images/earth.jpg","","","","","","","","","","","","","","fixation","","","","","",""
"d3-animate-choice","234","711360","0.0-76.0-0.33","978","4986","22","Male","false","false","false","true","""event"",""trial"",""time""
""fullscreenenter"",""5"",""16028""
","
","
","""event"",""trial"",""time""
""fullscreenenter"",""5"",""16028""
","
","53.80000001192093","","48","","","3000","1","","","images/earth.jpg","images/rocket1","images/rocket2","null","images/rocket1","","1","real","null","2","","",""
"d3-animate-choice","235","713811","0.0-76.0-1.33","978","4986","22","Male","false","false","false","true","""event"",""trial"",""time""
""fullscreenenter"",""5"",""16028""
","
","
","""event"",""trial"",""time""
""fullscreenenter"",""5"",""16028""
","
","446.2000000178814","","48","","","3000","1","","","images/purpleplanet.jpg","images/alien4","images/alien3","images/rocket1","images/alien4","images/nothing.png","2","real","true","2","common","0","2022-12-13 04:14:14.180"
"two-step-fixation","236","714822","0.0-76.0-2.33","978","4986","22","Male","false","false","false","true","""event"",""trial"",""time""
""fullscreenenter"",""5"",""16028""
","
","
","""event"",""trial"",""time""
""fullscreenenter"",""5"",""16028""
","
","","images/earth.jpg","","","","","","","","","","","","","","fixation","","","","","",""
"d3-animate-choice","237","717071","0.0-76.0-0.34","978","4986","22","Male","false","false","false","true","""event"",""trial"",""time""
""fullscreenenter"",""5"",""16028""
","
","
","""event"",""trial"",""time""
""fullscreenenter"",""5"",""16028""
","
","236.09999999403954","","48","","","3000","1","","","images/earth.jpg","images/rocket1","images/rocket2","null","images/rocket1","","1","real","null","2","","",""
"d3-animate-choice","238","719471","0.0-76.0-1.34","978","4986","22","Male","false","false","false","true","""event"",""trial"",""time""
""fullscreenenter"",""5"",""16028""
","
","
","""event"",""trial"",""time""
""fullscreenenter"",""5"",""16028""
","
","395.7999999821186","","48","","","3000","1","","","images/purpleplanet.jpg","images/alien4","images/alien3","images/rocket1","images/alien4","images/nothing.png","2","real","true","2","common","0","2022-12-13 04:14:19.840"
"two-step-fixation","239","720476","0.0-76.0-2.34","978","4986","22","Male","false","false","false","true","""event"",""trial"",""time""
""fullscreenenter"",""5"",""16028""
","
","
","""event"",""trial"",""time""
""fullscreenenter"",""5"",""16028""
","
","","images/earth.jpg","","","","","","","","","","","","","","fixation","","","","","",""
"d3-animate-choice","240","722759","0.0-76.0-0.35","978","4986","22","Male","false","false","false","true","""event"",""trial"",""time""
""fullscreenenter"",""5"",""16028""
","
","
","""event"",""trial"",""time""
""fullscreenenter"",""5"",""16028""
","
","278.90000000596046","","48","","","3000","1","","","images/earth.jpg","images/rocket1","images/rocket2","null","images/rocket1","","1","real","null","2","","",""
"d3-animate-choice","241","725125","0.0-76.0-1.35","978","4986","22","Male","false","false","false","true","""event"",""trial"",""time""
""fullscreenenter"",""5"",""16028""
","
","
","""event"",""trial"",""time""
""fullscreenenter"",""5"",""16028""
","
","359.7000000178814","","48","","","3000","1","","","images/purpleplanet.jpg","images/alien4","images/alien3","images/rocket1","images/alien4","images/t.png","2","real","true","2","common","1","2022-12-13 04:14:25.494"
"two-step-fixation","242","726135","0.0-76.0-2.35","978","4986","22","Male","false","false","false","true","""event"",""trial"",""time""
""fullscreenenter"",""5"",""16028""
","
","
","""event"",""trial"",""time""
""fullscreenenter"",""5"",""16028""
","
","","images/earth.jpg","","","","","","","","","","","","","","fixation","","","","","",""
"d3-animate-choice","243","728311","0.0-76.0-0.36","978","4986","22","Male","false","false","false","true","""event"",""trial"",""time""
""fullscreenenter"",""5"",""16028""
","
","
","""event"",""trial"",""time""
""fullscreenenter"",""5"",""16028""
","
","163.59999999403954","","48","","","3000","1","","","images/earth.jpg","images/rocket1","images/rocket2","null","images/rocket1","","1","real","null","2","","",""
"d3-animate-choice","244","731087","0.0-76.0-1.36","978","4986","22","Male","false","false","false","true","""event"",""trial"",""time""
""fullscreenenter"",""5"",""16028""
","
","
","""event"",""trial"",""time""
""fullscreenenter"",""5"",""16028""
","
","770.1999999880791","","48","","","3000","1","","","images/redplanet1.jpg","images/alien2","images/alien1","images/rocket1","images/alien2","images/t.png","2","real","false","2","rare","1","2022-12-13 04:14:31.456"
"two-step-fixation","245","732091","0.0-76.0-2.36","978","4986","22","Male","false","false","false","true","""event"",""trial"",""time""
""fullscreenenter"",""5"",""16028""
","
","
","""event"",""trial"",""time""
""fullscreenenter"",""5"",""16028""
","
