"trial_type","trial_index","time_elapsed","internal_node_id","participant_id","subject_id","age","gender","rocket_sides","red_planet_first_rocket","red_display_order","purple_display_order","interactions","blur_events","focus_events","fullscreenenter_events","fullscreenexit_events","rt","stimulus","key_press","button_pressed","success","duration","valid_pressed","rts","keys","planet_text","right_text","left_text","center_text","chosen_text","reward_text","trial_stage","practice_trial","transition_type","choice","transition","reward","timestamp"
"pavlovia","0","5","0.0-0.0","658","810","16","Male","false","false","false","true","
","
","
","
","
","","","","","","","","","","","","","","","","","","","","","",""
"html-keyboard-response","1","3945","0.0-1.0","658","810","16","Male","false","false","false","true","
","
","
","
","
","3938.2999999970198","Welcome! Press the space bar to begin.","32","","","","","","","","","","","","","","","","","","",""
"audio-keyboard-response","2","7927","0.0-2.0","658","810","16","Male","false","false","false","true","
","
","
","
","
","3469","audio/beep_loop.wav","175","","","","","","","","","","","","","","","","","","",""
"audio-button-response","3","11242","0.0-3.0","658","810","16","Male","false","false","false","true","
","
","
","
","
","NaN","audio/fish.mp3","","1","","","","","","","","","","","","","","","","","",""
"audio-button-response","4","14883","0.0-4.0","658","810","16","Male","false","false","false","true","""event"",""trial"",""time""
""fullscreenenter"",""5"",""17904""
","
","
","""event"",""trial"",""time""
""fullscreenenter"",""5"",""17904""
","
","NaN","audio/tiger.mp3","","4","","","","","","","","","","","","","","","","","",""
"fullscreen","5","18903","0.0-5.0","658","810","16","Male","false","false","false","true","""event"",""trial"",""time""
""fullscreenenter"",""5"",""17904""
","
","
","""event"",""trial"",""time""
""fullscreenenter"",""5"",""17904""
","
","","","","","true","","","","","","","","","","","","","","","","",""
"d3-instructions","6","31552","0.0-6.0","658","810","16","Male","false","false","false","true","""event"",""trial"",""time""
""fullscreenenter"",""5"",""17904""
","
","
","""event"",""trial"",""time""
""fullscreenenter"",""5"",""17904""
","
","","","","","","","","","","","","","","","","","","","","","",""
"d3-instructions","7","57748","0.0-7.0","658","810","16","Male","false","false","false","true","""event"",""trial"",""time""
""fullscreenenter"",""5"",""17904""
","
","
","""event"",""trial"",""time""
""fullscreenenter"",""5"",""17904""
","
","","","","","","","","","","","","","","","","","","","","","",""
"d3-instructions","8","63514","0.0-8.0","658","810","16","Male","false","false","false","true","""event"",""trial"",""time""
""fullscreenenter"",""5"",""17904""
","
","
","""event"",""trial"",""time""
""fullscreenenter"",""5"",""17904""
","
","","","","","","","","","","","","","","","","","","","","","",""
"d3-instructions","9","75409","0.0-9.0","658","810","16","Male","false","false","false","true","""event"",""trial"",""time""
""fullscreenenter"",""5"",""17904""
","
","
","""event"",""trial"",""time""
""fullscreenenter"",""5"",""17904""
","
","","","","","","","","","","","","","","","","","","","","","",""
"d3-instructions","10","87311","0.0-10.0","658","810","16","Male","false","false","false","true","""event"",""trial"",""time""
""fullscreenenter"",""5"",""17904""
","
","
","""event"",""trial"",""time""
""fullscreenenter"",""5"",""17904""
","
","","","","","","","","","","","","","","","","","","","","","",""
"d3-animate-choice","11","90662","0.0-11.0","658","810","16","Male","false","false","false","true","""event"",""trial"",""time""
""fullscreenenter"",""5"",""17904""
","
","
","""event"",""trial"",""time""
""fullscreenenter"",""5"",""17904""
","
","1329.7000000029802","","49","","","3000","1","","","images/tutgreenplanet.jpg","images/tutalien1","images/tutalien2","null","images/tutalien2","","NA","practice","null","","","",""
"d3-animate-choice","12","93024","0.0-12.0","658","810","16","Male","false","false","false","true","""event"",""trial"",""time""
""fullscreenenter"",""5"",""17904""
","
","
","""event"",""trial"",""time""
""fullscreenenter"",""5"",""17904""
","
","350.90000000596046","","49","","","3000","1","","","images/tutgreenplanet.jpg","images/tutalien1","images/tutalien2","null","images/tutalien2","","NA","practice","null","","","",""
"d3-animate-choice","13","95378","0.0-13.0","658","810","16","Male","false","false","false","true","""event"",""trial"",""time""
""fullscreenenter"",""5"",""17904""
","
","
","""event"",""trial"",""time""
""fullscreenenter"",""5"",""17904""
","
","343.80000000447035","","48","","","3000","1","","","images/tutgreenplanet.jpg","images/tutalien1","images/tutalien2","null","images/tutalien1","","NA","practice","null","","","",""
"d3-animate-choice","14","97699","0.0-14.0","658","810","16","Male","false","false","false","true","""event"",""trial"",""time""
""fullscreenenter"",""5"",""17904""
","
","
","""event"",""trial"",""time""
""fullscreenenter"",""5"",""17904""
","
","309.20000000298023","","48","","","3000","1","","","images/tutgreenplanet.jpg","images/tutalien1","images/tutalien2","null","images/tutalien1","","NA","practice","null","","","",""
"d3-instructions","15","104683","0.0-15.0","658","810","16","Male","false","false","false","true","""event"",""trial"",""time""
""fullscreenenter"",""5"",""17904""
","
","
","""event"",""trial"",""time""
""fullscreenenter"",""5"",""17904""
","
","","","","","","","","","","","","","","","","","","","","","",""
"d3-instructions","16","114103","0.0-16.0","658","810","16","Male","false","false","false","true","""event"",""trial"",""time""
""fullscreenenter"",""5"",""17904""
","
","
","""event"",""trial"",""time""
""fullscreenenter"",""5"",""17904""
","
","","","","","","","","","","","","","","","","","","","","","",""
"d3-instructions","17","127447","0.0-17.0","658","810","16","Male","false","false","false","true","""event"",""trial"",""time""
""fullscreenenter"",""5"",""17904""
","
","
","""event"",""trial"",""time""
""fullscreenenter"",""5"",""17904""
","
","","","","","","","","","","","","","","","","","","","","","",""
"d3-instructions","18","136353","0.0-18.0","658","810","16","Male","false","false","false","true","""event"",""trial"",""time""
""fullscreenenter"",""5"",""17904""
","
","
","""event"",""trial"",""time""
""fullscreenenter"",""5"",""17904""
","
","","","","","","","","","","","","","","","","","","","","","",""
"d3-instructions","19","142375","0.0-19.0","658","810","16","Male","false","false","false","true","""event"",""trial"",""time""
""fullscreenenter"",""5"",""17904""
","
","
","""event"",""trial"",""time""
""fullscreenenter"",""5"",""17904""
","
","","","","","","","","","","","","","","","","","","","","","",""
"d3-animate-choice","20","145308","0.0-20.0","658","810","16","Male","false","false","false","true","""event"",""trial"",""time""
""fullscreenenter"",""5"",""17904""
","
","
","""event"",""trial"",""time""
""fullscreenenter"",""5"",""17904""
","
","918.8999999985099","","49","","","3000","1","","","images/tutyellowplanet.jpg","null","images/tutalien3","null","images/tutalien3","images/t.png","NA","practice","null","","","",""
"d3-animate-choice","21","147604","0.0-21.0","658","810","16","Male","false","false","false","true","""event"",""trial"",""time""
""fullscreenenter"",""5"",""17904""
","
","
","""event"",""trial"",""time""
""fullscreenenter"",""5"",""17904""
","
","279.1000000014901","","49","","","3000","1","","","images/tutyellowplanet.jpg","null","images/tutalien3","null","images/tutalien3","images/t.png","NA","practice","null","","","",""
"d3-animate-choice","22","149852","0.0-22.0","658","810","16","Male","false","false","false","true","""event"",""trial"",""time""
""fullscreenenter"",""5"",""17904""
","
","
","""event"",""trial"",""time""
""fullscreenenter"",""5"",""17904""
","
","244.30000000447035","","49","","","3000","1","","","images/tutyellowplanet.jpg","null","images/tutalien3","null","images/tutalien3","images/t.png","NA","practice","null","","","",""
"d3-animate-choice","23","152090","0.0-23.0","658","810","16","Male","false","false","false","true","""event"",""trial"",""time""
""fullscreenenter"",""5"",""17904""
","
","
","""event"",""trial"",""time""
""fullscreenenter"",""5"",""17904""
","
","232.30000000447035","","49","","","3000","1","1681.3000000044703","49","images/tutyellowplanet.jpg","null","images/tutalien3","null","images/tutalien3","images/t.png","NA","practice","null","","","",""
"d3-animate-choice","24","154308","0.0-24.0","658","810","16","Male","false","false","false","true","""event"",""trial"",""time""
""fullscreenenter"",""5"",""17904""
","
","
","""event"",""trial"",""time""
""fullscreenenter"",""5"",""17904""
","
","202.29999999701977","","49","","","3000","1","","","images/tutyellowplanet.jpg","null","images/tutalien3","null","images/tutalien3","images/t.png","NA","practice","null","","","",""
"d3-animate-choice","25","156563","0.0-25.0","658","810","16","Male","false","false","false","true","""event"",""trial"",""time""
""fullscreenenter"",""5"",""17904""
","
","
","""event"",""trial"",""time""
""fullscreenenter"",""5"",""17904""
","
","248.69999999552965","","49","","","3000","1","","","images/tutyellowplanet.jpg","null","images/tutalien3","null","images/tutalien3","images/t.png","NA","practice","null","","","",""
"d3-animate-choice","26","158824","0.0-26.0","658","810","16","Male","false","false","false","true","""event"",""trial"",""time""
""fullscreenenter"",""5"",""17904""
","
","
","""event"",""trial"",""time""
""fullscreenenter"",""5"",""17904""
","
","257.59999999403954","","49","","","3000","1","","","images/tutyellowplanet.jpg","null","images/tutalien3","null","images/tutalien3","images/t.png","NA","practice","null","","","",""
"d3-animate-choice","27","161129","0.0-27.0","658","810","16","Male","false","false","false","true","""event"",""trial"",""time""
""fullscreenenter"",""5"",""17904""
","
","
","""event"",""trial"",""time""
""fullscreenenter"",""5"",""17904""
","
","287.6000000014901","","49","","","3000","1","","","images/tutyellowplanet.jpg","null","images/tutalien3","null","images/tutalien3","images/nothing.png","NA","practice","null","","","",""
"d3-animate-choice","28","163414","0.0-28.0","658","810","16","Male","false","false","false","true","""event"",""trial"",""time""
""fullscreenenter"",""5"",""17904""
","
","
","""event"",""trial"",""time""
""fullscreenenter"",""5"",""17904""
","
","282.3999999985099","","49","","","3000","1","","","images/tutyellowplanet.jpg","null","images/tutalien3","null","images/tutalien3","images/t.png","NA","practice","null","","","",""
"d3-animate-choice","29","165671","0.0-29.0","658","810","16","Male","false","false","false","true","""event"",""trial"",""time""
""fullscreenenter"",""5"",""17904""
","
","
","""event"",""trial"",""time""
""fullscreenenter"",""5"",""17904""
","
","250.5","","49","","","3000","1","","","images/tutyellowplanet.jpg","null","images/tutalien3","null","images/tutalien3","images/t.png","NA","practice","null","","","",""
"d3-instructions","30","168746","0.0-30.0","658","810","16","Male","false","false","false","true","""event"",""trial"",""time""
""fullscreenenter"",""5"",""17904""
","
","
","""event"",""trial"",""time""
""fullscreenenter"",""5"",""17904""
","
","","","","","","","","","","","","","","","","","","","","","",""
"d3-instructions","31","172809","0.0-31.0","658","810","16","Male","false","false","false","true","""event"",""trial"",""time""
""fullscreenenter"",""5"",""17904""
","
","
","""event"",""trial"",""time""
""fullscreenenter"",""5"",""17904""
","
","","","","","","","","","","","","","","","","","","","","","",""
"d3-instructions","32","176005","0.0-32.0","658","810","16","Male","false","false","false","true","""event"",""trial"",""time""
""fullscreenenter"",""5"",""17904""
","
","
","""event"",""trial"",""time""
""fullscreenenter"",""5"",""17904""
","
","","","","","","","","","","","","","","","","","","","","","",""
"d3-instructions","33","182291","0.0-33.0","658","810","16","Male","false","false","false","true","""event"",""trial"",""time""
""fullscreenenter"",""5"",""17904""
","
","
","""event"",""trial"",""time""
""fullscreenenter"",""5"",""17904""
","
","","","","","","","","","","","","","","","","","","","","","",""
"d3-animate-choice","34","185408","0.0-34.0","658","810","16","Male","false","false","false","true","""event"",""trial"",""time""
""fullscreenenter"",""5"",""17904""
","
","
","""event"",""trial"",""time""
""fullscreenenter"",""5"",""17904""
","
","1105.8999999985099","","49","","","3000","1","","","images/tutgreenplanet.jpg","images/tutalien1","images/tutalien2","null","images/tutalien2","images/t.png","NA","practice","null","","","",""
"d3-animate-choice","35","187670","0.0-35.0","658","810","16","Male","false","false","false","true","""event"",""trial"",""time""
""fullscreenenter"",""5"",""17904""
","
","
","""event"",""trial"",""time""
""fullscreenenter"",""5"",""17904""
","
","258.6000000014901","","49","","","3000","1","","","images/tutgreenplanet.jpg","images/tutalien1","images/tutalien2","null","images/tutalien2","images/t.png","NA","practice","null","","","",""
"d3-animate-choice","36","189900","0.0-36.0","658","810","16","Male","false","false","false","true","""event"",""trial"",""time""
""fullscreenenter"",""5"",""17904""
","
","
","""event"",""trial"",""time""
""fullscreenenter"",""5"",""17904""
","
","218","","49","","","3000","1","","","images/tutgreenplanet.jpg","images/tutalien1","images/tutalien2","null","images/tutalien2","images/t.png","NA","practice","null","","","",""
"d3-animate-choice","37","192152","0.0-37.0","658","810","16","Male","false","false","false","true","""event"",""trial"",""time""
""fullscreenenter"",""5"",""17904""
","
","
","""event"",""trial"",""time""
""fullscreenenter"",""5"",""17904""
","
","241.20000000298023","","49","","","3000","1","","","images/tutgreenplanet.jpg","images/tutalien1","images/tutalien2","null","images/tutalien2","images/t.png","NA","practice","null","","","",""
"d3-animate-choice","38","194387","0.0-38.0","658","810","16","Male","false","false","false","true","""event"",""trial"",""time""
""fullscreenenter"",""5"",""17904""
","
","
","""event"",""trial"",""time""
""fullscreenenter"",""5"",""17904""
","
","225","","48","","","3000","1","","","images/tutgreenplanet.jpg","images/tutalien1","images/tutalien2","null","images/tutalien1","images/nothing.png","NA","practice","null","","","",""
"d3-animate-choice","39","196620","0.0-39.0","658","810","16","Male","false","false","false","true","""event"",""trial"",""time""
""fullscreenenter"",""5"",""17904""
","
","
","""event"",""trial"",""time""
""fullscreenenter"",""5"",""17904""
","
","230","","48","","","3000","1","","","images/tutgreenplanet.jpg","images/tutalien1","images/tutalien2","null","images/tutalien1","images/nothing.png","NA","practice","null","","","",""
"d3-animate-choice","40","198852","0.0-40.0","658","810","16","Male","false","false","false","true","""event"",""trial"",""time""
""fullscreenenter"",""5"",""17904""
","
","
","""event"",""trial"",""time""
""fullscreenenter"",""5"",""17904""
","
","229.20000000298023","","48","","","3000","1","","","images/tutgreenplanet.jpg","images/tutalien1","images/tutalien2","null","images/tutalien1","images/nothing.png","NA","practice","null","","","",""
"d3-animate-choice","41","201141","0.0-41.0","658","810","16","Male","false","false","false","true","""event"",""trial"",""time""
""fullscreenenter"",""5"",""17904""
","
","
","""event"",""trial"",""time""
""fullscreenenter"",""5"",""17904""
","
","284.3999999985099","","49","","","3000","1","2245.10000000149","49","images/tutgreenplanet.jpg","images/tutalien1","images/tutalien2","null","images/tutalien2","images/t.png","NA","practice","null","","","",""
"d3-animate-choice","42","203494","0.0-42.0","658","810","16","Male","false","false","false","true","""event"",""trial"",""time""
""fullscreenenter"",""5"",""17904""
","
","
","""event"",""trial"",""time""
""fullscreenenter"",""5"",""17904""
","
","349.3999999985099","","49","","","3000","1","","","images/tutgreenplanet.jpg","images/tutalien1","images/tutalien2","null","images/tutalien2","images/t.png","NA","practice","null","","","",""
"d3-animate-choice","43","205763","0.0-43.0","658","810","16","Male","false","false","false","true","""event"",""trial"",""time""
""fullscreenenter"",""5"",""17904""
","
","
","""event"",""trial"",""time""
""fullscreenenter"",""5"",""17904""
","
","265.6000000014901","","49","","","3000","1","","","images/tutgreenplanet.jpg","images/tutalien1","images/tutalien2","null","images/tutalien2","images/t.png","NA","practice","null","","","",""
"d3-instructions","44","215605","0.0-44.0","658","810","16","Male","false","false","false","true","""event"",""trial"",""time""
""fullscreenenter"",""5"",""17904""
","
","
","""event"",""trial"",""time""
""fullscreenenter"",""5"",""17904""
","
","","","","","","","","","","","","","","","","","","","","","",""
"d3-instructions","45","218199","0.0-45.0","658","810","16","Male","false","false","false","true","""event"",""trial"",""time""
""fullscreenenter"",""5"",""17904""
","
","
","""event"",""trial"",""time""
""fullscreenenter"",""5"",""17904""
","
","","","","","","","","","","","","","","","","","","","","","",""
"d3-instructions","46","220864","0.0-46.0","658","810","16","Male","false","false","false","true","""event"",""trial"",""time""
""fullscreenenter"",""5"",""17904""
","
","
","""event"",""trial"",""time""
""fullscreenenter"",""5"",""17904""
","
","","","","","","","","","","","","","","","","","","","","","",""
"d3-instructions","47","229732","0.0-47.0","658","810","16","Male","false","false","false","true","""event"",""trial"",""time""
""fullscreenenter"",""5"",""17904""
","
","
","""event"",""trial"",""time""
""fullscreenenter"",""5"",""17904""
","
","","","","","","","","","","","","","","","","","","","","","",""
"d3-instructions","48","237090","0.0-48.0","658","810","16","Male","false","false","false","true","""event"",""trial"",""time""
""fullscreenenter"",""5"",""17904""
","
","
","""event"",""trial"",""time""
""fullscreenenter"",""5"",""17904""
","
","","","","","","","","","","","","","","","","","","","","","",""
"d3-instructions","49","244647","0.0-49.0","658","810","16","Male","false","false","false","true","""event"",""trial"",""time""
""fullscreenenter"",""5"",""17904""
","
","
","""event"",""trial"",""time""
""fullscreenenter"",""5"",""17904""
","
","","","","","","","","","","","","","","","","","","","","","",""
"d3-instructions","50","248276","0.0-50.0","658","810","16","Male","false","false","false","true","""event"",""trial"",""time""
""fullscreenenter"",""5"",""17904""
","
","
","""event"",""trial"",""time""
""fullscreenenter"",""5"",""17904""
","
","","","","","","","","","","","","","","","","","","","","","",""
"d3-instructions","51","250866","0.0-51.0","658","810","16","Male","false","false","false","true","""event"",""trial"",""time""
""fullscreenenter"",""5"",""17904""
","
","
","""event"",""trial"",""time""
""fullscreenenter"",""5"",""17904""
","
","","","","","","","","","","","","","","","","","","","","","",""
"d3-instructions","52","253629","0.0-52.0","658","810","16","Male","false","false","false","true","""event"",""trial"",""time""
""fullscreenenter"",""5"",""17904""
","
","
","""event"",""trial"",""time""
""fullscreenenter"",""5"",""17904""
","
","","","","","","","","","","","","","","","","","","","","","",""
"d3-instructions","53","260079","0.0-53.0","658","810","16","Male","false","false","false","true","""event"",""trial"",""time""
""fullscreenenter"",""5"",""17904""
","
","
","""event"",""trial"",""time""
""fullscreenenter"",""5"",""17904""
","
","","","","","","","","","","","","","","","","","","","","","",""
"d3-instructions","54","267342","0.0-54.0","658","810","16","Male","false","false","false","true","""event"",""trial"",""time""
""fullscreenenter"",""5"",""17904""
","
","
","""event"",""trial"",""time""
""fullscreenenter"",""5"",""17904""
","
","","","","","","","","","","","","","","","","","","","","","",""
"d3-instructions","55","272957","0.0-55.0","658","810","16","Male","false","false","false","true","""event"",""trial"",""time""
""fullscreenenter"",""5"",""17904""
","
","
","""event"",""trial"",""time""
""fullscreenenter"",""5"",""17904""
","
","","","","","","","","","","","","","","","","","","","","","",""
"d3-instructions","56","279243","0.0-56.0","658","810","16","Male","false","false","false","true","""event"",""trial"",""time""
""fullscreenenter"",""5"",""17904""
","
","
","""event"",""trial"",""time""
""fullscreenenter"",""5"",""17904""
","
","","","","","","","","","","","","","","","","","","","","","",""
"d3-instructions","57","283308","0.0-57.0","658","810","16","Male","false","false","false","true","""event"",""trial"",""time""
""fullscreenenter"",""5"",""17904""
","
","
","""event"",""trial"",""time""
""fullscreenenter"",""5"",""17904""
","
","","","","","","","","","","","","","","","","","","","","","",""
"d3-instructions","58","288088","0.0-58.0","658","810","16","Male","false","false","false","true","""event"",""trial"",""time""
""fullscreenenter"",""5"",""17904""
","
","
","""event"",""trial"",""time""
""fullscreenenter"",""5"",""17904""
","
","","","","","","","","","","","","","","","","","","","","","",""
"d3-instructions","59","291603","0.0-59.0","658","810","16","Male","false","false","false","true","""event"",""trial"",""time""
""fullscreenenter"",""5"",""17904""
","
","
","""event"",""trial"",""time""
""fullscreenenter"",""5"",""17904""
","
","","","","","","","","","","","","","","","","","","","","","",""
"d3-instructions","60","294141","0.0-60.0","658","810","16","Male","false","false","false","true","""event"",""trial"",""time""
""fullscreenenter"",""5"",""17904""
","
","
","""event"",""trial"",""time""
""fullscreenenter"",""5"",""17904""
","
","","","","","","","","","","","","","","","","","","","","","",""
"d3-animate-choice","61","297240","0.0-61.0-0.0","658","810","16","Male","false","false","false","true","""event"",""trial"",""time""
""fullscreenenter"",""5"",""17904""
","
","
","""event"",""trial"",""time""
""fullscreenenter"",""5"",""17904""
","
","1079.5","","49","","","3000","1","","","images/earth.jpg","images/tutrocket1","images/tutrocket2","null","images/tutrocket2","","1","practice","null","1","","",""
"d3-animate-choice","62","299860","0.0-61.0-1.0","658","810","16","Male","false","false","false","true","""event"",""trial"",""time""
""fullscreenenter"",""5"",""17904""
","
","
","""event"",""trial"",""time""
""fullscreenenter"",""5"",""17904""
","
","613.7999999970198","","49","","","3000","1","","","images/tutgreenplanet.jpg","images/tutalien2","images/tutalien1","images/tutrocket2","images/tutalien1","images/t.png","2","practice","true","1","common","1","2022-02-13 18:45:58.491"
"two-step-fixation","63","300867","0.0-61.0-2.0","658","810","16","Male","false","false","false","true","""event"",""trial"",""time""
""fullscreenenter"",""5"",""17904""
","
","
","""event"",""trial"",""time""
""fullscreenenter"",""5"",""17904""
","
","","images/earth.jpg","","","","","","","","","","","","","","fixation","","","","","",""
"d3-animate-choice","64","303156","0.0-61.0-0.1","658","810","16","Male","false","false","false","true","""event"",""trial"",""time""
""fullscreenenter"",""5"",""17904""
","
","
","""event"",""trial"",""time""
""fullscreenenter"",""5"",""17904""
","
","284.3999999985099","","49","","","3000","1","","","images/earth.jpg","images/tutrocket1","images/tutrocket2","null","images/tutrocket2","","1","practice","null","1","","",""
"d3-animate-choice","65","305482","0.0-61.0-1.1","658","810","16","Male","false","false","false","true","""event"",""trial"",""time""
""fullscreenenter"",""5"",""17904""
","
","
","""event"",""trial"",""time""
""fullscreenenter"",""5"",""17904""
","
","313.20000000298023","","49","","","3000","1","","","images/tutgreenplanet.jpg","images/tutalien2","images/tutalien1","images/tutrocket2","images/tutalien1","images/t.png","2","practice","true","1","common","1","2022-02-13 18:46:04.114"
"two-step-fixation","66","306487","0.0-61.0-2.1","658","810","16","Male","false","false","false","true","""event"",""trial"",""time""
""fullscreenenter"",""5"",""17904""
","
","
","""event"",""trial"",""time""
""fullscreenenter"",""5"",""17904""
","
","","images/earth.jpg","","","","","","","","","","","","","","fixation","","","","","",""
"d3-animate-choice","67","308491","0.0-61.0-0.2","658","810","16","Male","false","false","false","true","""event"",""trial"",""time""
""fullscreenenter"",""5"",""17904""
","
","
","""event"",""trial"",""time""
""fullscreenenter"",""5"",""17904""
","
","0.3999999985098839","","49","","","3000","1","","","images/earth.jpg","images/tutrocket1","images/tutrocket2","null","images/tutrocket2","","1","practice","null","1","","",""
"d3-animate-choice","68","310950","0.0-61.0-1.2","658","810","16","Male","false","false","false","true","""event"",""trial"",""time""
""fullscreenenter"",""5"",""17904""
","
","
","""event"",""trial"",""time""
""fullscreenenter"",""5"",""17904""
","
","455.40000000596046","","49","","","3000","1","","","images/tutgreenplanet.jpg","images/tutalien2","images/tutalien1","images/tutrocket2","images/tutalien1","images/nothing.png","2","practice","true","1","common","0","2022-02-13 18:46:09.581"
"two-step-fixation","69","311955","0.0-61.0-2.2","658","810","16","Male","false","false","false","true","""event"",""trial"",""time""
""fullscreenenter"",""5"",""17904""
","
","
","""event"",""trial"",""time""
""fullscreenenter"",""5"",""17904""
","
","","images/earth.jpg","","","","","","","","","","","","","","fixation","","","","","",""
"d3-animate-choice","70","314239","0.0-61.0-0.3","658","810","16","Male","false","false","false","true","""event"",""trial"",""time""
""fullscreenenter"",""5"",""17904""
","
","
","""event"",""trial"",""time""
""fullscreenenter"",""5"",""17904""
","
","273.1000000014901","","49","","","3000","1","","","images/earth.jpg","images/tutrocket1","images/tutrocket2","null","images/tutrocket2","","1","practice","null","1","","",""
"d3-animate-choice","71","318243","0.0-61.0-1.3","658","810","16","Male","false","false","false","true","""event"",""trial"",""time""
""fullscreenenter"",""5"",""17904""
","
","
","""event"",""trial"",""time""
""fullscreenenter"",""5"",""17904""
","
","384.5","","50","","","3000","1","877.7999999970198,1280.5,1628.0999999940395,2210.89999999851","50,50,50,48","images/tutgreenplanet.jpg","images/tutalien2","images/tutalien1","images/tutrocket2","images/tutalien2","images/nothing.png","2","practice","true","","common","0","2022-02-13 18:46:16.874"
"two-step-fixation","72","319246","0.0-61.0-2.3","658","810","16","Male","false","false","false","true","""event"",""trial"",""time""
""fullscreenenter"",""5"",""17904""
","
","
","""event"",""trial"",""time""
""fullscreenenter"",""5"",""17904""
","
","","images/earth.jpg","","","","","","","","","","","","","","fixation","","","","","",""
"d3-animate-choice","73","321522","0.0-61.0-0.4","658","810","16","Male","false","false","false","true","""event"",""trial"",""time""
""fullscreenenter"",""5"",""17904""
","
","
","""event"",""trial"",""time""
""fullscreenenter"",""5"",""17904""
","
","270.8999999985099","","49","","","3000","1","","","images/earth.jpg","images/tutrocket1","images/tutrocket2","null","images/tutrocket2","","1","practice","null","1","","",""
"d3-animate-choice","74","323900","0.0-61.0-1.4","658","810","16","Male","false","false","false","true","""event"",""trial"",""time""
""fullscreenenter"",""5"",""17904""
","
","
","""event"",""trial"",""time""
""fullscreenenter"",""5"",""17904""
","
","373","","49","","","3000","1","","","images/tutyellowplanet.jpg","images/tutalien4","images/tutalien3","images/tutrocket2","images/tutalien3","images/t.png","2","practice","false","1","rare","1","2022-02-13 18:46:22.531"
"two-step-fixation","75","324906","0.0-61.0-2.4","658","810","16","Male","false","false","false","true","""event"",""trial"",""time""
""fullscreenenter"",""5"",""17904""
","
","
","""event"",""trial"",""time""
""fullscreenenter"",""5"",""17904""
","
","","images/earth.jpg","","","","","","","","","","","","","","fixation","","","","","",""
"d3-animate-choice","76","327240","0.0-61.0-0.5","658","810","16","Male","false","false","false","true","""event"",""trial"",""time""
""fullscreenenter"",""5"",""17904""
","
","
","""event"",""trial"",""time""
""fullscreenenter"",""5"",""17904""
","
","331","","49","","","3000","1","","","images/earth.jpg","images/tutrocket1","images/tutrocket2","null","images/tutrocket2","","1","practice","null","1","","",""
"d3-animate-choice","77","329655","0.0-61.0-1.5","658","810","16","Male","false","false","false","true","""event"",""trial"",""time""
""fullscreenenter"",""5"",""17904""
","
","
","""event"",""trial"",""time""
""fullscreenenter"",""5"",""17904""
","
","411.1000000014901","","49","","","3000","1","","","images/tutgreenplanet.jpg","images/tutalien2","images/tutalien1","images/tutrocket2","images/tutalien1","images/nothing.png","2","practice","true","1","common","0","2022-02-13 18:46:28.286"
"two-step-fixation","78","330660","0.0-61.0-2.5","658","810","16","Male","false","false","false","true","""event"",""trial"",""time""
""fullscreenenter"",""5"",""17904""
","
","
","""event"",""trial"",""time""
""fullscreenenter"",""5"",""17904""
","
","","images/earth.jpg","","","","","","","","","","","","","","fixation","","","","","",""
"d3-animate-choice","79","333449","0.0-61.0-0.6","658","810","16","Male","false","false","false","true","""event"",""trial"",""time""
""fullscreenenter"",""5"",""17904""
","
","
","""event"",""trial"",""time""
""fullscreenenter"",""5"",""17904""
","
","783.7000000029802","","48","","","3000","1","","","images/earth.jpg","images/tutrocket1","images/tutrocket2","null","images/tutrocket1","","1","practice","null","2","","",""
"d3-animate-choice","80","335779","0.0-61.0-1.6","658","810","16","Male","false","false","false","true","""event"",""trial"",""time""
""fullscreenenter"",""5"",""17904""
","
","
","""event"",""trial"",""time""
""fullscreenenter"",""5"",""17904""
","
","324.3999999985099","","48","","","3000","1","","","images/tutyellowplanet.jpg","images/tutalien4","images/tutalien3","images/tutrocket1","images/tutalien4","images/nothing.png","2","practice","true","2","common","0","2022-02-13 18:46:34.410"
"two-step-fixation","81","336783","0.0-61.0-2.6","658","810","16","Male","false","false","false","true","""event"",""trial"",""time""
""fullscreenenter"",""5"",""17904""
","
","
","""event"",""trial"",""time""
""fullscreenenter"",""5"",""17904""
","
","","images/earth.jpg","","","","","","","","","","","","","","fixation","","","","","",""
"d3-animate-choice","82","339077","0.0-61.0-0.7","658","810","16","Male","false","false","false","true","""event"",""trial"",""time""
""fullscreenenter"",""5"",""17904""
","
","
","""event"",""trial"",""time""
""fullscreenenter"",""5"",""17904""
","
","289.6000000014901","","48","","","3000","1","","","images/earth.jpg","images/tutrocket1","images/tutrocket2","null","images/tutrocket1","","1","practice","null","2","","",""
"d3-animate-choice","83","341430","0.0-61.0-1.7","658","810","16","Male","false","false","false","true","""event"",""trial"",""time""
""fullscreenenter"",""5"",""17904""
","
","
","""event"",""trial"",""time""
""fullscreenenter"",""5"",""17904""
","
","347.6000000014901","","49","","","3000","1","","","images/tutyellowplanet.jpg","images/tutalien4","images/tutalien3","images/tutrocket1","images/tutalien3","images/nothing.png","2","practice","true","1","common","0","2022-02-13 18:46:40.061"
"two-step-fixation","84","342434","0.0-61.0-2.7","658","810","16","Male","false","false","false","true","""event"",""trial"",""time""
""fullscreenenter"",""5"",""17904""
","
","
","""event"",""trial"",""time""
""fullscreenenter"",""5"",""17904""
","
","","images/earth.jpg","","","","","","","","","","","","","","fixation","","","","","",""
"d3-animate-choice","85","345113","0.0-61.0-0.8","658","810","16","Male","false","false","false","true","""event"",""trial"",""time""
""fullscreenenter"",""5"",""17904""
","
","
","""event"",""trial"",""time""
""fullscreenenter"",""5"",""17904""
","
","674.8000000044703","","49","","","3000","1","","","images/earth.jpg","images/tutrocket1","images/tutrocket2","null","images/tutrocket2","","1","practice","null","1","","",""
"d3-animate-choice","86","348509","0.0-61.0-1.8","658","810","16","Male","false","false","false","true","""event"",""trial"",""time""
""fullscreenenter"",""5"",""17904""
","
","
","""event"",""trial"",""time""
""fullscreenenter"",""5"",""17904""
","
","1392.2999999970198","","48","","","3000","1","","","images/tutyellowplanet.jpg","images/tutalien4","images/tutalien3","images/tutrocket2","images/tutalien4","images/nothing.png","2","practice","false","2","rare","0","2022-02-13 18:46:47.140"
"two-step-fixation","87","349513","0.0-61.0-2.8","658","810","16","Male","false","false","false","true","""event"",""trial"",""time""
""fullscreenenter"",""5"",""17904""
","
","
","""event"",""trial"",""time""
""fullscreenenter"",""5"",""17904""
","
","","images/earth.jpg","","","","","","","","","","","","","","fixation","","","","","",""
"d3-animate-choice","88","351790","0.0-61.0-0.9","658","810","16","Male","false","false","false","true","""event"",""trial"",""time""
""fullscreenenter"",""5"",""17904""
","
","
","""event"",""trial"",""time""
""fullscreenenter"",""5"",""17904""
","
","272.3999999985099","","49","","","3000","1","","","images/earth.jpg","images/tutrocket1","images/tutrocket2","null","images/tutrocket2","","1","practice","null","1","","",""
"d3-animate-choice","89","354241","0.0-61.0-1.9","658","810","16","Male","false","false","false","true","""event"",""trial"",""time""
""fullscreenenter"",""5"",""17904""
","
","
","""event"",""trial"",""time""
""fullscreenenter"",""5"",""17904""
","
","446.09999999403954","","49","","","3000","1","","","images/tutgreenplanet.jpg","images/tutalien2","images/tutalien1","images/tutrocket2","images/tutalien1","images/nothing.png","2","practice","true","1","common","0","2022-02-13 18:46:52.872"
"two-step-fixation","90","355244","0.0-61.0-2.9","658","810","16","Male","false","false","false","true","""event"",""trial"",""time""
""fullscreenenter"",""5"",""17904""
","
","
","""event"",""trial"",""time""
""fullscreenenter"",""5"",""17904""
","
","","images/earth.jpg","","","","","","","","","","","","","","fixation","","","","","",""
"d3-animate-choice","91","357574","0.0-61.0-0.10","658","810","16","Male","false","false","false","true","""event"",""trial"",""time""
""fullscreenenter"",""5"",""17904""
","
","
","""event"",""trial"",""time""
""fullscreenenter"",""5"",""17904""
","
","324.1000000014901","","49","","","3000","1","","","images/earth.jpg","images/tutrocket1","images/tutrocket2","null","images/tutrocket2","","1","practice","null","1","","",""
"d3-animate-choice","92","359941","0.0-61.0-1.10","658","810","16","Male","false","false","false","true","""event"",""trial"",""time""
""fullscreenenter"",""5"",""17904""
","
","
","""event"",""trial"",""time""
""fullscreenenter"",""5"",""17904""
","
","363.29999999701977","","48","","","3000","1","","","images/tutgreenplanet.jpg","images/tutalien2","images/tutalien1","images/tutrocket2","images/tutalien2","images/nothing.png","2","practice","true","2","common","0","2022-02-13 18:46:58.572"
"two-step-fixation","93","360945","0.0-61.0-2.10","658","810","16","Male","false","false","false","true","""event"",""trial"",""time""
""fullscreenenter"",""5"",""17904""
","
","
","""event"",""trial"",""time""
""fullscreenenter"",""5"",""17904""
","
","","images/earth.jpg","","","","","","","","","","","","","","fixation","","","","","",""
"d3-animate-choice","94","363158","0.0-61.0-0.11","658","810","16","Male","false","false","false","true","""event"",""trial"",""time""
""fullscreenenter"",""5"",""17904""
","
","
","""event"",""trial"",""time""
""fullscreenenter"",""5"",""17904""
","
","207.89999999850988","","49","","","3000","1","","","images/earth.jpg","images/tutrocket1","images/tutrocket2","null","images/tutrocket2","","1","practice","null","1","","",""
"d3-animate-choice","95","365586","0.0-61.0-1.11","658","810","16","Male","false","false","false","true","""event"",""trial"",""time""
""fullscreenenter"",""5"",""17904""
","
","
","""event"",""trial"",""time""
""fullscreenenter"",""5"",""17904""
","
","422.70000000298023","","49","","","3000","1","","","images/tutyellowplanet.jpg","images/tutalien4","images/tutalien3","images/tutrocket2","images/tutalien3","images/t.png","2","practice","false","1","rare","1","2022-02-13 18:47:04.217"
"two-step-fixation","96","366591","0.0-61.0-2.11","658","810","16","Male","false","false","false","true","""event"",""trial"",""time""
""fullscreenenter"",""5"",""17904""
","
","
","""event"",""trial"",""time""
""fullscreenenter"",""5"",""17904""
","
","","images/earth.jpg","","","","","","","","","","","","","","fixation","","","","","",""
"d3-animate-choice","97","368896","0.0-61.0-0.12","658","810","16","Male","false","false","false","true","""event"",""trial"",""time""
""fullscreenenter"",""5"",""17904""
","
","
","""event"",""trial"",""time""
""fullscreenenter"",""5"",""17904""
","
","300.3999999985099","","48","","","3000","1","","","images/earth.jpg","images/tutrocket1","images/tutrocket2","null","images/tutrocket1","","1","practice","null","2","","",""
"d3-animate-choice","98","371227","0.0-61.0-1.12","658","810","16","Male","false","false","false","true","""event"",""trial"",""time""
""fullscreenenter"",""5"",""17904""
","
","
","""event"",""trial"",""time""
""fullscreenenter"",""5"",""17904""
","
","325.6000000014901","","49","","","3000","1","","","images/tutyellowplanet.jpg","images/tutalien4","images/tutalien3","images/tutrocket1","images/tutalien3","images/nothing.png","2","practice","true","1","common","0","2022-02-13 18:47:09.858"
"two-step-fixation","99","372231","0.0-61.0-2.12","658","810","16","Male","false","false","false","true","""event"",""trial"",""time""
""fullscreenenter"",""5"",""17904""
","
","
","""event"",""trial"",""time""
""fullscreenenter"",""5"",""17904""
","
","","images/earth.jpg","","","","","","","","","","","","","","fixation","","","","","",""
"d3-animate-choice","100","374706","0.0-61.0-0.13","658","810","16","Male","false","false","false","true","""event"",""trial"",""time""
""fullscreenenter"",""5"",""17904""
","
","
","""event"",""trial"",""time""
""fullscreenenter"",""5"",""17904""
","
","469.8999999985099","","49","","","3000","1","","","images/earth.jpg","images/tutrocket1","images/tutrocket2","null","images/tutrocket2","","1","practice","null","1","","",""
"d3-animate-choice","101","377659","0.0-61.0-1.13","658","810","16","Male","false","false","false","true","""event"",""trial"",""time""
""fullscreenenter"",""5"",""17904""
","
","
","""event"",""trial"",""time""
""fullscreenenter"",""5"",""17904""
","
","948","","49","","","3000","1","","","images/tutyellowplanet.jpg","images/tutalien4","images/tutalien3","images/tutrocket2","images/tutalien3","images/nothing.png","2","practice","false","1","rare","0","2022-02-13 18:47:16.290"
"two-step-fixation","102","378661","0.0-61.0-2.13","658","810","16","Male","false","false","false","true","""event"",""trial"",""time""
""fullscreenenter"",""5"",""17904""
","
","
","""event"",""trial"",""time""
""fullscreenenter"",""5"",""17904""
","
","","images/earth.jpg","","","","","","","","","","","","","","fixation","","","","","",""
"d3-animate-choice","103","380961","0.0-61.0-0.14","658","810","16","Male","false","false","false","true","""event"",""trial"",""time""
""fullscreenenter"",""5"",""17904""
","
","
","""event"",""trial"",""time""
""fullscreenenter"",""5"",""17904""
","
","296.30000000447035","","49","","","3000","1","","","images/earth.jpg","images/tutrocket1","images/tutrocket2","null","images/tutrocket2","","1","practice","null","1","","",""
"d3-animate-choice","104","384313","0.0-61.0-1.14","658","810","16","Male","false","false","false","true","""event"",""trial"",""time""
""fullscreenenter"",""5"",""17904""
","
","
","""event"",""trial"",""time""
""fullscreenenter"",""5"",""17904""
","
","1346.6000000014901","","48","","","3000","1","","","images/tutgreenplanet.jpg","images/tutalien2","images/tutalien1","images/tutrocket2","images/tutalien2","images/nothing.png","2","practice","true","2","common","0","2022-02-13 18:47:22.944"
"two-step-fixation","105","385317","0.0-61.0-2.14","658","810","16","Male","false","false","false","true","""event"",""trial"",""time""
""fullscreenenter"",""5"",""17904""
","
","
","""event"",""trial"",""time""
""fullscreenenter"",""5"",""17904""
","
","","images/earth.jpg","","","","","","","","","","","","","","fixation","","","","","",""
"d3-animate-choice","106","387686","0.0-61.0-0.15","658","810","16","Male","false","false","false","true","""event"",""trial"",""time""
""fullscreenenter"",""5"",""17904""
","
","
","""event"",""trial"",""time""
""fullscreenenter"",""5"",""17904""
","
","364.29999999701977","","49","","","3000","1","599.6999999955297","49","images/earth.jpg","images/tutrocket1","images/tutrocket2","null","images/tutrocket2","","1","practice","null","1","","",""
"d3-animate-choice","107","390239","0.0-61.0-1.15","658","810","16","Male","false","false","false","true","""event"",""trial"",""time""
""fullscreenenter"",""5"",""17904""
","
","
","""event"",""trial"",""time""
""fullscreenenter"",""5"",""17904""
","
","548.1999999955297","","49","","","3000","1","","","images/tutgreenplanet.jpg","images/tutalien2","images/tutalien1","images/tutrocket2","images/tutalien1","images/t.png","2","practice","true","1","common","1","2022-02-13 18:47:28.870"
"two-step-fixation","108","391244","0.0-61.0-2.15","658","810","16","Male","false","false","false","true","""event"",""trial"",""time""
""fullscreenenter"",""5"",""17904""
","
","
","""event"",""trial"",""time""
""fullscreenenter"",""5"",""17904""
","
","","images/earth.jpg","","","","","","","","","","","","","","fixation","","","","","",""
"d3-animate-choice","109","393300","0.0-61.0-0.16","658","810","16","Male","false","false","false","true","""event"",""trial"",""time""
""fullscreenenter"",""5"",""17904""
","
","
","""event"",""trial"",""time""
""fullscreenenter"",""5"",""17904""
","
","51.399999998509884","","49","","","3000","1","245","49","images/earth.jpg","images/tutrocket1","images/tutrocket2","null","images/tutrocket2","","1","practice","null","1","","",""
"d3-animate-choice","110","396676","0.0-61.0-1.16","658","810","16","Male","false","false","false","true","""event"",""trial"",""time""
""fullscreenenter"",""5"",""17904""
","
","
","""event"",""trial"",""time""
""fullscreenenter"",""5"",""17904""
","
","1373.3000000044703","","49","","","3000","1","","","images/tutgreenplanet.jpg","images/tutalien2","images/tutalien1","images/tutrocket2","images/tutalien1","images/nothing.png","2","practice","true","1","common","0","2022-02-13 18:47:35.307"
"two-step-fixation","111","397680","0.0-61.0-2.16","658","810","16","Male","false","false","false","true","""event"",""trial"",""time""
""fullscreenenter"",""5"",""17904""
","
","
","""event"",""trial"",""time""
""fullscreenenter"",""5"",""17904""
","
","","images/earth.jpg","","","","","","","","","","","","","","fixation","","","","","",""
"d3-animate-choice","112","400089","0.0-61.0-0.17","658","810","16","Male","false","false","false","true","""event"",""trial"",""time""
""fullscreenenter"",""5"",""17904""
""blur"",""113"",""400249""
""focus"",""113"",""401562""
","""event"",""trial"",""time""
""blur"",""113"",""400249""
","""event"",""trial"",""time""
""focus"",""113"",""401562""
","""event"",""trial"",""time""
""fullscreenenter"",""5"",""17904""
","
","403.6000000014901","","49","","","3000","1","","","images/earth.jpg","images/tutrocket1","images/tutrocket2","null","images/tutrocket2","","1","practice","null","1","","",""
"d3-animate-choice","113","404093","0.0-61.0-1.17","658","810","16","Male","false","false","false","true","""event"",""trial"",""time""
""fullscreenenter"",""5"",""17904""
""blur"",""113"",""400249""
""focus"",""113"",""401562""
","""event"",""trial"",""time""
""blur"",""113"",""400249""
","""event"",""trial"",""time""
""focus"",""113"",""401562""
","""event"",""trial"",""time""
""fullscreenenter"",""5"",""17904""
","
","133.70000000298023","","91","","","3000","1","2235.4000000059605","49","images/tutgreenplanet.jpg","images/tutalien2","images/tutalien1","images/tutrocket2","images/tutalien1","images/nothing.png","2","practice","true","","common","0","2022-02-13 18:47:42.724"
"two-step-fixation","114","405097","0.0-61.0-2.17","658","810","16","Male","false","false","false","true","""event"",""trial"",""time""
""fullscreenenter"",""5"",""17904""
""blur"",""113"",""400249""
""focus"",""113"",""401562""
","""event"",""trial"",""time""
""blur"",""113"",""400249""
","""event"",""trial"",""time""
""focus"",""113"",""401562""
","""event"",""trial"",""time""
""fullscreenenter"",""5"",""17904""
","
","","images/earth.jpg","","","","","","","","","","","","","","fixation","","","","","",""
"d3-animate-choice","115","407553","0.0-61.0-0.18","658","810","16","Male","false","false","false","true","""event"",""trial"",""time""
""fullscreenenter"",""5"",""17904""
""blur"",""113"",""400249""
""focus"",""113"",""401562""
","""event"",""trial"",""time""
""blur"",""113"",""400249""
","""event"",""trial"",""time""
""focus"",""113"",""401562""
","""event"",""trial"",""time""
""fullscreenenter"",""5"",""17904""
","
","451.79999999701977","","49","","","3000","1","","","images/earth.jpg","images/tutrocket1","images/tutrocket2","null","images/tutrocket2","","1","practice","null","1","","",""
"d3-animate-choice","116","410153","0.0-61.0-1.18","658","810","16","Male","false","false","false","true","""event"",""trial"",""time""
""fullscreenenter"",""5"",""17904""
""blur"",""113"",""400249""
""focus"",""113"",""401562""
","""event"",""trial"",""time""
""blur"",""113"",""400249""
","""event"",""trial"",""time""
""focus"",""113"",""401562""
","""event"",""trial"",""time""
""fullscreenenter"",""5"",""17904""
","
","595.6999999955297","","49","","","3000","1","","","images/tutgreenplanet.jpg","images/tutalien2","images/tutalien1","images/tutrocket2","images/tutalien1","images/t.png","2","practice","true","1","common","1","2022-02-13 18:47:48.785"
"two-step-fixation","117","411157","0.0-61.0-2.18","658","810","16","Male","false","false","false","true","""event"",""trial"",""time""
""fullscreenenter"",""5"",""17904""
""blur"",""113"",""400249""
""focus"",""113"",""401562""
","""event"",""trial"",""time""
""blur"",""113"",""400249""
","""event"",""trial"",""time""
""focus"",""113"",""401562""
","""event"",""trial"",""time""
""fullscreenenter"",""5"",""17904""
","
","","images/earth.jpg","","","","","","","","","","","","","","fixation","","","","","",""
"d3-animate-choice","118","413404","0.0-61.0-0.19","658","810","16","Male","false","false","false","true","""event"",""trial"",""time""
""fullscreenenter"",""5"",""17904""
""blur"",""113"",""400249""
""focus"",""113"",""401562""
","""event"",""trial"",""time""
""blur"",""113"",""400249""
","""event"",""trial"",""time""
""focus"",""113"",""401562""
","""event"",""trial"",""time""
""fullscreenenter"",""5"",""17904""
","
","241.39999999850988","","49","","","3000","1","","","images/earth.jpg","images/tutrocket1","images/tutrocket2","null","images/tutrocket2","","1","practice","null","1","","",""
"d3-animate-choice","119","415838","0.0-61.0-1.19","658","810","16","Male","false","false","false","true","""event"",""trial"",""time""
""fullscreenenter"",""5"",""17904""
""blur"",""113"",""400249""
""focus"",""113"",""401562""
","""event"",""trial"",""time""
""blur"",""113"",""400249""
","""event"",""trial"",""time""
""focus"",""113"",""401562""
","""event"",""trial"",""time""
""fullscreenenter"",""5"",""17904""
","
","428.30000000447035","","49","","","3000","1","","","images/tutgreenplanet.jpg","images/tutalien2","images/tutalien1","images/tutrocket2","images/tutalien1","images/t.png","2","practice","true","1","common","1","2022-02-13 18:47:54.470"
"two-step-fixation","120","416843","0.0-61.0-2.19","658","810","16","Male","false","false","false","true","""event"",""trial"",""time""
""fullscreenenter"",""5"",""17904""
""blur"",""113"",""400249""
""focus"",""113"",""401562""
","""event"",""trial"",""time""
""blur"",""113"",""400249""
","""event"",""trial"",""time""
""focus"",""113"",""401562""
","""event"",""trial"",""time""
""fullscreenenter"",""5"",""17904""
","
","","images/earth.jpg","","","","","","","","","","","","","","fixation","","","","","",""
"d3-instructions","121","420247","0.0-62.0","658","810","16","Male","false","false","false","true","""event"",""trial"",""time""
""fullscreenenter"",""5"",""17904""
""blur"",""113"",""400249""
""focus"",""113"",""401562""
","""event"",""trial"",""time""
""blur"",""113"",""400249""
","""event"",""trial"",""time""
""focus"",""113"",""401562""
","""event"",""trial"",""time""
""fullscreenenter"",""5"",""17904""
","
","","","","","","","","","","","","","","","","","","","","","",""
"audio-keyboard-response","122","585182","0.0-63.0","658","810","16","Male","false","false","false","true","""event"",""trial"",""time""
""fullscreenenter"",""5"",""17904""
""blur"",""113"",""400249""
""focus"",""113"",""401562""
","""event"",""trial"",""time""
""blur"",""113"",""400249""
","""event"",""trial"",""time""
""focus"",""113"",""401562""
","""event"",""trial"",""time""
""fullscreenenter"",""5"",""17904""
","
","164931","audio/instructions/treasure_feedback.wav","32","","","","","","","","","","","","","","","","","","",""
"d3-instructions","123","590705","0.0-64.0","658","810","16","Male","false","false","false","true","""event"",""trial"",""time""
""fullscreenenter"",""5"",""17904""
""blur"",""113"",""400249""
""focus"",""113"",""401562""
","""event"",""trial"",""time""
""blur"",""113"",""400249""
","""event"",""trial"",""time""
""focus"",""113"",""401562""
","""event"",""trial"",""time""
""fullscreenenter"",""5"",""17904""
","
","","","","","","","","","","","","","","","","","","","","","",""
"d3-instructions","124","594310","0.0-65.0","658","810","16","Male","false","false","false","true","""event"",""trial"",""time""
""fullscreenenter"",""5"",""17904""
""blur"",""113"",""400249""
""focus"",""113"",""401562""
","""event"",""trial"",""time""
""blur"",""113"",""400249""
","""event"",""trial"",""time""
""focus"",""113"",""401562""
","""event"",""trial"",""time""
""fullscreenenter"",""5"",""17904""
","
","","","","","","","","","","","","","","","","","","","","","",""
"d3-instructions","125","609113","0.0-66.0","658","810","16","Male","false","false","false","true","""event"",""trial"",""time""
""fullscreenenter"",""5"",""17904""
""blur"",""113"",""400249""
""focus"",""113"",""401562""
","""event"",""trial"",""time""
""blur"",""113"",""400249""
","""event"",""trial"",""time""
""focus"",""113"",""401562""
","""event"",""trial"",""time""
""fullscreenenter"",""5"",""17904""
","
","","","","","","","","","","","","","","","","","","","","","",""
"d3-instructions","126","618504","0.0-67.0","658","810","16","Male","false","false","false","true","""event"",""trial"",""time""
""fullscreenenter"",""5"",""17904""
""blur"",""113"",""400249""
""focus"",""113"",""401562""
","""event"",""trial"",""time""
""blur"",""113"",""400249""
","""event"",""trial"",""time""
""focus"",""113"",""401562""
","""event"",""trial"",""time""
""fullscreenenter"",""5"",""17904""
","
","","","","","","","","","","","","","","","","","","","","","",""
"d3-instructions","127","621360","0.0-68.0","658","810","16","Male","false","false","false","true","""event"",""trial"",""time""
""fullscreenenter"",""5"",""17904""
""blur"",""113"",""400249""
""focus"",""113"",""401562""
","""event"",""trial"",""time""
""blur"",""113"",""400249""
","""event"",""trial"",""time""
""focus"",""113"",""401562""
","""event"",""trial"",""time""
""fullscreenenter"",""5"",""17904""
","
","","","","","","","","","","","","","","","","","","","","","",""
"instructions-quiz","128","623398","0.0-69.0","658","810","16","Male","false","false","false","true","""event"",""trial"",""time""
""fullscreenenter"",""5"",""17904""
""blur"",""113"",""400249""
""focus"",""113"",""401562""
","""event"",""trial"",""time""
""blur"",""113"",""400249""
","""event"",""trial"",""time""
""focus"",""113"",""401562""
","""event"",""trial"",""time""
""fullscreenenter"",""5"",""17904""
","
","2034","audio/quiz/Q1_Prompt.wav","","1","","","","","","","","","","","","","","","","","",""
"audio-keyboard-response","129","624540","0.0-70.0","658","810","16","Male","false","false","false","true","""event"",""trial"",""time""
""fullscreenenter"",""5"",""17904""
""blur"",""113"",""400249""
""focus"",""113"",""401562""
","""event"",""trial"",""time""
""blur"",""113"",""400249""
","""event"",""trial"",""time""
""focus"",""113"",""401562""
","""event"",""trial"",""time""
""fullscreenenter"",""5"",""17904""
","
","1141","audio/quiz/Q1_Correct.wav","32","","","","","","","","","","","","","","","","","","",""
"instructions-quiz","130","628447","0.0-71.0","658","810","16","Male","false","false","false","true","""event"",""trial"",""time""
""fullscreenenter"",""5"",""17904""
""blur"",""113"",""400249""
""focus"",""113"",""401562""
","""event"",""trial"",""time""
""blur"",""113"",""400249""
","""event"",""trial"",""time""
""focus"",""113"",""401562""
","""event"",""trial"",""time""
""fullscreenenter"",""5"",""17904""
","
","3903.89999999851","audio/quiz/Q2_Prompt.wav","","0","","","","","","","","","","","","","","","","","",""
"audio-keyboard-response","131","629979","0.0-72.0","658","810","16","Male","false","false","false","true","""event"",""trial"",""time""
""fullscreenenter"",""5"",""17904""
""blur"",""113"",""400249""
""focus"",""113"",""401562""
","""event"",""trial"",""time""
""blur"",""113"",""400249""
","""event"",""trial"",""time""
""focus"",""113"",""401562""
","""event"",""trial"",""time""
""fullscreenenter"",""5"",""17904""
","
","1531","audio/quiz/Q2_Correct.wav","32","","","","","","","","","","","","","","","","","","",""
"instructions-quiz","132","632159","0.0-73.0","658","810","16","Male","false","false","false","true","""event"",""trial"",""time""
""fullscreenenter"",""5"",""17904""
""blur"",""113"",""400249""
""focus"",""113"",""401562""
","""event"",""trial"",""time""
""blur"",""113"",""400249""
","""event"",""trial"",""time""
""focus"",""113"",""401562""
","""event"",""trial"",""time""
""fullscreenenter"",""5"",""17904""
","
","2177.89999999851","audio/quiz/Q3_Prompt.wav","","1","","","","","","","","","","","","","","","","","",""
"audio-keyboard-response","133","632816","0.0-74.0","658","810","16","Male","false","false","false","true","""event"",""trial"",""time""
""fullscreenenter"",""5"",""17904""
""blur"",""113"",""400249""
""focus"",""113"",""401562""
","""event"",""trial"",""time""
""blur"",""113"",""400249""
","""event"",""trial"",""time""
""focus"",""113"",""401562""
","""event"",""trial"",""time""
""fullscreenenter"",""5"",""17904""
","
","661","audio/quiz/Q3_Correct.wav","32","","","","","","","","","","","","","","","","","","",""
"d3-instructions","134","635470","0.0-75.0","658","810","16","Male","false","false","false","true","""event"",""trial"",""time""
""fullscreenenter"",""5"",""17904""
""blur"",""113"",""400249""
""focus"",""113"",""401562""
","""event"",""trial"",""time""
""blur"",""113"",""400249""
","""event"",""trial"",""time""
""focus"",""113"",""401562""
","""event"",""trial"",""time""
""fullscreenenter"",""5"",""17904""
","
","","","","","","","","","","","","","","","","","","","","","",""
"d3-animate-choice","135","638282","0.0-76.0-0.0","658","810","16","Male","false","false","false","true","""event"",""trial"",""time""
""fullscreenenter"",""5"",""17904""
""blur"",""113"",""400249""
""focus"",""113"",""401562""
","""event"",""trial"",""time""
""blur"",""113"",""400249""
","""event"",""trial"",""time""
""focus"",""113"",""401562""
","""event"",""trial"",""time""
""fullscreenenter"",""5"",""17904""
","
","806","","49","","","3000","1","","","images/earth.jpg","images/rocket1","images/rocket2","null","images/rocket2","","1","real","null","1","","",""
"d3-animate-choice","136","641114","0.0-76.0-1.0","658","810","16","Male","false","false","false","true","""event"",""trial"",""time""
""fullscreenenter"",""5"",""17904""
""blur"",""113"",""400249""
""focus"",""113"",""401562""
","""event"",""trial"",""time""
""blur"",""113"",""400249""
","""event"",""trial"",""time""
""focus"",""113"",""401562""
","""event"",""trial"",""time""
""fullscreenenter"",""5"",""17904""
","
","827.8000000044703","","49","","","3000","1","","","images/redplanet1.jpg","images/alien2","images/alien1","images/rocket2","images/alien1","images/nothing.png","2","real","true","1","common","0","2022-02-13 18:51:39.745"
"two-step-fixation","137","642119","0.0-76.0-2.0","658","810","16","Male","false","false","false","true","""event"",""trial"",""time""
""fullscreenenter"",""5"",""17904""
""blur"",""113"",""400249""
""focus"",""113"",""401562""
","""event"",""trial"",""time""
""blur"",""113"",""400249""
","""event"",""trial"",""time""
""focus"",""113"",""401562""
","""event"",""trial"",""time""
""fullscreenenter"",""5"",""17904""
","
","","images/earth.jpg","","","","","","","","","","","","","","fixation","","","","","",""
"d3-animate-choice","138","644212","0.0-76.0-0.1","658","810","16","Male","false","false","false","true","""event"",""trial"",""time""
""fullscreenenter"",""5"",""17904""
""blur"",""113"",""400249""
""focus"",""113"",""401562""
","""event"",""trial"",""time""
""blur"",""113"",""400249""
","""event"",""trial"",""time""
""focus"",""113"",""401562""
","""event"",""trial"",""time""
""fullscreenenter"",""5"",""17904""
","
","78.10000000149012","","49","","","3000","1","","","images/earth.jpg","images/rocket1","images/rocket2","null","images/rocket2","","1","real","null","1","","",""
"d3-animate-choice","139","646683","0.0-76.0-1.1","658","810","16","Male","false","false","false","true","""event"",""trial"",""time""
""fullscreenenter"",""5"",""17904""
""blur"",""113"",""400249""
""focus"",""113"",""401562""
","""event"",""trial"",""time""
""blur"",""113"",""400249""
","""event"",""trial"",""time""
""focus"",""113"",""401562""
","""event"",""trial"",""time""
""fullscreenenter"",""5"",""17904""
","
","466.30000000447035","","49","","","3000","1","","","images/redplanet1.jpg","images/alien2","images/alien1","images/rocket2","images/alien1","images/nothing.png","2","real","true","1","common","0","2022-02-13 18:51:45.314"
"two-step-fixation","140","647687","0.0-76.0-2.1","658","810","16","Male","false","false","false","true","""event"",""trial"",""time""
""fullscreenenter"",""5"",""17904""
""blur"",""113"",""400249""
""focus"",""113"",""401562""
","""event"",""trial"",""time""
""blur"",""113"",""400249""
","""event"",""trial"",""time""
""focus"",""113"",""401562""
","""event"",""trial"",""time""
""fullscreenenter"",""5"",""17904""
","
","","images/earth.jpg","","","","","","","","","","","","","","fixation","","","","","",""
"d3-animate-choice","141","649761","0.0-76.0-0.2","658","810","16","Male","false","false","false","true","""event"",""trial"",""time""
""fullscreenenter"",""5"",""17904""
""blur"",""113"",""400249""
""focus"",""113"",""401562""
","""event"",""trial"",""time""
""blur"",""113"",""400249""
","""event"",""trial"",""time""
""focus"",""113"",""401562""
","""event"",""trial"",""time""
""fullscreenenter"",""5"",""17904""
","
","69.10000000149012","","49","","","3000","1","","","images/earth.jpg","images/rocket1","images/rocket2","null","images/rocket2","","1","real","null","1","","",""
"d3-animate-choice","142","652043","0.0-76.0-1.2","658","810","16","Male","false","false","false","true","""event"",""trial"",""time""
""fullscreenenter"",""5"",""17904""
""blur"",""113"",""400249""
""focus"",""113"",""401562""
","""event"",""trial"",""time""
""blur"",""113"",""400249""
","""event"",""trial"",""time""
""focus"",""113"",""401562""
","""event"",""trial"",""time""
""fullscreenenter"",""5"",""17904""
","
","277.19999999552965","","48","","","3000","1","","","images/redplanet1.jpg","images/alien2","images/alien1","images/rocket2","images/alien2","images/t.png","2","real","true","2","common","1","2022-02-13 18:51:50.674"
"two-step-fixation","143","653047","0.0-76.0-2.2","658","810","16","Male","false","false","false","true","""event"",""trial"",""time""
""fullscreenenter"",""5"",""17904""
""blur"",""113"",""400249""
""focus"",""113"",""401562""
","""event"",""trial"",""time""
""blur"",""113"",""400249""
","""event"",""trial"",""time""
""focus"",""113"",""401562""
","""event"",""trial"",""time""
""fullscreenenter"",""5"",""17904""
","
","","images/earth.jpg","","","","","","","","","","","","","","fixation","","","","","",""
"d3-animate-choice","144","655299","0.0-76.0-0.3","658","810","16","Male","false","false","false","true","""event"",""trial"",""time""
""fullscreenenter"",""5"",""17904""
""blur"",""113"",""400249""
""focus"",""113"",""401562""
","""event"",""trial"",""time""
""blur"",""113"",""400249""
","""event"",""trial"",""time""
""focus"",""113"",""401562""
","""event"",""trial"",""time""
""fullscreenenter"",""5"",""17904""
","
","246.79999999701977","","49","","","3000","1","","","images/earth.jpg","images/rocket1","images/rocket2","null","images/rocket2","","1","real","null","1","","",""
"d3-animate-choice","145","657826","0.0-76.0-1.3","658","810","16","Male","false","false","false","true","""event"",""trial"",""time""
""fullscreenenter"",""5"",""17904""
""blur"",""113"",""400249""
""focus"",""113"",""401562""
","""event"",""trial"",""time""
""blur"",""113"",""400249""
","""event"",""trial"",""time""
""focus"",""113"",""401562""
","""event"",""trial"",""time""
""fullscreenenter"",""5"",""17904""
","
","522.5","","48","","","3000","1","","","images/redplanet1.jpg","images/alien2","images/alien1","images/rocket2","images/alien2","images/t.png","2","real","true","2","common","1","2022-02-13 18:51:56.457"
"two-step-fixation","146","658830","0.0-76.0-2.3","658","810","16","Male","false","false","false","true","""event"",""trial"",""time""
""fullscreenenter"",""5"",""17904""
""blur"",""113"",""400249""
""focus"",""113"",""401562""
","""event"",""trial"",""time""
""blur"",""113"",""400249""
","""event"",""trial"",""time""
""focus"",""113"",""401562""
","""event"",""trial"",""time""
""fullscreenenter"",""5"",""17904""
","
","","images/earth.jpg","","","","","","","","","","","","","","fixation","","","","","",""
"d3-animate-choice","147","661106","0.0-76.0-0.4","658","810","16","Male","false","false","false","true","""event"",""trial"",""time""
""fullscreenenter"",""5"",""17904""
""blur"",""113"",""400249""
""focus"",""113"",""401562""
","""event"",""trial"",""time""
""blur"",""113"",""400249""
","""event"",""trial"",""time""
""focus"",""113"",""401562""
","""event"",""trial"",""time""
""fullscreenenter"",""5"",""17904""
","
","271.3999999985099","","49","","","3000","1","","","images/earth.jpg","images/rocket1","images/rocket2","null","images/rocket2","","1","real","null","1","","",""
"d3-animate-choice","148","663405","0.0-76.0-1.4","658","810","16","Male","false","false","false","true","""event"",""trial"",""time""
""fullscreenenter"",""5"",""17904""
""blur"",""113"",""400249""
""focus"",""113"",""401562""
","""event"",""trial"",""time""
""blur"",""113"",""400249""
","""event"",""trial"",""time""
""focus"",""113"",""401562""
","""event"",""trial"",""time""
""fullscreenenter"",""5"",""17904""
","
","293.3999999985099","","48","","","3000","1","","","images/redplanet1.jpg","images/alien2","images/alien1","images/rocket2","images/alien2","images/nothing.png","2","real","true","2","common","0","2022-02-13 18:52:02.036"
"two-step-fixation","149","664409","0.0-76.0-2.4","658","810","16","Male","false","false","false","true","""event"",""trial"",""time""
""fullscreenenter"",""5"",""17904""
""blur"",""113"",""400249""
""focus"",""113"",""401562""
","""event"",""trial"",""time""
""blur"",""113"",""400249""
","""event"",""trial"",""time""
""focus"",""113"",""401562""
","""event"",""trial"",""time""
""fullscreenenter"",""5"",""17904""
","
","","images/earth.jpg","","","","","","","","","","","","","","fixation","","","","","",""
"d3-animate-choice","150","666694","0.0-76.0-0.5","658","810","16","Male","false","false","false","true","""event"",""trial"",""time""
""fullscreenenter"",""5"",""17904""
""blur"",""113"",""400249""
""focus"",""113"",""401562""
","""event"",""trial"",""time""
""blur"",""113"",""400249""
","""event"",""trial"",""time""
""focus"",""113"",""401562""
","""event"",""trial"",""time""
""fullscreenenter"",""5"",""17904""
","
","280.59999999403954","","49","","","3000","1","","","images/earth.jpg","images/rocket1","images/rocket2","null","images/rocket2","","1","real","null","1","","",""
"d3-animate-choice","151","669036","0.0-76.0-1.5","658","810","16","Male","false","false","false","true","""event"",""trial"",""time""
""fullscreenenter"",""5"",""17904""
""blur"",""113"",""400249""
""focus"",""113"",""401562""
","""event"",""trial"",""time""
""blur"",""113"",""400249""
","""event"",""trial"",""time""
""focus"",""113"",""401562""
","""event"",""trial"",""time""
""fullscreenenter"",""5"",""17904""
","
","338.29999999701977","","48","","","3000","1","","","images/purpleplanet.jpg","images/alien4","images/alien3","images/rocket2","images/alien4","images/t.png","2","real","false","2","rare","1","2022-02-13 18:52:07.667"
"two-step-fixation","152","670040","0.0-76.0-2.5","658","810","16","Male","false","false","false","true","""event"",""trial"",""time""
""fullscreenenter"",""5"",""17904""
""blur"",""113"",""400249""
""focus"",""113"",""401562""
","""event"",""trial"",""time""
""blur"",""113"",""400249""
","""event"",""trial"",""time""
""focus"",""113"",""401562""
","""event"",""trial"",""time""
""fullscreenenter"",""5"",""17904""
","
","","images/earth.jpg","","","","","","","","","","","","","","fixation","","","","","",""
"d3-animate-choice","153","672156","0.0-76.0-0.6","658","810","16","Male","false","false","false","true","""event"",""trial"",""time""
""fullscreenenter"",""5"",""17904""
""blur"",""113"",""400249""
""focus"",""113"",""401562""
","""event"",""trial"",""time""
""blur"",""113"",""400249""
","""event"",""trial"",""time""
""focus"",""113"",""401562""
","""event"",""trial"",""time""
""fullscreenenter"",""5"",""17904""
","
","111.19999999552965","","48","","","3000","1","","","images/earth.jpg","images/rocket1","images/rocket2","null","images/rocket1","","1","real","null","2","","",""
"d3-animate-choice","154","674624","0.0-76.0-1.6","658","810","16","Male","false","false","false","true","""event"",""trial"",""time""
""fullscreenenter"",""5"",""17904""
""blur"",""113"",""400249""
""focus"",""113"",""401562""
","""event"",""trial"",""time""
""blur"",""113"",""400249""
","""event"",""trial"",""time""
""focus"",""113"",""401562""
","""event"",""trial"",""time""
""fullscreenenter"",""5"",""17904""
","
","463.3999999985099","","48","","","3000","1","","","images/redplanet1.jpg","images/alien2","images/alien1","images/rocket1","images/alien2","images/nothing.png","2","real","false","2","rare","0","2022-02-13 18:52:13.255"
"two-step-fixation","155","675628","0.0-76.0-2.6","658","810","16","Male","false","false","false","true","""event"",""trial"",""time""
""fullscreenenter"",""5"",""17904""
""blur"",""113"",""400249""
""focus"",""113"",""401562""
","""event"",""trial"",""time""
""blur"",""113"",""400249""
","""event"",""trial"",""time""
""focus"",""113"",""401562""
","""event"",""trial"",""time""
""fullscreenenter"",""5"",""17904""
","
","","images/earth.jpg","","","","","","","","","","","","","","fixation","","","","","",""
"d3-animate-choice","156","677856","0.0-76.0-0.7","658","810","16","Male","false","false","false","true","""event"",""trial"",""time""
""fullscreenenter"",""5"",""17904""
""blur"",""113"",""400249""
""focus"",""113"",""401562""
","""event"",""trial"",""time""
""blur"",""113"",""400249""
","""event"",""trial"",""time""
""focus"",""113"",""401562""
","""event"",""trial"",""time""
""fullscreenenter"",""5"",""17904""
","
","223.5","","48","","","3000","1","","","images/earth.jpg","images/rocket1","images/rocket2","null","images/rocket1","","1","real","null","2","","",""
"d3-animate-choice","157","680209","0.0-76.0-1.7","658","810","16","Male","false","false","false","true","""event"",""trial"",""time""
""fullscreenenter"",""5"",""17904""
""blur"",""113"",""400249""
""focus"",""113"",""401562""
","""event"",""trial"",""time""
""blur"",""113"",""400249""
","""event"",""trial"",""time""
""focus"",""113"",""401562""
","""event"",""trial"",""time""
""fullscreenenter"",""5"",""17904""
","
","348.70000000298023","","48","","","3000","1","","","images/purpleplanet.jpg","images/alien4","images/alien3","images/rocket1","images/alien4","images/t.png","2","real","true","2","common","1","2022-02-13 18:52:18.840"
"two-step-fixation","158","681214","0.0-76.0-2.7","658","810","16","Male","false","false","false","true","""event"",""trial"",""time""
""fullscreenenter"",""5"",""17904""
""blur"",""113"",""400249""
""focus"",""113"",""401562""
","""event"",""trial"",""time""
""blur"",""113"",""400249""
","""event"",""trial"",""time""
""focus"",""113"",""401562""
","""event"",""trial"",""time""
""fullscreenenter"",""5"",""17904""
","
","","images/earth.jpg","","","","","","","","","","","","","","fixation","","","","","",""
"d3-animate-choice","159","683416","0.0-76.0-0.8","658","810","16","Male","false","false","false","true","""event"",""trial"",""time""
""fullscreenenter"",""5"",""17904""
""blur"",""113"",""400249""
""focus"",""113"",""401562""
","""event"",""trial"",""time""
""blur"",""113"",""400249""
","""event"",""trial"",""time""
""focus"",""113"",""401562""
","""event"",""trial"",""time""
""fullscreenenter"",""5"",""17904""
","
","196.20000000298023","","48","","","3000","1","","","images/earth.jpg","images/rocket1","images/rocket2","null","images/rocket1","","1","real","null","2","","",""
"d3-animate-choice","160","685819","0.0-76.0-1.8","658","810","16","Male","false","false","false","true","""event"",""trial"",""time""
""fullscreenenter"",""5"",""17904""
""blur"",""113"",""400249""
""focus"",""113"",""401562""
","""event"",""trial"",""time""
""blur"",""113"",""400249""
","""event"",""trial"",""time""
""focus"",""113"",""401562""
","""event"",""trial"",""time""
""fullscreenenter"",""5"",""17904""
","
","398.6000000014901","","49","","","3000","1","","","images/redplanet1.jpg","images/alien2","images/alien1","images/rocket1","images/alien1","images/nothing.png","2","real","false","1","rare","0","2022-02-13 18:52:24.450"
"two-step-fixation","161","686823","0.0-76.0-2.8","658","810","16","Male","false","false","false","true","""event"",""trial"",""time""
""fullscreenenter"",""5"",""17904""
""blur"",""113"",""400249""
""focus"",""113"",""401562""
","""event"",""trial"",""time""
""blur"",""113"",""400249""
","""event"",""trial"",""time""
""focus"",""113"",""401562""
","""event"",""trial"",""time""
""fullscreenenter"",""5"",""17904""
","
","","images/earth.jpg","","","","","","","","","","","","","","fixation","","","","","",""
"d3-animate-choice","162","688910","0.0-76.0-0.9","658","810","16","Male","false","false","false","true","""event"",""trial"",""time""
""fullscreenenter"",""5"",""17904""
""blur"",""113"",""400249""
""focus"",""113"",""401562""
","""event"",""trial"",""time""
""blur"",""113"",""400249""
","""event"",""trial"",""time""
""focus"",""113"",""401562""
","""event"",""trial"",""time""
""fullscreenenter"",""5"",""17904""
","
","82.30000000447035","","48","","","3000","1","","","images/earth.jpg","images/rocket1","images/rocket2","null","images/rocket1","","1","real","null","2","","",""
"d3-animate-choice","163","691357","0.0-76.0-1.9","658","810","16","Male","false","false","false","true","""event"",""trial"",""time""
""fullscreenenter"",""5"",""17904""
""blur"",""113"",""400249""
""focus"",""113"",""401562""
","""event"",""trial"",""time""
""blur"",""113"",""400249""
","""event"",""trial"",""time""
""focus"",""113"",""401562""
","""event"",""trial"",""time""
""fullscreenenter"",""5"",""17904""
","
","438.79999999701977","","48","","","3000","1","","","images/purpleplanet.jpg","images/alien4","images/alien3","images/rocket1","images/alien4","images/t.png","2","real","true","2","common","1","2022-02-13 18:52:29.988"
"two-step-fixation","164","692362","0.0-76.0-2.9","658","810","16","Male","false","false","false","true","""event"",""trial"",""time""
""fullscreenenter"",""5"",""17904""
""blur"",""113"",""400249""
""focus"",""113"",""401562""
","""event"",""trial"",""time""
""blur"",""113"",""400249""
","""event"",""trial"",""time""
""focus"",""113"",""401562""
","""event"",""trial"",""time""
""fullscreenenter"",""5"",""17904""
","
","","images/earth.jpg","","","","","","","","","","","","","","fixation","","","","","",""
"d3-animate-choice","165","694637","0.0-76.0-0.10","658","810","16","Male","false","false","false","true","""event"",""trial"",""time""
""fullscreenenter"",""5"",""17904""
""blur"",""113"",""400249""
""focus"",""113"",""401562""
","""event"",""trial"",""time""
""blur"",""113"",""400249""
","""event"",""trial"",""time""
""focus"",""113"",""401562""
","""event"",""trial"",""time""
""fullscreenenter"",""5"",""17904""
","
","269.59999999403954","","48","","","3000","1","1909.8999999985099","48","images/earth.jpg","images/rocket1","images/rocket2","null","images/rocket1","","1","real","null","2","","",""
"d3-animate-choice","166","696857","0.0-76.0-1.10","658","810","16","Male","false","false","false","true","""event"",""trial"",""time""
""fullscreenenter"",""5"",""17904""
""blur"",""113"",""400249""
""focus"",""113"",""401562""
","""event"",""trial"",""time""
""blur"",""113"",""400249""
","""event"",""trial"",""time""
""focus"",""113"",""401562""
","""event"",""trial"",""time""
""fullscreenenter"",""5"",""17904""
","
","215.69999999552965","","48","","","3000","1","","","images/purpleplanet.jpg","images/alien4","images/alien3","images/rocket1","images/alien4","images/t.png","2","real","true","2","common","1","2022-02-13 18:52:35.488"
"two-step-fixation","167","697862","0.0-76.0-2.10","658","810","16","Male","false","false","false","true","""event"",""trial"",""time""
""fullscreenenter"",""5"",""17904""
""blur"",""113"",""400249""
""focus"",""113"",""401562""
","""event"",""trial"",""time""
""blur"",""113"",""400249""
","""event"",""trial"",""time""
""focus"",""113"",""401562""
","""event"",""trial"",""time""
""fullscreenenter"",""5"",""17904""
","
","","images/earth.jpg","","","","","","","","","","","","","","fixation","","","","","",""
"d3-animate-choice","168","700290","0.0-76.0-0.11","658","810","16","Male","false","false","false","true","""event"",""trial"",""time""
""fullscreenenter"",""5"",""17904""
""blur"",""113"",""400249""
""focus"",""113"",""401562""
","""event"",""trial"",""time""
""blur"",""113"",""400249""
","""event"",""trial"",""time""
""focus"",""113"",""401562""
","""event"",""trial"",""time""
""fullscreenenter"",""5"",""17904""
","
","423.20000000298023","","48","","","3000","1","","","images/earth.jpg","images/rocket1","images/rocket2","null","images/rocket1","","1","real","null","2","","",""
"d3-animate-choice","169","703157","0.0-76.0-1.11","658","810","16","Male","false","false","false","true","""event"",""trial"",""time""
""fullscreenenter"",""5"",""17904""
""blur"",""113"",""400249""
""focus"",""113"",""401562""
","""event"",""trial"",""time""
""blur"",""113"",""400249""
","""event"",""trial"",""time""
""focus"",""113"",""401562""
","""event"",""trial"",""time""
""fullscreenenter"",""5"",""17904""
","
","862.5999999940395","","48","","","3000","1","","","images/redplanet1.jpg","images/alien2","images/alien1","images/rocket1","images/alien2","images/nothing.png","2","real","false","2","rare","0","2022-02-13 18:52:41.788"
"two-step-fixation","170","704161","0.0-76.0-2.11","658","810","16","Male","false","false","false","true","""event"",""trial"",""time""
""fullscreenenter"",""5"",""17904""
""blur"",""113"",""400249""
""focus"",""113"",""401562""
","""event"",""trial"",""time""
""blur"",""113"",""400249""
","""event"",""trial"",""time""
""focus"",""113"",""401562""
","""event"",""trial"",""time""
""fullscreenenter"",""5"",""17904""
","
","","images/earth.jpg","","","","","","","","","","","","","","fixation","","","","","",""
"d3-animate-choice","171","706390","0.0-76.0-0.12","658","810","16","Male","false","false","false","true","""event"",""trial"",""time""
""fullscreenenter"",""5"",""17904""
""blur"",""113"",""400249""
""focus"",""113"",""401562""
","""event"",""trial"",""time""
""blur"",""113"",""400249""
","""event"",""trial"",""time""
""focus"",""113"",""401562""
","""event"",""trial"",""time""
""fullscreenenter"",""5"",""17904""
","
","223.79999999701977","","48","","","3000","1","","","images/earth.jpg","images/rocket1","images/rocket2","null","images/rocket1","","1","real","null","2","","",""
"d3-animate-choice","172","708673","0.0-76.0-1.12","658","810","16","Male","false","false","false","true","""event"",""trial"",""time""
""fullscreenenter"",""5"",""17904""
""blur"",""113"",""400249""
""focus"",""113"",""401562""
","""event"",""trial"",""time""
""blur"",""113"",""400249""
","""event"",""trial"",""time""
""focus"",""113"",""401562""
","""event"",""trial"",""time""
""fullscreenenter"",""5"",""17904""
","
","278.19999999552965","","48","","","3000","1","","","images/redplanet1.jpg","images/alien2","images/alien1","images/rocket1","images/alien2","images/t.png","2","real","false","2","rare","1","2022-02-13 18:52:47.304"
"two-step-fixation","173","709677","0.0-76.0-2.12","658","810","16","Male","false","false","false","true","""event"",""trial"",""time""
""fullscreenenter"",""5"",""17904""
""blur"",""113"",""400249""
""focus"",""113"",""401562""
","""event"",""trial"",""time""
""blur"",""113"",""400249""
","""event"",""trial"",""time""
""focus"",""113"",""401562""
","""event"",""trial"",""time""
""fullscreenenter"",""5"",""17904""
","
","","images/earth.jpg","","","","","","","","","","","","","","fixation","","","","","",""
"d3-animate-choice","174","712008","0.0-76.0-0.13","658","810","16","Male","false","false","false","true","""event"",""trial"",""time""
""fullscreenenter"",""5"",""17904""
""blur"",""113"",""400249""
""focus"",""113"",""401562""
","""event"",""trial"",""time""
""blur"",""113"",""400249""
","""event"",""trial"",""time""
""focus"",""113"",""401562""
","""event"",""trial"",""time""
""fullscreenenter"",""5"",""17904""
","
","325.5","","48","","","3000","1","","","images/earth.jpg","images/rocket1","images/rocket2","null","images/rocket1","","1","real","null","2","","",""
"d3-animate-choice","175","714260","0.0-76.0-1.13","658","810","16","Male","false","false","false","true","""event"",""trial"",""time""
""fullscreenenter"",""5"",""17904""
""blur"",""113"",""400249""
""focus"",""113"",""401562""
","""event"",""trial"",""time""
""blur"",""113"",""400249""
","""event"",""trial"",""time""
""focus"",""113"",""401562""
","""event"",""trial"",""time""
""fullscreenenter"",""5"",""17904""
","
","247.5","","49","","","3000","1","","","images/purpleplanet.jpg","images/alien4","images/alien3","images/rocket1","images/alien3","images/nothing.png","2","real","true","1","common","0","2022-02-13 18:52:52.891"
"two-step-fixation","176","715265","0.0-76.0-2.13","658","810","16","Male","false","false","false","true","""event"",""trial"",""time""
""fullscreenenter"",""5"",""17904""
""blur"",""113"",""400249""
""focus"",""113"",""401562""
","""event"",""trial"",""time""
""blur"",""113"",""400249""
","""event"",""trial"",""time""
""focus"",""113"",""401562""
","""event"",""trial"",""time""
""fullscreenenter"",""5"",""17904""
","
","","images/earth.jpg","","","","","","","","","","","","","","fixation","","","","","",""
"d3-animate-choice","177","717563","0.0-76.0-0.14","658","810","16","Male","false","false","false","true","""event"",""trial"",""time""
""fullscreenenter"",""5"",""17904""
""blur"",""113"",""400249""
""focus"",""113"",""401562""
","""event"",""trial"",""time""
""blur"",""113"",""400249""
","""event"",""trial"",""time""
""focus"",""113"",""401562""
","""event"",""trial"",""time""
""fullscreenenter"",""5"",""17904""
","
","295","","48","","","3000","1","","","images/earth.jpg","images/rocket1","images/rocket2","null","images/rocket1","","1","real","null","2","","",""
"d3-animate-choice","178","719869","0.0-76.0-1.14","658","810","16","Male","false","false","false","true","""event"",""trial"",""time""
""fullscreenenter"",""5"",""17904""
""blur"",""113"",""400249""
""focus"",""113"",""401562""
","""event"",""trial"",""time""
""blur"",""113"",""400249""
","""event"",""trial"",""time""
""focus"",""113"",""401562""
","""event"",""trial"",""time""
""fullscreenenter"",""5"",""17904""
","
","302.5","","49","","","3000","1","","","images/purpleplanet.jpg","images/alien4","images/alien3","images/rocket1","images/alien3","images/nothing.png","2","real","true","1","common","0","2022-02-13 18:52:58.500"
"two-step-fixation","179","720873","0.0-76.0-2.14","658","810","16","Male","false","false","false","true","""event"",""trial"",""time""
""fullscreenenter"",""5"",""17904""
""blur"",""113"",""400249""
""focus"",""113"",""401562""
","""event"",""trial"",""time""
""blur"",""113"",""400249""
","""event"",""trial"",""time""
""focus"",""113"",""401562""
","""event"",""trial"",""time""
""fullscreenenter"",""5"",""17904""
","
","","images/earth.jpg","","","","","","","","","","","","","","fixation","","","","","",""
"d3-animate-choice","180","723491","0.0-76.0-0.15","658","810","16","Male","false","false","false","true","""event"",""trial"",""time""
""fullscreenenter"",""5"",""17904""
""blur"",""113"",""400249""
""focus"",""113"",""401562""
","""event"",""trial"",""time""
""blur"",""113"",""400249""
","""event"",""trial"",""time""
""focus"",""113"",""401562""
","""event"",""trial"",""time""
""fullscreenenter"",""5"",""17904""
","
","612.6000000014901","","48","","","3000","1","","","images/earth.jpg","images/rocket1","images/rocket2","null","images/rocket1","","1","real","null","2","","",""
"d3-animate-choice","181","725776","0.0-76.0-1.15","658","810","16","Male","false","false","false","true","""event"",""trial"",""time""
""fullscreenenter"",""5"",""17904""
""blur"",""113"",""400249""
""focus"",""113"",""401562""
","""event"",""trial"",""time""
""blur"",""113"",""400249""
","""event"",""trial"",""time""
""focus"",""113"",""401562""
","""event"",""trial"",""time""
""fullscreenenter"",""5"",""17904""
","
","278.1000000014901","","48","","","3000","1","","","images/purpleplanet.jpg","images/alien4","images/alien3","images/rocket1","images/alien4","images/t.png","2","real","true","2","common","1","2022-02-13 18:53:04.408"
"two-step-fixation","182","726782","0.0-76.0-2.15","658","810","16","Male","false","false","false","true","""event"",""trial"",""time""
""fullscreenenter"",""5"",""17904""
""blur"",""113"",""400249""
""focus"",""113"",""401562""
","""event"",""trial"",""time""
""blur"",""113"",""400249""
","""event"",""trial"",""time""
""focus"",""113"",""401562""
","""event"",""trial"",""time""
""fullscreenenter"",""5"",""17904""
","
","","images/earth.jpg","","","","","","","","","","","","","","fixation","","","","","",""
"d3-animate-choice","183","729390","0.0-76.0-0.16","658","810","16","Male","false","false","false","true","""event"",""trial"",""time""
""fullscreenenter"",""5"",""17904""
""blur"",""113"",""400249""
""focus"",""113"",""401562""
","""event"",""trial"",""time""
""blur"",""113"",""400249""
","""event"",""trial"",""time""
""focus"",""113"",""401562""
","""event"",""trial"",""time""
""fullscreenenter"",""5"",""17904""
","
","603.6000000014901","","48","","","3000","1","","","images/earth.jpg","images/rocket1","images/rocket2","null","images/rocket1","","1","real","null","2","","",""
"d3-animate-choice","184","731731","0.0-76.0-1.16","658","810","16","Male","false","false","false","true","""event"",""trial"",""time""
""fullscreenenter"",""5"",""17904""
""blur"",""113"",""400249""
""focus"",""113"",""401562""
","""event"",""trial"",""time""
""blur"",""113"",""400249""
","""event"",""trial"",""time""
""focus"",""113"",""401562""
","""event"",""trial"",""time""
""fullscreenenter"",""5"",""17904""
","
","337.59999999403954","","48","","","3000","1","1686.8999999985099","48","images/purpleplanet.jpg","images/alien4","images/alien3","images/rocket1","images/alien4","images/t.png","2","real","true","2","common","1","2022-02-13 18:53:10.362"
"two-step-fixation","185","732736","0.0-76.0-2.16","658","810","16","Male","false","false","false","true","""event"",""trial"",""time""
""fullscreenenter"",""5"",""17904""
""blur"",""113"",""400249""
""focus"",""113"",""401562""
","""event"",""trial"",""time""
""blur"",""113"",""400249""
","""event"",""trial"",""time""
""focus"",""113"",""401562""
","""event"",""trial"",""time""
""fullscreenenter"",""5"",""17904""
","
","","images/earth.jpg","","","","","","","","","","","","","","fixation","","","","","",""
"d3-animate-choice","186","735180","0.0-76.0-0.17","658","810","16","Male","false","false","false","true","""event"",""trial"",""time""
""fullscreenenter"",""5"",""17904""
""blur"",""113"",""400249""
""focus"",""113"",""401562""
","""event"",""trial"",""time""
""blur"",""113"",""400249""
","""event"",""trial"",""time""
""focus"",""113"",""401562""
","""event"",""trial"",""time""
""fullscreenenter"",""5"",""17904""
","
","438.5","","48","","","3000","1","","","images/earth.jpg","images/rocket1","images/rocket2","null","images/rocket1","","1","real","null","2","","",""
"d3-animate-choice","187","737296","0.0-76.0-1.17","658","810","16","Male","false","false","false","true","""event"",""trial"",""time""
""fullscreenenter"",""5"",""17904""
""blur"",""113"",""400249""
""focus"",""113"",""401562""
","""event"",""trial"",""time""
""blur"",""113"",""400249""
","""event"",""trial"",""time""
""focus"",""113"",""401562""
","""event"",""trial"",""time""
""fullscreenenter"",""5"",""17904""
","
","112.79999999701977","","48","","","3000","1","","","images/purpleplanet.jpg","images/alien4","images/alien3","images/rocket1","images/alien4","images/t.png","2","real","true","2","common","1","2022-02-13 18:53:15.927"
"two-step-fixation","188","738299","0.0-76.0-2.17","658","810","16","Male","false","false","false","true","""event"",""trial"",""time""
""fullscreenenter"",""5"",""17904""
""blur"",""113"",""400249""
""focus"",""113"",""401562""
","""event"",""trial"",""time""
""blur"",""113"",""400249""
","""event"",""trial"",""time""
""focus"",""113"",""401562""
","""event"",""trial"",""time""
""fullscreenenter"",""5"",""17904""
","
","","images/earth.jpg","","","","","","","","","","","","","","fixation","","","","","",""
"d3-animate-choice","189","740608","0.0-76.0-0.18","658","810","16","Male","false","false","false","true","""event"",""trial"",""time""
""fullscreenenter"",""5"",""17904""
""blur"",""113"",""400249""
""focus"",""113"",""401562""
","""event"",""trial"",""time""
""blur"",""113"",""400249""
","""event"",""trial"",""time""
""focus"",""113"",""401562""
","""event"",""trial"",""time""
""fullscreenenter"",""5"",""17904""
","
","303.8999999985099","","48","","","3000","1","","","images/earth.jpg","images/rocket1","images/rocket2","null","images/rocket1","","1","real","null","2","","",""
"d3-animate-choice","190","743271","0.0-76.0-1.18","658","810","16","Male","false","false","false","true","""event"",""trial"",""time""
""fullscreenenter"",""5"",""17904""
""blur"",""113"",""400249""
""focus"",""113"",""401562""
","""event"",""trial"",""time""
""blur"",""113"",""400249""
","""event"",""trial"",""time""
""focus"",""113"",""401562""
","""event"",""trial"",""time""
""fullscreenenter"",""5"",""17904""
","
","658","","48","","","3000","1","","","images/redplanet1.jpg","images/alien2","images/alien1","images/rocket1","images/alien2","images/nothing.png","2","real","false","2","rare","0","2022-02-13 18:53:21.902"
"two-step-fixation","191","744275","0.0-76.0-2.18","658","810","16","Male","false","false","false","true","""event"",""trial"",""time""
""fullscreenenter"",""5"",""17904""
""blur"",""113"",""400249""
""focus"",""113"",""401562""
","""event"",""trial"",""time""
""blur"",""113"",""400249""
","""event"",""trial"",""time""
""focus"",""113"",""401562""
","""event"",""trial"",""time""
""fullscreenenter"",""5"",""17904""
","
","","images/earth.jpg","","","","","","","","","","","","","","fixation","","","","","",""
"d3-animate-choice","192","746956","0.0-76.0-0.19","658","810","16","Male","false","false","false","true","""event"",""trial"",""time""
""fullscreenenter"",""5"",""17904""
""blur"",""113"",""400249""
""focus"",""113"",""401562""
","""event"",""trial"",""time""
""blur"",""113"",""400249""
","""event"",""trial"",""time""
""focus"",""113"",""401562""
","""event"",""trial"",""time""
""fullscreenenter"",""5"",""17904""
","
","677.7000000029802","","48","","","3000","1","","","images/earth.jpg","images/rocket1","images/rocket2","null","images/rocket1","","1","real","null","2","","",""
"d3-animate-choice","193","749336","0.0-76.0-1.19","658","810","16","Male","false","false","false","true","""event"",""trial"",""time""
""fullscreenenter"",""5"",""17904""
""blur"",""113"",""400249""
""focus"",""113"",""401562""
","""event"",""trial"",""time""
""blur"",""113"",""400249""
","""event"",""trial"",""time""
""focus"",""113"",""401562""
","""event"",""trial"",""time""
""fullscreenenter"",""5"",""17904""
","
","375.6000000014901","","48","","","3000","1","","","images/purpleplanet.jpg","images/alien4","images/alien3","images/rocket1","images/alien4","images/t.png","2","real","true","2","common","1","2022-02-13 18:53:27.967"
"two-step-fixation","194","750341","0.0-76.0-2.19","658","810","16","Male","false","false","false","true","""event"",""trial"",""time""
""fullscreenenter"",""5"",""17904""
""blur"",""113"",""400249""
""focus"",""113"",""401562""
","""event"",""trial"",""time""
""blur"",""113"",""400249""
","""event"",""trial"",""time""
""focus"",""113"",""401562""
","""event"",""trial"",""time""
""fullscreenenter"",""5"",""17904""
","
","","images/earth.jpg","","","","","","","","","","","","","","fixation","","","","","",""
"d3-animate-choice","195","753345","0.0-76.0-0.20","658","810","16","Male","false","false","false","true","""event"",""trial"",""time""
""fullscreenenter"",""5"",""17904""
""blur"",""113"",""400249""
""focus"",""113"",""401562""
","""event"",""trial"",""time""
""blur"",""113"",""400249""
","""event"",""trial"",""time""
""focus"",""113"",""401562""
","""event"",""trial"",""time""
""fullscreenenter"",""5"",""17904""
","
","999.3999999985099","","48","","","3000","1","","","images/earth.jpg","images/rocket1","images/rocket2","null","images/rocket1","","1","real","null","2","","",""
"d3-animate-choice","196","755791","0.0-76.0-1.20","658","810","16","Male","false","false","false","true","""event"",""trial"",""time""
""fullscreenenter"",""5"",""17904""
""blur"",""113"",""400249""
""focus"",""113"",""401562""
","""event"",""trial"",""time""
""blur"",""113"",""400249""
","""event"",""trial"",""time""
""focus"",""113"",""401562""
","""event"",""trial"",""time""
""fullscreenenter"",""5"",""17904""
","
","441.1000000014901","","48","","","3000","1","","","images/purpleplanet.jpg","images/alien4","images/alien3","images/rocket1","images/alien4","images/t.png","2","real","true","2","common","1","2022-02-13 18:53:34.422"
"two-step-fixation","197","756793","0.0-76.0-2.20","658","810","16","Male","false","false","false","true","""event"",""trial"",""time""
""fullscreenenter"",""5"",""17904""
""blur"",""113"",""400249""
""focus"",""113"",""401562""
","""event"",""trial"",""time""
""blur"",""113"",""400249""
","""event"",""trial"",""time""
""focus"",""113"",""401562""
","""event"",""trial"",""time""
""fullscreenenter"",""5"",""17904""
","
","","images/earth.jpg","","","","","","","","","","","","","","fixation","","","","","",""
"d3-animate-choice","198","759876","0.0-76.0-0.21","658","810","16","Male","false","false","false","true","""event"",""trial"",""time""
""fullscreenenter"",""5"",""17904""
""blur"",""113"",""400249""
""focus"",""113"",""401562""
","""event"",""trial"",""time""
""blur"",""113"",""400249""
","""event"",""trial"",""time""
""focus"",""113"",""401562""
","""event"",""trial"",""time""
""fullscreenenter"",""5"",""17904""
","
","1078.8000000044703","","48","","","3000","1","","","images/earth.jpg","images/rocket1","images/rocket2","null","images/rocket1","","1","real","null","2","","",""
"d3-animate-choice","199","762361","0.0-76.0-1.21","658","810","16","Male","false","false","false","true","""event"",""trial"",""time""
""fullscreenenter"",""5"",""17904""
""blur"",""113"",""400249""
""focus"",""113"",""401562""
","""event"",""trial"",""time""
""blur"",""113"",""400249""
","""event"",""trial"",""time""
""focus"",""113"",""401562""
","""event"",""trial"",""time""
""fullscreenenter"",""5"",""17904""
","
","480.6000000014901","","48","","","3000","1","","","images/redplanet1.jpg","images/alien2","images/alien1","images/rocket1","images/alien2","images/t.png","2","real","false","2","rare","1","2022-02-13 18:53:40.992"
"two-step-fixation","200","763366","0.0-76.0-2.21","658","810","16","Male","false","false","false","true","""event"",""trial"",""time""
""fullscreenenter"",""5"",""17904""
""blur"",""113"",""400249""
""focus"",""113"",""401562""
","""event"",""trial"",""time""
""blur"",""113"",""400249""
","""event"",""trial"",""time""
""focus"",""113"",""401562""
","""event"",""trial"",""time""
""fullscreenenter"",""5"",""17904""
","
","","images/earth.jpg","","","","","","","","","","","","","","fixation","","","","","",""
"d3-animate-choice","201","766151","0.0-76.0-0.22","658","810","16","Male","false","false","false","true","""event"",""trial"",""time""
""fullscreenenter"",""5"",""17904""
""blur"",""113"",""400249""
""focus"",""113"",""401562""
","""event"",""trial"",""time""
""blur"",""113"",""400249""
","""event"",""trial"",""time""
""focus"",""113"",""401562""
","""event"",""trial"",""time""
""fullscreenenter"",""5"",""17904""
","
","780.3000000044703","","48","","","3000","1","","","images/earth.jpg","images/rocket1","images/rocket2","null","images/rocket1","","1","real","null","2","","",""
"d3-animate-choice","202","768489","0.0-76.0-1.22","658","810","16","Male","false","false","false","true","""event"",""trial"",""time""
""fullscreenenter"",""5"",""17904""
""blur"",""113"",""400249""
""focus"",""113"",""401562""
","""event"",""trial"",""time""
""blur"",""113"",""400249""
","""event"",""trial"",""time""
""focus"",""113"",""401562""
","""event"",""trial"",""time""
""fullscreenenter"",""5"",""17904""
","
","332.8999999985099","","48","","","3000","1","","","images/purpleplanet.jpg","images/alien4","images/alien3","images/rocket1","images/alien4","images/t.png","2","real","true","2","common","1","2022-02-13 18:53:47.120"
"two-step-fixation","203","769492","0.0-76.0-2.22","658","810","16","Male","false","false","false","true","""event"",""trial"",""time""
""fullscreenenter"",""5"",""17904""
""blur"",""113"",""400249""
""focus"",""113"",""401562""
","""event"",""trial"",""time""
""blur"",""113"",""400249""
","""event"",""trial"",""time""
""focus"",""113"",""401562""
","""event"",""trial"",""time""
""fullscreenenter"",""5"",""17904""
","
","","images/earth.jpg","","","","","","","","","","","","","","fixation","","","","","",""
"d3-animate-choice","204","772044","0.0-76.0-0.23","658","810","16","Male","false","false","false","true","""event"",""trial"",""time""
""fullscreenenter"",""5"",""17904""
""blur"",""113"",""400249""
""focus"",""113"",""401562""
","""event"",""trial"",""time""
""blur"",""113"",""400249""
","""event"",""trial"",""time""
""focus"",""113"",""401562""
","""event"",""trial"",""time""
""fullscreenenter"",""5"",""17904""
","
","547.2999999970198","","48","","","3000","1","","","images/earth.jpg","images/rocket1","images/rocket2","null","images/rocket1","","1","real","null","2","","",""
"d3-animate-choice","205","774682","0.0-76.0-1.23","658","810","16","Male","false","false","false","true","""event"",""trial"",""time""
""fullscreenenter"",""5"",""17904""
""blur"",""113"",""400249""
""focus"",""113"",""401562""
","""event"",""trial"",""time""
""blur"",""113"",""400249""
","""event"",""trial"",""time""
""focus"",""113"",""401562""
","""event"",""trial"",""time""
""fullscreenenter"",""5"",""17904""
","
","632","","48","","","3000","1","","","images/redplanet1.jpg","images/alien2","images/alien1","images/rocket1","images/alien2","images/t.png","2","real","false","2","rare","1","2022-02-13 18:53:53.313"
"two-step-fixation","206","775687","0.0-76.0-2.23","658","810","16","Male","false","false","false","true","""event"",""trial"",""time""
""fullscreenenter"",""5"",""17904""
""blur"",""113"",""400249""
""focus"",""113"",""401562""
","""event"",""trial"",""time""
""blur"",""113"",""400249""
","""event"",""trial"",""time""
""focus"",""113"",""401562""
","""event"",""trial"",""time""
""fullscreenenter"",""5"",""17904""
","
","","images/earth.jpg","","","","","","","","","","","","","","fixation","","","","","",""
"d3-animate-choice","207","778026","0.0-76.0-0.24","658","810","16","Male","false","false","false","true","""event"",""trial"",""time""
""fullscreenenter"",""5"",""17904""
