"trial_type","trial_index","time_elapsed","internal_node_id","participant_id","subject_id","age","gender","rocket_sides","red_planet_first_rocket","red_display_order","purple_display_order","interactions","blur_events","focus_events","fullscreenenter_events","fullscreenexit_events","rt","stimulus","key_press","button_pressed","success","duration","valid_pressed","rts","keys","planet_text","right_text","left_text","center_text","chosen_text","reward_text","trial_stage","practice_trial","transition_type","choice","transition","reward","timestamp"
"pavlovia","0","6","0.0-0.0","1982","5013","17","Male","true","false","true","true","""event"",""trial"",""time""
""focus"",""1"",""3892""
","
","""event"",""trial"",""time""
""focus"",""1"",""3892""
","
","
","","","","","","","","","","","","","","","","","","","","","",""
"html-keyboard-response","1","3907","0.0-1.0","1982","5013","17","Male","true","false","true","true","""event"",""trial"",""time""
""focus"",""1"",""3892""
","
","""event"",""trial"",""time""
""focus"",""1"",""3892""
","
","
","3900","Welcome! Press the space bar to begin.","32","","","","","","","","","","","","","","","","","","",""
"audio-keyboard-response","2","4099","0.0-2.0","1982","5013","17","Male","true","false","true","true","""event"",""trial"",""time""
""focus"",""1"",""3892""
","
","""event"",""trial"",""time""
""focus"",""1"",""3892""
","
","
","200","audio/beep_loop.wav","32","","","","","","","","","","","","","","","","","","",""
"audio-button-response","3","5432","0.0-3.0","1982","5013","17","Male","true","false","true","true","""event"",""trial"",""time""
""focus"",""1"",""3892""
","
","""event"",""trial"",""time""
""focus"",""1"",""3892""
","
","
","NaN","audio/fish.mp3","","1","","","","","","","","","","","","","","","","","",""
"audio-button-response","4","8272","0.0-4.0","1982","5013","17","Male","true","false","true","true","""event"",""trial"",""time""
""focus"",""1"",""3892""
""fullscreenenter"",""5"",""14136""
","
","""event"",""trial"",""time""
""focus"",""1"",""3892""
","""event"",""trial"",""time""
""fullscreenenter"",""5"",""14136""
","
","NaN","audio/tiger.mp3","","4","","","","","","","","","","","","","","","","","",""
"fullscreen","5","15122","0.0-5.0","1982","5013","17","Male","true","false","true","true","""event"",""trial"",""time""
""focus"",""1"",""3892""
""fullscreenenter"",""5"",""14136""
","
","""event"",""trial"",""time""
""focus"",""1"",""3892""
","""event"",""trial"",""time""
""fullscreenenter"",""5"",""14136""
","
","","","","","true","","","","","","","","","","","","","","","","",""
"d3-instructions","6","16231","0.0-6.0","1982","5013","17","Male","true","false","true","true","""event"",""trial"",""time""
""focus"",""1"",""3892""
""fullscreenenter"",""5"",""14136""
","
","""event"",""trial"",""time""
""focus"",""1"",""3892""
","""event"",""trial"",""time""
""fullscreenenter"",""5"",""14136""
","
","","","","","","","","","","","","","","","","","","","","","",""
"d3-instructions","7","16432","0.0-7.0","1982","5013","17","Male","true","false","true","true","""event"",""trial"",""time""
""focus"",""1"",""3892""
""fullscreenenter"",""5"",""14136""
","
","""event"",""trial"",""time""
""focus"",""1"",""3892""
","""event"",""trial"",""time""
""fullscreenenter"",""5"",""14136""
","
","","","","","","","","","","","","","","","","","","","","","",""
"d3-instructions","8","16598","0.0-8.0","1982","5013","17","Male","true","false","true","true","""event"",""trial"",""time""
""focus"",""1"",""3892""
""fullscreenenter"",""5"",""14136""
","
","""event"",""trial"",""time""
""focus"",""1"",""3892""
","""event"",""trial"",""time""
""fullscreenenter"",""5"",""14136""
","
","","","","","","","","","","","","","","","","","","","","","",""
"d3-instructions","9","16756","0.0-9.0","1982","5013","17","Male","true","false","true","true","""event"",""trial"",""time""
""focus"",""1"",""3892""
""fullscreenenter"",""5"",""14136""
","
","""event"",""trial"",""time""
""focus"",""1"",""3892""
","""event"",""trial"",""time""
""fullscreenenter"",""5"",""14136""
","
","","","","","","","","","","","","","","","","","","","","","",""
"d3-instructions","10","16888","0.0-10.0","1982","5013","17","Male","true","false","true","true","""event"",""trial"",""time""
""focus"",""1"",""3892""
""fullscreenenter"",""5"",""14136""
","
","""event"",""trial"",""time""
""focus"",""1"",""3892""
","""event"",""trial"",""time""
""fullscreenenter"",""5"",""14136""
","
","","","","","","","","","","","","","","","","","","","","","",""
"d3-animate-choice","11","19995","0.0-11.0","1982","5013","17","Male","true","false","true","true","""event"",""trial"",""time""
""focus"",""1"",""3892""
""fullscreenenter"",""5"",""14136""
","
","""event"",""trial"",""time""
""focus"",""1"",""3892""
","""event"",""trial"",""time""
""fullscreenenter"",""5"",""14136""
","
","147.19999998807907","","32","","","3000","1","296,410.30000001192093,1101.0999999940395,1241.199999988079,1399.4000000059605,1531.199999988079,1688.199999988079,1837.199999988079,1986.199999988079,2179.199999988079,2319,2468.4000000059605,2591.199999988079,2731.0999999940395,2863.0999999940395,3003.300000011921","32,32,49,49,49,49,49,49,49,49,49,49,49,49,49,49","images/tutgreenplanet.jpg","images/tutalien1","images/tutalien2","null","images/tutalien2","","NA","practice","null","","","",""
"d3-animate-choice","12","22036","0.0-12.0","1982","5013","17","Male","true","false","true","true","""event"",""trial"",""time""
""focus"",""1"",""3892""
""fullscreenenter"",""5"",""14136""
","
","""event"",""trial"",""time""
""focus"",""1"",""3892""
","""event"",""trial"",""time""
""fullscreenenter"",""5"",""14136""
","
","36.400000005960464","","49","","","3000","1","167.30000001192093,308.5,439.30000001192093,571.3000000119209,719.3000000119209,851.4000000059605,1009.4000000059605,1149.5999999940395,1289.0999999940395,1438.7000000178814,1587.7000000178814,1745.7000000178814,1929.300000011921","49,49,49,49,49,49,49,49,49,49,49,49,49","images/tutgreenplanet.jpg","images/tutalien1","images/tutalien2","null","images/tutalien2","","NA","practice","null","","","",""
"d3-animate-choice","13","24088","0.0-13.0","1982","5013","17","Male","true","false","true","true","""event"",""trial"",""time""
""focus"",""1"",""3892""
""fullscreenenter"",""5"",""14136""
""fullscreenexit"",""14"",""25111""
","
","""event"",""trial"",""time""
""focus"",""1"",""3892""
","""event"",""trial"",""time""
""fullscreenenter"",""5"",""14136""
","""event"",""trial"",""time""
""fullscreenexit"",""14"",""25111""
","37.89999997615814","","49","","","3000","1","186.7999999821186,352.69999998807907,510.89999997615814,676.7999999821186,843.7999999821186,983.8999999761581,1133.2999999821186,1282,1430.8999999761581,1587.8999999761581,1736.7999999821186,1912.8999999761581","49,49,49,49,49,49,49,49,49,49,49,49","images/tutgreenplanet.jpg","images/tutalien1","images/tutalien2","null","images/tutalien2","","NA","practice","null","","","",""
"d3-animate-choice","14","26114","0.0-14.0","1982","5013","17","Male","true","false","true","true","""event"",""trial"",""time""
""focus"",""1"",""3892""
""fullscreenenter"",""5"",""14136""
""fullscreenexit"",""14"",""25111""
","
","""event"",""trial"",""time""
""focus"",""1"",""3892""
","""event"",""trial"",""time""
""fullscreenenter"",""5"",""14136""
","""event"",""trial"",""time""
""fullscreenexit"",""14"",""25111""
","17.19999998807907","","49","","","3000","1","175,333.09999999403954,482.19999998807907,640,824.0999999940395,1049.4000000059605,1157.300000011921,1157.5,1323.300000011921,1323.5,1481.199999988079,1630.0999999940395,1788.0999999940395,1954.0999999940395","49,49,49,49,49,49,27,49,27,49,49,49,49,49","images/tutgreenplanet.jpg","images/tutalien1","images/tutalien2","null","images/tutalien2","","NA","practice","null","","","",""
"d3-instructions","15","28839","0.0-15.0","1982","5013","17","Male","true","false","true","true","""event"",""trial"",""time""
""focus"",""1"",""3892""
""fullscreenenter"",""5"",""14136""
""fullscreenexit"",""14"",""25111""
","
","""event"",""trial"",""time""
""focus"",""1"",""3892""
","""event"",""trial"",""time""
""fullscreenenter"",""5"",""14136""
","""event"",""trial"",""time""
""fullscreenexit"",""14"",""25111""
","","","","","","","","","","","","","","","","","","","","","",""
"d3-instructions","16","29058","0.0-16.0","1982","5013","17","Male","true","false","true","true","""event"",""trial"",""time""
""focus"",""1"",""3892""
""fullscreenenter"",""5"",""14136""
""fullscreenexit"",""14"",""25111""
","
","""event"",""trial"",""time""
""focus"",""1"",""3892""
","""event"",""trial"",""time""
""fullscreenenter"",""5"",""14136""
","""event"",""trial"",""time""
""fullscreenexit"",""14"",""25111""
","","","","","","","","","","","","","","","","","","","","","",""
"d3-instructions","17","29233","0.0-17.0","1982","5013","17","Male","true","false","true","true","""event"",""trial"",""time""
""focus"",""1"",""3892""
""fullscreenenter"",""5"",""14136""
""fullscreenexit"",""14"",""25111""
","
","""event"",""trial"",""time""
""focus"",""1"",""3892""
","""event"",""trial"",""time""
""fullscreenenter"",""5"",""14136""
","""event"",""trial"",""time""
""fullscreenexit"",""14"",""25111""
","","","","","","","","","","","","","","","","","","","","","",""
"d3-instructions","18","29418","0.0-18.0","1982","5013","17","Male","true","false","true","true","""event"",""trial"",""time""
""focus"",""1"",""3892""
""fullscreenenter"",""5"",""14136""
""fullscreenexit"",""14"",""25111""
","
","""event"",""trial"",""time""
""focus"",""1"",""3892""
","""event"",""trial"",""time""
""fullscreenenter"",""5"",""14136""
","""event"",""trial"",""time""
""fullscreenexit"",""14"",""25111""
","","","","","","","","","","","","","","","","","","","","","",""
"d3-instructions","19","29593","0.0-19.0","1982","5013","17","Male","true","false","true","true","""event"",""trial"",""time""
""focus"",""1"",""3892""
""fullscreenenter"",""5"",""14136""
""fullscreenexit"",""14"",""25111""
","
","""event"",""trial"",""time""
""focus"",""1"",""3892""
","""event"",""trial"",""time""
""fullscreenenter"",""5"",""14136""
","""event"",""trial"",""time""
""fullscreenexit"",""14"",""25111""
","","","","","","","","","","","","","","","","","","","","","",""
"d3-animate-choice","20","32633","0.0-20.0","1982","5013","17","Male","true","false","true","true","""event"",""trial"",""time""
""focus"",""1"",""3892""
""fullscreenenter"",""5"",""14136""
""fullscreenexit"",""14"",""25111""
","
","""event"",""trial"",""time""
""focus"",""1"",""3892""
","""event"",""trial"",""time""
""fullscreenenter"",""5"",""14136""
","""event"",""trial"",""time""
""fullscreenexit"",""14"",""25111""
","147.80000001192093","","32","","","3000","1","1022.0999999940395,1180.300000011921,1355,1504.0999999940395,1653.300000011921,1784.9000000059605,1951.300000011921,2125.800000011921,2292.800000011921,2451.0999999940395,2607.800000011921,2783.0999999940395,2950.199999988079","49,49,49,49,49,49,49,49,49,49,49,49,49","images/tutyellowplanet.jpg","null","images/tutalien3","null","images/tutalien3","images/nothing.png","NA","practice","null","","","",""
"d3-animate-choice","21","34705","0.0-21.0","1982","5013","17","Male","true","false","true","true","""event"",""trial"",""time""
""focus"",""1"",""3892""
""fullscreenenter"",""5"",""14136""
""fullscreenexit"",""14"",""25111""
","
","""event"",""trial"",""time""
""focus"",""1"",""3892""
","""event"",""trial"",""time""
""fullscreenenter"",""5"",""14136""
","""event"",""trial"",""time""
""fullscreenexit"",""14"",""25111""
","68.5","","49","","","3000","1","234.40000000596046,418.5,584.4000000059605,760.5,944.4000000059605,1101.5,1268.6000000238419,1434.300000011921,1618.5,1793.4000000059605,1960.5","49,49,49,49,49,49,49,49,49,49,49","images/tutyellowplanet.jpg","null","images/tutalien3","null","images/tutalien3","images/t.png","NA","practice","null","","","",""
"d3-animate-choice","22","36799","0.0-22.0","1982","5013","17","Male","true","false","true","true","""event"",""trial"",""time""
""focus"",""1"",""3892""
""fullscreenenter"",""5"",""14136""
""fullscreenexit"",""14"",""25111""
","
","""event"",""trial"",""time""
""focus"",""1"",""3892""
","""event"",""trial"",""time""
""fullscreenenter"",""5"",""14136""
","""event"",""trial"",""time""
""fullscreenexit"",""14"",""25111""
","81.39999997615814","","49","","","3000","1","256.5,430.89999997615814,615.3999999761581,790.5999999940395,974.3999999761581,1158.3999999761581,1342.3999999761581,1526.3999999761581,1710.2999999821186,1903.2999999821186,2078.2999999821186","49,49,49,49,49,49,49,49,49,49,49","images/tutyellowplanet.jpg","null","images/tutalien3","null","images/tutalien3","images/t.png","NA","practice","null","","","",""
"d3-animate-choice","23","39003","0.0-23.0","1982","5013","17","Male","true","false","true","true","""event"",""trial"",""time""
""focus"",""1"",""3892""
""fullscreenenter"",""5"",""14136""
""fullscreenexit"",""14"",""25111""
","
","""event"",""trial"",""time""
""focus"",""1"",""3892""
","""event"",""trial"",""time""
""fullscreenenter"",""5"",""14136""
","""event"",""trial"",""time""
""fullscreenexit"",""14"",""25111""
","186.40000000596046","","49","","","3000","1","370.5,554.5,738.3000000119209,939.3000000119209,1141.5,1333.4000000059605,1517.300000011921,1701.6000000238419,1903.6000000238419,2095.5","49,49,49,49,49,49,49,49,49,49","images/tutyellowplanet.jpg","null","images/tutalien3","null","images/tutalien3","images/nothing.png","NA","practice","null","","","",""
"d3-animate-choice","24","41084","0.0-24.0","1982","5013","17","Male","true","false","true","true","""event"",""trial"",""time""
""focus"",""1"",""3892""
""fullscreenenter"",""5"",""14136""
""fullscreenexit"",""14"",""25111""
","
","""event"",""trial"",""time""
""focus"",""1"",""3892""
","""event"",""trial"",""time""
""fullscreenenter"",""5"",""14136""
","""event"",""trial"",""time""
""fullscreenexit"",""14"",""25111""
","75.2999999821186","","49","","","3000","1","251.2999999821186,452.2999999821186,645.1999999880791,846.1999999880791,1039.199999988079,1223.199999988079,1416.7999999821186,1591.2999999821186,1775.2999999821186,1959.199999988079","49,49,49,49,49,49,49,49,49,49","images/tutyellowplanet.jpg","null","images/tutalien3","null","images/tutalien3","images/t.png","NA","practice","null","","","",""
"d3-animate-choice","25","43177","0.0-25.0","1982","5013","17","Male","true","false","true","true","""event"",""trial"",""time""
""focus"",""1"",""3892""
""fullscreenenter"",""5"",""14136""
""fullscreenexit"",""14"",""25111""
","
","""event"",""trial"",""time""
""focus"",""1"",""3892""
","""event"",""trial"",""time""
""fullscreenenter"",""5"",""14136""
","""event"",""trial"",""time""
""fullscreenexit"",""14"",""25111""
","70.89999997615814","","49","","","3000","1","254.89999997615814,456.09999999403954,666.8999999761581,886.0999999940395,1087.2999999821186,1333.199999988079","49,49,49,49,49,49","images/tutyellowplanet.jpg","null","images/tutalien3","null","images/tutalien3","images/t.png","NA","practice","null","","","",""
"d3-animate-choice","26","46793","0.0-26.0","1982","5013","17","Male","true","false","true","true","""event"",""trial"",""time""
""focus"",""1"",""3892""
""fullscreenenter"",""5"",""14136""
""fullscreenexit"",""14"",""25111""
","
","""event"",""trial"",""time""
""focus"",""1"",""3892""
","""event"",""trial"",""time""
""fullscreenenter"",""5"",""14136""
","""event"",""trial"",""time""
""fullscreenexit"",""14"",""25111""
","1605.7999999821186","","49","","","3000","1","1781.3999999761581,1965.7999999821186","49,49","images/tutyellowplanet.jpg","null","images/tutalien3","null","images/tutalien3","images/t.png","NA","practice","null","","","",""
"d3-animate-choice","27","50934","0.0-27.0","1982","5013","17","Male","true","false","true","true","""event"",""trial"",""time""
""focus"",""1"",""3892""
""fullscreenenter"",""5"",""14136""
""fullscreenexit"",""14"",""25111""
","
","""event"",""trial"",""time""
""focus"",""1"",""3892""
","""event"",""trial"",""time""
""fullscreenenter"",""5"",""14136""
","""event"",""trial"",""time""
""fullscreenexit"",""14"",""25111""
","2132.300000011921","","49","","","3000","1","2325.7000000178814,2492.7000000178814,2676.5,2868.5,3052.5,3228.300000011921,3403.5,3578.5,3762.5,3955.5,4139.4000000059605","49,49,49,49,49,49,49,49,49,49,49","images/tutyellowplanet.jpg","null","images/tutalien3","null","images/tutalien3","images/t.png","NA","practice","null","","","",""
"d3-animate-choice","28","53122","0.0-28.0","1982","5013","17","Male","true","false","true","true","""event"",""trial"",""time""
""focus"",""1"",""3892""
""fullscreenenter"",""5"",""14136""
""fullscreenexit"",""14"",""25111""
","
","""event"",""trial"",""time""
""focus"",""1"",""3892""
","""event"",""trial"",""time""
""fullscreenenter"",""5"",""14136""
","""event"",""trial"",""time""
""fullscreenexit"",""14"",""25111""
","173.69999998807907","","49","","","3000","1","357.69999998807907,541.8000000119209,725.5999999940395,909.8000000119209,1093.5,1277.699999988079,1339.699999988079,1470.699999988079,1655.5999999940395,1891.5999999940395","49,49,49,49,49,49,8,49,49,49","images/tutyellowplanet.jpg","null","images/tutalien3","null","images/tutalien3","images/t.png","NA","practice","null","","","",""
"d3-animate-choice","29","55338","0.0-29.0","1982","5013","17","Male","true","false","true","true","""event"",""trial"",""time""
""focus"",""1"",""3892""
""fullscreenenter"",""5"",""14136""
""fullscreenexit"",""14"",""25111""
","
","""event"",""trial"",""time""
""focus"",""1"",""3892""
","""event"",""trial"",""time""
""fullscreenenter"",""5"",""14136""
","""event"",""trial"",""time""
""fullscreenexit"",""14"",""25111""
","212.69999998807907","","49","","","3000","1","396.7999999821186,553.8999999761581,737.8999999761581,904.8999999761581,1140.8999999761581,1324.7999999821186,1500.7999999821186,1675.7999999821186,1894.8999999761581,2113.899999976158","49,49,49,49,49,49,49,49,49,49","images/tutyellowplanet.jpg","null","images/tutalien3","null","images/tutalien3","images/t.png","NA","practice","null","","","",""
"d3-instructions","30","58830","0.0-30.0","1982","5013","17","Male","true","false","true","true","""event"",""trial"",""time""
""focus"",""1"",""3892""
""fullscreenenter"",""5"",""14136""
""fullscreenexit"",""14"",""25111""
","
","""event"",""trial"",""time""
""focus"",""1"",""3892""
","""event"",""trial"",""time""
""fullscreenenter"",""5"",""14136""
","""event"",""trial"",""time""
""fullscreenexit"",""14"",""25111""
","","","","","","","","","","","","","","","","","","","","","",""
"d3-instructions","31","59197","0.0-31.0","1982","5013","17","Male","true","false","true","true","""event"",""trial"",""time""
""focus"",""1"",""3892""
""fullscreenenter"",""5"",""14136""
""fullscreenexit"",""14"",""25111""
","
","""event"",""trial"",""time""
""focus"",""1"",""3892""
","""event"",""trial"",""time""
""fullscreenenter"",""5"",""14136""
","""event"",""trial"",""time""
""fullscreenexit"",""14"",""25111""
","","","","","","","","","","","","","","","","","","","","","",""
"d3-instructions","32","59372","0.0-32.0","1982","5013","17","Male","true","false","true","true","""event"",""trial"",""time""
""focus"",""1"",""3892""
""fullscreenenter"",""5"",""14136""
""fullscreenexit"",""14"",""25111""
","
","""event"",""trial"",""time""
""focus"",""1"",""3892""
","""event"",""trial"",""time""
""fullscreenenter"",""5"",""14136""
","""event"",""trial"",""time""
""fullscreenexit"",""14"",""25111""
","","","","","","","","","","","","","","","","","","","","","",""
"d3-instructions","33","61335","0.0-33.0","1982","5013","17","Male","true","false","true","true","""event"",""trial"",""time""
""focus"",""1"",""3892""
""fullscreenenter"",""5"",""14136""
""fullscreenexit"",""14"",""25111""
","
","""event"",""trial"",""time""
""focus"",""1"",""3892""
","""event"",""trial"",""time""
""fullscreenenter"",""5"",""14136""
","""event"",""trial"",""time""
""fullscreenexit"",""14"",""25111""
","","","","","","","","","","","","","","","","","","","","","",""
"d3-animate-choice","34","64315","0.0-34.0","1982","5013","17","Male","true","false","true","true","""event"",""trial"",""time""
""focus"",""1"",""3892""
""fullscreenenter"",""5"",""14136""
""fullscreenexit"",""14"",""25111""
","
","""event"",""trial"",""time""
""focus"",""1"",""3892""
","""event"",""trial"",""time""
""fullscreenenter"",""5"",""14136""
","""event"",""trial"",""time""
""fullscreenexit"",""14"",""25111""
","148.19999998807907","","32","","","3000","1","961.8000000119209,1136.699999988079,1338.5999999940395,1495.699999988079,1697.699999988079,1898.699999988079,2082.300000011921,2284.699999988079,2468.5999999940395","49,49,49,49,49,49,49,49,49","images/tutgreenplanet.jpg","images/tutalien1","images/tutalien2","null","images/tutalien2","images/t.png","NA","practice","null","","","",""
"d3-animate-choice","35","66472","0.0-35.0","1982","5013","17","Male","true","false","true","true","""event"",""trial"",""time""
""focus"",""1"",""3892""
""fullscreenenter"",""5"",""14136""
""fullscreenexit"",""14"",""25111""
","
","""event"",""trial"",""time""
""focus"",""1"",""3892""
","""event"",""trial"",""time""
""fullscreenenter"",""5"",""14136""
","""event"",""trial"",""time""
""fullscreenexit"",""14"",""25111""
","146","","49","","","3000","1","276.69999998807907,399.89999997615814,557.7999999821186,688.8999999761581,837.6999999880791,969.8999999761581,1100.699999988079,1232.699999988079,1381.8999999761581,1530.8999999761581,1670.8999999761581,1810.8999999761581,1959.7999999821186,2125.7999999821186","49,49,49,49,49,49,49,49,49,49,49,49,49,49","images/tutgreenplanet.jpg","images/tutalien1","images/tutalien2","null","images/tutalien2","images/t.png","NA","practice","null","","","",""
"d3-animate-choice","36","68613","0.0-36.0","1982","5013","17","Male","true","false","true","true","""event"",""trial"",""time""
""focus"",""1"",""3892""
""fullscreenenter"",""5"",""14136""
""fullscreenexit"",""14"",""25111""
","
","""event"",""trial"",""time""
""focus"",""1"",""3892""
","""event"",""trial"",""time""
""fullscreenenter"",""5"",""14136""
","""event"",""trial"",""time""
""fullscreenexit"",""14"",""25111""
","135.80000001192093","","49","","","3000","1","284.80000001192093,443,592,722.9000000059605,906.9000000059605,1046.9000000059605,1205,1371.9000000059605,1538,1678,1836,2020.1000000238419","49,49,49,49,49,49,49,49,49,49,49,49","images/tutgreenplanet.jpg","images/tutalien1","images/tutalien2","null","images/tutalien2","images/t.png","NA","practice","null","","","",""
"d3-animate-choice","37","70634","0.0-37.0","1982","5013","17","Male","true","false","true","true","""event"",""trial"",""time""
""focus"",""1"",""3892""
""fullscreenenter"",""5"",""14136""
""fullscreenexit"",""14"",""25111""
","
","""event"",""trial"",""time""
""focus"",""1"",""3892""
","""event"",""trial"",""time""
""fullscreenenter"",""5"",""14136""
","""event"",""trial"",""time""
""fullscreenexit"",""14"",""25111""
","18.19999998807907","","49","","","3000","1","185.5,343.40000000596046,509.40000000596046,676.2999999821186,851.2999999821186,991.2999999821186,1166.2999999821186,1342.199999988079,1508.2999999821186,1683.199999988079,1859.4000000059605","49,49,49,49,49,49,49,49,49,49,49","images/tutgreenplanet.jpg","images/tutalien1","images/tutalien2","null","images/tutalien2","images/t.png","NA","practice","null","","","",""
"d3-animate-choice","38","72651","0.0-38.0","1982","5013","17","Male","true","false","true","true","""event"",""trial"",""time""
""focus"",""1"",""3892""
""fullscreenenter"",""5"",""14136""
""fullscreenexit"",""14"",""25111""
","
","""event"",""trial"",""time""
""focus"",""1"",""3892""
","""event"",""trial"",""time""
""fullscreenenter"",""5"",""14136""
","""event"",""trial"",""time""
""fullscreenexit"",""14"",""25111""
","13.199999988079071","","49","","","3000","1","171.19999998807907,346.2999999821186,530.2999999821186,696.4000000059605,872.0999999940395,1021.1999999880791,1205.2999999821186,1371.2999999821186,1546.2999999821186,1730.2999999821186,1906.4000000059605","49,49,49,49,49,49,49,49,49,49,49","images/tutgreenplanet.jpg","images/tutalien1","images/tutalien2","null","images/tutalien2","images/t.png","NA","practice","null","","","",""
"d3-animate-choice","39","74717","0.0-39.0","1982","5013","17","Male","true","false","true","true","""event"",""trial"",""time""
""focus"",""1"",""3892""
""fullscreenenter"",""5"",""14136""
""fullscreenexit"",""14"",""25111""
","
","""event"",""trial"",""time""
""focus"",""1"",""3892""
","""event"",""trial"",""time""
""fullscreenenter"",""5"",""14136""
","""event"",""trial"",""time""
""fullscreenexit"",""14"",""25111""
","55.900000005960464","","49","","","3000","1","239.5,423.80000001192093,607.5999999940395,791.5999999940395,993.5999999940395,1177.800000011921,1370.5,1536.5999999940395,1729.5999999940395,1887.5","49,49,49,49,49,49,49,49,49,49","images/tutgreenplanet.jpg","images/tutalien1","images/tutalien2","null","images/tutalien2","images/t.png","NA","practice","null","","","",""
"d3-animate-choice","40","76747","0.0-40.0","1982","5013","17","Male","true","false","true","true","""event"",""trial"",""time""
""focus"",""1"",""3892""
""fullscreenenter"",""5"",""14136""
""fullscreenexit"",""14"",""25111""
","
","""event"",""trial"",""time""
""focus"",""1"",""3892""
","""event"",""trial"",""time""
""fullscreenenter"",""5"",""14136""
","""event"",""trial"",""time""
""fullscreenexit"",""14"",""25111""
","22.299999982118607","","49","","","3000","1","189.69999998807907,364.19999998807907,557.3999999761581,741.2999999821186,925.2999999821186,1135.3999999761581,1284.2999999821186,1477.2999999821186,1652.5,1845.3999999761581","49,49,49,49,49,49,49,49,49,49","images/tutgreenplanet.jpg","images/tutalien1","images/tutalien2","null","images/tutalien2","images/t.png","NA","practice","null","","","",""
"d3-animate-choice","41","78763","0.0-41.0","1982","5013","17","Male","true","false","true","true","""event"",""trial"",""time""
""focus"",""1"",""3892""
""fullscreenenter"",""5"",""14136""
""fullscreenexit"",""14"",""25111""
","
","""event"",""trial"",""time""
""focus"",""1"",""3892""
","""event"",""trial"",""time""
""fullscreenenter"",""5"",""14136""
","""event"",""trial"",""time""
""fullscreenexit"",""14"",""25111""
","9.699999988079071","","49","","","3000","1","202.09999999403954,386.09999999403954,570.0999999940395,754.0999999940395,955.1999999880791,1166.0999999940395,1341.0999999940395,1542.199999988079,1718.0999999940395,1910.0999999940395","49,49,49,49,49,49,49,49,49,49","images/tutgreenplanet.jpg","images/tutalien1","images/tutalien2","null","images/tutalien2","images/t.png","NA","practice","null","","","",""
"d3-animate-choice","42","80854","0.0-42.0","1982","5013","17","Male","true","false","true","true","""event"",""trial"",""time""
""focus"",""1"",""3892""
""fullscreenenter"",""5"",""14136""
""fullscreenexit"",""14"",""25111""
","
","""event"",""trial"",""time""
""focus"",""1"",""3892""
","""event"",""trial"",""time""
""fullscreenenter"",""5"",""14136""
","""event"",""trial"",""time""
""fullscreenexit"",""14"",""25111""
","87","","49","","","3000","1","271,464.10000002384186,665.9000000059605,841,1041.9000000059605,1234.9000000059605,1437,1621,1822.2000000178814,2023.9000000059605","49,49,49,49,49,49,49,49,49,49","images/tutgreenplanet.jpg","images/tutalien1","images/tutalien2","null","images/tutalien2","images/t.png","NA","practice","null","","","",""
"d3-animate-choice","43","82979","0.0-43.0","1982","5013","17","Male","true","false","true","true","""event"",""trial"",""time""
""focus"",""1"",""3892""
""fullscreenenter"",""5"",""14136""
""fullscreenexit"",""14"",""25111""
","
","""event"",""trial"",""time""
""focus"",""1"",""3892""
","""event"",""trial"",""time""
""fullscreenenter"",""5"",""14136""
","""event"",""trial"",""time""
""fullscreenexit"",""14"",""25111""
","107.80000001192093","","49","","","3000","1","318,520,703.8000000119209,904.9000000059605,1098,1290.800000011921,1483.9000000059605,1693.9000000059605,1887.300000011921,2087.9000000059605","49,49,49,49,49,49,49,49,49,49","images/tutgreenplanet.jpg","images/tutalien1","images/tutalien2","null","images/tutalien2","images/t.png","NA","practice","null","","","",""
"d3-instructions","44","84784","0.0-44.0","1982","5013","17","Male","true","false","true","true","""event"",""trial"",""time""
""focus"",""1"",""3892""
""fullscreenenter"",""5"",""14136""
""fullscreenexit"",""14"",""25111""
","
","""event"",""trial"",""time""
""focus"",""1"",""3892""
","""event"",""trial"",""time""
""fullscreenenter"",""5"",""14136""
","""event"",""trial"",""time""
""fullscreenexit"",""14"",""25111""
","","","","","","","","","","","","","","","","","","","","","",""
"d3-instructions","45","84959","0.0-45.0","1982","5013","17","Male","true","false","true","true","""event"",""trial"",""time""
""focus"",""1"",""3892""
""fullscreenenter"",""5"",""14136""
""fullscreenexit"",""14"",""25111""
","
","""event"",""trial"",""time""
""focus"",""1"",""3892""
","""event"",""trial"",""time""
""fullscreenenter"",""5"",""14136""
","""event"",""trial"",""time""
""fullscreenexit"",""14"",""25111""
","","","","","","","","","","","","","","","","","","","","","",""
"d3-instructions","46","85125","0.0-46.0","1982","5013","17","Male","true","false","true","true","""event"",""trial"",""time""
""focus"",""1"",""3892""
""fullscreenenter"",""5"",""14136""
""fullscreenexit"",""14"",""25111""
","
","""event"",""trial"",""time""
""focus"",""1"",""3892""
","""event"",""trial"",""time""
""fullscreenenter"",""5"",""14136""
","""event"",""trial"",""time""
""fullscreenexit"",""14"",""25111""
","","","","","","","","","","","","","","","","","","","","","",""
"d3-instructions","47","85705","0.0-47.0","1982","5013","17","Male","true","false","true","true","""event"",""trial"",""time""
""focus"",""1"",""3892""
""fullscreenenter"",""5"",""14136""
""fullscreenexit"",""14"",""25111""
","
","""event"",""trial"",""time""
""focus"",""1"",""3892""
","""event"",""trial"",""time""
""fullscreenenter"",""5"",""14136""
","""event"",""trial"",""time""
""fullscreenexit"",""14"",""25111""
","","","","","","","","","","","","","","","","","","","","","",""
"d3-instructions","48","85862","0.0-48.0","1982","5013","17","Male","true","false","true","true","""event"",""trial"",""time""
""focus"",""1"",""3892""
""fullscreenenter"",""5"",""14136""
""fullscreenexit"",""14"",""25111""
","
","""event"",""trial"",""time""
""focus"",""1"",""3892""
","""event"",""trial"",""time""
""fullscreenenter"",""5"",""14136""
","""event"",""trial"",""time""
""fullscreenexit"",""14"",""25111""
","","","","","","","","","","","","","","","","","","","","","",""
"d3-instructions","49","86449","0.0-49.0","1982","5013","17","Male","true","false","true","true","""event"",""trial"",""time""
""focus"",""1"",""3892""
""fullscreenenter"",""5"",""14136""
""fullscreenexit"",""14"",""25111""
","
","""event"",""trial"",""time""
""focus"",""1"",""3892""
","""event"",""trial"",""time""
""fullscreenenter"",""5"",""14136""
","""event"",""trial"",""time""
""fullscreenexit"",""14"",""25111""
","","","","","","","","","","","","","","","","","","","","","",""
"d3-instructions","50","86580","0.0-50.0","1982","5013","17","Male","true","false","true","true","""event"",""trial"",""time""
""focus"",""1"",""3892""
""fullscreenenter"",""5"",""14136""
""fullscreenexit"",""14"",""25111""
","
","""event"",""trial"",""time""
""focus"",""1"",""3892""
","""event"",""trial"",""time""
""fullscreenenter"",""5"",""14136""
","""event"",""trial"",""time""
""fullscreenexit"",""14"",""25111""
","","","","","","","","","","","","","","","","","","","","","",""
"d3-instructions","51","88700","0.0-51.0","1982","5013","17","Male","true","false","true","true","""event"",""trial"",""time""
""focus"",""1"",""3892""
""fullscreenenter"",""5"",""14136""
""fullscreenexit"",""14"",""25111""
","
","""event"",""trial"",""time""
""focus"",""1"",""3892""
","""event"",""trial"",""time""
""fullscreenenter"",""5"",""14136""
","""event"",""trial"",""time""
""fullscreenexit"",""14"",""25111""
","","","","","","","","","","","","","","","","","","","","","",""
"d3-instructions","52","88893","0.0-52.0","1982","5013","17","Male","true","false","true","true","""event"",""trial"",""time""
""focus"",""1"",""3892""
""fullscreenenter"",""5"",""14136""
""fullscreenexit"",""14"",""25111""
","
","""event"",""trial"",""time""
""focus"",""1"",""3892""
","""event"",""trial"",""time""
""fullscreenenter"",""5"",""14136""
","""event"",""trial"",""time""
""fullscreenexit"",""14"",""25111""
","","","","","","","","","","","","","","","","","","","","","",""
"d3-instructions","53","89069","0.0-53.0","1982","5013","17","Male","true","false","true","true","""event"",""trial"",""time""
""focus"",""1"",""3892""
""fullscreenenter"",""5"",""14136""
""fullscreenexit"",""14"",""25111""
","
","""event"",""trial"",""time""
""focus"",""1"",""3892""
","""event"",""trial"",""time""
""fullscreenenter"",""5"",""14136""
","""event"",""trial"",""time""
""fullscreenexit"",""14"",""25111""
","","","","","","","","","","","","","","","","","","","","","",""
"d3-instructions","54","89243","0.0-54.0","1982","5013","17","Male","true","false","true","true","""event"",""trial"",""time""
""focus"",""1"",""3892""
""fullscreenenter"",""5"",""14136""
""fullscreenexit"",""14"",""25111""
","
","""event"",""trial"",""time""
""focus"",""1"",""3892""
","""event"",""trial"",""time""
""fullscreenenter"",""5"",""14136""
","""event"",""trial"",""time""
""fullscreenexit"",""14"",""25111""
","","","","","","","","","","","","","","","","","","","","","",""
"d3-instructions","55","89419","0.0-55.0","1982","5013","17","Male","true","false","true","true","""event"",""trial"",""time""
""focus"",""1"",""3892""
""fullscreenenter"",""5"",""14136""
""fullscreenexit"",""14"",""25111""
","
","""event"",""trial"",""time""
""focus"",""1"",""3892""
","""event"",""trial"",""time""
""fullscreenenter"",""5"",""14136""
","""event"",""trial"",""time""
""fullscreenexit"",""14"",""25111""
","","","","","","","","","","","","","","","","","","","","","",""
"d3-instructions","56","89620","0.0-56.0","1982","5013","17","Male","true","false","true","true","""event"",""trial"",""time""
""focus"",""1"",""3892""
""fullscreenenter"",""5"",""14136""
""fullscreenexit"",""14"",""25111""
","
","""event"",""trial"",""time""
""focus"",""1"",""3892""
","""event"",""trial"",""time""
""fullscreenenter"",""5"",""14136""
","""event"",""trial"",""time""
""fullscreenexit"",""14"",""25111""
","","","","","","","","","","","","","","","","","","","","","",""
"d3-instructions","57","89971","0.0-57.0","1982","5013","17","Male","true","false","true","true","""event"",""trial"",""time""
""focus"",""1"",""3892""
""fullscreenenter"",""5"",""14136""
""fullscreenexit"",""14"",""25111""
","
","""event"",""trial"",""time""
""focus"",""1"",""3892""
","""event"",""trial"",""time""
""fullscreenenter"",""5"",""14136""
","""event"",""trial"",""time""
""fullscreenexit"",""14"",""25111""
","","","","","","","","","","","","","","","","","","","","","",""
"d3-instructions","58","90365","0.0-58.0","1982","5013","17","Male","true","false","true","true","""event"",""trial"",""time""
""focus"",""1"",""3892""
""fullscreenenter"",""5"",""14136""
""fullscreenexit"",""14"",""25111""
","
","""event"",""trial"",""time""
""focus"",""1"",""3892""
","""event"",""trial"",""time""
""fullscreenenter"",""5"",""14136""
","""event"",""trial"",""time""
""fullscreenexit"",""14"",""25111""
","","","","","","","","","","","","","","","","","","","","","",""
"d3-instructions","59","90716","0.0-59.0","1982","5013","17","Male","true","false","true","true","""event"",""trial"",""time""
""focus"",""1"",""3892""
""fullscreenenter"",""5"",""14136""
""fullscreenexit"",""14"",""25111""
","
","""event"",""trial"",""time""
""focus"",""1"",""3892""
","""event"",""trial"",""time""
""fullscreenenter"",""5"",""14136""
","""event"",""trial"",""time""
""fullscreenexit"",""14"",""25111""
","","","","","","","","","","","","","","","","","","","","","",""
"d3-instructions","60","91347","0.0-60.0","1982","5013","17","Male","true","false","true","true","""event"",""trial"",""time""
""focus"",""1"",""3892""
""fullscreenenter"",""5"",""14136""
""fullscreenexit"",""14"",""25111""
","
","""event"",""trial"",""time""
""focus"",""1"",""3892""
","""event"",""trial"",""time""
""fullscreenenter"",""5"",""14136""
","""event"",""trial"",""time""
""fullscreenexit"",""14"",""25111""
","","","","","","","","","","","","","","","","","","","","","",""
"d3-animate-choice","61","94418","0.0-61.0-0.0","1982","5013","17","Male","true","false","true","true","""event"",""trial"",""time""
""focus"",""1"",""3892""
""fullscreenenter"",""5"",""14136""
""fullscreenexit"",""14"",""25111""
","
","""event"",""trial"",""time""
""focus"",""1"",""3892""
","""event"",""trial"",""time""
""fullscreenenter"",""5"",""14136""
","""event"",""trial"",""time""
""fullscreenexit"",""14"",""25111""
","1065.9000000059605","","49","","","3000","1","1521.800000011921,1715.4000000059605,1969.1000000238419,2135,2344.9000000059605,2538,2713.2000000178814,2906","49,49,49,49,49,49,49,49","images/earth.jpg","images/tutrocket1","images/tutrocket2","null","images/tutrocket2","","1","practice","null","1","","",""
"d3-animate-choice","62","96450","0.0-61.0-1.0","1982","5013","17","Male","true","false","true","true","""event"",""trial"",""time""
""focus"",""1"",""3892""
""fullscreenenter"",""5"",""14136""
""fullscreenexit"",""14"",""25111""
","
","""event"",""trial"",""time""
""focus"",""1"",""3892""
","""event"",""trial"",""time""
""fullscreenenter"",""5"",""14136""
","""event"",""trial"",""time""
""fullscreenexit"",""14"",""25111""
","27.299999982118607","","49","","","3000","1","220.2999999821186,404.5,605.4000000059605,789.2999999821186,982.1999999880791,1175.0999999940395,1359.199999988079,1551.199999988079","49,49,49,49,49,49,49,49","images/tutgreenplanet.jpg","images/tutalien2","images/tutalien1","images/tutrocket2","images/tutalien1","images/nothing.png","2","practice","true","1","common","0","2022-12-12 03:52:14.895"
"two-step-fixation","63","97471","0.0-61.0-2.0","1982","5013","17","Male","true","false","true","true","""event"",""trial"",""time""
""focus"",""1"",""3892""
""fullscreenenter"",""5"",""14136""
""fullscreenexit"",""14"",""25111""
","
","""event"",""trial"",""time""
""focus"",""1"",""3892""
","""event"",""trial"",""time""
""fullscreenenter"",""5"",""14136""
","""event"",""trial"",""time""
""fullscreenexit"",""14"",""25111""
","","images/earth.jpg","","","","","","","","","","","","","","fixation","","","","","",""
"d3-animate-choice","64","99734","0.0-61.0-0.1","1982","5013","17","Male","true","false","true","true","""event"",""trial"",""time""
""focus"",""1"",""3892""
""fullscreenenter"",""5"",""14136""
""fullscreenexit"",""14"",""25111""
","
","""event"",""trial"",""time""
""focus"",""1"",""3892""
","""event"",""trial"",""time""
""fullscreenenter"",""5"",""14136""
","""event"",""trial"",""time""
""fullscreenexit"",""14"",""25111""
","260.09999999403954","","49","","","3000","1","","","images/earth.jpg","images/tutrocket1","images/tutrocket2","null","images/tutrocket2","","1","practice","null","1","","",""
"d3-animate-choice","65","101814","0.0-61.0-1.1","1982","5013","17","Male","true","false","true","true","""event"",""trial"",""time""
""focus"",""1"",""3892""
""fullscreenenter"",""5"",""14136""
""fullscreenexit"",""14"",""25111""
","
","""event"",""trial"",""time""
""focus"",""1"",""3892""
","""event"",""trial"",""time""
""fullscreenenter"",""5"",""14136""
","""event"",""trial"",""time""
""fullscreenexit"",""14"",""25111""
","64","","48","","","3000","1","247.89999997615814,405.69999998807907,589.5999999940395,764.7999999821186","48,48,48,48","images/tutgreenplanet.jpg","images/tutalien2","images/tutalien1","images/tutrocket2","images/tutalien2","images/t.png","2","practice","true","2","common","1","2022-12-12 03:52:20.258"
"two-step-fixation","66","102818","0.0-61.0-2.1","1982","5013","17","Male","true","false","true","true","""event"",""trial"",""time""
""focus"",""1"",""3892""
""fullscreenenter"",""5"",""14136""
""fullscreenexit"",""14"",""25111""
","
","""event"",""trial"",""time""
""focus"",""1"",""3892""
","""event"",""trial"",""time""
""fullscreenenter"",""5"",""14136""
","""event"",""trial"",""time""
""fullscreenexit"",""14"",""25111""
","","images/earth.jpg","","","","","","","","","","","","","","fixation","","","","","",""
"d3-animate-choice","67","105356","0.0-61.0-0.2","1982","5013","17","Male","true","false","true","true","""event"",""trial"",""time""
""focus"",""1"",""3892""
""fullscreenenter"",""5"",""14136""
""fullscreenexit"",""14"",""25111""
","
","""event"",""trial"",""time""
""focus"",""1"",""3892""
","""event"",""trial"",""time""
""fullscreenenter"",""5"",""14136""
","""event"",""trial"",""time""
""fullscreenexit"",""14"",""25111""
","519.4000000059605","","49","","","3000","1","659.3000000119209,826.5,984.4000000059605,1159.2000000178814,1431.4000000059605,1676.4000000059605,1904.4000000059605,2123.4000000059605,2272.4000000059605,2457.5","49,49,49,49,48,48,48,48,48,48","images/earth.jpg","images/tutrocket1","images/tutrocket2","null","images/tutrocket2","","1","practice","null","1","","",""
"d3-animate-choice","68","107454","0.0-61.0-1.2","1982","5013","17","Male","true","false","true","true","""event"",""trial"",""time""
""focus"",""1"",""3892""
""fullscreenenter"",""5"",""14136""
""fullscreenexit"",""14"",""25111""
","
","""event"",""trial"",""time""
""focus"",""1"",""3892""
","""event"",""trial"",""time""
""fullscreenenter"",""5"",""14136""
","""event"",""trial"",""time""
""fullscreenexit"",""14"",""25111""
","85.5","","48","","","3000","1","269.40000000596046,427.5,602.3000000119209,769.6000000238419,927.4000000059605,1093.5,1260.5,1435.5","48,48,48,48,48,48,48,48","images/tutgreenplanet.jpg","images/tutalien2","images/tutalien1","images/tutrocket2","images/tutalien2","images/nothing.png","2","practice","true","2","common","0","2022-12-12 03:52:25.898"
"two-step-fixation","69","108465","0.0-61.0-2.2","1982","5013","17","Male","true","false","true","true","""event"",""trial"",""time""
""focus"",""1"",""3892""
""fullscreenenter"",""5"",""14136""
""fullscreenexit"",""14"",""25111""
","
","""event"",""trial"",""time""
""focus"",""1"",""3892""
","""event"",""trial"",""time""
""fullscreenenter"",""5"",""14136""
","""event"",""trial"",""time""
""fullscreenexit"",""14"",""25111""
","","images/earth.jpg","","","","","","","","","","","","","","fixation","","","","","",""
"d3-animate-choice","70","110730","0.0-61.0-0.3","1982","5013","17","Male","true","false","true","true","""event"",""trial"",""time""
""focus"",""1"",""3892""
""fullscreenenter"",""5"",""14136""
""fullscreenexit"",""14"",""25111""
","
","""event"",""trial"",""time""
""focus"",""1"",""3892""
","""event"",""trial"",""time""
""fullscreenenter"",""5"",""14136""
","""event"",""trial"",""time""
""fullscreenexit"",""14"",""25111""
","262.40000000596046","","49","","","3000","1","","","images/earth.jpg","images/tutrocket1","images/tutrocket2","null","images/tutrocket2","","1","practice","null","1","","",""
"d3-animate-choice","71","112818","0.0-61.0-1.3","1982","5013","17","Male","true","false","true","true","""event"",""trial"",""time""
""focus"",""1"",""3892""
""fullscreenenter"",""5"",""14136""
""fullscreenexit"",""14"",""25111""
","
","""event"",""trial"",""time""
""focus"",""1"",""3892""
","""event"",""trial"",""time""
""fullscreenenter"",""5"",""14136""
","""event"",""trial"",""time""
""fullscreenexit"",""14"",""25111""
","82.80000001192093","","48","","","3000","1","","","images/tutgreenplanet.jpg","images/tutalien2","images/tutalien1","images/tutrocket2","images/tutalien2","images/nothing.png","2","practice","true","2","common","0","2022-12-12 03:52:31.262"
"two-step-fixation","72","113827","0.0-61.0-2.3","1982","5013","17","Male","true","false","true","true","""event"",""trial"",""time""
""focus"",""1"",""3892""
""fullscreenenter"",""5"",""14136""
""fullscreenexit"",""14"",""25111""
","
","""event"",""trial"",""time""
""focus"",""1"",""3892""
","""event"",""trial"",""time""
""fullscreenenter"",""5"",""14136""
","""event"",""trial"",""time""
""fullscreenexit"",""14"",""25111""
","","images/earth.jpg","","","","","","","","","","","","","","fixation","","","","","",""
"d3-animate-choice","73","116125","0.0-61.0-0.4","1982","5013","17","Male","true","false","true","true","""event"",""trial"",""time""
""focus"",""1"",""3892""
""fullscreenenter"",""5"",""14136""
""fullscreenexit"",""14"",""25111""
","
","""event"",""trial"",""time""
""focus"",""1"",""3892""
","""event"",""trial"",""time""
""fullscreenenter"",""5"",""14136""
","""event"",""trial"",""time""
""fullscreenexit"",""14"",""25111""
","278.40000000596046","","48","","","3000","1","","","images/earth.jpg","images/tutrocket1","images/tutrocket2","null","images/tutrocket1","","1","practice","null","2","","",""
"d3-animate-choice","74","118378","0.0-61.0-1.4","1982","5013","17","Male","true","false","true","true","""event"",""trial"",""time""
""focus"",""1"",""3892""
""fullscreenenter"",""5"",""14136""
""fullscreenexit"",""14"",""25111""
","
","""event"",""trial"",""time""
""focus"",""1"",""3892""
","""event"",""trial"",""time""
""fullscreenenter"",""5"",""14136""
","""event"",""trial"",""time""
""fullscreenexit"",""14"",""25111""
","248.90000000596046","","48","","","3000","1","","","images/tutyellowplanet.jpg","images/tutalien4","images/tutalien3","images/tutrocket1","images/tutalien4","images/nothing.png","2","practice","true","2","common","0","2022-12-12 03:52:36.822"
"two-step-fixation","75","119387","0.0-61.0-2.4","1982","5013","17","Male","true","false","true","true","""event"",""trial"",""time""
""focus"",""1"",""3892""
""fullscreenenter"",""5"",""14136""
""fullscreenexit"",""14"",""25111""
","
","""event"",""trial"",""time""
""focus"",""1"",""3892""
","""event"",""trial"",""time""
""fullscreenenter"",""5"",""14136""
","""event"",""trial"",""time""
""fullscreenexit"",""14"",""25111""
","","images/earth.jpg","","","","","","","","","","","","","","fixation","","","","","",""
"d3-animate-choice","76","121658","0.0-61.0-0.5","1982","5013","17","Male","true","false","true","true","""event"",""trial"",""time""
""focus"",""1"",""3892""
""fullscreenenter"",""5"",""14136""
""fullscreenexit"",""14"",""25111""
","
","""event"",""trial"",""time""
""focus"",""1"",""3892""
","""event"",""trial"",""time""
""fullscreenenter"",""5"",""14136""
","""event"",""trial"",""time""
""fullscreenexit"",""14"",""25111""
","263.09999999403954","","48","","","3000","1","","","images/earth.jpg","images/tutrocket1","images/tutrocket2","null","images/tutrocket1","","1","practice","null","2","","",""
"d3-animate-choice","77","124250","0.0-61.0-1.5","1982","5013","17","Male","true","false","true","true","""event"",""trial"",""time""
""focus"",""1"",""3892""
""fullscreenenter"",""5"",""14136""
""fullscreenexit"",""14"",""25111""
","
","""event"",""trial"",""time""
""focus"",""1"",""3892""
","""event"",""trial"",""time""
""fullscreenenter"",""5"",""14136""
","""event"",""trial"",""time""
""fullscreenexit"",""14"",""25111""
","584.2000000178814","","49","","","3000","1","","","images/tutgreenplanet.jpg","images/tutalien2","images/tutalien1","images/tutrocket1","images/tutalien1","images/nothing.png","2","practice","false","1","rare","0","2022-12-12 03:52:42.694"
"two-step-fixation","78","125258","0.0-61.0-2.5","1982","5013","17","Male","true","false","true","true","""event"",""trial"",""time""
""focus"",""1"",""3892""
""fullscreenenter"",""5"",""14136""
""fullscreenexit"",""14"",""25111""
","
","""event"",""trial"",""time""
""focus"",""1"",""3892""
","""event"",""trial"",""time""
""fullscreenenter"",""5"",""14136""
","""event"",""trial"",""time""
""fullscreenexit"",""14"",""25111""
","","images/earth.jpg","","","","","","","","","","","","","","fixation","","","","","",""
"d3-animate-choice","79","127523","0.0-61.0-0.6","1982","5013","17","Male","true","false","true","true","""event"",""trial"",""time""
""focus"",""1"",""3892""
""fullscreenenter"",""5"",""14136""
""fullscreenexit"",""14"",""25111""
","
","""event"",""trial"",""time""
""focus"",""1"",""3892""
","""event"",""trial"",""time""
""fullscreenenter"",""5"",""14136""
","""event"",""trial"",""time""
""fullscreenexit"",""14"",""25111""
","260","","48","","","3000","1","","","images/earth.jpg","images/tutrocket1","images/tutrocket2","null","images/tutrocket1","","1","practice","null","2","","",""
"d3-animate-choice","80","130115","0.0-61.0-1.6","1982","5013","17","Male","true","false","true","true","""event"",""trial"",""time""
""focus"",""1"",""3892""
""fullscreenenter"",""5"",""14136""
""fullscreenexit"",""14"",""25111""
","
","""event"",""trial"",""time""
""focus"",""1"",""3892""
","""event"",""trial"",""time""
""fullscreenenter"",""5"",""14136""
","""event"",""trial"",""time""
""fullscreenexit"",""14"",""25111""
","588.0999999940395","","49","","","3000","1","","","images/tutyellowplanet.jpg","images/tutalien4","images/tutalien3","images/tutrocket1","images/tutalien3","images/nothing.png","2","practice","true","1","common","0","2022-12-12 03:52:48.559"
"two-step-fixation","81","131127","0.0-61.0-2.6","1982","5013","17","Male","true","false","true","true","""event"",""trial"",""time""
""focus"",""1"",""3892""
""fullscreenenter"",""5"",""14136""
""fullscreenexit"",""14"",""25111""
","
","""event"",""trial"",""time""
""focus"",""1"",""3892""
","""event"",""trial"",""time""
""fullscreenenter"",""5"",""14136""
","""event"",""trial"",""time""
""fullscreenexit"",""14"",""25111""
","","images/earth.jpg","","","","","","","","","","","","","","fixation","","","","","",""
"d3-animate-choice","82","133363","0.0-61.0-0.7","1982","5013","17","Male","true","false","true","true","""event"",""trial"",""time""
""focus"",""1"",""3892""
""fullscreenenter"",""5"",""14136""
""fullscreenexit"",""14"",""25111""
","
","""event"",""trial"",""time""
""focus"",""1"",""3892""
","""event"",""trial"",""time""
""fullscreenenter"",""5"",""14136""
","""event"",""trial"",""time""
""fullscreenexit"",""14"",""25111""
","224.69999998807907","","49","","","3000","1","","","images/earth.jpg","images/tutrocket1","images/tutrocket2","null","images/tutrocket2","","1","practice","null","1","","",""
"d3-animate-choice","83","135403","0.0-61.0-1.7","1982","5013","17","Male","true","false","true","true","""event"",""trial"",""time""
""focus"",""1"",""3892""
""fullscreenenter"",""5"",""14136""
""fullscreenexit"",""14"",""25111""
","
","""event"",""trial"",""time""
""focus"",""1"",""3892""
","""event"",""trial"",""time""
""fullscreenenter"",""5"",""14136""
","""event"",""trial"",""time""
""fullscreenexit"",""14"",""25111""
","29.80000001192093","","48","","","3000","1","","","images/tutyellowplanet.jpg","images/tutalien4","images/tutalien3","images/tutrocket2","images/tutalien4","images/t.png","2","practice","false","2","rare","1","2022-12-12 03:52:53.847"
"two-step-fixation","84","136410","0.0-61.0-2.7","1982","5013","17","Male","true","false","true","true","""event"",""trial"",""time""
""focus"",""1"",""3892""
""fullscreenenter"",""5"",""14136""
""fullscreenexit"",""14"",""25111""
","
","""event"",""trial"",""time""
""focus"",""1"",""3892""
","""event"",""trial"",""time""
""fullscreenenter"",""5"",""14136""
","""event"",""trial"",""time""
""fullscreenexit"",""14"",""25111""
","","images/earth.jpg","","","","","","","","","","","","","","fixation","","","","","",""
"d3-animate-choice","85","138610","0.0-61.0-0.8","1982","5013","17","Male","true","false","true","true","""event"",""trial"",""time""
""focus"",""1"",""3892""
""fullscreenenter"",""5"",""14136""
""fullscreenexit"",""14"",""25111""
","
","""event"",""trial"",""time""
""focus"",""1"",""3892""
","""event"",""trial"",""time""
""fullscreenenter"",""5"",""14136""
","""event"",""trial"",""time""
""fullscreenexit"",""14"",""25111""
","196.59999999403954","","48","","","3000","1","1834.5999999940395,2001.699999988079,2167.5","48,48,48","images/earth.jpg","images/tutrocket1","images/tutrocket2","null","images/tutrocket1","","1","practice","null","2","","",""
"d3-animate-choice","86","140762","0.0-61.0-1.8","1982","5013","17","Male","true","false","true","true","""event"",""trial"",""time""
""focus"",""1"",""3892""
""fullscreenenter"",""5"",""14136""
""fullscreenexit"",""14"",""25111""
","
","""event"",""trial"",""time""
""focus"",""1"",""3892""
","""event"",""trial"",""time""
""fullscreenenter"",""5"",""14136""
","""event"",""trial"",""time""
""fullscreenexit"",""14"",""25111""
","144.09999999403954","","48","","","3000","1","284.19999998807907,451.39999997615814,608.2999999821186,784.2999999821186,933.0999999940395,1108.199999988079,1739.2999999821186,1923.199999988079","48,48,48,48,48,48,48,48","images/tutyellowplanet.jpg","images/tutalien4","images/tutalien3","images/tutrocket1","images/tutalien4","images/t.png","2","practice","true","2","common","1","2022-12-12 03:52:59.206"
"two-step-fixation","87","141770","0.0-61.0-2.8","1982","5013","17","Male","true","false","true","true","""event"",""trial"",""time""
""focus"",""1"",""3892""
""fullscreenenter"",""5"",""14136""
""fullscreenexit"",""14"",""25111""
","
","""event"",""trial"",""time""
""focus"",""1"",""3892""
","""event"",""trial"",""time""
""fullscreenenter"",""5"",""14136""
","""event"",""trial"",""time""
""fullscreenexit"",""14"",""25111""
","","images/earth.jpg","","","","","","","","","","","","","","fixation","","","","","",""
"d3-animate-choice","88","143866","0.0-61.0-0.9","1982","5013","17","Male","true","false","true","true","""event"",""trial"",""time""
""focus"",""1"",""3892""
""fullscreenenter"",""5"",""14136""
""fullscreenexit"",""14"",""25111""
","
","""event"",""trial"",""time""
""focus"",""1"",""3892""
","""event"",""trial"",""time""
""fullscreenenter"",""5"",""14136""
","""event"",""trial"",""time""
""fullscreenexit"",""14"",""25111""
","87","","48","","","3000","1","288.90000000596046,464.40000000596046,674.9000000059605,866.7000000178814,1042.9000000059605,1208.800000011921,1375.800000011921,1515.800000011921,1656.300000011921,1804.9000000059605","48,48,48,48,48,48,48,48,48,48","images/earth.jpg","images/tutrocket1","images/tutrocket2","null","images/tutrocket1","","1","practice","null","2","","",""
"d3-animate-choice","89","145890","0.0-61.0-1.9","1982","5013","17","Male","true","false","true","true","""event"",""trial"",""time""
""focus"",""1"",""3892""
""fullscreenenter"",""5"",""14136""
""fullscreenexit"",""14"",""25111""
","
","""event"",""trial"",""time""
""focus"",""1"",""3892""
","""event"",""trial"",""time""
""fullscreenenter"",""5"",""14136""
","""event"",""trial"",""time""
""fullscreenexit"",""14"",""25111""
","16.19999998807907","","48","","","3000","1","192.19999998807907,534.1999999880791,701.2999999821186,929.1999999880791,1156.199999988079,1376.4000000059605,1586.2999999821186,1805.199999988079,2016.0999999940395","48,48,48,48,48,48,48,48,48","images/tutyellowplanet.jpg","images/tutalien4","images/tutalien3","images/tutrocket1","images/tutalien4","images/t.png","2","practice","true","2","common","1","2022-12-12 03:53:04.334"
"two-step-fixation","90","146898","0.0-61.0-2.9","1982","5013","17","Male","true","false","true","true","""event"",""trial"",""time""
""focus"",""1"",""3892""
""fullscreenenter"",""5"",""14136""
""fullscreenexit"",""14"",""25111""
","
","""event"",""trial"",""time""
""focus"",""1"",""3892""
","""event"",""trial"",""time""
""fullscreenenter"",""5"",""14136""
","""event"",""trial"",""time""
""fullscreenexit"",""14"",""25111""
","","images/earth.jpg","","","","","","","","","","","","","","fixation","","","","","",""
"d3-animate-choice","91","148930","0.0-61.0-0.10","1982","5013","17","Male","true","false","true","true","""event"",""trial"",""time""
""focus"",""1"",""3892""
""fullscreenenter"",""5"",""14136""
""fullscreenexit"",""14"",""25111""
","
","""event"",""trial"",""time""
""focus"",""1"",""3892""
","""event"",""trial"",""time""
""fullscreenenter"",""5"",""14136""
","""event"",""trial"",""time""
""fullscreenexit"",""14"",""25111""
","27.700000017881393","","48","","","3000","1","229.60000002384186,474.30000001192093,676.4000000059605,869.4000000059605,1053.7000000178814,1272.6000000238419,1544.300000011921,1790.4000000059605,2026.4000000059605","48,48,48,48,48,48,48,48,48","images/earth.jpg","images/tutrocket1","images/tutrocket2","null","images/tutrocket1","","1","practice","null","2","","",""
"d3-animate-choice","92","151186","0.0-61.0-1.10","1982","5013","17","Male","true","false","true","true","""event"",""trial"",""time""
""focus"",""1"",""3892""
""fullscreenenter"",""5"",""14136""
""fullscreenexit"",""14"",""25111""
","
","""event"",""trial"",""time""
""focus"",""1"",""3892""
","""event"",""trial"",""time""
""fullscreenenter"",""5"",""14136""
","""event"",""trial"",""time""
""fullscreenexit"",""14"",""25111""
","249.80000001192093","","48","","","3000","1","484.40000000596046,721.5,958.6000000238419,1212.5,1440.4000000059605,1651.300000011921,1879.300000011921","48,48,48,48,48,48,48","images/tutyellowplanet.jpg","images/tutalien4","images/tutalien3","images/tutrocket1","images/tutalien4","images/nothing.png","2","practice","true","2","common","0","2022-12-12 03:53:09.630"
"two-step-fixation","93","152194","0.0-61.0-2.10","1982","5013","17","Male","true","false","true","true","""event"",""trial"",""time""
""focus"",""1"",""3892""
""fullscreenenter"",""5"",""14136""
""fullscreenexit"",""14"",""25111""
","
","""event"",""trial"",""time""
""focus"",""1"",""3892""
","""event"",""trial"",""time""
""fullscreenenter"",""5"",""14136""
","""event"",""trial"",""time""
""fullscreenexit"",""14"",""25111""
","","images/earth.jpg","","","","","","","","","","","","","","fixation","","","","","",""
"d3-animate-choice","94","154226","0.0-61.0-0.11","1982","5013","17","Male","true","false","true","true","""event"",""trial"",""time""
""focus"",""1"",""3892""
""fullscreenenter"",""5"",""14136""
""fullscreenexit"",""14"",""25111""
","
","""event"",""trial"",""time""
""focus"",""1"",""3892""
","""event"",""trial"",""time""
""fullscreenenter"",""5"",""14136""
","""event"",""trial"",""time""
""fullscreenexit"",""14"",""25111""
","26.799999982118607","","48","","","3000","1","255.2999999821186,464.7999999821186,675.8999999761581,929.7999999821186,1158.199999988079,1376.7999999821186,1586.7999999821186,1788.7999999821186,1981.8999999761581","48,48,48,48,48,48,48,48,48","images/earth.jpg","images/tutrocket1","images/tutrocket2","null","images/tutrocket1","","1","practice","null","2","","",""
"d3-animate-choice","95","156435","0.0-61.0-1.11","1982","5013","17","Male","true","false","true","true","""event"",""trial"",""time""
""focus"",""1"",""3892""
""fullscreenenter"",""5"",""14136""
""fullscreenexit"",""14"",""25111""
","
","""event"",""trial"",""time""
""focus"",""1"",""3892""
","""event"",""trial"",""time""
""fullscreenenter"",""5"",""14136""
","""event"",""trial"",""time""
""fullscreenexit"",""14"",""25111""
","204.19999998807907","","48","","","3000","1","467,686.0999999940395,923,1133.0999999940395,1361.0999999940395,1571.0999999940395,1772.9000000059605,2009.0999999940395","48,48,48,48,48,48,48,48","images/tutgreenplanet.jpg","images/tutalien2","images/tutalien1","images/tutrocket1","images/tutalien2","images/nothing.png","2","practice","false","2","rare","0","2022-12-12 03:53:14.879"
"two-step-fixation","96","157438","0.0-61.0-2.11","1982","5013","17","Male","true","false","true","true","""event"",""trial"",""time""
""focus"",""1"",""3892""
""fullscreenenter"",""5"",""14136""
""fullscreenexit"",""14"",""25111""
","
","""event"",""trial"",""time""
""focus"",""1"",""3892""
","""event"",""trial"",""time""
""fullscreenenter"",""5"",""14136""
","""event"",""trial"",""time""
""fullscreenexit"",""14"",""25111""
","","images/earth.jpg","","","","","","","","","","","","","","fixation","","","","","",""
"d3-animate-choice","97","159579","0.0-61.0-0.12","1982","5013","17","Male","true","false","true","true","""event"",""trial"",""time""
""focus"",""1"",""3892""
""fullscreenenter"",""5"",""14136""
""fullscreenexit"",""14"",""25111""
","
","""event"",""trial"",""time""
""focus"",""1"",""3892""
","""event"",""trial"",""time""
""fullscreenenter"",""5"",""14136""
","""event"",""trial"",""time""
""fullscreenexit"",""14"",""25111""
","138.59999999403954","","48","","","3000","1","349.59999999403954,550.5999999940395,778.5999999940395,1041.699999988079,1295.5,1523.699999988079,1742.5,1935.5999999940395","48,48,48,48,48,48,48,48","images/earth.jpg","images/tutrocket1","images/tutrocket2","null","images/tutrocket1","","1","practice","null","2","","",""
"d3-animate-choice","98","161586","0.0-61.0-1.12","1982","5013","17","Male","true","false","true","true","""event"",""trial"",""time""
""focus"",""1"",""3892""
""fullscreenenter"",""5"",""14136""
""fullscreenexit"",""14"",""25111""
","
","""event"",""trial"",""time""
""focus"",""1"",""3892""
","""event"",""trial"",""time""
""fullscreenenter"",""5"",""14136""
","""event"",""trial"",""time""
""fullscreenexit"",""14"",""25111""
","4.300000011920929","","48","","","3000","1","232.2000000178814,452.40000000596046,679.4000000059605,890.4000000059605,1144.4000000059605,1354.2000000178814,1591.4000000059605,1819.5","48,48,48,48,48,48,48,48","images/tutyellowplanet.jpg","images/tutalien4","images/tutalien3","images/tutrocket1","images/tutalien4","images/t.png","2","practice","true","2","common","1","2022-12-12 03:53:20.030"
"two-step-fixation","99","162592","0.0-61.0-2.12","1982","5013","17","Male","true","false","true","true","""event"",""trial"",""time""
""focus"",""1"",""3892""
""fullscreenenter"",""5"",""14136""
""fullscreenexit"",""14"",""25111""
","
","""event"",""trial"",""time""
""focus"",""1"",""3892""
","""event"",""trial"",""time""
""fullscreenenter"",""5"",""14136""
","""event"",""trial"",""time""
""fullscreenexit"",""14"",""25111""
","","images/earth.jpg","","","","","","","","","","","","","","fixation","","","","","",""
"d3-animate-choice","100","164739","0.0-61.0-0.13","1982","5013","17","Male","true","false","true","true","""event"",""trial"",""time""
""focus"",""1"",""3892""
""fullscreenenter"",""5"",""14136""
""fullscreenexit"",""14"",""25111""
","
","""event"",""trial"",""time""
""focus"",""1"",""3892""
","""event"",""trial"",""time""
""fullscreenenter"",""5"",""14136""
","""event"",""trial"",""time""
""fullscreenexit"",""14"",""25111""
","138.40000000596046","","48","","","3000","1","357.5,576.4000000059605,795.5999999940395,1023.9000000059605,1277.5999999940395,1505.7000000178814,1742.5,1970.5999999940395","48,48,48,48,48,48,48,48","images/earth.jpg","images/tutrocket1","images/tutrocket2","null","images/tutrocket1","","1","practice","null","2","","",""
"d3-animate-choice","101","166810","0.0-61.0-1.13","1982","5013","17","Male","true","false","true","true","""event"",""trial"",""time""
""focus"",""1"",""3892""
""fullscreenenter"",""5"",""14136""
""fullscreenexit"",""14"",""25111""
","
","""event"",""trial"",""time""
""focus"",""1"",""3892""
","""event"",""trial"",""time""
""fullscreenenter"",""5"",""14136""
","""event"",""trial"",""time""
""fullscreenexit"",""14"",""25111""
","68.2999999821186","","48","","","3000","1","270.19999998807907,498.2999999821186,708.1999999880791,936.1999999880791,1155.0999999940395,1383.2999999821186,1611.199999988079,1839.0999999940395,2049.2999999821186","48,48,48,48,48,48,48,48,48","images/tutyellowplanet.jpg","images/tutalien4","images/tutalien3","images/tutrocket1","images/tutalien4","images/t.png","2","practice","true","2","common","1","2022-12-12 03:53:25.254"
"two-step-fixation","102","167819","0.0-61.0-2.13","1982","5013","17","Male","true","false","true","true","""event"",""trial"",""time""
""focus"",""1"",""3892""
""fullscreenenter"",""5"",""14136""
""fullscreenexit"",""14"",""25111""
","
","""event"",""trial"",""time""
""focus"",""1"",""3892""
","""event"",""trial"",""time""
""fullscreenenter"",""5"",""14136""
","""event"",""trial"",""time""
""fullscreenexit"",""14"",""25111""
","","images/earth.jpg","","","","","","","","","","","","","","fixation","","","","","",""
"d3-animate-choice","103","169907","0.0-61.0-0.14","1982","5013","17","Male","true","false","true","true","""event"",""trial"",""time""
""focus"",""1"",""3892""
""fullscreenenter"",""5"",""14136""
""fullscreenexit"",""14"",""25111""
","
","""event"",""trial"",""time""
""focus"",""1"",""3892""
","""event"",""trial"",""time""
""fullscreenenter"",""5"",""14136""
","""event"",""trial"",""time""
""fullscreenexit"",""14"",""25111""
","82.09999999403954","","48","","","3000","1","318.19999998807907,538.5,748.1999999880791,993.1999999880791,1221,1432.199999988079,1633.199999988079,1870.2999999821186","48,48,48,48,48,48,48,48","images/earth.jpg","images/tutrocket1","images/tutrocket2","null","images/tutrocket1","","1","practice","null","2","","",""
"d3-animate-choice","104","171912","0.0-61.0-1.14","1982","5013","17","Male","true","false","true","true","""event"",""trial"",""time""
""focus"",""1"",""3892""
""fullscreenenter"",""5"",""14136""
""fullscreenexit"",""14"",""25111""
","
","""event"",""trial"",""time""
""focus"",""1"",""3892""
","""event"",""trial"",""time""
""fullscreenenter"",""5"",""14136""
","""event"",""trial"",""time""
""fullscreenexit"",""14"",""25111""
","0.9000000059604645","","48","","","3000","1","228.5,439.5,684.5999999940395,894.5999999940395,1105,1323.5999999940395,1551.5,1762.699999988079,1990.5","48,48,48,48,48,48,48,48,48","images/tutyellowplanet.jpg","images/tutalien4","images/tutalien3","images/tutrocket1","images/tutalien4","images/t.png","2","practice","true","2","common","1","2022-12-12 03:53:30.356"
"two-step-fixation","105","172923","0.0-61.0-2.14","1982","5013","17","Male","true","false","true","true","""event"",""trial"",""time""
""focus"",""1"",""3892""
""fullscreenenter"",""5"",""14136""
""fullscreenexit"",""14"",""25111""
","
","""event"",""trial"",""time""
""focus"",""1"",""3892""
","""event"",""trial"",""time""
""fullscreenenter"",""5"",""14136""
","""event"",""trial"",""time""
""fullscreenexit"",""14"",""25111""
","","images/earth.jpg","","","","","","","","","","","","","","fixation","","","","","",""
"d3-animate-choice","106","175035","0.0-61.0-0.15","1982","5013","17","Male","true","false","true","true","""event"",""trial"",""time""
""focus"",""1"",""3892""
""fullscreenenter"",""5"",""14136""
""fullscreenexit"",""14"",""25111""
","
","""event"",""trial"",""time""
""focus"",""1"",""3892""
","""event"",""trial"",""time""
""fullscreenenter"",""5"",""14136""
","""event"",""trial"",""time""
""fullscreenexit"",""14"",""25111""
","105.69999998807907","","48","","","3000","1","360.69999998807907,816,1279.8999999761581,1683.7999999821186,1910.699999988079","48,48,48,48,48","images/earth.jpg","images/tutrocket1","images/tutrocket2","null","images/tutrocket1","","1","practice","null","2","","",""
"d3-animate-choice","107","177058","0.0-61.0-1.15","1982","5013","17","Male","true","false","true","true","""event"",""trial"",""time""
""focus"",""1"",""3892""
""fullscreenenter"",""5"",""14136""
""fullscreenexit"",""14"",""25111""
","
","""event"",""trial"",""time""
""focus"",""1"",""3892""
","""event"",""trial"",""time""
""fullscreenenter"",""5"",""14136""
","""event"",""trial"",""time""
""fullscreenexit"",""14"",""25111""
","17","","48","","","3000","1","254.09999999403954,473,692.1999999880791,946,1183,1385.0999999940395,1621.300000011921,1823.199999988079","48,48,48,48,48,48,48,48","images/tutyellowplanet.jpg","images/tutalien4","images/tutalien3","images/tutrocket1","images/tutalien4","images/t.png","2","practice","true","2","common","1","2022-12-12 03:53:35.502"
"two-step-fixation","108","178067","0.0-61.0-2.15","1982","5013","17","Male","true","false","true","true","""event"",""trial"",""time""
""focus"",""1"",""3892""
""fullscreenenter"",""5"",""14136""
""fullscreenexit"",""14"",""25111""
","
","""event"",""trial"",""time""
""focus"",""1"",""3892""
","""event"",""trial"",""time""
""fullscreenenter"",""5"",""14136""
","""event"",""trial"",""time""
""fullscreenexit"",""14"",""25111""
","","images/earth.jpg","","","","","","","","","","","","","","fixation","","","","","",""
"d3-animate-choice","109","180220","0.0-61.0-0.16","1982","5013","17","Male","true","false","true","true","""event"",""trial"",""time""
""focus"",""1"",""3892""
""fullscreenenter"",""5"",""14136""
""fullscreenexit"",""14"",""25111""
","
","""event"",""trial"",""time""
""focus"",""1"",""3892""
","""event"",""trial"",""time""
""fullscreenenter"",""5"",""14136""
","""event"",""trial"",""time""
""fullscreenexit"",""14"",""25111""
","150.09999999403954","","48","","","3000","1","360.09999999403954,587.9000000059605,833,1051.800000011921,1263.0999999940395,1482.0999999940395,1710.0999999940395,1937","48,48,48,48,48,48,48,48","images/earth.jpg","images/tutrocket1","images/tutrocket2","null","images/tutrocket1","","1","practice","null","2","","",""
"d3-animate-choice","110","182227","0.0-61.0-1.16","1982","5013","17","Male","true","false","true","true","""event"",""trial"",""time""
""focus"",""1"",""3892""
""fullscreenenter"",""5"",""14136""
""fullscreenexit"",""14"",""25111""
","
","""event"",""trial"",""time""
""focus"",""1"",""3892""
","""event"",""trial"",""time""
""fullscreenenter"",""5"",""14136""
","""event"",""trial"",""time""
""fullscreenexit"",""14"",""25111""
","3.4000000059604645","","48","","","3000","1","214.80000001192093,415.30000001192093,652.5,880.5,1099.6000000238419,1335.300000011921,1563.4000000059605,1801","48,48,48,48,48,48,48,48","images/tutyellowplanet.jpg","images/tutalien4","images/tutalien3","images/tutrocket1","images/tutalien4","images/nothing.png","2","practice","true","2","common","0","2022-12-12 03:53:40.672"
"two-step-fixation","111","183235","0.0-61.0-2.16","1982","5013","17","Male","true","false","true","true","""event"",""trial"",""time""
""focus"",""1"",""3892""
""fullscreenenter"",""5"",""14136""
""fullscreenexit"",""14"",""25111""
","
","""event"",""trial"",""time""
""focus"",""1"",""3892""
","""event"",""trial"",""time""
""fullscreenenter"",""5"",""14136""
","""event"",""trial"",""time""
""fullscreenexit"",""14"",""25111""
","","images/earth.jpg","","","","","","","","","","","","","","fixation","","","","","",""
"d3-animate-choice","112","185347","0.0-61.0-0.17","1982","5013","17","Male","true","false","true","true","""event"",""trial"",""time""
""focus"",""1"",""3892""
""fullscreenenter"",""5"",""14136""
""fullscreenexit"",""14"",""25111""
","
","""event"",""trial"",""time""
""focus"",""1"",""3892""
","""event"",""trial"",""time""
""fullscreenenter"",""5"",""14136""
","""event"",""trial"",""time""
""fullscreenexit"",""14"",""25111""
","107.90000000596046","","48","","","3000","1","327.09999999403954,546.2000000178814,783,992.8000000119209,1247.0999999940395,1457,1676.0999999940395,1894.9000000059605","48,48,48,48,48,48,48,48","images/earth.jpg","images/tutrocket1","images/tutrocket2","null","images/tutrocket1","","1","practice","null","2","","",""
"d3-animate-choice","113","187371","0.0-61.0-1.17","1982","5013","17","Male","true","false","true","true","""event"",""trial"",""time""
""focus"",""1"",""3892""
""fullscreenenter"",""5"",""14136""
""fullscreenexit"",""14"",""25111""
","
","""event"",""trial"",""time""
""focus"",""1"",""3892""
","""event"",""trial"",""time""
""fullscreenenter"",""5"",""14136""
","""event"",""trial"",""time""
""fullscreenexit"",""14"",""25111""
","20.19999998807907","","48","","","3000","1","230.59999999403954,467.19999998807907,668.1999999880791,923.1999999880791,1133.199999988079,1369.0999999940395,1588.0999999940395,1799.2999999821186","48,48,48,48,48,48,48,48","images/tutgreenplanet.jpg","images/tutalien2","images/tutalien1","images/tutrocket1","images/tutalien2","images/nothing.png","2","practice","false","2","rare","0","2022-12-12 03:53:45.815"
"two-step-fixation","114","188379","0.0-61.0-2.17","1982","5013","17","Male","true","false","true","true","""event"",""trial"",""time""
""focus"",""1"",""3892""
""fullscreenenter"",""5"",""14136""
""fullscreenexit"",""14"",""25111""
","
","""event"",""trial"",""time""
""focus"",""1"",""3892""
","""event"",""trial"",""time""
""fullscreenenter"",""5"",""14136""
","""event"",""trial"",""time""
""fullscreenexit"",""14"",""25111""
","","images/earth.jpg","","","","","","","","","","","","","","fixation","","","","","",""
"d3-animate-choice","115","190555","0.0-61.0-0.18","1982","5013","17","Male","true","false","true","true","""event"",""trial"",""time""
""focus"",""1"",""3892""
""fullscreenenter"",""5"",""14136""
""fullscreenexit"",""14"",""25111""
","
","""event"",""trial"",""time""
""focus"",""1"",""3892""
","""event"",""trial"",""time""
""fullscreenenter"",""5"",""14136""
","""event"",""trial"",""time""
""fullscreenexit"",""14"",""25111""
","169","","48","","","3000","1","405.09999999403954,852.3000000119209,1054,1281.9000000059605,1491.9000000059605,1736.9000000059605,1965","48,48,48,48,48,48,48","images/earth.jpg","images/tutrocket1","images/tutrocket2","null","images/tutrocket1","","1","practice","null","2","","",""
"d3-animate-choice","116","192596","0.0-61.0-1.18","1982","5013","17","Male","true","false","true","true","""event"",""trial"",""time""
""focus"",""1"",""3892""
""fullscreenenter"",""5"",""14136""
""fullscreenexit"",""14"",""25111""
","
","""event"",""trial"",""time""
""focus"",""1"",""3892""
","""event"",""trial"",""time""
""fullscreenenter"",""5"",""14136""
","""event"",""trial"",""time""
""fullscreenexit"",""14"",""25111""
","34.099999994039536","","48","","","3000","1","253,464.09999999403954,692.5,963.0999999940395,1199.800000011921,1445.199999988079,1761.0999999940395","48,48,48,48,48,48,48","images/tutyellowplanet.jpg","images/tutalien4","images/tutalien3","images/tutrocket1","images/tutalien4","images/t.png","2","practice","true","2","common","1","2022-12-12 03:53:51.040"
"two-step-fixation","117","193603","0.0-61.0-2.18","1982","5013","17","Male","true","false","true","true","""event"",""trial"",""time""
""focus"",""1"",""3892""
""fullscreenenter"",""5"",""14136""
""fullscreenexit"",""14"",""25111""
","
","""event"",""trial"",""time""
""focus"",""1"",""3892""
","""event"",""trial"",""time""
""fullscreenenter"",""5"",""14136""
","""event"",""trial"",""time""
""fullscreenexit"",""14"",""25111""
","","images/earth.jpg","","","","","","","","","","","","","","fixation","","","","","",""
"d3-animate-choice","118","195876","0.0-61.0-0.19","1982","5013","17","Male","true","false","true","true","""event"",""trial"",""time""
""focus"",""1"",""3892""
""fullscreenenter"",""5"",""14136""
""fullscreenexit"",""14"",""25111""
","
","""event"",""trial"",""time""
""focus"",""1"",""3892""
","""event"",""trial"",""time""
""fullscreenenter"",""5"",""14136""
","""event"",""trial"",""time""
""fullscreenexit"",""14"",""25111""
","263.69999998807907","","48","","","3000","1","781,1314.2999999821186,1814.199999988079","48,48,48","images/earth.jpg","images/tutrocket1","images/tutrocket2","null","images/tutrocket1","","1","practice","null","2","","",""
"d3-animate-choice","119","198234","0.0-61.0-1.19","1982","5013","17","Male","true","false","true","true","""event"",""trial"",""time""
""focus"",""1"",""3892""
""fullscreenenter"",""5"",""14136""
""fullscreenexit"",""14"",""25111""
","
","""event"",""trial"",""time""
""focus"",""1"",""3892""
","""event"",""trial"",""time""
""fullscreenenter"",""5"",""14136""
","""event"",""trial"",""time""
""fullscreenexit"",""14"",""25111""
","85.7000000178814","","79","","","3000","1","85.80000001192093,355.5,618.5,881.4000000059605,1127.4000000059605,1372.4000000059605,1644.800000011921,1924.5,2169.300000011921","80,48,48,48,48,48,48,48,48","images/tutgreenplanet.jpg","images/tutalien2","images/tutalien1","images/tutrocket1","images/tutalien2","images/t.png","2","practice","false","","rare","1","2022-12-12 03:53:56.678"
"two-step-fixation","120","199243","0.0-61.0-2.19","1982","5013","17","Male","true","false","true","true","""event"",""trial"",""time""
""focus"",""1"",""3892""
""fullscreenenter"",""5"",""14136""
""fullscreenexit"",""14"",""25111""
","
","""event"",""trial"",""time""
""focus"",""1"",""3892""
","""event"",""trial"",""time""
""fullscreenenter"",""5"",""14136""
","""event"",""trial"",""time""
""fullscreenexit"",""14"",""25111""
","","images/earth.jpg","","","","","","","","","","","","","","fixation","","","","","",""
"d3-instructions","121","203707","0.0-62.0","1982","5013","17","Male","true","false","true","true","""event"",""trial"",""time""
""focus"",""1"",""3892""
""fullscreenenter"",""5"",""14136""
""fullscreenexit"",""14"",""25111""
","
","""event"",""trial"",""time""
""focus"",""1"",""3892""
","""event"",""trial"",""time""
""fullscreenenter"",""5"",""14136""
","""event"",""trial"",""time""
""fullscreenexit"",""14"",""25111""
","","","","","","","","","","","","","","","","","","","","","",""
"audio-keyboard-response","122","206764","0.0-63.0","1982","5013","17","Male","true","false","true","true","""event"",""trial"",""time""
""focus"",""1"",""3892""
""fullscreenenter"",""5"",""14136""
""fullscreenexit"",""14"",""25111""
","
","""event"",""trial"",""time""
""focus"",""1"",""3892""
","""event"",""trial"",""time""
""fullscreenenter"",""5"",""14136""
","""event"",""trial"",""time""
""fullscreenexit"",""14"",""25111""
","3059","audio/instructions/treasure_feedback.wav","32","","","","","","","","","","","","","","","","","","",""
"d3-instructions","123","207964","0.0-64.0","1982","5013","17","Male","true","false","true","true","""event"",""trial"",""time""
""focus"",""1"",""3892""
""fullscreenenter"",""5"",""14136""
""fullscreenexit"",""14"",""25111""
","
","""event"",""trial"",""time""
""focus"",""1"",""3892""
","""event"",""trial"",""time""
""fullscreenenter"",""5"",""14136""
","""event"",""trial"",""time""
""fullscreenexit"",""14"",""25111""
","","","","","","","","","","","","","","","","","","","","","",""
"d3-instructions","124","208436","0.0-65.0","1982","5013","17","Male","true","false","true","true","""event"",""trial"",""time""
""focus"",""1"",""3892""
""fullscreenenter"",""5"",""14136""
""fullscreenexit"",""14"",""25111""
","
","""event"",""trial"",""time""
""focus"",""1"",""3892""
","""event"",""trial"",""time""
""fullscreenenter"",""5"",""14136""
","""event"",""trial"",""time""
""fullscreenexit"",""14"",""25111""
","","","","","","","","","","","","","","","","","","","","","",""
"d3-instructions","125","209480","0.0-66.0","1982","5013","17","Male","true","false","true","true","""event"",""trial"",""time""
""focus"",""1"",""3892""
""fullscreenenter"",""5"",""14136""
""fullscreenexit"",""14"",""25111""
","
","""event"",""trial"",""time""
""focus"",""1"",""3892""
","""event"",""trial"",""time""
""fullscreenenter"",""5"",""14136""
","""event"",""trial"",""time""
""fullscreenexit"",""14"",""25111""
","","","","","","","","","","","","","","","","","","","","","",""
"d3-instructions","126","210049","0.0-67.0","1982","5013","17","Male","true","false","true","true","""event"",""trial"",""time""
""focus"",""1"",""3892""
""fullscreenenter"",""5"",""14136""
""fullscreenexit"",""14"",""25111""
","
","""event"",""trial"",""time""
""focus"",""1"",""3892""
","""event"",""trial"",""time""
""fullscreenenter"",""5"",""14136""
","""event"",""trial"",""time""
""fullscreenexit"",""14"",""25111""
","","","","","","","","","","","","","","","","","","","","","",""
"d3-instructions","127","210505","0.0-68.0","1982","5013","17","Male","true","false","true","true","""event"",""trial"",""time""
""focus"",""1"",""3892""
""fullscreenenter"",""5"",""14136""
""fullscreenexit"",""14"",""25111""
","
","""event"",""trial"",""time""
""focus"",""1"",""3892""
","""event"",""trial"",""time""
""fullscreenenter"",""5"",""14136""
","""event"",""trial"",""time""
""fullscreenexit"",""14"",""25111""
","","","","","","","","","","","","","","","","","","","","","",""
"instructions-quiz","128","212464","0.0-69.0","1982","5013","17","Male","true","false","true","true","""event"",""trial"",""time""
""focus"",""1"",""3892""
""fullscreenenter"",""5"",""14136""
""fullscreenexit"",""14"",""25111""
","
","""event"",""trial"",""time""
""focus"",""1"",""3892""
","""event"",""trial"",""time""
""fullscreenenter"",""5"",""14136""
","""event"",""trial"",""time""
""fullscreenexit"",""14"",""25111""
","1957.2000000178814","audio/quiz/Q1_Prompt.wav","","1","","","","","","","","","","","","","","","","","",""
"audio-keyboard-response","129","212624","0.0-70.0","1982","5013","17","Male","true","false","true","true","""event"",""trial"",""time""
""focus"",""1"",""3892""
""fullscreenenter"",""5"",""14136""
""fullscreenexit"",""14"",""25111""
","
","""event"",""trial"",""time""
""focus"",""1"",""3892""
","""event"",""trial"",""time""
""fullscreenenter"",""5"",""14136""
","""event"",""trial"",""time""
""fullscreenexit"",""14"",""25111""
","149","audio/quiz/Q1_Correct.wav","32","","","","","","","","","","","","","","","","","","",""
"instructions-quiz","130","214935","0.0-71.0","1982","5013","17","Male","true","false","true","true","""event"",""trial"",""time""
""focus"",""1"",""3892""
""fullscreenenter"",""5"",""14136""
""fullscreenexit"",""14"",""25111""
","
","""event"",""trial"",""time""
""focus"",""1"",""3892""
","""event"",""trial"",""time""
""fullscreenenter"",""5"",""14136""
","""event"",""trial"",""time""
""fullscreenexit"",""14"",""25111""
","2310.0999999940395","audio/quiz/Q2_Prompt.wav","","0","","","","","","","","","","","","","","","","","",""
"audio-keyboard-response","131","215016","0.0-72.0","1982","5013","17","Male","true","false","true","true","""event"",""trial"",""time""
""focus"",""1"",""3892""
""fullscreenenter"",""5"",""14136""
""fullscreenexit"",""14"",""25111""
","
","""event"",""trial"",""time""
""focus"",""1"",""3892""
","""event"",""trial"",""time""
""fullscreenenter"",""5"",""14136""
","""event"",""trial"",""time""
""fullscreenexit"",""14"",""25111""
","80","audio/quiz/Q2_Correct.wav","32","","","","","","","","","","","","","","","","","","",""
"instructions-quiz","132","216143","0.0-73.0","1982","5013","17","Male","true","false","true","true","""event"",""trial"",""time""
""focus"",""1"",""3892""
""fullscreenenter"",""5"",""14136""
""fullscreenexit"",""14"",""25111""
","
","""event"",""trial"",""time""
""focus"",""1"",""3892""
","""event"",""trial"",""time""
""fullscreenenter"",""5"",""14136""
","""event"",""trial"",""time""
""fullscreenexit"",""14"",""25111""
","1126.5","audio/quiz/Q3_Prompt.wav","","1","","","","","","","","","","","","","","","","","",""
"audio-keyboard-response","133","216163","0.0-74.0","1982","5013","17","Male","true","false","true","true","""event"",""trial"",""time""
""focus"",""1"",""3892""
""fullscreenenter"",""5"",""14136""
""fullscreenexit"",""14"",""25111""
","
","""event"",""trial"",""time""
""focus"",""1"",""3892""
","""event"",""trial"",""time""
""fullscreenenter"",""5"",""14136""
","""event"",""trial"",""time""
""fullscreenexit"",""14"",""25111""
","11","audio/quiz/Q3_Correct.wav","32","","","","","","","","","","","","","","","","","","",""
"d3-instructions","134","224081","0.0-75.0","1982","5013","17","Male","true","false","true","true","""event"",""trial"",""time""
""focus"",""1"",""3892""
""fullscreenenter"",""5"",""14136""
""fullscreenexit"",""14"",""25111""
","
","""event"",""trial"",""time""
""focus"",""1"",""3892""
","""event"",""trial"",""time""
""fullscreenenter"",""5"",""14136""
","""event"",""trial"",""time""
""fullscreenexit"",""14"",""25111""
","","","","","","","","","","","","","","","","","","","","","",""
"d3-animate-choice","135","227043","0.0-76.0-0.0","1982","5013","17","Male","true","false","true","true","""event"",""trial"",""time""
""focus"",""1"",""3892""
""fullscreenenter"",""5"",""14136""
""fullscreenexit"",""14"",""25111""
","
","""event"",""trial"",""time""
""focus"",""1"",""3892""
","""event"",""trial"",""time""
""fullscreenenter"",""5"",""14136""
","""event"",""trial"",""time""
""fullscreenexit"",""14"",""25111""
","953.1999999880791","","49","","","3000","1","","","images/earth.jpg","images/rocket2","images/rocket1","null","images/rocket1","","1","real","null","1","","",""
"d3-animate-choice","136","229283","0.0-76.0-1.0","1982","5013","17","Male","true","false","true","true","""event"",""trial"",""time""
""focus"",""1"",""3892""
""fullscreenenter"",""5"",""14136""
""fullscreenexit"",""14"",""25111""
","
","""event"",""trial"",""time""
""focus"",""1"",""3892""
","""event"",""trial"",""time""
""fullscreenenter"",""5"",""14136""
","""event"",""trial"",""time""
""fullscreenexit"",""14"",""25111""
","232.30000001192093","","48","","","3000","1","","","images/purpleplanet.jpg","images/alien4","images/alien3","images/rocket1","images/alien4","images/nothing.png","2","real","true","2","common","0","2022-12-12 03:54:27.727"
"two-step-fixation","137","230291","0.0-76.0-2.0","1982","5013","17","Male","true","false","true","true","""event"",""trial"",""time""
""focus"",""1"",""3892""
""fullscreenenter"",""5"",""14136""
""fullscreenexit"",""14"",""25111""
","
","""event"",""trial"",""time""
""focus"",""1"",""3892""
","""event"",""trial"",""time""
""fullscreenenter"",""5"",""14136""
","""event"",""trial"",""time""
""fullscreenexit"",""14"",""25111""
","","images/earth.jpg","","","","","","","","","","","","","","fixation","","","","","",""
"d3-animate-choice","138","232581","0.0-76.0-0.1","1982","5013","17","Male","true","false","true","true","""event"",""trial"",""time""
""focus"",""1"",""3892""
""fullscreenenter"",""5"",""14136""
""fullscreenexit"",""14"",""25111""
","
","""event"",""trial"",""time""
""focus"",""1"",""3892""
","""event"",""trial"",""time""
""fullscreenenter"",""5"",""14136""
","""event"",""trial"",""time""
""fullscreenexit"",""14"",""25111""
","286.80000001192093","","49","","","3000","1","","","images/earth.jpg","images/rocket2","images/rocket1","null","images/rocket1","","1","real","null","1","","",""
"d3-animate-choice","139","234940","0.0-76.0-1.1","1982","5013","17","Male","true","false","true","true","""event"",""trial"",""time""
""focus"",""1"",""3892""
""fullscreenenter"",""5"",""14136""
""fullscreenexit"",""14"",""25111""
","
","""event"",""trial"",""time""
""focus"",""1"",""3892""
","""event"",""trial"",""time""
""fullscreenenter"",""5"",""14136""
","""event"",""trial"",""time""
""fullscreenexit"",""14"",""25111""
","353.19999998807907","","49","","","3000","1","","","images/purpleplanet.jpg","images/alien4","images/alien3","images/rocket1","images/alien3","images/nothing.png","2","real","true","1","common","0","2022-12-12 03:54:33.384"
"two-step-fixation","140","235948","0.0-76.0-2.1","1982","5013","17","Male","true","false","true","true","""event"",""trial"",""time""
""focus"",""1"",""3892""
""fullscreenenter"",""5"",""14136""
""fullscreenexit"",""14"",""25111""
","
","""event"",""trial"",""time""
""focus"",""1"",""3892""
","""event"",""trial"",""time""
""fullscreenenter"",""5"",""14136""
","""event"",""trial"",""time""
""fullscreenexit"",""14"",""25111""
","","images/earth.jpg","","","","","","","","","","","","","","fixation","","","","","",""
"d3-animate-choice","141","238147","0.0-76.0-0.2","1982","5013","17","Male","true","false","true","true","""event"",""trial"",""time""
""focus"",""1"",""3892""
""fullscreenenter"",""5"",""14136""
""fullscreenexit"",""14"",""25111""
","
","""event"",""trial"",""time""
""focus"",""1"",""3892""
","""event"",""trial"",""time""
""fullscreenenter"",""5"",""14136""
","""event"",""trial"",""time""
""fullscreenexit"",""14"",""25111""
","192.30000001192093","","48","","","3000","1","","","images/earth.jpg","images/rocket2","images/rocket1","null","images/rocket2","","1","real","null","2","","",""
"d3-animate-choice","142","240502","0.0-76.0-1.2","1982","5013","17","Male","true","false","true","true","""event"",""trial"",""time""
""focus"",""1"",""3892""
""fullscreenenter"",""5"",""14136""
""fullscreenexit"",""14"",""25111""
","
","""event"",""trial"",""time""
""focus"",""1"",""3892""
","""event"",""trial"",""time""
""fullscreenenter"",""5"",""14136""
","""event"",""trial"",""time""
""fullscreenexit"",""14"",""25111""
","348.5","","48","","","3000","1","","","images/redplanet1.jpg","images/alien2","images/alien1","images/rocket2","images/alien2","images/t.png","2","real","true","2","common","1","2022-12-12 03:54:38.946"
"two-step-fixation","143","241507","0.0-76.0-2.2","1982","5013","17","Male","true","false","true","true","""event"",""trial"",""time""
""focus"",""1"",""3892""
""fullscreenenter"",""5"",""14136""
""fullscreenexit"",""14"",""25111""
","
","""event"",""trial"",""time""
""focus"",""1"",""3892""
","""event"",""trial"",""time""
""fullscreenenter"",""5"",""14136""
","""event"",""trial"",""time""
""fullscreenexit"",""14"",""25111""
","","images/earth.jpg","","","","","","","","","","","","","","fixation","","","","","",""
"d3-animate-choice","144","243595","0.0-76.0-0.3","1982","5013","17","Male","true","false","true","true","""event"",""trial"",""time""
""focus"",""1"",""3892""
""fullscreenenter"",""5"",""14136""
""fullscreenexit"",""14"",""25111""
","
","""event"",""trial"",""time""
""focus"",""1"",""3892""
","""event"",""trial"",""time""
""fullscreenenter"",""5"",""14136""
","""event"",""trial"",""time""
""fullscreenexit"",""14"",""25111""
","80","","48","","","3000","1","","","images/earth.jpg","images/rocket2","images/rocket1","null","images/rocket2","","1","real","null","2","","",""
"d3-animate-choice","145","246099","0.0-76.0-1.3","1982","5013","17","Male","true","false","true","true","""event"",""trial"",""time""
""focus"",""1"",""3892""
""fullscreenenter"",""5"",""14136""
""fullscreenexit"",""14"",""25111""
","
","""event"",""trial"",""time""
""focus"",""1"",""3892""
","""event"",""trial"",""time""
""fullscreenenter"",""5"",""14136""
","""event"",""trial"",""time""
""fullscreenexit"",""14"",""25111""
","498.59999999403954","","48","","","3000","1","1926.5,2399.5999999940395","48,48","images/redplanet1.jpg","images/alien2","images/alien1","images/rocket2","images/alien2","images/nothing.png","2","real","true","2","common","0","2022-12-12 03:54:44.543"
"two-step-fixation","146","247109","0.0-76.0-2.3","1982","5013","17","Male","true","false","true","true","""event"",""trial"",""time""
""focus"",""1"",""3892""
""fullscreenenter"",""5"",""14136""
""fullscreenexit"",""14"",""25111""
","
","""event"",""trial"",""time""
""focus"",""1"",""3892""
","""event"",""trial"",""time""
""fullscreenenter"",""5"",""14136""
","""event"",""trial"",""time""
""fullscreenexit"",""14"",""25111""
","","images/earth.jpg","","","","","","","","","","","","","","fixation","","","","","",""
"d3-animate-choice","147","249557","0.0-76.0-0.4","1982","5013","17","Male","true","false","true","true","""event"",""trial"",""time""
""focus"",""1"",""3892""
""fullscreenenter"",""5"",""14136""
""fullscreenexit"",""14"",""25111""
","
","""event"",""trial"",""time""
""focus"",""1"",""3892""
","""event"",""trial"",""time""
""fullscreenenter"",""5"",""14136""
","""event"",""trial"",""time""
""fullscreenexit"",""14"",""25111""
","444.39999997615814","","48","","","3000","1","996.3999999761581,1495.199999988079,1749.0999999940395,2012.0999999940395,2301.399999976158","48,48,48,48,48","images/earth.jpg","images/rocket2","images/rocket1","null","images/rocket2","","1","real","null","2","","",""
"d3-animate-choice","148","251627","0.0-76.0-1.4","1982","5013","17","Male","true","false","true","true","""event"",""trial"",""time""
""focus"",""1"",""3892""
""fullscreenenter"",""5"",""14136""
""fullscreenexit"",""14"",""25111""
","
","""event"",""trial"",""time""
""focus"",""1"",""3892""
","""event"",""trial"",""time""
""fullscreenenter"",""5"",""14136""
","""event"",""trial"",""time""
""fullscreenexit"",""14"",""25111""
","65.19999998807907","","48","","","3000","1","424.09999999403954,678.0999999940395,941.0999999940395,1169.0999999940395,1458.199999988079,1704.199999988079,1958.0999999940395","48,48,48,48,48,48,48","images/purpleplanet.jpg","images/alien4","images/alien3","images/rocket2","images/alien4","images/t.png","2","real","false","2","rare","1","2022-12-12 03:54:50.071"
"two-step-fixation","149","252634","0.0-76.0-2.4","1982","5013","17","Male","true","false","true","true","""event"",""trial"",""time""
""focus"",""1"",""3892""
""fullscreenenter"",""5"",""14136""
""fullscreenexit"",""14"",""25111""
","
","""event"",""trial"",""time""
""focus"",""1"",""3892""
","""event"",""trial"",""time""
""fullscreenenter"",""5"",""14136""
","""event"",""trial"",""time""
""fullscreenexit"",""14"",""25111""
","","images/earth.jpg","","","","","","","","","","","","","","fixation","","","","","",""
"d3-animate-choice","150","254812","0.0-76.0-0.5","1982","5013","17","Male","true","false","true","true","""event"",""trial"",""time""
""focus"",""1"",""3892""
""fullscreenenter"",""5"",""14136""
""fullscreenexit"",""14"",""25111""
","
","""event"",""trial"",""time""
""focus"",""1"",""3892""
","""event"",""trial"",""time""
""fullscreenenter"",""5"",""14136""
","""event"",""trial"",""time""
""fullscreenexit"",""14"",""25111""
","168.2000000178814","","48","","","3000","1","352.40000000596046,493.30000001192093,659.5,826.5,984.3000000119209,1238.300000011921,1501.300000011921,1711.300000011921,1974.2000000178814","48,48,48,48,48,48,48,48,48","images/earth.jpg","images/rocket2","images/rocket1","null","images/rocket2","","1","real","null","2","","",""
"d3-animate-choice","151","256899","0.0-76.0-1.5","1982","5013","17","Male","true","false","true","true","""event"",""trial"",""time""
""focus"",""1"",""3892""
""fullscreenenter"",""5"",""14136""
""fullscreenexit"",""14"",""25111""
","
","""event"",""trial"",""time""
""focus"",""1"",""3892""
","""event"",""trial"",""time""
""fullscreenenter"",""5"",""14136""
","""event"",""trial"",""time""
""fullscreenexit"",""14"",""25111""
","77.09999999403954","","48","","","3000","1","","","images/redplanet1.jpg","images/alien2","images/alien1","images/rocket2","images/alien2","images/t.png","2","real","true","2","common","1","2022-12-12 03:54:55.344"
"two-step-fixation","152","257907","0.0-76.0-2.5","1982","5013","17","Male","true","false","true","true","""event"",""trial"",""time""
""focus"",""1"",""3892""
""fullscreenenter"",""5"",""14136""
""fullscreenexit"",""14"",""25111""
","
","""event"",""trial"",""time""
""focus"",""1"",""3892""
","""event"",""trial"",""time""
""fullscreenenter"",""5"",""14136""
","""event"",""trial"",""time""
""fullscreenexit"",""14"",""25111""
","","images/earth.jpg","","","","","","","","","","","","","","fixation","","","","","",""
"d3-animate-choice","153","259995","0.0-76.0-0.6","1982","5013","17","Male","true","false","true","true","""event"",""trial"",""time""
""focus"",""1"",""3892""
""fullscreenenter"",""5"",""14136""
""fullscreenexit"",""14"",""25111""
","
","""event"",""trial"",""time""
""focus"",""1"",""3892""
","""event"",""trial"",""time""
""fullscreenenter"",""5"",""14136""
","""event"",""trial"",""time""
""fullscreenexit"",""14"",""25111""
","83.2999999821186","","48","","","3000","1","","","images/earth.jpg","images/rocket2","images/rocket1","null","images/rocket2","","1","real","null","2","","",""
"d3-animate-choice","154","262556","0.0-76.0-1.6","1982","5013","17","Male","true","false","true","true","""event"",""trial"",""time""
""focus"",""1"",""3892""
""fullscreenenter"",""5"",""14136""
""fullscreenexit"",""14"",""25111""
","
","""event"",""trial"",""time""
""focus"",""1"",""3892""
","""event"",""trial"",""time""
""fullscreenenter"",""5"",""14136""
","""event"",""trial"",""time""
""fullscreenexit"",""14"",""25111""
","552.5999999940395","","48","","","3000","1","","","images/purpleplanet.jpg","images/alien4","images/alien3","images/rocket2","images/alien4","images/nothing.png","2","real","false","2","rare","0","2022-12-12 03:55:01.000"
"two-step-fixation","155","263563","0.0-76.0-2.6","1982","5013","17","Male","true","false","true","true","""event"",""trial"",""time""
""focus"",""1"",""3892""
""fullscreenenter"",""5"",""14136""
""fullscreenexit"",""14"",""25111""
","
","""event"",""trial"",""time""
""focus"",""1"",""3892""
","""event"",""trial"",""time""
""fullscreenenter"",""5"",""14136""
","""event"",""trial"",""time""
""fullscreenexit"",""14"",""25111""
","","images/earth.jpg","","","","","","","","","","","","","","fixation","","","","","",""
"d3-animate-choice","156","265979","0.0-76.0-0.7","1982","5013","17","Male","true","false","true","true","""event"",""trial"",""time""
""focus"",""1"",""3892""
""fullscreenenter"",""5"",""14136""
""fullscreenexit"",""14"",""25111""
","
","""event"",""trial"",""time""
""focus"",""1"",""3892""
","""event"",""trial"",""time""
""fullscreenenter"",""5"",""14136""
","""event"",""trial"",""time""
""fullscreenexit"",""14"",""25111""
","409.7999999821186","","48","","","3000","1","","","images/earth.jpg","images/rocket2","images/rocket1","null","images/rocket2","","1","real","null","2","","",""
"d3-animate-choice","157","268251","0.0-76.0-1.7","1982","5013","17","Male","true","false","true","true","""event"",""trial"",""time""
""focus"",""1"",""3892""
""fullscreenenter"",""5"",""14136""
""fullscreenexit"",""14"",""25111""
","
","""event"",""trial"",""time""
""focus"",""1"",""3892""
","""event"",""trial"",""time""
""fullscreenenter"",""5"",""14136""
","""event"",""trial"",""time""
""fullscreenexit"",""14"",""25111""
","263","","48","","","3000","1","","","images/redplanet1.jpg","images/alien2","images/alien1","images/rocket2","images/alien2","images/t.png","2","real","true","2","common","1","2022-12-12 03:55:06.695"
"two-step-fixation","158","269259","0.0-76.0-2.7","1982","5013","17","Male","true","false","true","true","""event"",""trial"",""time""
""focus"",""1"",""3892""
""fullscreenenter"",""5"",""14136""
""fullscreenexit"",""14"",""25111""
","
","""event"",""trial"",""time""
""focus"",""1"",""3892""
","""event"",""trial"",""time""
""fullscreenenter"",""5"",""14136""
