"trial_type","trial_index","time_elapsed","internal_node_id","participant_id","subject_id","age","gender","rocket_sides","red_planet_first_rocket","red_display_order","purple_display_order","interactions","blur_events","focus_events","fullscreenenter_events","fullscreenexit_events","rt","stimulus","key_press","button_pressed","success","duration","valid_pressed","rts","keys","planet_text","right_text","left_text","center_text","chosen_text","reward_text","trial_stage","practice_trial","transition_type","choice","transition","reward","timestamp"
"pavlovia","0","2","0.0-0.0","1149","2129","17","Female","true","true","true","false","""event"",""trial"",""time""
""blur"",""0"",""0""
""focus"",""0"",""0""
""blur"",""0"",""0""
""focus"",""0"",""0""
""blur"",""0"",""0""
""focus"",""0"",""0""
""blur"",""0"",""0""
""focus"",""0"",""0""
""blur"",""0"",""0""
""focus"",""1"",""7375""
","""event"",""trial"",""time""
""blur"",""0"",""0""
""blur"",""0"",""0""
""blur"",""0"",""0""
""blur"",""0"",""0""
""blur"",""0"",""0""
","""event"",""trial"",""time""
""focus"",""0"",""0""
""focus"",""0"",""0""
""focus"",""0"",""0""
""focus"",""0"",""0""
""focus"",""1"",""7375""
","
","
","","","","","","","","","","","","","","","","","","","","","",""
"html-keyboard-response","1","8770","0.0-1.0","1149","2129","17","Female","true","true","true","false","""event"",""trial"",""time""
""blur"",""0"",""0""
""focus"",""0"",""0""
""blur"",""0"",""0""
""focus"",""0"",""0""
""blur"",""0"",""0""
""focus"",""0"",""0""
""blur"",""0"",""0""
""focus"",""0"",""0""
""blur"",""0"",""0""
""focus"",""1"",""7375""
","""event"",""trial"",""time""
""blur"",""0"",""0""
""blur"",""0"",""0""
""blur"",""0"",""0""
""blur"",""0"",""0""
""blur"",""0"",""0""
","""event"",""trial"",""time""
""focus"",""0"",""0""
""focus"",""0"",""0""
""focus"",""0"",""0""
""focus"",""0"",""0""
""focus"",""1"",""7375""
","
","
","8764.199999988079","Welcome! Press the space bar to begin.","32","","","","","","","","","","","","","","","","","","",""
"audio-keyboard-response","2","12876","0.0-2.0","1149","2129","17","Female","true","true","true","false","""event"",""trial"",""time""
""blur"",""0"",""0""
""focus"",""0"",""0""
""blur"",""0"",""0""
""focus"",""0"",""0""
""blur"",""0"",""0""
""focus"",""0"",""0""
""blur"",""0"",""0""
""focus"",""0"",""0""
""blur"",""0"",""0""
""focus"",""1"",""7375""
","""event"",""trial"",""time""
""blur"",""0"",""0""
""blur"",""0"",""0""
""blur"",""0"",""0""
""blur"",""0"",""0""
""blur"",""0"",""0""
","""event"",""trial"",""time""
""focus"",""0"",""0""
""focus"",""0"",""0""
""focus"",""0"",""0""
""focus"",""0"",""0""
""focus"",""1"",""7375""
","
","
","4069","audio/beep_loop.wav","32","","","","","","","","","","","","","","","","","","",""
"audio-button-response","3","15106","0.0-3.0","1149","2129","17","Female","true","true","true","false","""event"",""trial"",""time""
""blur"",""0"",""0""
""focus"",""0"",""0""
""blur"",""0"",""0""
""focus"",""0"",""0""
""blur"",""0"",""0""
""focus"",""0"",""0""
""blur"",""0"",""0""
""focus"",""0"",""0""
""blur"",""0"",""0""
""focus"",""1"",""7375""
","""event"",""trial"",""time""
""blur"",""0"",""0""
""blur"",""0"",""0""
""blur"",""0"",""0""
""blur"",""0"",""0""
""blur"",""0"",""0""
","""event"",""trial"",""time""
""focus"",""0"",""0""
""focus"",""0"",""0""
""focus"",""0"",""0""
""focus"",""0"",""0""
""focus"",""1"",""7375""
","
","
","NaN","audio/fish.mp3","","1","","","","","","","","","","","","","","","","","",""
"audio-button-response","4","17904","0.0-4.0","1149","2129","17","Female","true","true","true","false","""event"",""trial"",""time""
""blur"",""0"",""0""
""focus"",""0"",""0""
""blur"",""0"",""0""
""focus"",""0"",""0""
""blur"",""0"",""0""
""focus"",""0"",""0""
""blur"",""0"",""0""
""focus"",""0"",""0""
""blur"",""0"",""0""
""focus"",""1"",""7375""
""fullscreenenter"",""5"",""22115""
","""event"",""trial"",""time""
""blur"",""0"",""0""
""blur"",""0"",""0""
""blur"",""0"",""0""
""blur"",""0"",""0""
""blur"",""0"",""0""
","""event"",""trial"",""time""
""focus"",""0"",""0""
""focus"",""0"",""0""
""focus"",""0"",""0""
""focus"",""0"",""0""
""focus"",""1"",""7375""
","""event"",""trial"",""time""
""fullscreenenter"",""5"",""22115""
","
","NaN","audio/tiger.mp3","","4","","","","","","","","","","","","","","","","","",""
"fullscreen","5","23108","0.0-5.0","1149","2129","17","Female","true","true","true","false","""event"",""trial"",""time""
""blur"",""0"",""0""
""focus"",""0"",""0""
""blur"",""0"",""0""
""focus"",""0"",""0""
""blur"",""0"",""0""
""focus"",""0"",""0""
""blur"",""0"",""0""
""focus"",""0"",""0""
""blur"",""0"",""0""
""focus"",""1"",""7375""
""fullscreenenter"",""5"",""22115""
","""event"",""trial"",""time""
""blur"",""0"",""0""
""blur"",""0"",""0""
""blur"",""0"",""0""
""blur"",""0"",""0""
""blur"",""0"",""0""
","""event"",""trial"",""time""
""focus"",""0"",""0""
""focus"",""0"",""0""
""focus"",""0"",""0""
""focus"",""0"",""0""
""focus"",""1"",""7375""
","""event"",""trial"",""time""
""fullscreenenter"",""5"",""22115""
","
","","","","","true","","","","","","","","","","","","","","","","",""
"d3-instructions","6","36783","0.0-6.0","1149","2129","17","Female","true","true","true","false","""event"",""trial"",""time""
""blur"",""0"",""0""
""focus"",""0"",""0""
""blur"",""0"",""0""
""focus"",""0"",""0""
""blur"",""0"",""0""
""focus"",""0"",""0""
""blur"",""0"",""0""
""focus"",""0"",""0""
""blur"",""0"",""0""
""focus"",""1"",""7375""
""fullscreenenter"",""5"",""22115""
","""event"",""trial"",""time""
""blur"",""0"",""0""
""blur"",""0"",""0""
""blur"",""0"",""0""
""blur"",""0"",""0""
""blur"",""0"",""0""
","""event"",""trial"",""time""
""focus"",""0"",""0""
""focus"",""0"",""0""
""focus"",""0"",""0""
""focus"",""0"",""0""
""focus"",""1"",""7375""
","""event"",""trial"",""time""
""fullscreenenter"",""5"",""22115""
","
","","","","","","","","","","","","","","","","","","","","","",""
"d3-instructions","7","43153","0.0-7.0","1149","2129","17","Female","true","true","true","false","""event"",""trial"",""time""
""blur"",""0"",""0""
""focus"",""0"",""0""
""blur"",""0"",""0""
""focus"",""0"",""0""
""blur"",""0"",""0""
""focus"",""0"",""0""
""blur"",""0"",""0""
""focus"",""0"",""0""
""blur"",""0"",""0""
""focus"",""1"",""7375""
""fullscreenenter"",""5"",""22115""
","""event"",""trial"",""time""
""blur"",""0"",""0""
""blur"",""0"",""0""
""blur"",""0"",""0""
""blur"",""0"",""0""
""blur"",""0"",""0""
","""event"",""trial"",""time""
""focus"",""0"",""0""
""focus"",""0"",""0""
""focus"",""0"",""0""
""focus"",""0"",""0""
""focus"",""1"",""7375""
","""event"",""trial"",""time""
""fullscreenenter"",""5"",""22115""
","
","","","","","","","","","","","","","","","","","","","","","",""
"d3-instructions","8","48734","0.0-8.0","1149","2129","17","Female","true","true","true","false","""event"",""trial"",""time""
""blur"",""0"",""0""
""focus"",""0"",""0""
""blur"",""0"",""0""
""focus"",""0"",""0""
""blur"",""0"",""0""
""focus"",""0"",""0""
""blur"",""0"",""0""
""focus"",""0"",""0""
""blur"",""0"",""0""
""focus"",""1"",""7375""
""fullscreenenter"",""5"",""22115""
","""event"",""trial"",""time""
""blur"",""0"",""0""
""blur"",""0"",""0""
""blur"",""0"",""0""
""blur"",""0"",""0""
""blur"",""0"",""0""
","""event"",""trial"",""time""
""focus"",""0"",""0""
""focus"",""0"",""0""
""focus"",""0"",""0""
""focus"",""0"",""0""
""focus"",""1"",""7375""
","""event"",""trial"",""time""
""fullscreenenter"",""5"",""22115""
","
","","","","","","","","","","","","","","","","","","","","","",""
"d3-instructions","9","56615","0.0-9.0","1149","2129","17","Female","true","true","true","false","""event"",""trial"",""time""
""blur"",""0"",""0""
""focus"",""0"",""0""
""blur"",""0"",""0""
""focus"",""0"",""0""
""blur"",""0"",""0""
""focus"",""0"",""0""
""blur"",""0"",""0""
""focus"",""0"",""0""
""blur"",""0"",""0""
""focus"",""1"",""7375""
""fullscreenenter"",""5"",""22115""
","""event"",""trial"",""time""
""blur"",""0"",""0""
""blur"",""0"",""0""
""blur"",""0"",""0""
""blur"",""0"",""0""
""blur"",""0"",""0""
","""event"",""trial"",""time""
""focus"",""0"",""0""
""focus"",""0"",""0""
""focus"",""0"",""0""
""focus"",""0"",""0""
""focus"",""1"",""7375""
","""event"",""trial"",""time""
""fullscreenenter"",""5"",""22115""
","
","","","","","","","","","","","","","","","","","","","","","",""
"d3-instructions","10","68971","0.0-10.0","1149","2129","17","Female","true","true","true","false","""event"",""trial"",""time""
""blur"",""0"",""0""
""focus"",""0"",""0""
""blur"",""0"",""0""
""focus"",""0"",""0""
""blur"",""0"",""0""
""focus"",""0"",""0""
""blur"",""0"",""0""
""focus"",""0"",""0""
""blur"",""0"",""0""
""focus"",""1"",""7375""
""fullscreenenter"",""5"",""22115""
","""event"",""trial"",""time""
""blur"",""0"",""0""
""blur"",""0"",""0""
""blur"",""0"",""0""
""blur"",""0"",""0""
""blur"",""0"",""0""
","""event"",""trial"",""time""
""focus"",""0"",""0""
""focus"",""0"",""0""
""focus"",""0"",""0""
""focus"",""0"",""0""
""focus"",""1"",""7375""
","""event"",""trial"",""time""
""fullscreenenter"",""5"",""22115""
","
","","","","","","","","","","","","","","","","","","","","","",""
"d3-animate-choice","11","72684","0.0-11.0","1149","2129","17","Female","true","true","true","false","""event"",""trial"",""time""
""blur"",""0"",""0""
""focus"",""0"",""0""
""blur"",""0"",""0""
""focus"",""0"",""0""
""blur"",""0"",""0""
""focus"",""0"",""0""
""blur"",""0"",""0""
""focus"",""0"",""0""
""blur"",""0"",""0""
""focus"",""1"",""7375""
""fullscreenenter"",""5"",""22115""
","""event"",""trial"",""time""
""blur"",""0"",""0""
""blur"",""0"",""0""
""blur"",""0"",""0""
""blur"",""0"",""0""
""blur"",""0"",""0""
","""event"",""trial"",""time""
""focus"",""0"",""0""
""focus"",""0"",""0""
""focus"",""0"",""0""
""focus"",""0"",""0""
""focus"",""1"",""7375""
","""event"",""trial"",""time""
""fullscreenenter"",""5"",""22115""
","
","1703.3999999761581","","49","","","3000","1","2580.300000011921","48","images/tutgreenplanet.jpg","images/tutalien1","images/tutalien2","null","images/tutalien2","","NA","practice","null","","","",""
"d3-animate-choice","12","76068","0.0-12.0","1149","2129","17","Female","true","true","true","false","""event"",""trial"",""time""
""blur"",""0"",""0""
""focus"",""0"",""0""
""blur"",""0"",""0""
""focus"",""0"",""0""
""blur"",""0"",""0""
""focus"",""0"",""0""
""blur"",""0"",""0""
""focus"",""0"",""0""
""blur"",""0"",""0""
""focus"",""1"",""7375""
""fullscreenenter"",""5"",""22115""
","""event"",""trial"",""time""
""blur"",""0"",""0""
""blur"",""0"",""0""
""blur"",""0"",""0""
""blur"",""0"",""0""
""blur"",""0"",""0""
","""event"",""trial"",""time""
""focus"",""0"",""0""
""focus"",""0"",""0""
""focus"",""0"",""0""
""focus"",""0"",""0""
""focus"",""1"",""7375""
","""event"",""trial"",""time""
""fullscreenenter"",""5"",""22115""
","
","1373.1000000238419","","48","","","3000","1","","","images/tutgreenplanet.jpg","images/tutalien1","images/tutalien2","null","images/tutalien1","","NA","practice","null","","","",""
"d3-animate-choice","13","79558","0.0-13.0","1149","2129","17","Female","true","true","true","false","""event"",""trial"",""time""
""blur"",""0"",""0""
""focus"",""0"",""0""
""blur"",""0"",""0""
""focus"",""0"",""0""
""blur"",""0"",""0""
""focus"",""0"",""0""
""blur"",""0"",""0""
""focus"",""0"",""0""
""blur"",""0"",""0""
""focus"",""1"",""7375""
""fullscreenenter"",""5"",""22115""
","""event"",""trial"",""time""
""blur"",""0"",""0""
""blur"",""0"",""0""
""blur"",""0"",""0""
""blur"",""0"",""0""
""blur"",""0"",""0""
","""event"",""trial"",""time""
""focus"",""0"",""0""
""focus"",""0"",""0""
""focus"",""0"",""0""
""focus"",""0"",""0""
""focus"",""1"",""7375""
","""event"",""trial"",""time""
""fullscreenenter"",""5"",""22115""
","
","549.8999999761581","","32","","","3000","1","1485,2155.699999988079","49,48","images/tutgreenplanet.jpg","images/tutalien1","images/tutalien2","null","images/tutalien2","","NA","practice","null","","","",""
"d3-animate-choice","14","81981","0.0-14.0","1149","2129","17","Female","true","true","true","false","""event"",""trial"",""time""
""blur"",""0"",""0""
""focus"",""0"",""0""
""blur"",""0"",""0""
""focus"",""0"",""0""
""blur"",""0"",""0""
""focus"",""0"",""0""
""blur"",""0"",""0""
""focus"",""0"",""0""
""blur"",""0"",""0""
""focus"",""1"",""7375""
""fullscreenenter"",""5"",""22115""
","""event"",""trial"",""time""
""blur"",""0"",""0""
""blur"",""0"",""0""
""blur"",""0"",""0""
""blur"",""0"",""0""
""blur"",""0"",""0""
","""event"",""trial"",""time""
""focus"",""0"",""0""
""focus"",""0"",""0""
""focus"",""0"",""0""
""focus"",""0"",""0""
""focus"",""1"",""7375""
","""event"",""trial"",""time""
""fullscreenenter"",""5"",""22115""
","
","413.30000001192093","","48","","","3000","1","","","images/tutgreenplanet.jpg","images/tutalien1","images/tutalien2","null","images/tutalien1","","NA","practice","null","","","",""
"d3-instructions","15","86456","0.0-15.0","1149","2129","17","Female","true","true","true","false","""event"",""trial"",""time""
""blur"",""0"",""0""
""focus"",""0"",""0""
""blur"",""0"",""0""
""focus"",""0"",""0""
""blur"",""0"",""0""
""focus"",""0"",""0""
""blur"",""0"",""0""
""focus"",""0"",""0""
""blur"",""0"",""0""
""focus"",""1"",""7375""
""fullscreenenter"",""5"",""22115""
","""event"",""trial"",""time""
""blur"",""0"",""0""
""blur"",""0"",""0""
""blur"",""0"",""0""
""blur"",""0"",""0""
""blur"",""0"",""0""
","""event"",""trial"",""time""
""focus"",""0"",""0""
""focus"",""0"",""0""
""focus"",""0"",""0""
""focus"",""0"",""0""
""focus"",""1"",""7375""
","""event"",""trial"",""time""
""fullscreenenter"",""5"",""22115""
","
","","","","","","","","","","","","","","","","","","","","","",""
"d3-instructions","16","90396","0.0-16.0","1149","2129","17","Female","true","true","true","false","""event"",""trial"",""time""
""blur"",""0"",""0""
""focus"",""0"",""0""
""blur"",""0"",""0""
""focus"",""0"",""0""
""blur"",""0"",""0""
""focus"",""0"",""0""
""blur"",""0"",""0""
""focus"",""0"",""0""
""blur"",""0"",""0""
""focus"",""1"",""7375""
""fullscreenenter"",""5"",""22115""
","""event"",""trial"",""time""
""blur"",""0"",""0""
""blur"",""0"",""0""
""blur"",""0"",""0""
""blur"",""0"",""0""
""blur"",""0"",""0""
","""event"",""trial"",""time""
""focus"",""0"",""0""
""focus"",""0"",""0""
""focus"",""0"",""0""
""focus"",""0"",""0""
""focus"",""1"",""7375""
","""event"",""trial"",""time""
""fullscreenenter"",""5"",""22115""
","
","","","","","","","","","","","","","","","","","","","","","",""
"d3-instructions","17","98222","0.0-17.0","1149","2129","17","Female","true","true","true","false","""event"",""trial"",""time""
""blur"",""0"",""0""
""focus"",""0"",""0""
""blur"",""0"",""0""
""focus"",""0"",""0""
""blur"",""0"",""0""
""focus"",""0"",""0""
""blur"",""0"",""0""
""focus"",""0"",""0""
""blur"",""0"",""0""
""focus"",""1"",""7375""
""fullscreenenter"",""5"",""22115""
","""event"",""trial"",""time""
""blur"",""0"",""0""
""blur"",""0"",""0""
""blur"",""0"",""0""
""blur"",""0"",""0""
""blur"",""0"",""0""
","""event"",""trial"",""time""
""focus"",""0"",""0""
""focus"",""0"",""0""
""focus"",""0"",""0""
""focus"",""0"",""0""
""focus"",""1"",""7375""
","""event"",""trial"",""time""
""fullscreenenter"",""5"",""22115""
","
","","","","","","","","","","","","","","","","","","","","","",""
"d3-instructions","18","109661","0.0-18.0","1149","2129","17","Female","true","true","true","false","""event"",""trial"",""time""
""blur"",""0"",""0""
""focus"",""0"",""0""
""blur"",""0"",""0""
""focus"",""0"",""0""
""blur"",""0"",""0""
""focus"",""0"",""0""
""blur"",""0"",""0""
""focus"",""0"",""0""
""blur"",""0"",""0""
""focus"",""1"",""7375""
""fullscreenenter"",""5"",""22115""
","""event"",""trial"",""time""
""blur"",""0"",""0""
""blur"",""0"",""0""
""blur"",""0"",""0""
""blur"",""0"",""0""
""blur"",""0"",""0""
","""event"",""trial"",""time""
""focus"",""0"",""0""
""focus"",""0"",""0""
""focus"",""0"",""0""
""focus"",""0"",""0""
""focus"",""1"",""7375""
","""event"",""trial"",""time""
""fullscreenenter"",""5"",""22115""
","
","","","","","","","","","","","","","","","","","","","","","",""
"d3-instructions","19","117711","0.0-19.0","1149","2129","17","Female","true","true","true","false","""event"",""trial"",""time""
""blur"",""0"",""0""
""focus"",""0"",""0""
""blur"",""0"",""0""
""focus"",""0"",""0""
""blur"",""0"",""0""
""focus"",""0"",""0""
""blur"",""0"",""0""
""focus"",""0"",""0""
""blur"",""0"",""0""
""focus"",""1"",""7375""
""fullscreenenter"",""5"",""22115""
","""event"",""trial"",""time""
""blur"",""0"",""0""
""blur"",""0"",""0""
""blur"",""0"",""0""
""blur"",""0"",""0""
""blur"",""0"",""0""
","""event"",""trial"",""time""
""focus"",""0"",""0""
""focus"",""0"",""0""
""focus"",""0"",""0""
""focus"",""0"",""0""
""focus"",""1"",""7375""
","""event"",""trial"",""time""
""fullscreenenter"",""5"",""22115""
","
","","","","","","","","","","","","","","","","","","","","","",""
"d3-animate-choice","20","120363","0.0-20.0","1149","2129","17","Female","true","true","true","false","""event"",""trial"",""time""
""blur"",""0"",""0""
""focus"",""0"",""0""
""blur"",""0"",""0""
""focus"",""0"",""0""
""blur"",""0"",""0""
""focus"",""0"",""0""
""blur"",""0"",""0""
""focus"",""0"",""0""
""blur"",""0"",""0""
""focus"",""1"",""7375""
""fullscreenenter"",""5"",""22115""
","""event"",""trial"",""time""
""blur"",""0"",""0""
""blur"",""0"",""0""
""blur"",""0"",""0""
""blur"",""0"",""0""
""blur"",""0"",""0""
","""event"",""trial"",""time""
""focus"",""0"",""0""
""focus"",""0"",""0""
""focus"",""0"",""0""
""focus"",""0"",""0""
""focus"",""1"",""7375""
","""event"",""trial"",""time""
""fullscreenenter"",""5"",""22115""
","
","647.4000000357628","","49","","","3000","1","","","images/tutyellowplanet.jpg","null","images/tutalien3","null","images/tutalien3","images/t.png","NA","practice","null","","","",""
"d3-animate-choice","21","122694","0.0-21.0","1149","2129","17","Female","true","true","true","false","""event"",""trial"",""time""
""blur"",""0"",""0""
""focus"",""0"",""0""
""blur"",""0"",""0""
""focus"",""0"",""0""
""blur"",""0"",""0""
""focus"",""0"",""0""
""blur"",""0"",""0""
""focus"",""0"",""0""
""blur"",""0"",""0""
""focus"",""1"",""7375""
""fullscreenenter"",""5"",""22115""
","""event"",""trial"",""time""
""blur"",""0"",""0""
""blur"",""0"",""0""
""blur"",""0"",""0""
""blur"",""0"",""0""
""blur"",""0"",""0""
","""event"",""trial"",""time""
""focus"",""0"",""0""
""focus"",""0"",""0""
""focus"",""0"",""0""
""focus"",""0"",""0""
""focus"",""1"",""7375""
","""event"",""trial"",""time""
""fullscreenenter"",""5"",""22115""
","
","322.10000002384186","","49","","","3000","1","","","images/tutyellowplanet.jpg","null","images/tutalien3","null","images/tutalien3","images/nothing.png","NA","practice","null","","","",""
"d3-animate-choice","22","124933","0.0-22.0","1149","2129","17","Female","true","true","true","false","""event"",""trial"",""time""
""blur"",""0"",""0""
""focus"",""0"",""0""
""blur"",""0"",""0""
""focus"",""0"",""0""
""blur"",""0"",""0""
""focus"",""0"",""0""
""blur"",""0"",""0""
""focus"",""0"",""0""
""blur"",""0"",""0""
""focus"",""1"",""7375""
""fullscreenenter"",""5"",""22115""
","""event"",""trial"",""time""
""blur"",""0"",""0""
""blur"",""0"",""0""
""blur"",""0"",""0""
""blur"",""0"",""0""
""blur"",""0"",""0""
","""event"",""trial"",""time""
""focus"",""0"",""0""
""focus"",""0"",""0""
""focus"",""0"",""0""
""focus"",""0"",""0""
""focus"",""1"",""7375""
","""event"",""trial"",""time""
""fullscreenenter"",""5"",""22115""
","
","230.9000000357628","","49","","","3000","1","","","images/tutyellowplanet.jpg","null","images/tutalien3","null","images/tutalien3","images/t.png","NA","practice","null","","","",""
"d3-animate-choice","23","127206","0.0-23.0","1149","2129","17","Female","true","true","true","false","""event"",""trial"",""time""
""blur"",""0"",""0""
""focus"",""0"",""0""
""blur"",""0"",""0""
""focus"",""0"",""0""
""blur"",""0"",""0""
""focus"",""0"",""0""
""blur"",""0"",""0""
""focus"",""0"",""0""
""blur"",""0"",""0""
""focus"",""1"",""7375""
""fullscreenenter"",""5"",""22115""
","""event"",""trial"",""time""
""blur"",""0"",""0""
""blur"",""0"",""0""
""blur"",""0"",""0""
""blur"",""0"",""0""
""blur"",""0"",""0""
","""event"",""trial"",""time""
""focus"",""0"",""0""
""focus"",""0"",""0""
""focus"",""0"",""0""
""focus"",""0"",""0""
""focus"",""1"",""7375""
","""event"",""trial"",""time""
""fullscreenenter"",""5"",""22115""
","
","263.4000000357628","","49","","","3000","1","","","images/tutyellowplanet.jpg","null","images/tutalien3","null","images/tutalien3","images/t.png","NA","practice","null","","","",""
"d3-animate-choice","24","129434","0.0-24.0","1149","2129","17","Female","true","true","true","false","""event"",""trial"",""time""
""blur"",""0"",""0""
""focus"",""0"",""0""
""blur"",""0"",""0""
""focus"",""0"",""0""
""blur"",""0"",""0""
""focus"",""0"",""0""
""blur"",""0"",""0""
""focus"",""0"",""0""
""blur"",""0"",""0""
""focus"",""1"",""7375""
""fullscreenenter"",""5"",""22115""
","""event"",""trial"",""time""
""blur"",""0"",""0""
""blur"",""0"",""0""
""blur"",""0"",""0""
""blur"",""0"",""0""
""blur"",""0"",""0""
","""event"",""trial"",""time""
""focus"",""0"",""0""
""focus"",""0"",""0""
""focus"",""0"",""0""
""focus"",""0"",""0""
""focus"",""1"",""7375""
","""event"",""trial"",""time""
""fullscreenenter"",""5"",""22115""
","
","220.30000001192093","","49","","","3000","1","","","images/tutyellowplanet.jpg","null","images/tutalien3","null","images/tutalien3","images/t.png","NA","practice","null","","","",""
"d3-animate-choice","25","131648","0.0-25.0","1149","2129","17","Female","true","true","true","false","""event"",""trial"",""time""
""blur"",""0"",""0""
""focus"",""0"",""0""
""blur"",""0"",""0""
""focus"",""0"",""0""
""blur"",""0"",""0""
""focus"",""0"",""0""
""blur"",""0"",""0""
""focus"",""0"",""0""
""blur"",""0"",""0""
""focus"",""1"",""7375""
""fullscreenenter"",""5"",""22115""
","""event"",""trial"",""time""
""blur"",""0"",""0""
""blur"",""0"",""0""
""blur"",""0"",""0""
""blur"",""0"",""0""
""blur"",""0"",""0""
","""event"",""trial"",""time""
""focus"",""0"",""0""
""focus"",""0"",""0""
""focus"",""0"",""0""
""focus"",""0"",""0""
""focus"",""1"",""7375""
","""event"",""trial"",""time""
""fullscreenenter"",""5"",""22115""
","
","205.69999998807907","","49","","","3000","1","","","images/tutyellowplanet.jpg","null","images/tutalien3","null","images/tutalien3","images/t.png","NA","practice","null","","","",""
"d3-animate-choice","26","133841","0.0-26.0","1149","2129","17","Female","true","true","true","false","""event"",""trial"",""time""
""blur"",""0"",""0""
""focus"",""0"",""0""
""blur"",""0"",""0""
""focus"",""0"",""0""
""blur"",""0"",""0""
""focus"",""0"",""0""
""blur"",""0"",""0""
""focus"",""0"",""0""
""blur"",""0"",""0""
""focus"",""1"",""7375""
""fullscreenenter"",""5"",""22115""
","""event"",""trial"",""time""
""blur"",""0"",""0""
""blur"",""0"",""0""
""blur"",""0"",""0""
""blur"",""0"",""0""
""blur"",""0"",""0""
","""event"",""trial"",""time""
""focus"",""0"",""0""
""focus"",""0"",""0""
""focus"",""0"",""0""
""focus"",""0"",""0""
""focus"",""1"",""7375""
","""event"",""trial"",""time""
""fullscreenenter"",""5"",""22115""
","
","183.69999998807907","","49","","","3000","1","","","images/tutyellowplanet.jpg","null","images/tutalien3","null","images/tutalien3","images/t.png","NA","practice","null","","","",""
"d3-animate-choice","27","136014","0.0-27.0","1149","2129","17","Female","true","true","true","false","""event"",""trial"",""time""
""blur"",""0"",""0""
""focus"",""0"",""0""
""blur"",""0"",""0""
""focus"",""0"",""0""
""blur"",""0"",""0""
""focus"",""0"",""0""
""blur"",""0"",""0""
""focus"",""0"",""0""
""blur"",""0"",""0""
""focus"",""1"",""7375""
""fullscreenenter"",""5"",""22115""
","""event"",""trial"",""time""
""blur"",""0"",""0""
""blur"",""0"",""0""
""blur"",""0"",""0""
""blur"",""0"",""0""
""blur"",""0"",""0""
","""event"",""trial"",""time""
""focus"",""0"",""0""
""focus"",""0"",""0""
""focus"",""0"",""0""
""focus"",""0"",""0""
""focus"",""1"",""7375""
","""event"",""trial"",""time""
""fullscreenenter"",""5"",""22115""
","
","164.19999998807907","","49","","","3000","1","","","images/tutyellowplanet.jpg","null","images/tutalien3","null","images/tutalien3","images/nothing.png","NA","practice","null","","","",""
"d3-animate-choice","28","138277","0.0-28.0","1149","2129","17","Female","true","true","true","false","""event"",""trial"",""time""
""blur"",""0"",""0""
""focus"",""0"",""0""
""blur"",""0"",""0""
""focus"",""0"",""0""
""blur"",""0"",""0""
""focus"",""0"",""0""
""blur"",""0"",""0""
""focus"",""0"",""0""
""blur"",""0"",""0""
""focus"",""1"",""7375""
""fullscreenenter"",""5"",""22115""
","""event"",""trial"",""time""
""blur"",""0"",""0""
""blur"",""0"",""0""
""blur"",""0"",""0""
""blur"",""0"",""0""
""blur"",""0"",""0""
","""event"",""trial"",""time""
""focus"",""0"",""0""
""focus"",""0"",""0""
""focus"",""0"",""0""
""focus"",""0"",""0""
""focus"",""1"",""7375""
","""event"",""trial"",""time""
""fullscreenenter"",""5"",""22115""
","
","255","","49","","","3000","1","1657","49","images/tutyellowplanet.jpg","null","images/tutalien3","null","images/tutalien3","images/t.png","NA","practice","null","","","",""
"d3-animate-choice","29","140477","0.0-29.0","1149","2129","17","Female","true","true","true","false","""event"",""trial"",""time""
""blur"",""0"",""0""
""focus"",""0"",""0""
""blur"",""0"",""0""
""focus"",""0"",""0""
""blur"",""0"",""0""
""focus"",""0"",""0""
""blur"",""0"",""0""
""focus"",""0"",""0""
""blur"",""0"",""0""
""focus"",""1"",""7375""
""fullscreenenter"",""5"",""22115""
","""event"",""trial"",""time""
""blur"",""0"",""0""
""blur"",""0"",""0""
""blur"",""0"",""0""
""blur"",""0"",""0""
""blur"",""0"",""0""
","""event"",""trial"",""time""
""focus"",""0"",""0""
""focus"",""0"",""0""
""focus"",""0"",""0""
""focus"",""0"",""0""
""focus"",""1"",""7375""
","""event"",""trial"",""time""
""fullscreenenter"",""5"",""22115""
","
","193.69999998807907","","49","","","3000","1","","","images/tutyellowplanet.jpg","null","images/tutalien3","null","images/tutalien3","images/nothing.png","NA","practice","null","","","",""
"d3-instructions","30","143106","0.0-30.0","1149","2129","17","Female","true","true","true","false","""event"",""trial"",""time""
""blur"",""0"",""0""
""focus"",""0"",""0""
""blur"",""0"",""0""
""focus"",""0"",""0""
""blur"",""0"",""0""
""focus"",""0"",""0""
""blur"",""0"",""0""
""focus"",""0"",""0""
""blur"",""0"",""0""
""focus"",""1"",""7375""
""fullscreenenter"",""5"",""22115""
","""event"",""trial"",""time""
""blur"",""0"",""0""
""blur"",""0"",""0""
""blur"",""0"",""0""
""blur"",""0"",""0""
""blur"",""0"",""0""
","""event"",""trial"",""time""
""focus"",""0"",""0""
""focus"",""0"",""0""
""focus"",""0"",""0""
""focus"",""0"",""0""
""focus"",""1"",""7375""
","""event"",""trial"",""time""
""fullscreenenter"",""5"",""22115""
","
","","","","","","","","","","","","","","","","","","","","","",""
"d3-instructions","31","153363","0.0-31.0","1149","2129","17","Female","true","true","true","false","""event"",""trial"",""time""
""blur"",""0"",""0""
""focus"",""0"",""0""
""blur"",""0"",""0""
""focus"",""0"",""0""
""blur"",""0"",""0""
""focus"",""0"",""0""
""blur"",""0"",""0""
""focus"",""0"",""0""
""blur"",""0"",""0""
""focus"",""1"",""7375""
""fullscreenenter"",""5"",""22115""
","""event"",""trial"",""time""
""blur"",""0"",""0""
""blur"",""0"",""0""
""blur"",""0"",""0""
""blur"",""0"",""0""
""blur"",""0"",""0""
","""event"",""trial"",""time""
""focus"",""0"",""0""
""focus"",""0"",""0""
""focus"",""0"",""0""
""focus"",""0"",""0""
""focus"",""1"",""7375""
","""event"",""trial"",""time""
""fullscreenenter"",""5"",""22115""
","
","","","","","","","","","","","","","","","","","","","","","",""
"d3-instructions","32","156418","0.0-32.0","1149","2129","17","Female","true","true","true","false","""event"",""trial"",""time""
""blur"",""0"",""0""
""focus"",""0"",""0""
""blur"",""0"",""0""
""focus"",""0"",""0""
""blur"",""0"",""0""
""focus"",""0"",""0""
""blur"",""0"",""0""
""focus"",""0"",""0""
""blur"",""0"",""0""
""focus"",""1"",""7375""
""fullscreenenter"",""5"",""22115""
","""event"",""trial"",""time""
""blur"",""0"",""0""
""blur"",""0"",""0""
""blur"",""0"",""0""
""blur"",""0"",""0""
""blur"",""0"",""0""
","""event"",""trial"",""time""
""focus"",""0"",""0""
""focus"",""0"",""0""
""focus"",""0"",""0""
""focus"",""0"",""0""
""focus"",""1"",""7375""
","""event"",""trial"",""time""
""fullscreenenter"",""5"",""22115""
","
","","","","","","","","","","","","","","","","","","","","","",""
"d3-instructions","33","158826","0.0-33.0","1149","2129","17","Female","true","true","true","false","""event"",""trial"",""time""
""blur"",""0"",""0""
""focus"",""0"",""0""
""blur"",""0"",""0""
""focus"",""0"",""0""
""blur"",""0"",""0""
""focus"",""0"",""0""
""blur"",""0"",""0""
""focus"",""0"",""0""
""blur"",""0"",""0""
""focus"",""1"",""7375""
""fullscreenenter"",""5"",""22115""
","""event"",""trial"",""time""
""blur"",""0"",""0""
""blur"",""0"",""0""
""blur"",""0"",""0""
""blur"",""0"",""0""
""blur"",""0"",""0""
","""event"",""trial"",""time""
""focus"",""0"",""0""
""focus"",""0"",""0""
""focus"",""0"",""0""
""focus"",""0"",""0""
""focus"",""1"",""7375""
","""event"",""trial"",""time""
""fullscreenenter"",""5"",""22115""
","
","","","","","","","","","","","","","","","","","","","","","",""
"d3-animate-choice","34","161756","0.0-34.0","1149","2129","17","Female","true","true","true","false","""event"",""trial"",""time""
""blur"",""0"",""0""
""focus"",""0"",""0""
""blur"",""0"",""0""
""focus"",""0"",""0""
""blur"",""0"",""0""
""focus"",""0"",""0""
""blur"",""0"",""0""
""focus"",""0"",""0""
""blur"",""0"",""0""
""focus"",""1"",""7375""
""fullscreenenter"",""5"",""22115""
","""event"",""trial"",""time""
""blur"",""0"",""0""
""blur"",""0"",""0""
""blur"",""0"",""0""
""blur"",""0"",""0""
""blur"",""0"",""0""
","""event"",""trial"",""time""
""focus"",""0"",""0""
""focus"",""0"",""0""
""focus"",""0"",""0""
""focus"",""0"",""0""
""focus"",""1"",""7375""
","""event"",""trial"",""time""
""fullscreenenter"",""5"",""22115""
","
","925.3000000119209","","49","","","3000","1","","","images/tutgreenplanet.jpg","images/tutalien1","images/tutalien2","null","images/tutalien2","images/t.png","NA","practice","null","","","",""
"d3-animate-choice","35","164049","0.0-35.0","1149","2129","17","Female","true","true","true","false","""event"",""trial"",""time""
""blur"",""0"",""0""
""focus"",""0"",""0""
""blur"",""0"",""0""
""focus"",""0"",""0""
""blur"",""0"",""0""
""focus"",""0"",""0""
""blur"",""0"",""0""
""focus"",""0"",""0""
""blur"",""0"",""0""
""focus"",""1"",""7375""
""fullscreenenter"",""5"",""22115""
","""event"",""trial"",""time""
""blur"",""0"",""0""
""blur"",""0"",""0""
""blur"",""0"",""0""
""blur"",""0"",""0""
""blur"",""0"",""0""
","""event"",""trial"",""time""
""focus"",""0"",""0""
""focus"",""0"",""0""
""focus"",""0"",""0""
""focus"",""0"",""0""
""focus"",""1"",""7375""
","""event"",""trial"",""time""
""fullscreenenter"",""5"",""22115""
","
","287.9000000357628","","49","","","3000","1","","","images/tutgreenplanet.jpg","images/tutalien1","images/tutalien2","null","images/tutalien2","images/nothing.png","NA","practice","null","","","",""
"d3-animate-choice","36","166336","0.0-36.0","1149","2129","17","Female","true","true","true","false","""event"",""trial"",""time""
""blur"",""0"",""0""
""focus"",""0"",""0""
""blur"",""0"",""0""
""focus"",""0"",""0""
""blur"",""0"",""0""
""focus"",""0"",""0""
""blur"",""0"",""0""
""focus"",""0"",""0""
""blur"",""0"",""0""
""focus"",""1"",""7375""
""fullscreenenter"",""5"",""22115""
","""event"",""trial"",""time""
""blur"",""0"",""0""
""blur"",""0"",""0""
""blur"",""0"",""0""
""blur"",""0"",""0""
""blur"",""0"",""0""
","""event"",""trial"",""time""
""focus"",""0"",""0""
""focus"",""0"",""0""
""focus"",""0"",""0""
""focus"",""0"",""0""
""focus"",""1"",""7375""
","""event"",""trial"",""time""
""fullscreenenter"",""5"",""22115""
","
","281.7000000476837","","49","","","3000","1","","","images/tutgreenplanet.jpg","images/tutalien1","images/tutalien2","null","images/tutalien2","images/t.png","NA","practice","null","","","",""
"d3-animate-choice","37","168615","0.0-37.0","1149","2129","17","Female","true","true","true","false","""event"",""trial"",""time""
""blur"",""0"",""0""
""focus"",""0"",""0""
""blur"",""0"",""0""
""focus"",""0"",""0""
""blur"",""0"",""0""
""focus"",""0"",""0""
""blur"",""0"",""0""
""focus"",""0"",""0""
""blur"",""0"",""0""
""focus"",""1"",""7375""
""fullscreenenter"",""5"",""22115""
","""event"",""trial"",""time""
""blur"",""0"",""0""
""blur"",""0"",""0""
""blur"",""0"",""0""
""blur"",""0"",""0""
""blur"",""0"",""0""
","""event"",""trial"",""time""
""focus"",""0"",""0""
""focus"",""0"",""0""
""focus"",""0"",""0""
""focus"",""0"",""0""
""focus"",""1"",""7375""
","""event"",""trial"",""time""
""fullscreenenter"",""5"",""22115""
","
","270","","49","","","3000","1","","","images/tutgreenplanet.jpg","images/tutalien1","images/tutalien2","null","images/tutalien2","images/t.png","NA","practice","null","","","",""
"d3-animate-choice","38","170845","0.0-38.0","1149","2129","17","Female","true","true","true","false","""event"",""trial"",""time""
""blur"",""0"",""0""
""focus"",""0"",""0""
""blur"",""0"",""0""
""focus"",""0"",""0""
""blur"",""0"",""0""
""focus"",""0"",""0""
""blur"",""0"",""0""
""focus"",""0"",""0""
""blur"",""0"",""0""
""focus"",""1"",""7375""
""fullscreenenter"",""5"",""22115""
","""event"",""trial"",""time""
""blur"",""0"",""0""
""blur"",""0"",""0""
""blur"",""0"",""0""
""blur"",""0"",""0""
""blur"",""0"",""0""
","""event"",""trial"",""time""
""focus"",""0"",""0""
""focus"",""0"",""0""
""focus"",""0"",""0""
""focus"",""0"",""0""
""focus"",""1"",""7375""
","""event"",""trial"",""time""
""fullscreenenter"",""5"",""22115""
","
","225.5","","49","","","3000","1","","","images/tutgreenplanet.jpg","images/tutalien1","images/tutalien2","null","images/tutalien2","images/t.png","NA","practice","null","","","",""
"d3-animate-choice","39","173041","0.0-39.0","1149","2129","17","Female","true","true","true","false","""event"",""trial"",""time""
""blur"",""0"",""0""
""focus"",""0"",""0""
""blur"",""0"",""0""
""focus"",""0"",""0""
""blur"",""0"",""0""
""focus"",""0"",""0""
""blur"",""0"",""0""
""focus"",""0"",""0""
""blur"",""0"",""0""
""focus"",""1"",""7375""
""fullscreenenter"",""5"",""22115""
","""event"",""trial"",""time""
""blur"",""0"",""0""
""blur"",""0"",""0""
""blur"",""0"",""0""
""blur"",""0"",""0""
""blur"",""0"",""0""
","""event"",""trial"",""time""
""focus"",""0"",""0""
""focus"",""0"",""0""
""focus"",""0"",""0""
""focus"",""0"",""0""
""focus"",""1"",""7375""
","""event"",""trial"",""time""
""fullscreenenter"",""5"",""22115""
","
","188","","49","","","3000","1","","","images/tutgreenplanet.jpg","images/tutalien1","images/tutalien2","null","images/tutalien2","images/t.png","NA","practice","null","","","",""
"d3-animate-choice","40","175290","0.0-40.0","1149","2129","17","Female","true","true","true","false","""event"",""trial"",""time""
""blur"",""0"",""0""
""focus"",""0"",""0""
""blur"",""0"",""0""
""focus"",""0"",""0""
""blur"",""0"",""0""
""focus"",""0"",""0""
""blur"",""0"",""0""
""focus"",""0"",""0""
""blur"",""0"",""0""
""focus"",""1"",""7375""
""fullscreenenter"",""5"",""22115""
","""event"",""trial"",""time""
""blur"",""0"",""0""
""blur"",""0"",""0""
""blur"",""0"",""0""
""blur"",""0"",""0""
""blur"",""0"",""0""
","""event"",""trial"",""time""
""focus"",""0"",""0""
""focus"",""0"",""0""
""focus"",""0"",""0""
""focus"",""0"",""0""
""focus"",""1"",""7375""
","""event"",""trial"",""time""
""fullscreenenter"",""5"",""22115""
","
","240.30000001192093","","49","","","3000","1","","","images/tutgreenplanet.jpg","images/tutalien1","images/tutalien2","null","images/tutalien2","images/t.png","NA","practice","null","","","",""
"d3-animate-choice","41","177534","0.0-41.0","1149","2129","17","Female","true","true","true","false","""event"",""trial"",""time""
""blur"",""0"",""0""
""focus"",""0"",""0""
""blur"",""0"",""0""
""focus"",""0"",""0""
""blur"",""0"",""0""
""focus"",""0"",""0""
""blur"",""0"",""0""
""focus"",""0"",""0""
""blur"",""0"",""0""
""focus"",""1"",""7375""
""fullscreenenter"",""5"",""22115""
","""event"",""trial"",""time""
""blur"",""0"",""0""
""blur"",""0"",""0""
""blur"",""0"",""0""
""blur"",""0"",""0""
""blur"",""0"",""0""
","""event"",""trial"",""time""
""focus"",""0"",""0""
""focus"",""0"",""0""
""focus"",""0"",""0""
""focus"",""0"",""0""
""focus"",""1"",""7375""
","""event"",""trial"",""time""
""fullscreenenter"",""5"",""22115""
","
","239.19999998807907","","49","","","3000","1","","","images/tutgreenplanet.jpg","images/tutalien1","images/tutalien2","null","images/tutalien2","images/t.png","NA","practice","null","","","",""
"d3-animate-choice","42","179851","0.0-42.0","1149","2129","17","Female","true","true","true","false","""event"",""trial"",""time""
""blur"",""0"",""0""
""focus"",""0"",""0""
""blur"",""0"",""0""
""focus"",""0"",""0""
""blur"",""0"",""0""
""focus"",""0"",""0""
""blur"",""0"",""0""
""focus"",""0"",""0""
""blur"",""0"",""0""
""focus"",""1"",""7375""
""fullscreenenter"",""5"",""22115""
","""event"",""trial"",""time""
""blur"",""0"",""0""
""blur"",""0"",""0""
""blur"",""0"",""0""
""blur"",""0"",""0""
""blur"",""0"",""0""
","""event"",""trial"",""time""
""focus"",""0"",""0""
""focus"",""0"",""0""
""focus"",""0"",""0""
""focus"",""0"",""0""
""focus"",""1"",""7375""
","""event"",""trial"",""time""
""fullscreenenter"",""5"",""22115""
","
","308.10000002384186","","49","","","3000","1","","","images/tutgreenplanet.jpg","images/tutalien1","images/tutalien2","null","images/tutalien2","images/nothing.png","NA","practice","null","","","",""
"d3-animate-choice","43","182151","0.0-43.0","1149","2129","17","Female","true","true","true","false","""event"",""trial"",""time""
""blur"",""0"",""0""
""focus"",""0"",""0""
""blur"",""0"",""0""
""focus"",""0"",""0""
""blur"",""0"",""0""
""focus"",""0"",""0""
""blur"",""0"",""0""
""focus"",""0"",""0""
""blur"",""0"",""0""
""focus"",""1"",""7375""
""fullscreenenter"",""5"",""22115""
","""event"",""trial"",""time""
""blur"",""0"",""0""
""blur"",""0"",""0""
""blur"",""0"",""0""
""blur"",""0"",""0""
""blur"",""0"",""0""
","""event"",""trial"",""time""
""focus"",""0"",""0""
""focus"",""0"",""0""
""focus"",""0"",""0""
""focus"",""0"",""0""
""focus"",""1"",""7375""
","""event"",""trial"",""time""
""fullscreenenter"",""5"",""22115""
","
","294.60000002384186","","49","","","3000","1","","","images/tutgreenplanet.jpg","images/tutalien1","images/tutalien2","null","images/tutalien2","images/t.png","NA","practice","null","","","",""
"d3-instructions","44","188418","0.0-44.0","1149","2129","17","Female","true","true","true","false","""event"",""trial"",""time""
""blur"",""0"",""0""
""focus"",""0"",""0""
""blur"",""0"",""0""
""focus"",""0"",""0""
""blur"",""0"",""0""
""focus"",""0"",""0""
""blur"",""0"",""0""
""focus"",""0"",""0""
""blur"",""0"",""0""
""focus"",""1"",""7375""
""fullscreenenter"",""5"",""22115""
","""event"",""trial"",""time""
""blur"",""0"",""0""
""blur"",""0"",""0""
""blur"",""0"",""0""
""blur"",""0"",""0""
""blur"",""0"",""0""
","""event"",""trial"",""time""
""focus"",""0"",""0""
""focus"",""0"",""0""
""focus"",""0"",""0""
""focus"",""0"",""0""
""focus"",""1"",""7375""
","""event"",""trial"",""time""
""fullscreenenter"",""5"",""22115""
","
","","","","","","","","","","","","","","","","","","","","","",""
"d3-instructions","45","191992","0.0-45.0","1149","2129","17","Female","true","true","true","false","""event"",""trial"",""time""
""blur"",""0"",""0""
""focus"",""0"",""0""
""blur"",""0"",""0""
""focus"",""0"",""0""
""blur"",""0"",""0""
""focus"",""0"",""0""
""blur"",""0"",""0""
""focus"",""0"",""0""
""blur"",""0"",""0""
""focus"",""1"",""7375""
""fullscreenenter"",""5"",""22115""
","""event"",""trial"",""time""
""blur"",""0"",""0""
""blur"",""0"",""0""
""blur"",""0"",""0""
""blur"",""0"",""0""
""blur"",""0"",""0""
","""event"",""trial"",""time""
""focus"",""0"",""0""
""focus"",""0"",""0""
""focus"",""0"",""0""
""focus"",""0"",""0""
""focus"",""1"",""7375""
","""event"",""trial"",""time""
""fullscreenenter"",""5"",""22115""
","
","","","","","","","","","","","","","","","","","","","","","",""
"d3-instructions","46","195071","0.0-46.0","1149","2129","17","Female","true","true","true","false","""event"",""trial"",""time""
""blur"",""0"",""0""
""focus"",""0"",""0""
""blur"",""0"",""0""
""focus"",""0"",""0""
""blur"",""0"",""0""
""focus"",""0"",""0""
""blur"",""0"",""0""
""focus"",""0"",""0""
""blur"",""0"",""0""
""focus"",""1"",""7375""
""fullscreenenter"",""5"",""22115""
","""event"",""trial"",""time""
""blur"",""0"",""0""
""blur"",""0"",""0""
""blur"",""0"",""0""
""blur"",""0"",""0""
""blur"",""0"",""0""
","""event"",""trial"",""time""
""focus"",""0"",""0""
""focus"",""0"",""0""
""focus"",""0"",""0""
""focus"",""0"",""0""
""focus"",""1"",""7375""
","""event"",""trial"",""time""
""fullscreenenter"",""5"",""22115""
","
","","","","","","","","","","","","","","","","","","","","","",""
"d3-instructions","47","204934","0.0-47.0","1149","2129","17","Female","true","true","true","false","""event"",""trial"",""time""
""blur"",""0"",""0""
""focus"",""0"",""0""
""blur"",""0"",""0""
""focus"",""0"",""0""
""blur"",""0"",""0""
""focus"",""0"",""0""
""blur"",""0"",""0""
""focus"",""0"",""0""
""blur"",""0"",""0""
""focus"",""1"",""7375""
""fullscreenenter"",""5"",""22115""
","""event"",""trial"",""time""
""blur"",""0"",""0""
""blur"",""0"",""0""
""blur"",""0"",""0""
""blur"",""0"",""0""
""blur"",""0"",""0""
","""event"",""trial"",""time""
""focus"",""0"",""0""
""focus"",""0"",""0""
""focus"",""0"",""0""
""focus"",""0"",""0""
""focus"",""1"",""7375""
","""event"",""trial"",""time""
""fullscreenenter"",""5"",""22115""
","
","","","","","","","","","","","","","","","","","","","","","",""
"d3-instructions","48","208132","0.0-48.0","1149","2129","17","Female","true","true","true","false","""event"",""trial"",""time""
""blur"",""0"",""0""
""focus"",""0"",""0""
""blur"",""0"",""0""
""focus"",""0"",""0""
""blur"",""0"",""0""
""focus"",""0"",""0""
""blur"",""0"",""0""
""focus"",""0"",""0""
""blur"",""0"",""0""
""focus"",""1"",""7375""
""fullscreenenter"",""5"",""22115""
","""event"",""trial"",""time""
""blur"",""0"",""0""
""blur"",""0"",""0""
""blur"",""0"",""0""
""blur"",""0"",""0""
""blur"",""0"",""0""
","""event"",""trial"",""time""
""focus"",""0"",""0""
""focus"",""0"",""0""
""focus"",""0"",""0""
""focus"",""0"",""0""
""focus"",""1"",""7375""
","""event"",""trial"",""time""
""fullscreenenter"",""5"",""22115""
","
","","","","","","","","","","","","","","","","","","","","","",""
"d3-instructions","49","213520","0.0-49.0","1149","2129","17","Female","true","true","true","false","""event"",""trial"",""time""
""blur"",""0"",""0""
""focus"",""0"",""0""
""blur"",""0"",""0""
""focus"",""0"",""0""
""blur"",""0"",""0""
""focus"",""0"",""0""
""blur"",""0"",""0""
""focus"",""0"",""0""
""blur"",""0"",""0""
""focus"",""1"",""7375""
""fullscreenenter"",""5"",""22115""
","""event"",""trial"",""time""
""blur"",""0"",""0""
""blur"",""0"",""0""
""blur"",""0"",""0""
""blur"",""0"",""0""
""blur"",""0"",""0""
","""event"",""trial"",""time""
""focus"",""0"",""0""
""focus"",""0"",""0""
""focus"",""0"",""0""
""focus"",""0"",""0""
""focus"",""1"",""7375""
","""event"",""trial"",""time""
""fullscreenenter"",""5"",""22115""
","
","","","","","","","","","","","","","","","","","","","","","",""
"d3-instructions","50","216845","0.0-50.0","1149","2129","17","Female","true","true","true","false","""event"",""trial"",""time""
""blur"",""0"",""0""
""focus"",""0"",""0""
""blur"",""0"",""0""
""focus"",""0"",""0""
""blur"",""0"",""0""
""focus"",""0"",""0""
""blur"",""0"",""0""
""focus"",""0"",""0""
""blur"",""0"",""0""
""focus"",""1"",""7375""
""fullscreenenter"",""5"",""22115""
","""event"",""trial"",""time""
""blur"",""0"",""0""
""blur"",""0"",""0""
""blur"",""0"",""0""
""blur"",""0"",""0""
""blur"",""0"",""0""
","""event"",""trial"",""time""
""focus"",""0"",""0""
""focus"",""0"",""0""
""focus"",""0"",""0""
""focus"",""0"",""0""
""focus"",""1"",""7375""
","""event"",""trial"",""time""
""fullscreenenter"",""5"",""22115""
","
","","","","","","","","","","","","","","","","","","","","","",""
"d3-instructions","51","218901","0.0-51.0","1149","2129","17","Female","true","true","true","false","""event"",""trial"",""time""
""blur"",""0"",""0""
""focus"",""0"",""0""
""blur"",""0"",""0""
""focus"",""0"",""0""
""blur"",""0"",""0""
""focus"",""0"",""0""
""blur"",""0"",""0""
""focus"",""0"",""0""
""blur"",""0"",""0""
""focus"",""1"",""7375""
""fullscreenenter"",""5"",""22115""
","""event"",""trial"",""time""
""blur"",""0"",""0""
""blur"",""0"",""0""
""blur"",""0"",""0""
""blur"",""0"",""0""
""blur"",""0"",""0""
","""event"",""trial"",""time""
""focus"",""0"",""0""
""focus"",""0"",""0""
""focus"",""0"",""0""
""focus"",""0"",""0""
""focus"",""1"",""7375""
","""event"",""trial"",""time""
""fullscreenenter"",""5"",""22115""
","
","","","","","","","","","","","","","","","","","","","","","",""
"d3-instructions","52","219903","0.0-52.0","1149","2129","17","Female","true","true","true","false","""event"",""trial"",""time""
""blur"",""0"",""0""
""focus"",""0"",""0""
""blur"",""0"",""0""
""focus"",""0"",""0""
""blur"",""0"",""0""
""focus"",""0"",""0""
""blur"",""0"",""0""
""focus"",""0"",""0""
""blur"",""0"",""0""
""focus"",""1"",""7375""
""fullscreenenter"",""5"",""22115""
","""event"",""trial"",""time""
""blur"",""0"",""0""
""blur"",""0"",""0""
""blur"",""0"",""0""
""blur"",""0"",""0""
""blur"",""0"",""0""
","""event"",""trial"",""time""
""focus"",""0"",""0""
""focus"",""0"",""0""
""focus"",""0"",""0""
""focus"",""0"",""0""
""focus"",""1"",""7375""
","""event"",""trial"",""time""
""fullscreenenter"",""5"",""22115""
","
","","","","","","","","","","","","","","","","","","","","","",""
"d3-instructions","53","226588","0.0-53.0","1149","2129","17","Female","true","true","true","false","""event"",""trial"",""time""
""blur"",""0"",""0""
""focus"",""0"",""0""
""blur"",""0"",""0""
""focus"",""0"",""0""
""blur"",""0"",""0""
""focus"",""0"",""0""
""blur"",""0"",""0""
""focus"",""0"",""0""
""blur"",""0"",""0""
""focus"",""1"",""7375""
""fullscreenenter"",""5"",""22115""
","""event"",""trial"",""time""
""blur"",""0"",""0""
""blur"",""0"",""0""
""blur"",""0"",""0""
""blur"",""0"",""0""
""blur"",""0"",""0""
","""event"",""trial"",""time""
""focus"",""0"",""0""
""focus"",""0"",""0""
""focus"",""0"",""0""
""focus"",""0"",""0""
""focus"",""1"",""7375""
","""event"",""trial"",""time""
""fullscreenenter"",""5"",""22115""
","
","","","","","","","","","","","","","","","","","","","","","",""
"d3-instructions","54","238328","0.0-54.0","1149","2129","17","Female","true","true","true","false","""event"",""trial"",""time""
""blur"",""0"",""0""
""focus"",""0"",""0""
""blur"",""0"",""0""
""focus"",""0"",""0""
""blur"",""0"",""0""
""focus"",""0"",""0""
""blur"",""0"",""0""
""focus"",""0"",""0""
""blur"",""0"",""0""
""focus"",""1"",""7375""
""fullscreenenter"",""5"",""22115""
","""event"",""trial"",""time""
""blur"",""0"",""0""
""blur"",""0"",""0""
""blur"",""0"",""0""
""blur"",""0"",""0""
""blur"",""0"",""0""
","""event"",""trial"",""time""
""focus"",""0"",""0""
""focus"",""0"",""0""
""focus"",""0"",""0""
""focus"",""0"",""0""
""focus"",""1"",""7375""
","""event"",""trial"",""time""
""fullscreenenter"",""5"",""22115""
","
","","","","","","","","","","","","","","","","","","","","","",""
"d3-instructions","55","246977","0.0-55.0","1149","2129","17","Female","true","true","true","false","""event"",""trial"",""time""
""blur"",""0"",""0""
""focus"",""0"",""0""
""blur"",""0"",""0""
""focus"",""0"",""0""
""blur"",""0"",""0""
""focus"",""0"",""0""
""blur"",""0"",""0""
""focus"",""0"",""0""
""blur"",""0"",""0""
""focus"",""1"",""7375""
""fullscreenenter"",""5"",""22115""
","""event"",""trial"",""time""
""blur"",""0"",""0""
""blur"",""0"",""0""
""blur"",""0"",""0""
""blur"",""0"",""0""
""blur"",""0"",""0""
","""event"",""trial"",""time""
""focus"",""0"",""0""
""focus"",""0"",""0""
""focus"",""0"",""0""
""focus"",""0"",""0""
""focus"",""1"",""7375""
","""event"",""trial"",""time""
""fullscreenenter"",""5"",""22115""
","
","","","","","","","","","","","","","","","","","","","","","",""
"d3-instructions","56","251767","0.0-56.0","1149","2129","17","Female","true","true","true","false","""event"",""trial"",""time""
""blur"",""0"",""0""
""focus"",""0"",""0""
""blur"",""0"",""0""
""focus"",""0"",""0""
""blur"",""0"",""0""
""focus"",""0"",""0""
""blur"",""0"",""0""
""focus"",""0"",""0""
""blur"",""0"",""0""
""focus"",""1"",""7375""
""fullscreenenter"",""5"",""22115""
","""event"",""trial"",""time""
""blur"",""0"",""0""
""blur"",""0"",""0""
""blur"",""0"",""0""
""blur"",""0"",""0""
""blur"",""0"",""0""
","""event"",""trial"",""time""
""focus"",""0"",""0""
""focus"",""0"",""0""
""focus"",""0"",""0""
""focus"",""0"",""0""
""focus"",""1"",""7375""
","""event"",""trial"",""time""
""fullscreenenter"",""5"",""22115""
","
","","","","","","","","","","","","","","","","","","","","","",""
"d3-instructions","57","259403","0.0-57.0","1149","2129","17","Female","true","true","true","false","""event"",""trial"",""time""
""blur"",""0"",""0""
""focus"",""0"",""0""
""blur"",""0"",""0""
""focus"",""0"",""0""
""blur"",""0"",""0""
""focus"",""0"",""0""
""blur"",""0"",""0""
""focus"",""0"",""0""
""blur"",""0"",""0""
""focus"",""1"",""7375""
""fullscreenenter"",""5"",""22115""
","""event"",""trial"",""time""
""blur"",""0"",""0""
""blur"",""0"",""0""
""blur"",""0"",""0""
""blur"",""0"",""0""
""blur"",""0"",""0""
","""event"",""trial"",""time""
""focus"",""0"",""0""
""focus"",""0"",""0""
""focus"",""0"",""0""
""focus"",""0"",""0""
""focus"",""1"",""7375""
","""event"",""trial"",""time""
""fullscreenenter"",""5"",""22115""
","
","","","","","","","","","","","","","","","","","","","","","",""
"d3-instructions","58","268830","0.0-58.0","1149","2129","17","Female","true","true","true","false","""event"",""trial"",""time""
""blur"",""0"",""0""
""focus"",""0"",""0""
""blur"",""0"",""0""
""focus"",""0"",""0""
""blur"",""0"",""0""
""focus"",""0"",""0""
""blur"",""0"",""0""
""focus"",""0"",""0""
""blur"",""0"",""0""
""focus"",""1"",""7375""
""fullscreenenter"",""5"",""22115""
","""event"",""trial"",""time""
""blur"",""0"",""0""
""blur"",""0"",""0""
""blur"",""0"",""0""
""blur"",""0"",""0""
""blur"",""0"",""0""
","""event"",""trial"",""time""
""focus"",""0"",""0""
""focus"",""0"",""0""
""focus"",""0"",""0""
""focus"",""0"",""0""
""focus"",""1"",""7375""
","""event"",""trial"",""time""
""fullscreenenter"",""5"",""22115""
","
","","","","","","","","","","","","","","","","","","","","","",""
"d3-instructions","59","273226","0.0-59.0","1149","2129","17","Female","true","true","true","false","""event"",""trial"",""time""
""blur"",""0"",""0""
""focus"",""0"",""0""
""blur"",""0"",""0""
""focus"",""0"",""0""
""blur"",""0"",""0""
""focus"",""0"",""0""
""blur"",""0"",""0""
""focus"",""0"",""0""
""blur"",""0"",""0""
""focus"",""1"",""7375""
""fullscreenenter"",""5"",""22115""
","""event"",""trial"",""time""
""blur"",""0"",""0""
""blur"",""0"",""0""
""blur"",""0"",""0""
""blur"",""0"",""0""
""blur"",""0"",""0""
","""event"",""trial"",""time""
""focus"",""0"",""0""
""focus"",""0"",""0""
""focus"",""0"",""0""
""focus"",""0"",""0""
""focus"",""1"",""7375""
","""event"",""trial"",""time""
""fullscreenenter"",""5"",""22115""
","
","","","","","","","","","","","","","","","","","","","","","",""
"d3-instructions","60","275312","0.0-60.0","1149","2129","17","Female","true","true","true","false","""event"",""trial"",""time""
""blur"",""0"",""0""
""focus"",""0"",""0""
""blur"",""0"",""0""
""focus"",""0"",""0""
""blur"",""0"",""0""
""focus"",""0"",""0""
""blur"",""0"",""0""
""focus"",""0"",""0""
""blur"",""0"",""0""
""focus"",""1"",""7375""
""fullscreenenter"",""5"",""22115""
","""event"",""trial"",""time""
""blur"",""0"",""0""
""blur"",""0"",""0""
""blur"",""0"",""0""
""blur"",""0"",""0""
""blur"",""0"",""0""
","""event"",""trial"",""time""
""focus"",""0"",""0""
""focus"",""0"",""0""
""focus"",""0"",""0""
""focus"",""0"",""0""
""focus"",""1"",""7375""
","""event"",""trial"",""time""
""fullscreenenter"",""5"",""22115""
","
","","","","","","","","","","","","","","","","","","","","","",""
"d3-animate-choice","61","277849","0.0-61.0-0.0","1149","2129","17","Female","true","true","true","false","""event"",""trial"",""time""
""blur"",""0"",""0""
""focus"",""0"",""0""
""blur"",""0"",""0""
""focus"",""0"",""0""
""blur"",""0"",""0""
""focus"",""0"",""0""
""blur"",""0"",""0""
""focus"",""0"",""0""
""blur"",""0"",""0""
""focus"",""1"",""7375""
""fullscreenenter"",""5"",""22115""
","""event"",""trial"",""time""
""blur"",""0"",""0""
""blur"",""0"",""0""
""blur"",""0"",""0""
""blur"",""0"",""0""
""blur"",""0"",""0""
","""event"",""trial"",""time""
""focus"",""0"",""0""
""focus"",""0"",""0""
""focus"",""0"",""0""
""focus"",""0"",""0""
""focus"",""1"",""7375""
","""event"",""trial"",""time""
""fullscreenenter"",""5"",""22115""
","
","527.5","","49","","","3000","1","","","images/earth.jpg","images/tutrocket1","images/tutrocket2","null","images/tutrocket2","","1","practice","null","1","","",""
"d3-animate-choice","62","280547","0.0-61.0-1.0","1149","2129","17","Female","true","true","true","false","""event"",""trial"",""time""
""blur"",""0"",""0""
""focus"",""0"",""0""
""blur"",""0"",""0""
""focus"",""0"",""0""
""blur"",""0"",""0""
""focus"",""0"",""0""
""blur"",""0"",""0""
""focus"",""0"",""0""
""blur"",""0"",""0""
""focus"",""1"",""7375""
""fullscreenenter"",""5"",""22115""
","""event"",""trial"",""time""
""blur"",""0"",""0""
""blur"",""0"",""0""
""blur"",""0"",""0""
""blur"",""0"",""0""
""blur"",""0"",""0""
","""event"",""trial"",""time""
""focus"",""0"",""0""
""focus"",""0"",""0""
""focus"",""0"",""0""
""focus"",""0"",""0""
""focus"",""1"",""7375""
","""event"",""trial"",""time""
""fullscreenenter"",""5"",""22115""
","
","690.4000000357628","","49","","","3000","1","","","images/tutyellowplanet.jpg","images/tutalien4","images/tutalien3","images/tutrocket2","images/tutalien3","images/t.png","2","practice","true","1","common","1","2022-06-28 03:53:51.707"
"two-step-fixation","63","281552","0.0-61.0-2.0","1149","2129","17","Female","true","true","true","false","""event"",""trial"",""time""
""blur"",""0"",""0""
""focus"",""0"",""0""
""blur"",""0"",""0""
""focus"",""0"",""0""
""blur"",""0"",""0""
""focus"",""0"",""0""
""blur"",""0"",""0""
""focus"",""0"",""0""
""blur"",""0"",""0""
""focus"",""1"",""7375""
""fullscreenenter"",""5"",""22115""
","""event"",""trial"",""time""
""blur"",""0"",""0""
""blur"",""0"",""0""
""blur"",""0"",""0""
""blur"",""0"",""0""
""blur"",""0"",""0""
","""event"",""trial"",""time""
""focus"",""0"",""0""
""focus"",""0"",""0""
""focus"",""0"",""0""
""focus"",""0"",""0""
""focus"",""1"",""7375""
","""event"",""trial"",""time""
""fullscreenenter"",""5"",""22115""
","
","","images/earth.jpg","","","","","","","","","","","","","","fixation","","","","","",""
"d3-animate-choice","64","284179","0.0-61.0-0.1","1149","2129","17","Female","true","true","true","false","""event"",""trial"",""time""
""blur"",""0"",""0""
""focus"",""0"",""0""
""blur"",""0"",""0""
""focus"",""0"",""0""
""blur"",""0"",""0""
""focus"",""0"",""0""
""blur"",""0"",""0""
""focus"",""0"",""0""
""blur"",""0"",""0""
""focus"",""1"",""7375""
""fullscreenenter"",""5"",""22115""
","""event"",""trial"",""time""
""blur"",""0"",""0""
""blur"",""0"",""0""
""blur"",""0"",""0""
""blur"",""0"",""0""
""blur"",""0"",""0""
","""event"",""trial"",""time""
""focus"",""0"",""0""
""focus"",""0"",""0""
""focus"",""0"",""0""
""focus"",""0"",""0""
""focus"",""1"",""7375""
","""event"",""trial"",""time""
""fullscreenenter"",""5"",""22115""
","
","621.9000000357628","","49","","","3000","1","1864.4000000357628","49","images/earth.jpg","images/tutrocket1","images/tutrocket2","null","images/tutrocket2","","1","practice","null","1","","",""
"d3-animate-choice","65","286585","0.0-61.0-1.1","1149","2129","17","Female","true","true","true","false","""event"",""trial"",""time""
""blur"",""0"",""0""
""focus"",""0"",""0""
""blur"",""0"",""0""
""focus"",""0"",""0""
""blur"",""0"",""0""
""focus"",""0"",""0""
""blur"",""0"",""0""
""focus"",""0"",""0""
""blur"",""0"",""0""
""focus"",""1"",""7375""
""fullscreenenter"",""5"",""22115""
","""event"",""trial"",""time""
""blur"",""0"",""0""
""blur"",""0"",""0""
""blur"",""0"",""0""
""blur"",""0"",""0""
""blur"",""0"",""0""
","""event"",""trial"",""time""
""focus"",""0"",""0""
""focus"",""0"",""0""
""focus"",""0"",""0""
""focus"",""0"",""0""
""focus"",""1"",""7375""
","""event"",""trial"",""time""
""fullscreenenter"",""5"",""22115""
","
","400.19999998807907","","49","","","3000","1","","","images/tutyellowplanet.jpg","images/tutalien4","images/tutalien3","images/tutrocket2","images/tutalien3","images/t.png","2","practice","true","1","common","1","2022-06-28 03:53:57.745"
"two-step-fixation","66","287592","0.0-61.0-2.1","1149","2129","17","Female","true","true","true","false","""event"",""trial"",""time""
""blur"",""0"",""0""
""focus"",""0"",""0""
""blur"",""0"",""0""
""focus"",""0"",""0""
""blur"",""0"",""0""
""focus"",""0"",""0""
""blur"",""0"",""0""
""focus"",""0"",""0""
""blur"",""0"",""0""
""focus"",""1"",""7375""
""fullscreenenter"",""5"",""22115""
","""event"",""trial"",""time""
""blur"",""0"",""0""
""blur"",""0"",""0""
""blur"",""0"",""0""
""blur"",""0"",""0""
""blur"",""0"",""0""
","""event"",""trial"",""time""
""focus"",""0"",""0""
""focus"",""0"",""0""
""focus"",""0"",""0""
""focus"",""0"",""0""
""focus"",""1"",""7375""
","""event"",""trial"",""time""
""fullscreenenter"",""5"",""22115""
","
","","images/earth.jpg","","","","","","","","","","","","","","fixation","","","","","",""
"d3-animate-choice","67","289859","0.0-61.0-0.2","1149","2129","17","Female","true","true","true","false","""event"",""trial"",""time""
""blur"",""0"",""0""
""focus"",""0"",""0""
""blur"",""0"",""0""
""focus"",""0"",""0""
""blur"",""0"",""0""
""focus"",""0"",""0""
""blur"",""0"",""0""
""focus"",""0"",""0""
""blur"",""0"",""0""
""focus"",""1"",""7375""
""fullscreenenter"",""5"",""22115""
","""event"",""trial"",""time""
""blur"",""0"",""0""
""blur"",""0"",""0""
""blur"",""0"",""0""
""blur"",""0"",""0""
""blur"",""0"",""0""
","""event"",""trial"",""time""
""focus"",""0"",""0""
""focus"",""0"",""0""
""focus"",""0"",""0""
""focus"",""0"",""0""
""focus"",""1"",""7375""
","""event"",""trial"",""time""
""fullscreenenter"",""5"",""22115""
","
","259.69999998807907","","49","","","3000","1","","","images/earth.jpg","images/tutrocket1","images/tutrocket2","null","images/tutrocket2","","1","practice","null","1","","",""
"d3-animate-choice","68","292171","0.0-61.0-1.2","1149","2129","17","Female","true","true","true","false","""event"",""trial"",""time""
""blur"",""0"",""0""
""focus"",""0"",""0""
""blur"",""0"",""0""
""focus"",""0"",""0""
""blur"",""0"",""0""
""focus"",""0"",""0""
""blur"",""0"",""0""
""focus"",""0"",""0""
""blur"",""0"",""0""
""focus"",""1"",""7375""
""fullscreenenter"",""5"",""22115""
","""event"",""trial"",""time""
""blur"",""0"",""0""
""blur"",""0"",""0""
""blur"",""0"",""0""
""blur"",""0"",""0""
""blur"",""0"",""0""
","""event"",""trial"",""time""
""focus"",""0"",""0""
""focus"",""0"",""0""
""focus"",""0"",""0""
""focus"",""0"",""0""
""focus"",""1"",""7375""
","""event"",""trial"",""time""
""fullscreenenter"",""5"",""22115""
","
","307.2999999523163","","49","","","3000","1","","","images/tutyellowplanet.jpg","images/tutalien4","images/tutalien3","images/tutrocket2","images/tutalien3","images/nothing.png","2","practice","true","1","common","0","2022-06-28 03:54:03.331"
"two-step-fixation","69","293175","0.0-61.0-2.2","1149","2129","17","Female","true","true","true","false","""event"",""trial"",""time""
""blur"",""0"",""0""
""focus"",""0"",""0""
""blur"",""0"",""0""
""focus"",""0"",""0""
""blur"",""0"",""0""
""focus"",""0"",""0""
""blur"",""0"",""0""
""focus"",""0"",""0""
""blur"",""0"",""0""
""focus"",""1"",""7375""
""fullscreenenter"",""5"",""22115""
","""event"",""trial"",""time""
""blur"",""0"",""0""
""blur"",""0"",""0""
""blur"",""0"",""0""
""blur"",""0"",""0""
""blur"",""0"",""0""
","""event"",""trial"",""time""
""focus"",""0"",""0""
""focus"",""0"",""0""
""focus"",""0"",""0""
""focus"",""0"",""0""
""focus"",""1"",""7375""
","""event"",""trial"",""time""
""fullscreenenter"",""5"",""22115""
","
","","images/earth.jpg","","","","","","","","","","","","","","fixation","","","","","",""
"d3-animate-choice","70","295442","0.0-61.0-0.3","1149","2129","17","Female","true","true","true","false","""event"",""trial"",""time""
""blur"",""0"",""0""
""focus"",""0"",""0""
""blur"",""0"",""0""
""focus"",""0"",""0""
""blur"",""0"",""0""
""focus"",""0"",""0""
""blur"",""0"",""0""
""focus"",""0"",""0""
""blur"",""0"",""0""
""focus"",""1"",""7375""
""fullscreenenter"",""5"",""22115""
","""event"",""trial"",""time""
""blur"",""0"",""0""
""blur"",""0"",""0""
""blur"",""0"",""0""
""blur"",""0"",""0""
""blur"",""0"",""0""
","""event"",""trial"",""time""
""focus"",""0"",""0""
""focus"",""0"",""0""
""focus"",""0"",""0""
""focus"",""0"",""0""
""focus"",""1"",""7375""
","""event"",""trial"",""time""
""fullscreenenter"",""5"",""22115""
","
","260.69999998807907","","49","","","3000","1","","","images/earth.jpg","images/tutrocket1","images/tutrocket2","null","images/tutrocket2","","1","practice","null","1","","",""
"d3-animate-choice","71","298341","0.0-61.0-1.3","1149","2129","17","Female","true","true","true","false","""event"",""trial"",""time""
""blur"",""0"",""0""
""focus"",""0"",""0""
""blur"",""0"",""0""
""focus"",""0"",""0""
""blur"",""0"",""0""
""focus"",""0"",""0""
""blur"",""0"",""0""
""focus"",""0"",""0""
""blur"",""0"",""0""
""focus"",""1"",""7375""
""fullscreenenter"",""5"",""22115""
","""event"",""trial"",""time""
""blur"",""0"",""0""
""blur"",""0"",""0""
""blur"",""0"",""0""
""blur"",""0"",""0""
""blur"",""0"",""0""
","""event"",""trial"",""time""
""focus"",""0"",""0""
""focus"",""0"",""0""
""focus"",""0"",""0""
""focus"",""0"",""0""
""focus"",""1"",""7375""
","""event"",""trial"",""time""
""fullscreenenter"",""5"",""22115""
","
","889.5","","49","","","3000","1","","","images/tutyellowplanet.jpg","images/tutalien4","images/tutalien3","images/tutrocket2","images/tutalien3","images/t.png","2","practice","true","1","common","1","2022-06-28 03:54:09.501"
"two-step-fixation","72","299347","0.0-61.0-2.3","1149","2129","17","Female","true","true","true","false","""event"",""trial"",""time""
""blur"",""0"",""0""
""focus"",""0"",""0""
""blur"",""0"",""0""
""focus"",""0"",""0""
""blur"",""0"",""0""
""focus"",""0"",""0""
""blur"",""0"",""0""
""focus"",""0"",""0""
""blur"",""0"",""0""
""focus"",""1"",""7375""
""fullscreenenter"",""5"",""22115""
","""event"",""trial"",""time""
""blur"",""0"",""0""
""blur"",""0"",""0""
""blur"",""0"",""0""
""blur"",""0"",""0""
""blur"",""0"",""0""
","""event"",""trial"",""time""
""focus"",""0"",""0""
""focus"",""0"",""0""
""focus"",""0"",""0""
""focus"",""0"",""0""
""focus"",""1"",""7375""
","""event"",""trial"",""time""
""fullscreenenter"",""5"",""22115""
","
","","images/earth.jpg","","","","","","","","","","","","","","fixation","","","","","",""
"d3-animate-choice","73","301591","0.0-61.0-0.4","1149","2129","17","Female","true","true","true","false","""event"",""trial"",""time""
""blur"",""0"",""0""
""focus"",""0"",""0""
""blur"",""0"",""0""
""focus"",""0"",""0""
""blur"",""0"",""0""
""focus"",""0"",""0""
""blur"",""0"",""0""
""focus"",""0"",""0""
""blur"",""0"",""0""
""focus"",""1"",""7375""
""fullscreenenter"",""5"",""22115""
","""event"",""trial"",""time""
""blur"",""0"",""0""
""blur"",""0"",""0""
""blur"",""0"",""0""
""blur"",""0"",""0""
""blur"",""0"",""0""
","""event"",""trial"",""time""
""focus"",""0"",""0""
""focus"",""0"",""0""
""focus"",""0"",""0""
""focus"",""0"",""0""
""focus"",""1"",""7375""
","""event"",""trial"",""time""
""fullscreenenter"",""5"",""22115""
","
","233.39999997615814","","49","","","3000","1","","","images/earth.jpg","images/tutrocket1","images/tutrocket2","null","images/tutrocket2","","1","practice","null","1","","",""
"d3-animate-choice","74","303912","0.0-61.0-1.4","1149","2129","17","Female","true","true","true","false","""event"",""trial"",""time""
""blur"",""0"",""0""
""focus"",""0"",""0""
""blur"",""0"",""0""
""focus"",""0"",""0""
""blur"",""0"",""0""
""focus"",""0"",""0""
""blur"",""0"",""0""
""focus"",""0"",""0""
""blur"",""0"",""0""
""focus"",""1"",""7375""
""fullscreenenter"",""5"",""22115""
","""event"",""trial"",""time""
""blur"",""0"",""0""
""blur"",""0"",""0""
""blur"",""0"",""0""
""blur"",""0"",""0""
""blur"",""0"",""0""
","""event"",""trial"",""time""
""focus"",""0"",""0""
""focus"",""0"",""0""
""focus"",""0"",""0""
""focus"",""0"",""0""
""focus"",""1"",""7375""
","""event"",""trial"",""time""
""fullscreenenter"",""5"",""22115""
","
","315","","49","","","3000","1","","","images/tutyellowplanet.jpg","images/tutalien4","images/tutalien3","images/tutrocket2","images/tutalien3","images/nothing.png","2","practice","true","1","common","0","2022-06-28 03:54:15.072"
"two-step-fixation","75","304916","0.0-61.0-2.4","1149","2129","17","Female","true","true","true","false","""event"",""trial"",""time""
""blur"",""0"",""0""
""focus"",""0"",""0""
""blur"",""0"",""0""
""focus"",""0"",""0""
""blur"",""0"",""0""
""focus"",""0"",""0""
""blur"",""0"",""0""
""focus"",""0"",""0""
""blur"",""0"",""0""
""focus"",""1"",""7375""
""fullscreenenter"",""5"",""22115""
","""event"",""trial"",""time""
""blur"",""0"",""0""
""blur"",""0"",""0""
""blur"",""0"",""0""
""blur"",""0"",""0""
""blur"",""0"",""0""
","""event"",""trial"",""time""
""focus"",""0"",""0""
""focus"",""0"",""0""
""focus"",""0"",""0""
""focus"",""0"",""0""
""focus"",""1"",""7375""
","""event"",""trial"",""time""
""fullscreenenter"",""5"",""22115""
","
","","images/earth.jpg","","","","","","","","","","","","","","fixation","","","","","",""
"d3-animate-choice","76","307159","0.0-61.0-0.5","1149","2129","17","Female","true","true","true","false","""event"",""trial"",""time""
""blur"",""0"",""0""
""focus"",""0"",""0""
""blur"",""0"",""0""
""focus"",""0"",""0""
""blur"",""0"",""0""
""focus"",""0"",""0""
""blur"",""0"",""0""
""focus"",""0"",""0""
""blur"",""0"",""0""
""focus"",""1"",""7375""
""fullscreenenter"",""5"",""22115""
","""event"",""trial"",""time""
""blur"",""0"",""0""
""blur"",""0"",""0""
""blur"",""0"",""0""
""blur"",""0"",""0""
""blur"",""0"",""0""
","""event"",""trial"",""time""
""focus"",""0"",""0""
""focus"",""0"",""0""
""focus"",""0"",""0""
""focus"",""0"",""0""
""focus"",""1"",""7375""
","""event"",""trial"",""time""
""fullscreenenter"",""5"",""22115""
","
","240","","49","","","3000","1","","","images/earth.jpg","images/tutrocket1","images/tutrocket2","null","images/tutrocket2","","1","practice","null","1","","",""
"d3-animate-choice","77","309794","0.0-61.0-1.5","1149","2129","17","Female","true","true","true","false","""event"",""trial"",""time""
""blur"",""0"",""0""
""focus"",""0"",""0""
""blur"",""0"",""0""
""focus"",""0"",""0""
""blur"",""0"",""0""
""focus"",""0"",""0""
""blur"",""0"",""0""
""focus"",""0"",""0""
""blur"",""0"",""0""
""focus"",""1"",""7375""
""fullscreenenter"",""5"",""22115""
","""event"",""trial"",""time""
""blur"",""0"",""0""
""blur"",""0"",""0""
""blur"",""0"",""0""
""blur"",""0"",""0""
""blur"",""0"",""0""
","""event"",""trial"",""time""
""focus"",""0"",""0""
""focus"",""0"",""0""
""focus"",""0"",""0""
""focus"",""0"",""0""
""focus"",""1"",""7375""
","""event"",""trial"",""time""
""fullscreenenter"",""5"",""22115""
","
","629.8999999761581","","49","","","3000","1","","","images/tutgreenplanet.jpg","images/tutalien2","images/tutalien1","images/tutrocket2","images/tutalien1","images/nothing.png","2","practice","false","1","rare","0","2022-06-28 03:54:20.954"
"two-step-fixation","78","310801","0.0-61.0-2.5","1149","2129","17","Female","true","true","true","false","""event"",""trial"",""time""
""blur"",""0"",""0""
""focus"",""0"",""0""
""blur"",""0"",""0""
""focus"",""0"",""0""
""blur"",""0"",""0""
""focus"",""0"",""0""
""blur"",""0"",""0""
""focus"",""0"",""0""
""blur"",""0"",""0""
""focus"",""1"",""7375""
""fullscreenenter"",""5"",""22115""
","""event"",""trial"",""time""
""blur"",""0"",""0""
""blur"",""0"",""0""
""blur"",""0"",""0""
""blur"",""0"",""0""
""blur"",""0"",""0""
","""event"",""trial"",""time""
""focus"",""0"",""0""
""focus"",""0"",""0""
""focus"",""0"",""0""
""focus"",""0"",""0""
""focus"",""1"",""7375""
","""event"",""trial"",""time""
""fullscreenenter"",""5"",""22115""
","
","","images/earth.jpg","","","","","","","","","","","","","","fixation","","","","","",""
"d3-animate-choice","79","313063","0.0-61.0-0.6","1149","2129","17","Female","true","true","true","false","""event"",""trial"",""time""
""blur"",""0"",""0""
""focus"",""0"",""0""
""blur"",""0"",""0""
""focus"",""0"",""0""
""blur"",""0"",""0""
""focus"",""0"",""0""
""blur"",""0"",""0""
""focus"",""0"",""0""
""blur"",""0"",""0""
""focus"",""1"",""7375""
""fullscreenenter"",""5"",""22115""
","""event"",""trial"",""time""
""blur"",""0"",""0""
""blur"",""0"",""0""
""blur"",""0"",""0""
""blur"",""0"",""0""
""blur"",""0"",""0""
","""event"",""trial"",""time""
""focus"",""0"",""0""
""focus"",""0"",""0""
""focus"",""0"",""0""
""focus"",""0"",""0""
""focus"",""1"",""7375""
","""event"",""trial"",""time""
""fullscreenenter"",""5"",""22115""
","
","251.39999997615814","","49","","","3000","1","","","images/earth.jpg","images/tutrocket1","images/tutrocket2","null","images/tutrocket2","","1","practice","null","1","","",""
"d3-animate-choice","80","315382","0.0-61.0-1.6","1149","2129","17","Female","true","true","true","false","""event"",""trial"",""time""
""blur"",""0"",""0""
""focus"",""0"",""0""
""blur"",""0"",""0""
""focus"",""0"",""0""
""blur"",""0"",""0""
""focus"",""0"",""0""
""blur"",""0"",""0""
""focus"",""0"",""0""
""blur"",""0"",""0""
""focus"",""1"",""7375""
""fullscreenenter"",""5"",""22115""
","""event"",""trial"",""time""
""blur"",""0"",""0""
""blur"",""0"",""0""
""blur"",""0"",""0""
""blur"",""0"",""0""
""blur"",""0"",""0""
","""event"",""trial"",""time""
""focus"",""0"",""0""
""focus"",""0"",""0""
""focus"",""0"",""0""
""focus"",""0"",""0""
""focus"",""1"",""7375""
","""event"",""trial"",""time""
""fullscreenenter"",""5"",""22115""
","
","312.60000002384186","","49","","","3000","1","","","images/tutyellowplanet.jpg","images/tutalien4","images/tutalien3","images/tutrocket2","images/tutalien3","images/nothing.png","2","practice","true","1","common","0","2022-06-28 03:54:26.543"
"two-step-fixation","81","316386","0.0-61.0-2.6","1149","2129","17","Female","true","true","true","false","""event"",""trial"",""time""
""blur"",""0"",""0""
""focus"",""0"",""0""
""blur"",""0"",""0""
""focus"",""0"",""0""
""blur"",""0"",""0""
""focus"",""0"",""0""
""blur"",""0"",""0""
""focus"",""0"",""0""
""blur"",""0"",""0""
""focus"",""1"",""7375""
""fullscreenenter"",""5"",""22115""
","""event"",""trial"",""time""
""blur"",""0"",""0""
""blur"",""0"",""0""
""blur"",""0"",""0""
""blur"",""0"",""0""
""blur"",""0"",""0""
","""event"",""trial"",""time""
""focus"",""0"",""0""
""focus"",""0"",""0""
""focus"",""0"",""0""
""focus"",""0"",""0""
""focus"",""1"",""7375""
","""event"",""trial"",""time""
""fullscreenenter"",""5"",""22115""
","
","","images/earth.jpg","","","","","","","","","","","","","","fixation","","","","","",""
"d3-animate-choice","82","318657","0.0-61.0-0.7","1149","2129","17","Female","true","true","true","false","""event"",""trial"",""time""
""blur"",""0"",""0""
""focus"",""0"",""0""
""blur"",""0"",""0""
""focus"",""0"",""0""
""blur"",""0"",""0""
""focus"",""0"",""0""
""blur"",""0"",""0""
""focus"",""0"",""0""
""blur"",""0"",""0""
""focus"",""1"",""7375""
""fullscreenenter"",""5"",""22115""
","""event"",""trial"",""time""
""blur"",""0"",""0""
""blur"",""0"",""0""
""blur"",""0"",""0""
""blur"",""0"",""0""
""blur"",""0"",""0""
","""event"",""trial"",""time""
""focus"",""0"",""0""
""focus"",""0"",""0""
""focus"",""0"",""0""
""focus"",""0"",""0""
""focus"",""1"",""7375""
","""event"",""trial"",""time""
""fullscreenenter"",""5"",""22115""
","
","262.69999998807907","","49","","","3000","1","","","images/earth.jpg","images/tutrocket1","images/tutrocket2","null","images/tutrocket2","","1","practice","null","1","","",""
"d3-animate-choice","83","321005","0.0-61.0-1.7","1149","2129","17","Female","true","true","true","false","""event"",""trial"",""time""
""blur"",""0"",""0""
""focus"",""0"",""0""
""blur"",""0"",""0""
""focus"",""0"",""0""
""blur"",""0"",""0""
""focus"",""0"",""0""
""blur"",""0"",""0""
""focus"",""0"",""0""
""blur"",""0"",""0""
""focus"",""1"",""7375""
""fullscreenenter"",""5"",""22115""
","""event"",""trial"",""time""
""blur"",""0"",""0""
""blur"",""0"",""0""
""blur"",""0"",""0""
""blur"",""0"",""0""
""blur"",""0"",""0""
","""event"",""trial"",""time""
""focus"",""0"",""0""
""focus"",""0"",""0""
""focus"",""0"",""0""
""focus"",""0"",""0""
""focus"",""1"",""7375""
","""event"",""trial"",""time""
""fullscreenenter"",""5"",""22115""
","
","339.5999999642372","","48","","","3000","1","","","images/tutyellowplanet.jpg","images/tutalien4","images/tutalien3","images/tutrocket2","images/tutalien4","images/t.png","2","practice","true","2","common","1","2022-06-28 03:54:32.165"
"two-step-fixation","84","322012","0.0-61.0-2.7","1149","2129","17","Female","true","true","true","false","""event"",""trial"",""time""
""blur"",""0"",""0""
""focus"",""0"",""0""
""blur"",""0"",""0""
""focus"",""0"",""0""
""blur"",""0"",""0""
""focus"",""0"",""0""
""blur"",""0"",""0""
""focus"",""0"",""0""
""blur"",""0"",""0""
""focus"",""1"",""7375""
""fullscreenenter"",""5"",""22115""
","""event"",""trial"",""time""
""blur"",""0"",""0""
""blur"",""0"",""0""
""blur"",""0"",""0""
""blur"",""0"",""0""
""blur"",""0"",""0""
","""event"",""trial"",""time""
""focus"",""0"",""0""
""focus"",""0"",""0""
""focus"",""0"",""0""
""focus"",""0"",""0""
""focus"",""1"",""7375""
","""event"",""trial"",""time""
""fullscreenenter"",""5"",""22115""
","
","","images/earth.jpg","","","","","","","","","","","","","","fixation","","","","","",""
"d3-animate-choice","85","324343","0.0-61.0-0.8","1149","2129","17","Female","true","true","true","false","""event"",""trial"",""time""
""blur"",""0"",""0""
""focus"",""0"",""0""
""blur"",""0"",""0""
""focus"",""0"",""0""
""blur"",""0"",""0""
""focus"",""0"",""0""
""blur"",""0"",""0""
""focus"",""0"",""0""
""blur"",""0"",""0""
""focus"",""1"",""7375""
""fullscreenenter"",""5"",""22115""
","""event"",""trial"",""time""
""blur"",""0"",""0""
""blur"",""0"",""0""
""blur"",""0"",""0""
""blur"",""0"",""0""
""blur"",""0"",""0""
","""event"",""trial"",""time""
""focus"",""0"",""0""
""focus"",""0"",""0""
""focus"",""0"",""0""
""focus"",""0"",""0""
""focus"",""1"",""7375""
","""event"",""trial"",""time""
""fullscreenenter"",""5"",""22115""
","
","323.19999998807907","","49","","","3000","1","","","images/earth.jpg","images/tutrocket1","images/tutrocket2","null","images/tutrocket2","","1","practice","null","1","","",""
"d3-animate-choice","86","326653","0.0-61.0-1.8","1149","2129","17","Female","true","true","true","false","""event"",""trial"",""time""
""blur"",""0"",""0""
""focus"",""0"",""0""
""blur"",""0"",""0""
""focus"",""0"",""0""
""blur"",""0"",""0""
""focus"",""0"",""0""
""blur"",""0"",""0""
""focus"",""0"",""0""
""blur"",""0"",""0""
""focus"",""1"",""7375""
""fullscreenenter"",""5"",""22115""
","""event"",""trial"",""time""
""blur"",""0"",""0""
""blur"",""0"",""0""
""blur"",""0"",""0""
""blur"",""0"",""0""
""blur"",""0"",""0""
","""event"",""trial"",""time""
""focus"",""0"",""0""
""focus"",""0"",""0""
""focus"",""0"",""0""
""focus"",""0"",""0""
""focus"",""1"",""7375""
","""event"",""trial"",""time""
""fullscreenenter"",""5"",""22115""
","
","305","","48","","","3000","1","","","images/tutyellowplanet.jpg","images/tutalien4","images/tutalien3","images/tutrocket2","images/tutalien4","images/t.png","2","practice","true","2","common","1","2022-06-28 03:54:37.813"
"two-step-fixation","87","327661","0.0-61.0-2.8","1149","2129","17","Female","true","true","true","false","""event"",""trial"",""time""
""blur"",""0"",""0""
""focus"",""0"",""0""
""blur"",""0"",""0""
""focus"",""0"",""0""
""blur"",""0"",""0""
""focus"",""0"",""0""
""blur"",""0"",""0""
""focus"",""0"",""0""
""blur"",""0"",""0""
""focus"",""1"",""7375""
""fullscreenenter"",""5"",""22115""
","""event"",""trial"",""time""
""blur"",""0"",""0""
""blur"",""0"",""0""
""blur"",""0"",""0""
""blur"",""0"",""0""
""blur"",""0"",""0""
","""event"",""trial"",""time""
""focus"",""0"",""0""
""focus"",""0"",""0""
""focus"",""0"",""0""
""focus"",""0"",""0""
""focus"",""1"",""7375""
","""event"",""trial"",""time""
""fullscreenenter"",""5"",""22115""
","
","","images/earth.jpg","","","","","","","","","","","","","","fixation","","","","","",""
"d3-animate-choice","88","329914","0.0-61.0-0.9","1149","2129","17","Female","true","true","true","false","""event"",""trial"",""time""
""blur"",""0"",""0""
""focus"",""0"",""0""
""blur"",""0"",""0""
""focus"",""0"",""0""
""blur"",""0"",""0""
""focus"",""0"",""0""
""blur"",""0"",""0""
""focus"",""0"",""0""
""blur"",""0"",""0""
""focus"",""1"",""7375""
""fullscreenenter"",""5"",""22115""
","""event"",""trial"",""time""
""blur"",""0"",""0""
""blur"",""0"",""0""
""blur"",""0"",""0""
""blur"",""0"",""0""
""blur"",""0"",""0""
","""event"",""trial"",""time""
""focus"",""0"",""0""
""focus"",""0"",""0""
""focus"",""0"",""0""
""focus"",""0"",""0""
""focus"",""1"",""7375""
","""event"",""trial"",""time""
""fullscreenenter"",""5"",""22115""
","
","246.69999998807907","","49","","","3000","1","","","images/earth.jpg","images/tutrocket1","images/tutrocket2","null","images/tutrocket2","","1","practice","null","1","","",""
"d3-animate-choice","89","332187","0.0-61.0-1.9","1149","2129","17","Female","true","true","true","false","""event"",""trial"",""time""
""blur"",""0"",""0""
""focus"",""0"",""0""
""blur"",""0"",""0""
""focus"",""0"",""0""
""blur"",""0"",""0""
""focus"",""0"",""0""
""blur"",""0"",""0""
""focus"",""0"",""0""
""blur"",""0"",""0""
""focus"",""1"",""7375""
""fullscreenenter"",""5"",""22115""
","""event"",""trial"",""time""
""blur"",""0"",""0""
""blur"",""0"",""0""
""blur"",""0"",""0""
""blur"",""0"",""0""
""blur"",""0"",""0""
","""event"",""trial"",""time""
""focus"",""0"",""0""
""focus"",""0"",""0""
""focus"",""0"",""0""
""focus"",""0"",""0""
""focus"",""1"",""7375""
","""event"",""trial"",""time""
""fullscreenenter"",""5"",""22115""
","
","262.9000000357628","","48","","","3000","1","","","images/tutyellowplanet.jpg","images/tutalien4","images/tutalien3","images/tutrocket2","images/tutalien4","images/nothing.png","2","practice","true","2","common","0","2022-06-28 03:54:43.347"
"two-step-fixation","90","333192","0.0-61.0-2.9","1149","2129","17","Female","true","true","true","false","""event"",""trial"",""time""
""blur"",""0"",""0""
""focus"",""0"",""0""
""blur"",""0"",""0""
""focus"",""0"",""0""
""blur"",""0"",""0""
""focus"",""0"",""0""
""blur"",""0"",""0""
""focus"",""0"",""0""
""blur"",""0"",""0""
""focus"",""1"",""7375""
""fullscreenenter"",""5"",""22115""
","""event"",""trial"",""time""
""blur"",""0"",""0""
""blur"",""0"",""0""
""blur"",""0"",""0""
""blur"",""0"",""0""
""blur"",""0"",""0""
","""event"",""trial"",""time""
""focus"",""0"",""0""
""focus"",""0"",""0""
""focus"",""0"",""0""
""focus"",""0"",""0""
""focus"",""1"",""7375""
","""event"",""trial"",""time""
""fullscreenenter"",""5"",""22115""
","
","","images/earth.jpg","","","","","","","","","","","","","","fixation","","","","","",""
"d3-animate-choice","91","335517","0.0-61.0-0.10","1149","2129","17","Female","true","true","true","false","""event"",""trial"",""time""
""blur"",""0"",""0""
""focus"",""0"",""0""
""blur"",""0"",""0""
""focus"",""0"",""0""
""blur"",""0"",""0""
""focus"",""0"",""0""
""blur"",""0"",""0""
""focus"",""0"",""0""
""blur"",""0"",""0""
""focus"",""1"",""7375""
""fullscreenenter"",""5"",""22115""
","""event"",""trial"",""time""
""blur"",""0"",""0""
""blur"",""0"",""0""
""blur"",""0"",""0""
""blur"",""0"",""0""
""blur"",""0"",""0""
","""event"",""trial"",""time""
""focus"",""0"",""0""
""focus"",""0"",""0""
""focus"",""0"",""0""
""focus"",""0"",""0""
""focus"",""1"",""7375""
","""event"",""trial"",""time""
""fullscreenenter"",""5"",""22115""
","
","317.69999998807907","","49","","","3000","1","","","images/earth.jpg","images/tutrocket1","images/tutrocket2","null","images/tutrocket2","","1","practice","null","1","","",""
"d3-animate-choice","92","338076","0.0-61.0-1.10","1149","2129","17","Female","true","true","true","false","""event"",""trial"",""time""
""blur"",""0"",""0""
""focus"",""0"",""0""
""blur"",""0"",""0""
""focus"",""0"",""0""
""blur"",""0"",""0""
""focus"",""0"",""0""
""blur"",""0"",""0""
""focus"",""0"",""0""
""blur"",""0"",""0""
""focus"",""1"",""7375""
""fullscreenenter"",""5"",""22115""
","""event"",""trial"",""time""
""blur"",""0"",""0""
""blur"",""0"",""0""
""blur"",""0"",""0""
""blur"",""0"",""0""
""blur"",""0"",""0""
","""event"",""trial"",""time""
""focus"",""0"",""0""
""focus"",""0"",""0""
""focus"",""0"",""0""
""focus"",""0"",""0""
""focus"",""1"",""7375""
","""event"",""trial"",""time""
""fullscreenenter"",""5"",""22115""
","
","552.8000000119209","","48","","","3000","1","","","images/tutgreenplanet.jpg","images/tutalien2","images/tutalien1","images/tutrocket2","images/tutalien2","images/nothing.png","2","practice","false","2","rare","0","2022-06-28 03:54:49.236"
"two-step-fixation","93","339079","0.0-61.0-2.10","1149","2129","17","Female","true","true","true","false","""event"",""trial"",""time""
""blur"",""0"",""0""
""focus"",""0"",""0""
""blur"",""0"",""0""
""focus"",""0"",""0""
""blur"",""0"",""0""
""focus"",""0"",""0""
""blur"",""0"",""0""
""focus"",""0"",""0""
""blur"",""0"",""0""
""focus"",""1"",""7375""
""fullscreenenter"",""5"",""22115""
","""event"",""trial"",""time""
""blur"",""0"",""0""
""blur"",""0"",""0""
""blur"",""0"",""0""
""blur"",""0"",""0""
""blur"",""0"",""0""
","""event"",""trial"",""time""
""focus"",""0"",""0""
""focus"",""0"",""0""
""focus"",""0"",""0""
""focus"",""0"",""0""
""focus"",""1"",""7375""
","""event"",""trial"",""time""
""fullscreenenter"",""5"",""22115""
","
","","images/earth.jpg","","","","","","","","","","","","","","fixation","","","","","",""
"d3-animate-choice","94","341275","0.0-61.0-0.11","1149","2129","17","Female","true","true","true","false","""event"",""trial"",""time""
""blur"",""0"",""0""
""focus"",""0"",""0""
""blur"",""0"",""0""
""focus"",""0"",""0""
""blur"",""0"",""0""
""focus"",""0"",""0""
""blur"",""0"",""0""
""focus"",""0"",""0""
""blur"",""0"",""0""
""focus"",""1"",""7375""
""fullscreenenter"",""5"",""22115""
","""event"",""trial"",""time""
""blur"",""0"",""0""
""blur"",""0"",""0""
""blur"",""0"",""0""
""blur"",""0"",""0""
""blur"",""0"",""0""
","""event"",""trial"",""time""
""focus"",""0"",""0""
""focus"",""0"",""0""
""focus"",""0"",""0""
""focus"",""0"",""0""
""focus"",""1"",""7375""
","""event"",""trial"",""time""
""fullscreenenter"",""5"",""22115""
","
","188.5","","49","","","3000","1","","","images/earth.jpg","images/tutrocket1","images/tutrocket2","null","images/tutrocket2","","1","practice","null","1","","",""
"d3-animate-choice","95","343796","0.0-61.0-1.11","1149","2129","17","Female","true","true","true","false","""event"",""trial"",""time""
""blur"",""0"",""0""
""focus"",""0"",""0""
""blur"",""0"",""0""
""focus"",""0"",""0""
""blur"",""0"",""0""
""focus"",""0"",""0""
""blur"",""0"",""0""
""focus"",""0"",""0""
""blur"",""0"",""0""
""focus"",""1"",""7375""
""fullscreenenter"",""5"",""22115""
","""event"",""trial"",""time""
""blur"",""0"",""0""
""blur"",""0"",""0""
""blur"",""0"",""0""
""blur"",""0"",""0""
""blur"",""0"",""0""
","""event"",""trial"",""time""
""focus"",""0"",""0""
""focus"",""0"",""0""
""focus"",""0"",""0""
""focus"",""0"",""0""
""focus"",""1"",""7375""
","""event"",""trial"",""time""
""fullscreenenter"",""5"",""22115""
","
","515.5","","48","","","3000","1","","","images/tutyellowplanet.jpg","images/tutalien4","images/tutalien3","images/tutrocket2","images/tutalien4","images/t.png","2","practice","true","2","common","1","2022-06-28 03:54:54.956"
"two-step-fixation","96","344802","0.0-61.0-2.11","1149","2129","17","Female","true","true","true","false","""event"",""trial"",""time""
""blur"",""0"",""0""
""focus"",""0"",""0""
""blur"",""0"",""0""
""focus"",""0"",""0""
""blur"",""0"",""0""
""focus"",""0"",""0""
""blur"",""0"",""0""
""focus"",""0"",""0""
""blur"",""0"",""0""
""focus"",""1"",""7375""
""fullscreenenter"",""5"",""22115""
","""event"",""trial"",""time""
""blur"",""0"",""0""
""blur"",""0"",""0""
""blur"",""0"",""0""
""blur"",""0"",""0""
""blur"",""0"",""0""
","""event"",""trial"",""time""
""focus"",""0"",""0""
""focus"",""0"",""0""
""focus"",""0"",""0""
""focus"",""0"",""0""
""focus"",""1"",""7375""
","""event"",""trial"",""time""
""fullscreenenter"",""5"",""22115""
","
","","images/earth.jpg","","","","","","","","","","","","","","fixation","","","","","",""
"d3-animate-choice","97","347095","0.0-61.0-0.12","1149","2129","17","Female","true","true","true","false","""event"",""trial"",""time""
""blur"",""0"",""0""
""focus"",""0"",""0""
""blur"",""0"",""0""
""focus"",""0"",""0""
""blur"",""0"",""0""
""focus"",""0"",""0""
""blur"",""0"",""0""
""focus"",""0"",""0""
""blur"",""0"",""0""
""focus"",""1"",""7375""
""fullscreenenter"",""5"",""22115""
","""event"",""trial"",""time""
""blur"",""0"",""0""
""blur"",""0"",""0""
""blur"",""0"",""0""
""blur"",""0"",""0""
""blur"",""0"",""0""
","""event"",""trial"",""time""
""focus"",""0"",""0""
""focus"",""0"",""0""
""focus"",""0"",""0""
""focus"",""0"",""0""
""focus"",""1"",""7375""
","""event"",""trial"",""time""
""fullscreenenter"",""5"",""22115""
","
","284.80000001192093","","49","","","3000","1","","","images/earth.jpg","images/tutrocket1","images/tutrocket2","null","images/tutrocket2","","1","practice","null","1","","",""
"d3-animate-choice","98","349532","0.0-61.0-1.12","1149","2129","17","Female","true","true","true","false","""event"",""trial"",""time""
""blur"",""0"",""0""
""focus"",""0"",""0""
""blur"",""0"",""0""
""focus"",""0"",""0""
""blur"",""0"",""0""
""focus"",""0"",""0""
""blur"",""0"",""0""
""focus"",""0"",""0""
""blur"",""0"",""0""
""focus"",""1"",""7375""
""fullscreenenter"",""5"",""22115""
","""event"",""trial"",""time""
""blur"",""0"",""0""
""blur"",""0"",""0""
""blur"",""0"",""0""
""blur"",""0"",""0""
""blur"",""0"",""0""
","""event"",""trial"",""time""
""focus"",""0"",""0""
""focus"",""0"",""0""
""focus"",""0"",""0""
""focus"",""0"",""0""
""focus"",""1"",""7375""
","""event"",""trial"",""time""
""fullscreenenter"",""5"",""22115""
","
","427.60000002384186","","49","","","3000","1","","","images/tutgreenplanet.jpg","images/tutalien2","images/tutalien1","images/tutrocket2","images/tutalien1","images/nothing.png","2","practice","false","1","rare","0","2022-06-28 03:55:00.693"
"two-step-fixation","99","350540","0.0-61.0-2.12","1149","2129","17","Female","true","true","true","false","""event"",""trial"",""time""
""blur"",""0"",""0""
""focus"",""0"",""0""
""blur"",""0"",""0""
""focus"",""0"",""0""
""blur"",""0"",""0""
""focus"",""0"",""0""
""blur"",""0"",""0""
""focus"",""0"",""0""
""blur"",""0"",""0""
""focus"",""1"",""7375""
""fullscreenenter"",""5"",""22115""
","""event"",""trial"",""time""
""blur"",""0"",""0""
""blur"",""0"",""0""
""blur"",""0"",""0""
""blur"",""0"",""0""
""blur"",""0"",""0""
","""event"",""trial"",""time""
""focus"",""0"",""0""
""focus"",""0"",""0""
""focus"",""0"",""0""
""focus"",""0"",""0""
""focus"",""1"",""7375""
","""event"",""trial"",""time""
""fullscreenenter"",""5"",""22115""
","
","","images/earth.jpg","","","","","","","","","","","","","","fixation","","","","","",""
"d3-animate-choice","100","352775","0.0-61.0-0.13","1149","2129","17","Female","true","true","true","false","""event"",""trial"",""time""
""blur"",""0"",""0""
""focus"",""0"",""0""
""blur"",""0"",""0""
""focus"",""0"",""0""
""blur"",""0"",""0""
""focus"",""0"",""0""
""blur"",""0"",""0""
""focus"",""0"",""0""
""blur"",""0"",""0""
""focus"",""1"",""7375""
""fullscreenenter"",""5"",""22115""
","""event"",""trial"",""time""
""blur"",""0"",""0""
""blur"",""0"",""0""
""blur"",""0"",""0""
""blur"",""0"",""0""
""blur"",""0"",""0""
","""event"",""trial"",""time""
""focus"",""0"",""0""
""focus"",""0"",""0""
""focus"",""0"",""0""
""focus"",""0"",""0""
""focus"",""1"",""7375""
","""event"",""trial"",""time""
""fullscreenenter"",""5"",""22115""
","
","227.39999997615814","","49","","","3000","1","","","images/earth.jpg","images/tutrocket1","images/tutrocket2","null","images/tutrocket2","","1","practice","null","1","","",""
"d3-animate-choice","101","355135","0.0-61.0-1.13","1149","2129","17","Female","true","true","true","false","""event"",""trial"",""time""
""blur"",""0"",""0""
""focus"",""0"",""0""
""blur"",""0"",""0""
""focus"",""0"",""0""
""blur"",""0"",""0""
""focus"",""0"",""0""
""blur"",""0"",""0""
""focus"",""0"",""0""
""blur"",""0"",""0""
""focus"",""1"",""7375""
""fullscreenenter"",""5"",""22115""
","""event"",""trial"",""time""
""blur"",""0"",""0""
""blur"",""0"",""0""
""blur"",""0"",""0""
""blur"",""0"",""0""
""blur"",""0"",""0""
","""event"",""trial"",""time""
""focus"",""0"",""0""
""focus"",""0"",""0""
""focus"",""0"",""0""
""focus"",""0"",""0""
""focus"",""1"",""7375""
","""event"",""trial"",""time""
""fullscreenenter"",""5"",""22115""
","
","352.30000001192093","","48","","","3000","1","","","images/tutyellowplanet.jpg","images/tutalien4","images/tutalien3","images/tutrocket2","images/tutalien4","images/nothing.png","2","practice","true","2","common","0","2022-06-28 03:55:06.296"
"two-step-fixation","102","356140","0.0-61.0-2.13","1149","2129","17","Female","true","true","true","false","""event"",""trial"",""time""
""blur"",""0"",""0""
""focus"",""0"",""0""
""blur"",""0"",""0""
""focus"",""0"",""0""
""blur"",""0"",""0""
""focus"",""0"",""0""
""blur"",""0"",""0""
""focus"",""0"",""0""
""blur"",""0"",""0""
""focus"",""1"",""7375""
""fullscreenenter"",""5"",""22115""
","""event"",""trial"",""time""
""blur"",""0"",""0""
""blur"",""0"",""0""
""blur"",""0"",""0""
""blur"",""0"",""0""
""blur"",""0"",""0""
","""event"",""trial"",""time""
""focus"",""0"",""0""
""focus"",""0"",""0""
""focus"",""0"",""0""
""focus"",""0"",""0""
""focus"",""1"",""7375""
","""event"",""trial"",""time""
""fullscreenenter"",""5"",""22115""
","
","","images/earth.jpg","","","","","","","","","","","","","","fixation","","","","","",""
"d3-animate-choice","103","359363","0.0-61.0-0.14","1149","2129","17","Female","true","true","true","false","""event"",""trial"",""time""
""blur"",""0"",""0""
""focus"",""0"",""0""
""blur"",""0"",""0""
""focus"",""0"",""0""
""blur"",""0"",""0""
""focus"",""0"",""0""
""blur"",""0"",""0""
""focus"",""0"",""0""
""blur"",""0"",""0""
""focus"",""1"",""7375""
""fullscreenenter"",""5"",""22115""
","""event"",""trial"",""time""
""blur"",""0"",""0""
""blur"",""0"",""0""
""blur"",""0"",""0""
""blur"",""0"",""0""
""blur"",""0"",""0""
","""event"",""trial"",""time""
""focus"",""0"",""0""
""focus"",""0"",""0""
""focus"",""0"",""0""
""focus"",""0"",""0""
""focus"",""1"",""7375""
","""event"",""trial"",""time""
""fullscreenenter"",""5"",""22115""
","
","292.30000001192093","","50","","","3000","1","944.3000000119209,1216.5","50,48","images/earth.jpg","images/tutrocket1","images/tutrocket2","null","images/tutrocket1","","1","practice","null","","","",""
"d3-animate-choice","104","361728","0.0-61.0-1.14","1149","2129","17","Female","true","true","true","false","""event"",""trial"",""time""
""blur"",""0"",""0""
""focus"",""0"",""0""
""blur"",""0"",""0""
""focus"",""0"",""0""
""blur"",""0"",""0""
""focus"",""0"",""0""
""blur"",""0"",""0""
""focus"",""0"",""0""
""blur"",""0"",""0""
""focus"",""1"",""7375""
""fullscreenenter"",""5"",""22115""
","""event"",""trial"",""time""
""blur"",""0"",""0""
""blur"",""0"",""0""
""blur"",""0"",""0""
""blur"",""0"",""0""
""blur"",""0"",""0""
","""event"",""trial"",""time""
""focus"",""0"",""0""
""focus"",""0"",""0""
""focus"",""0"",""0""
""focus"",""0"",""0""
""focus"",""1"",""7375""
","""event"",""trial"",""time""
""fullscreenenter"",""5"",""22115""
","
","359","","49","","","3000","1","","","images/tutgreenplanet.jpg","images/tutalien2","images/tutalien1","images/tutrocket1","images/tutalien1","images/nothing.png","2","practice","true","1","common","0","2022-06-28 03:55:12.888"
"two-step-fixation","105","362738","0.0-61.0-2.14","1149","2129","17","Female","true","true","true","false","""event"",""trial"",""time""
""blur"",""0"",""0""
""focus"",""0"",""0""
""blur"",""0"",""0""
""focus"",""0"",""0""
""blur"",""0"",""0""
""focus"",""0"",""0""
""blur"",""0"",""0""
""focus"",""0"",""0""
""blur"",""0"",""0""
""focus"",""1"",""7375""
""fullscreenenter"",""5"",""22115""
","""event"",""trial"",""time""
""blur"",""0"",""0""
""blur"",""0"",""0""
""blur"",""0"",""0""
""blur"",""0"",""0""
""blur"",""0"",""0""
","""event"",""trial"",""time""
""focus"",""0"",""0""
""focus"",""0"",""0""
""focus"",""0"",""0""
""focus"",""0"",""0""
""focus"",""1"",""7375""
","""event"",""trial"",""time""
""fullscreenenter"",""5"",""22115""
","
","","images/earth.jpg","","","","","","","","","","","","","","fixation","","","","","",""
"d3-animate-choice","106","364785","0.0-61.0-0.15","1149","2129","17","Female","true","true","true","false","""event"",""trial"",""time""
""blur"",""0"",""0""
""focus"",""0"",""0""
""blur"",""0"",""0""
""focus"",""0"",""0""
""blur"",""0"",""0""
""focus"",""0"",""0""
""blur"",""0"",""0""
""focus"",""0"",""0""
""blur"",""0"",""0""
""focus"",""1"",""7375""
""fullscreenenter"",""5"",""22115""
","""event"",""trial"",""time""
""blur"",""0"",""0""
""blur"",""0"",""0""
""blur"",""0"",""0""
""blur"",""0"",""0""
""blur"",""0"",""0""
","""event"",""trial"",""time""
""focus"",""0"",""0""
""focus"",""0"",""0""
""focus"",""0"",""0""
""focus"",""0"",""0""
""focus"",""1"",""7375""
","""event"",""trial"",""time""
""fullscreenenter"",""5"",""22115""
","
","39.10000002384186","","48","","","3000","1","","","images/earth.jpg","images/tutrocket1","images/tutrocket2","null","images/tutrocket1","","1","practice","null","2","","",""
"d3-animate-choice","107","367138","0.0-61.0-1.15","1149","2129","17","Female","true","true","true","false","""event"",""trial"",""time""
""blur"",""0"",""0""
""focus"",""0"",""0""
""blur"",""0"",""0""
""focus"",""0"",""0""
""blur"",""0"",""0""
""focus"",""0"",""0""
""blur"",""0"",""0""
""focus"",""0"",""0""
""blur"",""0"",""0""
""focus"",""1"",""7375""
""fullscreenenter"",""5"",""22115""
","""event"",""trial"",""time""
""blur"",""0"",""0""
""blur"",""0"",""0""
""blur"",""0"",""0""
""blur"",""0"",""0""
""blur"",""0"",""0""
","""event"",""trial"",""time""
""focus"",""0"",""0""
""focus"",""0"",""0""
""focus"",""0"",""0""
""focus"",""0"",""0""
""focus"",""1"",""7375""
","""event"",""trial"",""time""
""fullscreenenter"",""5"",""22115""
","
","344.60000002384186","","49","","","3000","1","","","images/tutgreenplanet.jpg","images/tutalien2","images/tutalien1","images/tutrocket1","images/tutalien1","images/t.png","2","practice","true","1","common","1","2022-06-28 03:55:18.298"
"two-step-fixation","108","368143","0.0-61.0-2.15","1149","2129","17","Female","true","true","true","false","""event"",""trial"",""time""
""blur"",""0"",""0""
""focus"",""0"",""0""
""blur"",""0"",""0""
""focus"",""0"",""0""
""blur"",""0"",""0""
""focus"",""0"",""0""
""blur"",""0"",""0""
""focus"",""0"",""0""
""blur"",""0"",""0""
""focus"",""1"",""7375""
""fullscreenenter"",""5"",""22115""
","""event"",""trial"",""time""
""blur"",""0"",""0""
""blur"",""0"",""0""
""blur"",""0"",""0""
""blur"",""0"",""0""
""blur"",""0"",""0""
","""event"",""trial"",""time""
""focus"",""0"",""0""
""focus"",""0"",""0""
""focus"",""0"",""0""
""focus"",""0"",""0""
""focus"",""1"",""7375""
","""event"",""trial"",""time""
""fullscreenenter"",""5"",""22115""
","
","","images/earth.jpg","","","","","","","","","","","","","","fixation","","","","","",""
"d3-animate-choice","109","370417","0.0-61.0-0.16","1149","2129","17","Female","true","true","true","false","""event"",""trial"",""time""
""blur"",""0"",""0""
""focus"",""0"",""0""
""blur"",""0"",""0""
""focus"",""0"",""0""
""blur"",""0"",""0""
""focus"",""0"",""0""
""blur"",""0"",""0""
""focus"",""0"",""0""
""blur"",""0"",""0""
""focus"",""1"",""7375""
""fullscreenenter"",""5"",""22115""
","""event"",""trial"",""time""
""blur"",""0"",""0""
""blur"",""0"",""0""
""blur"",""0"",""0""
""blur"",""0"",""0""
""blur"",""0"",""0""
","""event"",""trial"",""time""
""focus"",""0"",""0""
""focus"",""0"",""0""
""focus"",""0"",""0""
""focus"",""0"",""0""
