"trial_type","trial_index","time_elapsed","internal_node_id","participant_id","subject_id","age","gender","rocket_sides","red_planet_first_rocket","red_display_order","purple_display_order","interactions","blur_events","focus_events","fullscreenenter_events","fullscreenexit_events","rt","stimulus","key_press","button_pressed","success","duration","valid_pressed","rts","keys","planet_text","right_text","left_text","center_text","chosen_text","reward_text","trial_stage","practice_trial","transition_type","choice","transition","reward","timestamp"
"pavlovia","0","1","0.0-0.0","202","5226","9","Male","false","true","true","true","
","
","
","
","
","","","","","","","","","","","","","","","","","","","","","",""
"html-keyboard-response","1","1460","0.0-1.0","202","5226","9","Male","false","true","true","true","""event"",""trial"",""time""
""blur"",""2"",""3124""
""focus"",""2"",""7810""
","""event"",""trial"",""time""
""blur"",""2"",""3124""
","""event"",""trial"",""time""
""focus"",""2"",""7810""
","
","
","1458.199999999255","Welcome! Press the space bar to begin.","32","","","","","","","","","","","","","","","","","","",""
"audio-keyboard-response","2","9347","0.0-2.0","202","5226","9","Male","false","true","true","true","""event"",""trial"",""time""
""blur"",""2"",""3124""
""focus"",""2"",""7810""
","""event"",""trial"",""time""
""blur"",""2"",""3124""
","""event"",""trial"",""time""
""focus"",""2"",""7810""
","
","
","7781","audio/beep_loop.wav","32","","","","","","","","","","","","","","","","","","",""
"audio-button-response","3","11299","0.0-3.0","202","5226","9","Male","false","true","true","true","""event"",""trial"",""time""
""blur"",""2"",""3124""
""focus"",""2"",""7810""
","""event"",""trial"",""time""
""blur"",""2"",""3124""
","""event"",""trial"",""time""
""focus"",""2"",""7810""
","
","
","NaN","audio/fish.mp3","","1","","","","","","","","","","","","","","","","","",""
"audio-button-response","4","13763","0.0-4.0","202","5226","9","Male","false","true","true","true","""event"",""trial"",""time""
""blur"",""2"",""3124""
""focus"",""2"",""7810""
""fullscreenenter"",""5"",""16245""
","""event"",""trial"",""time""
""blur"",""2"",""3124""
","""event"",""trial"",""time""
""focus"",""2"",""7810""
","""event"",""trial"",""time""
""fullscreenenter"",""5"",""16245""
","
","NaN","audio/tiger.mp3","","4","","","","","","","","","","","","","","","","","",""
"fullscreen","5","17227","0.0-5.0","202","5226","9","Male","false","true","true","true","""event"",""trial"",""time""
""blur"",""2"",""3124""
""focus"",""2"",""7810""
""fullscreenenter"",""5"",""16245""
","""event"",""trial"",""time""
""blur"",""2"",""3124""
","""event"",""trial"",""time""
""focus"",""2"",""7810""
","""event"",""trial"",""time""
""fullscreenenter"",""5"",""16245""
","
","","","","","true","","","","","","","","","","","","","","","","",""
"d3-instructions","6","20092","0.0-6.0","202","5226","9","Male","false","true","true","true","""event"",""trial"",""time""
""blur"",""2"",""3124""
""focus"",""2"",""7810""
""fullscreenenter"",""5"",""16245""
","""event"",""trial"",""time""
""blur"",""2"",""3124""
","""event"",""trial"",""time""
""focus"",""2"",""7810""
","""event"",""trial"",""time""
""fullscreenenter"",""5"",""16245""
","
","","","","","","","","","","","","","","","","","","","","","",""
"d3-instructions","7","23500","0.0-7.0","202","5226","9","Male","false","true","true","true","""event"",""trial"",""time""
""blur"",""2"",""3124""
""focus"",""2"",""7810""
""fullscreenenter"",""5"",""16245""
","""event"",""trial"",""time""
""blur"",""2"",""3124""
","""event"",""trial"",""time""
""focus"",""2"",""7810""
","""event"",""trial"",""time""
""fullscreenenter"",""5"",""16245""
","
","","","","","","","","","","","","","","","","","","","","","",""
"d3-instructions","8","27515","0.0-8.0","202","5226","9","Male","false","true","true","true","""event"",""trial"",""time""
""blur"",""2"",""3124""
""focus"",""2"",""7810""
""fullscreenenter"",""5"",""16245""
","""event"",""trial"",""time""
""blur"",""2"",""3124""
","""event"",""trial"",""time""
""focus"",""2"",""7810""
","""event"",""trial"",""time""
""fullscreenenter"",""5"",""16245""
","
","","","","","","","","","","","","","","","","","","","","","",""
"d3-instructions","9","31284","0.0-9.0","202","5226","9","Male","false","true","true","true","""event"",""trial"",""time""
""blur"",""2"",""3124""
""focus"",""2"",""7810""
""fullscreenenter"",""5"",""16245""
","""event"",""trial"",""time""
""blur"",""2"",""3124""
","""event"",""trial"",""time""
""focus"",""2"",""7810""
","""event"",""trial"",""time""
""fullscreenenter"",""5"",""16245""
","
","","","","","","","","","","","","","","","","","","","","","",""
"d3-instructions","10","41948","0.0-10.0","202","5226","9","Male","false","true","true","true","""event"",""trial"",""time""
""blur"",""2"",""3124""
""focus"",""2"",""7810""
""fullscreenenter"",""5"",""16245""
","""event"",""trial"",""time""
""blur"",""2"",""3124""
","""event"",""trial"",""time""
""focus"",""2"",""7810""
","""event"",""trial"",""time""
""fullscreenenter"",""5"",""16245""
","
","","","","","","","","","","","","","","","","","","","","","",""
"d3-animate-choice","11","48312","0.0-11.0","202","5226","9","Male","false","true","true","true","""event"",""trial"",""time""
""blur"",""2"",""3124""
""focus"",""2"",""7810""
""fullscreenenter"",""5"",""16245""
","""event"",""trial"",""time""
""blur"",""2"",""3124""
","""event"",""trial"",""time""
""focus"",""2"",""7810""
","""event"",""trial"",""time""
""fullscreenenter"",""5"",""16245""
","
","4350.699999999255","","49","","","3000","1","","","images/tutgreenplanet.jpg","images/tutalien1","images/tutalien2","null","images/tutalien2","","NA","practice","null","","","",""
"d3-animate-choice","12","51916","0.0-12.0","202","5226","9","Male","false","true","true","true","""event"",""trial"",""time""
""blur"",""2"",""3124""
""focus"",""2"",""7810""
""fullscreenenter"",""5"",""16245""
","""event"",""trial"",""time""
""blur"",""2"",""3124""
","""event"",""trial"",""time""
""focus"",""2"",""7810""
","""event"",""trial"",""time""
""fullscreenenter"",""5"",""16245""
","
","1587.199999999255","","48","","","3000","1","","","images/tutgreenplanet.jpg","images/tutalien1","images/tutalien2","null","images/tutalien1","","NA","practice","null","","","",""
"d3-animate-choice","13","54826","0.0-13.0","202","5226","9","Male","false","true","true","true","""event"",""trial"",""time""
""blur"",""2"",""3124""
""focus"",""2"",""7810""
""fullscreenenter"",""5"",""16245""
","""event"",""trial"",""time""
""blur"",""2"",""3124""
","""event"",""trial"",""time""
""focus"",""2"",""7810""
","""event"",""trial"",""time""
""fullscreenenter"",""5"",""16245""
","
","894.4000000022352","","49","","","3000","1","","","images/tutgreenplanet.jpg","images/tutalien1","images/tutalien2","null","images/tutalien2","","NA","practice","null","","","",""
"d3-animate-choice","14","57227","0.0-14.0","202","5226","9","Male","false","true","true","true","""event"",""trial"",""time""
""blur"",""2"",""3124""
""focus"",""2"",""7810""
""fullscreenenter"",""5"",""16245""
","""event"",""trial"",""time""
""blur"",""2"",""3124""
","""event"",""trial"",""time""
""focus"",""2"",""7810""
","""event"",""trial"",""time""
""fullscreenenter"",""5"",""16245""
","
","384.19999999925494","","48","","","3000","1","","","images/tutgreenplanet.jpg","images/tutalien1","images/tutalien2","null","images/tutalien1","","NA","practice","null","","","",""
"d3-instructions","15","62515","0.0-15.0","202","5226","9","Male","false","true","true","true","""event"",""trial"",""time""
""blur"",""2"",""3124""
""focus"",""2"",""7810""
""fullscreenenter"",""5"",""16245""
","""event"",""trial"",""time""
""blur"",""2"",""3124""
","""event"",""trial"",""time""
""focus"",""2"",""7810""
","""event"",""trial"",""time""
""fullscreenenter"",""5"",""16245""
","
","","","","","","","","","","","","","","","","","","","","","",""
"d3-instructions","16","70291","0.0-16.0","202","5226","9","Male","false","true","true","true","""event"",""trial"",""time""
""blur"",""2"",""3124""
""focus"",""2"",""7810""
""fullscreenenter"",""5"",""16245""
","""event"",""trial"",""time""
""blur"",""2"",""3124""
","""event"",""trial"",""time""
""focus"",""2"",""7810""
","""event"",""trial"",""time""
""fullscreenenter"",""5"",""16245""
","
","","","","","","","","","","","","","","","","","","","","","",""
"d3-instructions","17","81036","0.0-17.0","202","5226","9","Male","false","true","true","true","""event"",""trial"",""time""
""blur"",""2"",""3124""
""focus"",""2"",""7810""
""fullscreenenter"",""5"",""16245""
","""event"",""trial"",""time""
""blur"",""2"",""3124""
","""event"",""trial"",""time""
""focus"",""2"",""7810""
","""event"",""trial"",""time""
""fullscreenenter"",""5"",""16245""
","
","","","","","","","","","","","","","","","","","","","","","",""
"d3-instructions","18","86972","0.0-18.0","202","5226","9","Male","false","true","true","true","""event"",""trial"",""time""
""blur"",""2"",""3124""
""focus"",""2"",""7810""
""fullscreenenter"",""5"",""16245""
","""event"",""trial"",""time""
""blur"",""2"",""3124""
","""event"",""trial"",""time""
""focus"",""2"",""7810""
","""event"",""trial"",""time""
""fullscreenenter"",""5"",""16245""
","
","","","","","","","","","","","","","","","","","","","","","",""
"d3-instructions","19","96012","0.0-19.0","202","5226","9","Male","false","true","true","true","""event"",""trial"",""time""
""blur"",""2"",""3124""
""focus"",""2"",""7810""
""fullscreenenter"",""5"",""16245""
","""event"",""trial"",""time""
""blur"",""2"",""3124""
","""event"",""trial"",""time""
""focus"",""2"",""7810""
","""event"",""trial"",""time""
""fullscreenenter"",""5"",""16245""
","
","","","","","","","","","","","","","","","","","","","","","",""
"d3-animate-choice","20","98665","0.0-20.0","202","5226","9","Male","false","true","true","true","""event"",""trial"",""time""
""blur"",""2"",""3124""
""focus"",""2"",""7810""
""fullscreenenter"",""5"",""16245""
","""event"",""trial"",""time""
""blur"",""2"",""3124""
","""event"",""trial"",""time""
""focus"",""2"",""7810""
","""event"",""trial"",""time""
""fullscreenenter"",""5"",""16245""
","
","638","","49","","","3000","1","","","images/tutyellowplanet.jpg","null","images/tutalien3","null","images/tutalien3","images/t.png","NA","practice","null","","","",""
"d3-animate-choice","21","101773","0.0-21.0","202","5226","9","Male","false","true","true","true","""event"",""trial"",""time""
""blur"",""2"",""3124""
""focus"",""2"",""7810""
""fullscreenenter"",""5"",""16245""
","""event"",""trial"",""time""
""blur"",""2"",""3124""
","""event"",""trial"",""time""
""focus"",""2"",""7810""
","""event"",""trial"",""time""
""fullscreenenter"",""5"",""16245""
","
","1097.4000000022352","","49","","","3000","1","","","images/tutyellowplanet.jpg","null","images/tutalien3","null","images/tutalien3","images/t.png","NA","practice","null","","","",""
"d3-animate-choice","22","104129","0.0-22.0","202","5226","9","Male","false","true","true","true","""event"",""trial"",""time""
""blur"",""2"",""3124""
""focus"",""2"",""7810""
""fullscreenenter"",""5"",""16245""
","""event"",""trial"",""time""
""blur"",""2"",""3124""
","""event"",""trial"",""time""
""focus"",""2"",""7810""
","""event"",""trial"",""time""
""fullscreenenter"",""5"",""16245""
","
","350.0999999977648","","49","","","3000","1","1814.199999999255","49","images/tutyellowplanet.jpg","null","images/tutalien3","null","images/tutalien3","images/t.png","NA","practice","null","","","",""
"d3-animate-choice","23","106454","0.0-23.0","202","5226","9","Male","false","true","true","true","""event"",""trial"",""time""
""blur"",""2"",""3124""
""focus"",""2"",""7810""
""fullscreenenter"",""5"",""16245""
","""event"",""trial"",""time""
""blur"",""2"",""3124""
","""event"",""trial"",""time""
""focus"",""2"",""7810""
","""event"",""trial"",""time""
""fullscreenenter"",""5"",""16245""
","
","304.80000000074506","","49","","","3000","1","","","images/tutyellowplanet.jpg","null","images/tutalien3","null","images/tutalien3","images/t.png","NA","practice","null","","","",""
"d3-animate-choice","24","108793","0.0-24.0","202","5226","9","Male","false","true","true","true","""event"",""trial"",""time""
""blur"",""2"",""3124""
""focus"",""2"",""7810""
""fullscreenenter"",""5"",""16245""
","""event"",""trial"",""time""
""blur"",""2"",""3124""
","""event"",""trial"",""time""
""focus"",""2"",""7810""
","""event"",""trial"",""time""
""fullscreenenter"",""5"",""16245""
","
","332.80000000074506","","49","","","3000","1","","","images/tutyellowplanet.jpg","null","images/tutalien3","null","images/tutalien3","images/t.png","NA","practice","null","","","",""
"d3-animate-choice","25","111145","0.0-25.0","202","5226","9","Male","false","true","true","true","""event"",""trial"",""time""
""blur"",""2"",""3124""
""focus"",""2"",""7810""
""fullscreenenter"",""5"",""16245""
","""event"",""trial"",""time""
""blur"",""2"",""3124""
","""event"",""trial"",""time""
""focus"",""2"",""7810""
","""event"",""trial"",""time""
""fullscreenenter"",""5"",""16245""
","
","345.79999999701977","","49","","","3000","1","1761","49","images/tutyellowplanet.jpg","null","images/tutalien3","null","images/tutalien3","images/t.png","NA","practice","null","","","",""
"d3-animate-choice","26","113503","0.0-26.0","202","5226","9","Male","false","true","true","true","""event"",""trial"",""time""
""blur"",""2"",""3124""
""focus"",""2"",""7810""
""fullscreenenter"",""5"",""16245""
","""event"",""trial"",""time""
""blur"",""2"",""3124""
","""event"",""trial"",""time""
""focus"",""2"",""7810""
","""event"",""trial"",""time""
""fullscreenenter"",""5"",""16245""
","
","353.5","","49","","","3000","1","","","images/tutyellowplanet.jpg","null","images/tutalien3","null","images/tutalien3","images/t.png","NA","practice","null","","","",""
"d3-animate-choice","27","115879","0.0-27.0","202","5226","9","Male","false","true","true","true","""event"",""trial"",""time""
""blur"",""2"",""3124""
""focus"",""2"",""7810""
""fullscreenenter"",""5"",""16245""
","""event"",""trial"",""time""
""blur"",""2"",""3124""
","""event"",""trial"",""time""
""focus"",""2"",""7810""
","""event"",""trial"",""time""
""fullscreenenter"",""5"",""16245""
","
","371.5","","49","","","3000","1","","","images/tutyellowplanet.jpg","null","images/tutalien3","null","images/tutalien3","images/t.png","NA","practice","null","","","",""
"d3-animate-choice","28","118197","0.0-28.0","202","5226","9","Male","false","true","true","true","""event"",""trial"",""time""
""blur"",""2"",""3124""
""focus"",""2"",""7810""
""fullscreenenter"",""5"",""16245""
","""event"",""trial"",""time""
""blur"",""2"",""3124""
","""event"",""trial"",""time""
""focus"",""2"",""7810""
","""event"",""trial"",""time""
""fullscreenenter"",""5"",""16245""
","
","300.30000000074506","","49","","","3000","1","","","images/tutyellowplanet.jpg","null","images/tutalien3","null","images/tutalien3","images/t.png","NA","practice","null","","","",""
"d3-animate-choice","29","120570","0.0-29.0","202","5226","9","Male","false","true","true","true","""event"",""trial"",""time""
""blur"",""2"",""3124""
""focus"",""2"",""7810""
""fullscreenenter"",""5"",""16245""
","""event"",""trial"",""time""
""blur"",""2"",""3124""
","""event"",""trial"",""time""
""focus"",""2"",""7810""
","""event"",""trial"",""time""
""fullscreenenter"",""5"",""16245""
","
","357.69999999925494","","49","","","3000","1","","","images/tutyellowplanet.jpg","null","images/tutalien3","null","images/tutalien3","images/t.png","NA","practice","null","","","",""
"d3-instructions","30","128172","0.0-30.0","202","5226","9","Male","false","true","true","true","""event"",""trial"",""time""
""blur"",""2"",""3124""
""focus"",""2"",""7810""
""fullscreenenter"",""5"",""16245""
","""event"",""trial"",""time""
""blur"",""2"",""3124""
","""event"",""trial"",""time""
""focus"",""2"",""7810""
","""event"",""trial"",""time""
""fullscreenenter"",""5"",""16245""
","
","","","","","","","","","","","","","","","","","","","","","",""
"d3-instructions","31","140748","0.0-31.0","202","5226","9","Male","false","true","true","true","""event"",""trial"",""time""
""blur"",""2"",""3124""
""focus"",""2"",""7810""
""fullscreenenter"",""5"",""16245""
","""event"",""trial"",""time""
""blur"",""2"",""3124""
","""event"",""trial"",""time""
""focus"",""2"",""7810""
","""event"",""trial"",""time""
""fullscreenenter"",""5"",""16245""
","
","","","","","","","","","","","","","","","","","","","","","",""
"d3-instructions","32","146412","0.0-32.0","202","5226","9","Male","false","true","true","true","""event"",""trial"",""time""
""blur"",""2"",""3124""
""focus"",""2"",""7810""
""fullscreenenter"",""5"",""16245""
","""event"",""trial"",""time""
""blur"",""2"",""3124""
","""event"",""trial"",""time""
""focus"",""2"",""7810""
","""event"",""trial"",""time""
""fullscreenenter"",""5"",""16245""
","
","","","","","","","","","","","","","","","","","","","","","",""
"d3-instructions","33","149204","0.0-33.0","202","5226","9","Male","false","true","true","true","""event"",""trial"",""time""
""blur"",""2"",""3124""
""focus"",""2"",""7810""
""fullscreenenter"",""5"",""16245""
","""event"",""trial"",""time""
""blur"",""2"",""3124""
","""event"",""trial"",""time""
""focus"",""2"",""7810""
","""event"",""trial"",""time""
""fullscreenenter"",""5"",""16245""
","
","","","","","","","","","","","","","","","","","","","","","",""
"d3-animate-choice","34","153084","0.0-34.0","202","5226","9","Male","false","true","true","true","""event"",""trial"",""time""
""blur"",""2"",""3124""
""focus"",""2"",""7810""
""fullscreenenter"",""5"",""16245""
","""event"",""trial"",""time""
""blur"",""2"",""3124""
","""event"",""trial"",""time""
""focus"",""2"",""7810""
","""event"",""trial"",""time""
""fullscreenenter"",""5"",""16245""
","
","1870.699999999255","","49","","","3000","1","","","images/tutgreenplanet.jpg","images/tutalien1","images/tutalien2","null","images/tutalien2","images/t.png","NA","practice","null","","","",""
"d3-animate-choice","35","155779","0.0-35.0","202","5226","9","Male","false","true","true","true","""event"",""trial"",""time""
""blur"",""2"",""3124""
""focus"",""2"",""7810""
""fullscreenenter"",""5"",""16245""
","""event"",""trial"",""time""
""blur"",""2"",""3124""
","""event"",""trial"",""time""
""focus"",""2"",""7810""
","""event"",""trial"",""time""
""fullscreenenter"",""5"",""16245""
","
","686.3000000007451","","49","","","3000","1","","","images/tutgreenplanet.jpg","images/tutalien1","images/tutalien2","null","images/tutalien2","images/t.png","NA","practice","null","","","",""
"d3-animate-choice","36","158211","0.0-36.0","202","5226","9","Male","false","true","true","true","""event"",""trial"",""time""
""blur"",""2"",""3124""
""focus"",""2"",""7810""
""fullscreenenter"",""5"",""16245""
","""event"",""trial"",""time""
""blur"",""2"",""3124""
","""event"",""trial"",""time""
""focus"",""2"",""7810""
","""event"",""trial"",""time""
""fullscreenenter"",""5"",""16245""
","
","422.5","","49","","","3000","1","","","images/tutgreenplanet.jpg","images/tutalien1","images/tutalien2","null","images/tutalien2","images/t.png","NA","practice","null","","","",""
"d3-animate-choice","37","160612","0.0-37.0","202","5226","9","Male","false","true","true","true","""event"",""trial"",""time""
""blur"",""2"",""3124""
""focus"",""2"",""7810""
""fullscreenenter"",""5"",""16245""
","""event"",""trial"",""time""
""blur"",""2"",""3124""
","""event"",""trial"",""time""
""focus"",""2"",""7810""
","""event"",""trial"",""time""
""fullscreenenter"",""5"",""16245""
","
","383.1000000014901","","49","","","3000","1","","","images/tutgreenplanet.jpg","images/tutalien1","images/tutalien2","null","images/tutalien2","images/t.png","NA","practice","null","","","",""
"d3-animate-choice","38","162981","0.0-38.0","202","5226","9","Male","false","true","true","true","""event"",""trial"",""time""
""blur"",""2"",""3124""
""focus"",""2"",""7810""
""fullscreenenter"",""5"",""16245""
","""event"",""trial"",""time""
""blur"",""2"",""3124""
","""event"",""trial"",""time""
""focus"",""2"",""7810""
","""event"",""trial"",""time""
""fullscreenenter"",""5"",""16245""
","
","358.3999999985099","","49","","","3000","1","","","images/tutgreenplanet.jpg","images/tutalien1","images/tutalien2","null","images/tutalien2","images/t.png","NA","practice","null","","","",""
"d3-animate-choice","39","165309","0.0-39.0","202","5226","9","Male","false","true","true","true","""event"",""trial"",""time""
""blur"",""2"",""3124""
""focus"",""2"",""7810""
""fullscreenenter"",""5"",""16245""
","""event"",""trial"",""time""
""blur"",""2"",""3124""
","""event"",""trial"",""time""
""focus"",""2"",""7810""
","""event"",""trial"",""time""
""fullscreenenter"",""5"",""16245""
","
","309.30000000074506","","49","","","3000","1","","","images/tutgreenplanet.jpg","images/tutalien1","images/tutalien2","null","images/tutalien2","images/t.png","NA","practice","null","","","",""
"d3-animate-choice","40","167711","0.0-40.0","202","5226","9","Male","false","true","true","true","""event"",""trial"",""time""
""blur"",""2"",""3124""
""focus"",""2"",""7810""
""fullscreenenter"",""5"",""16245""
","""event"",""trial"",""time""
""blur"",""2"",""3124""
","""event"",""trial"",""time""
""focus"",""2"",""7810""
","""event"",""trial"",""time""
""fullscreenenter"",""5"",""16245""
","
","389.5999999977648","","49","","","3000","1","","","images/tutgreenplanet.jpg","images/tutalien1","images/tutalien2","null","images/tutalien2","images/t.png","NA","practice","null","","","",""
"d3-animate-choice","41","170133","0.0-41.0","202","5226","9","Male","false","true","true","true","""event"",""trial"",""time""
""blur"",""2"",""3124""
""focus"",""2"",""7810""
""fullscreenenter"",""5"",""16245""
","""event"",""trial"",""time""
""blur"",""2"",""3124""
","""event"",""trial"",""time""
""focus"",""2"",""7810""
","""event"",""trial"",""time""
""fullscreenenter"",""5"",""16245""
","
","402.79999999701977","","49","","","3000","1","","","images/tutgreenplanet.jpg","images/tutalien1","images/tutalien2","null","images/tutalien2","images/t.png","NA","practice","null","","","",""
"d3-animate-choice","42","172470","0.0-42.0","202","5226","9","Male","false","true","true","true","""event"",""trial"",""time""
""blur"",""2"",""3124""
""focus"",""2"",""7810""
""fullscreenenter"",""5"",""16245""
","""event"",""trial"",""time""
""blur"",""2"",""3124""
","""event"",""trial"",""time""
""focus"",""2"",""7810""
","""event"",""trial"",""time""
""fullscreenenter"",""5"",""16245""
","
","317","","49","","","3000","1","","","images/tutgreenplanet.jpg","images/tutalien1","images/tutalien2","null","images/tutalien2","images/t.png","NA","practice","null","","","",""
"d3-animate-choice","43","174857","0.0-43.0","202","5226","9","Male","false","true","true","true","""event"",""trial"",""time""
""blur"",""2"",""3124""
""focus"",""2"",""7810""
""fullscreenenter"",""5"",""16245""
","""event"",""trial"",""time""
""blur"",""2"",""3124""
","""event"",""trial"",""time""
""focus"",""2"",""7810""
","""event"",""trial"",""time""
""fullscreenenter"",""5"",""16245""
","
","372.1000000014901","","49","","","3000","1","","","images/tutgreenplanet.jpg","images/tutalien1","images/tutalien2","null","images/tutalien2","images/t.png","NA","practice","null","","","",""
"d3-instructions","44","191491","0.0-44.0","202","5226","9","Male","false","true","true","true","""event"",""trial"",""time""
""blur"",""2"",""3124""
""focus"",""2"",""7810""
""fullscreenenter"",""5"",""16245""
","""event"",""trial"",""time""
""blur"",""2"",""3124""
","""event"",""trial"",""time""
""focus"",""2"",""7810""
","""event"",""trial"",""time""
""fullscreenenter"",""5"",""16245""
","
","","","","","","","","","","","","","","","","","","","","","",""
"d3-instructions","45","199075","0.0-45.0","202","5226","9","Male","false","true","true","true","""event"",""trial"",""time""
""blur"",""2"",""3124""
""focus"",""2"",""7810""
""fullscreenenter"",""5"",""16245""
","""event"",""trial"",""time""
""blur"",""2"",""3124""
","""event"",""trial"",""time""
""focus"",""2"",""7810""
","""event"",""trial"",""time""
""fullscreenenter"",""5"",""16245""
","
","","","","","","","","","","","","","","","","","","","","","",""
"d3-instructions","46","202714","0.0-46.0","202","5226","9","Male","false","true","true","true","""event"",""trial"",""time""
""blur"",""2"",""3124""
""focus"",""2"",""7810""
""fullscreenenter"",""5"",""16245""
","""event"",""trial"",""time""
""blur"",""2"",""3124""
","""event"",""trial"",""time""
""focus"",""2"",""7810""
","""event"",""trial"",""time""
""fullscreenenter"",""5"",""16245""
","
","","","","","","","","","","","","","","","","","","","","","",""
"d3-instructions","47","215987","0.0-47.0","202","5226","9","Male","false","true","true","true","""event"",""trial"",""time""
""blur"",""2"",""3124""
""focus"",""2"",""7810""
""fullscreenenter"",""5"",""16245""
","""event"",""trial"",""time""
""blur"",""2"",""3124""
","""event"",""trial"",""time""
""focus"",""2"",""7810""
","""event"",""trial"",""time""
""fullscreenenter"",""5"",""16245""
","
","","","","","","","","","","","","","","","","","","","","","",""
"d3-instructions","48","220771","0.0-48.0","202","5226","9","Male","false","true","true","true","""event"",""trial"",""time""
""blur"",""2"",""3124""
""focus"",""2"",""7810""
""fullscreenenter"",""5"",""16245""
","""event"",""trial"",""time""
""blur"",""2"",""3124""
","""event"",""trial"",""time""
""focus"",""2"",""7810""
","""event"",""trial"",""time""
""fullscreenenter"",""5"",""16245""
","
","","","","","","","","","","","","","","","","","","","","","",""
"d3-instructions","49","225764","0.0-49.0","202","5226","9","Male","false","true","true","true","""event"",""trial"",""time""
""blur"",""2"",""3124""
""focus"",""2"",""7810""
""fullscreenenter"",""5"",""16245""
","""event"",""trial"",""time""
""blur"",""2"",""3124""
","""event"",""trial"",""time""
""focus"",""2"",""7810""
","""event"",""trial"",""time""
""fullscreenenter"",""5"",""16245""
","
","","","","","","","","","","","","","","","","","","","","","",""
"d3-instructions","50","230987","0.0-50.0","202","5226","9","Male","false","true","true","true","""event"",""trial"",""time""
""blur"",""2"",""3124""
""focus"",""2"",""7810""
""fullscreenenter"",""5"",""16245""
","""event"",""trial"",""time""
""blur"",""2"",""3124""
","""event"",""trial"",""time""
""focus"",""2"",""7810""
","""event"",""trial"",""time""
""fullscreenenter"",""5"",""16245""
","
","","","","","","","","","","","","","","","","","","","","","",""
"d3-instructions","51","234283","0.0-51.0","202","5226","9","Male","false","true","true","true","""event"",""trial"",""time""
""blur"",""2"",""3124""
""focus"",""2"",""7810""
""fullscreenenter"",""5"",""16245""
","""event"",""trial"",""time""
""blur"",""2"",""3124""
","""event"",""trial"",""time""
""focus"",""2"",""7810""
","""event"",""trial"",""time""
""fullscreenenter"",""5"",""16245""
","
","","","","","","","","","","","","","","","","","","","","","",""
"d3-instructions","52","235755","0.0-52.0","202","5226","9","Male","false","true","true","true","""event"",""trial"",""time""
""blur"",""2"",""3124""
""focus"",""2"",""7810""
""fullscreenenter"",""5"",""16245""
","""event"",""trial"",""time""
""blur"",""2"",""3124""
","""event"",""trial"",""time""
""focus"",""2"",""7810""
","""event"",""trial"",""time""
""fullscreenenter"",""5"",""16245""
","
","","","","","","","","","","","","","","","","","","","","","",""
"d3-instructions","53","240691","0.0-53.0","202","5226","9","Male","false","true","true","true","""event"",""trial"",""time""
""blur"",""2"",""3124""
""focus"",""2"",""7810""
""fullscreenenter"",""5"",""16245""
","""event"",""trial"",""time""
""blur"",""2"",""3124""
","""event"",""trial"",""time""
""focus"",""2"",""7810""
","""event"",""trial"",""time""
""fullscreenenter"",""5"",""16245""
","
","","","","","","","","","","","","","","","","","","","","","",""
"d3-instructions","54","248987","0.0-54.0","202","5226","9","Male","false","true","true","true","""event"",""trial"",""time""
""blur"",""2"",""3124""
""focus"",""2"",""7810""
""fullscreenenter"",""5"",""16245""
","""event"",""trial"",""time""
""blur"",""2"",""3124""
","""event"",""trial"",""time""
""focus"",""2"",""7810""
","""event"",""trial"",""time""
""fullscreenenter"",""5"",""16245""
","
","","","","","","","","","","","","","","","","","","","","","",""
"d3-instructions","55","251979","0.0-55.0","202","5226","9","Male","false","true","true","true","""event"",""trial"",""time""
""blur"",""2"",""3124""
""focus"",""2"",""7810""
""fullscreenenter"",""5"",""16245""
","""event"",""trial"",""time""
""blur"",""2"",""3124""
","""event"",""trial"",""time""
""focus"",""2"",""7810""
","""event"",""trial"",""time""
""fullscreenenter"",""5"",""16245""
","
","","","","","","","","","","","","","","","","","","","","","",""
"d3-instructions","56","255459","0.0-56.0","202","5226","9","Male","false","true","true","true","""event"",""trial"",""time""
""blur"",""2"",""3124""
""focus"",""2"",""7810""
""fullscreenenter"",""5"",""16245""
","""event"",""trial"",""time""
""blur"",""2"",""3124""
","""event"",""trial"",""time""
""focus"",""2"",""7810""
","""event"",""trial"",""time""
""fullscreenenter"",""5"",""16245""
","
","","","","","","","","","","","","","","","","","","","","","",""
"d3-instructions","57","261899","0.0-57.0","202","5226","9","Male","false","true","true","true","""event"",""trial"",""time""
""blur"",""2"",""3124""
""focus"",""2"",""7810""
""fullscreenenter"",""5"",""16245""
","""event"",""trial"",""time""
""blur"",""2"",""3124""
","""event"",""trial"",""time""
""focus"",""2"",""7810""
","""event"",""trial"",""time""
""fullscreenenter"",""5"",""16245""
","
","","","","","","","","","","","","","","","","","","","","","",""
"d3-instructions","58","268547","0.0-58.0","202","5226","9","Male","false","true","true","true","""event"",""trial"",""time""
""blur"",""2"",""3124""
""focus"",""2"",""7810""
""fullscreenenter"",""5"",""16245""
","""event"",""trial"",""time""
""blur"",""2"",""3124""
","""event"",""trial"",""time""
""focus"",""2"",""7810""
","""event"",""trial"",""time""
""fullscreenenter"",""5"",""16245""
","
","","","","","","","","","","","","","","","","","","","","","",""
"d3-instructions","59","270778","0.0-59.0","202","5226","9","Male","false","true","true","true","""event"",""trial"",""time""
""blur"",""2"",""3124""
""focus"",""2"",""7810""
""fullscreenenter"",""5"",""16245""
","""event"",""trial"",""time""
""blur"",""2"",""3124""
","""event"",""trial"",""time""
""focus"",""2"",""7810""
","""event"",""trial"",""time""
""fullscreenenter"",""5"",""16245""
","
","","","","","","","","","","","","","","","","","","","","","",""
"d3-instructions","60","272963","0.0-60.0","202","5226","9","Male","false","true","true","true","""event"",""trial"",""time""
""blur"",""2"",""3124""
""focus"",""2"",""7810""
""fullscreenenter"",""5"",""16245""
","""event"",""trial"",""time""
""blur"",""2"",""3124""
","""event"",""trial"",""time""
""focus"",""2"",""7810""
","""event"",""trial"",""time""
""fullscreenenter"",""5"",""16245""
","
","","","","","","","","","","","","","","","","","","","","","",""
"d3-animate-choice","61","276983","0.0-61.0-0.0","202","5226","9","Male","false","true","true","true","""event"",""trial"",""time""
""blur"",""2"",""3124""
""focus"",""2"",""7810""
""fullscreenenter"",""5"",""16245""
","""event"",""trial"",""time""
""blur"",""2"",""3124""
","""event"",""trial"",""time""
""focus"",""2"",""7810""
","""event"",""trial"",""time""
""fullscreenenter"",""5"",""16245""
","
","2230","","49","","","3000","1","","","images/earth.jpg","images/tutrocket1","images/tutrocket2","null","images/tutrocket2","","1","practice","null","1","","",""
"d3-animate-choice","62","281007","0.0-61.0-1.0","202","5226","9","Male","false","true","true","true","""event"",""trial"",""time""
""blur"",""2"",""3124""
""focus"",""2"",""7810""
""fullscreenenter"",""5"",""16245""
","""event"",""trial"",""time""
""blur"",""2"",""3124""
","""event"",""trial"",""time""
""focus"",""2"",""7810""
","""event"",""trial"",""time""
""fullscreenenter"",""5"",""16245""
","
","2714.39999999851","","48","","","3000","1","","","images/tutyellowplanet.jpg","images/tutalien4","images/tutalien3","images/tutrocket2","images/tutalien4","","2","practice","true","2","common","0","2022-12-16 21:29:12.079"
"two-step-fixation","63","282021","0.0-61.0-2.0","202","5226","9","Male","false","true","true","true","""event"",""trial"",""time""
""blur"",""2"",""3124""
""focus"",""2"",""7810""
""fullscreenenter"",""5"",""16245""
","""event"",""trial"",""time""
""blur"",""2"",""3124""
","""event"",""trial"",""time""
""focus"",""2"",""7810""
","""event"",""trial"",""time""
""fullscreenenter"",""5"",""16245""
","
","","images/earth.jpg","","","","","","","","","","","","","","fixation","","","","","",""
"d3-animate-choice","64","285256","0.0-61.0-0.1","202","5226","9","Male","false","true","true","true","""event"",""trial"",""time""
""blur"",""2"",""3124""
""focus"",""2"",""7810""
""fullscreenenter"",""5"",""16245""
","""event"",""trial"",""time""
""blur"",""2"",""3124""
","""event"",""trial"",""time""
""focus"",""2"",""7810""
","""event"",""trial"",""time""
""fullscreenenter"",""5"",""16245""
","
","1228.6000000014901","","48","","","3000","1","","","images/earth.jpg","images/tutrocket1","images/tutrocket2","null","images/tutrocket1","","1","practice","null","2","","",""
"d3-animate-choice","65","288607","0.0-61.0-1.1","202","5226","9","Male","false","true","true","true","""event"",""trial"",""time""
""blur"",""2"",""3124""
""focus"",""2"",""7810""
""fullscreenenter"",""5"",""16245""
","""event"",""trial"",""time""
""blur"",""2"",""3124""
","""event"",""trial"",""time""
""focus"",""2"",""7810""
","""event"",""trial"",""time""
""fullscreenenter"",""5"",""16245""
","
","1346.5999999977648","","49","","","3000","1","","","images/tutgreenplanet.jpg","images/tutalien2","images/tutalien1","images/tutrocket1","images/tutalien1","images/nothing.png","2","practice","true","1","common","0","2022-12-16 21:29:19.679"
"two-step-fixation","66","289615","0.0-61.0-2.1","202","5226","9","Male","false","true","true","true","""event"",""trial"",""time""
""blur"",""2"",""3124""
""focus"",""2"",""7810""
""fullscreenenter"",""5"",""16245""
","""event"",""trial"",""time""
""blur"",""2"",""3124""
","""event"",""trial"",""time""
""focus"",""2"",""7810""
","""event"",""trial"",""time""
""fullscreenenter"",""5"",""16245""
","
","","images/earth.jpg","","","","","","","","","","","","","","fixation","","","","","",""
"d3-animate-choice","67","293295","0.0-61.0-0.2","202","5226","9","Male","false","true","true","true","""event"",""trial"",""time""
""blur"",""2"",""3124""
""focus"",""2"",""7810""
""fullscreenenter"",""5"",""16245""
","""event"",""trial"",""time""
""blur"",""2"",""3124""
","""event"",""trial"",""time""
""focus"",""2"",""7810""
","""event"",""trial"",""time""
""fullscreenenter"",""5"",""16245""
","
","1674.7000000029802","","49","","","3000","1","","","images/earth.jpg","images/tutrocket1","images/tutrocket2","null","images/tutrocket2","","1","practice","null","1","","",""
"d3-animate-choice","68","296854","0.0-61.0-1.2","202","5226","9","Male","false","true","true","true","""event"",""trial"",""time""
""blur"",""2"",""3124""
""focus"",""2"",""7810""
""fullscreenenter"",""5"",""16245""
","""event"",""trial"",""time""
""blur"",""2"",""3124""
","""event"",""trial"",""time""
""focus"",""2"",""7810""
","""event"",""trial"",""time""
""fullscreenenter"",""5"",""16245""
","
","1538.7000000029802","","49","","","3000","1","","","images/tutyellowplanet.jpg","images/tutalien4","images/tutalien3","images/tutrocket2","images/tutalien3","images/nothing.png","2","practice","true","1","common","0","2022-12-16 21:29:27.926"
"two-step-fixation","69","297869","0.0-61.0-2.2","202","5226","9","Male","false","true","true","true","""event"",""trial"",""time""
""blur"",""2"",""3124""
""focus"",""2"",""7810""
""fullscreenenter"",""5"",""16245""
","""event"",""trial"",""time""
""blur"",""2"",""3124""
","""event"",""trial"",""time""
""focus"",""2"",""7810""
","""event"",""trial"",""time""
""fullscreenenter"",""5"",""16245""
","
","","images/earth.jpg","","","","","","","","","","","","","","fixation","","","","","",""
"d3-animate-choice","70","300382","0.0-61.0-0.3","202","5226","9","Male","false","true","true","true","""event"",""trial"",""time""
""blur"",""2"",""3124""
""focus"",""2"",""7810""
""fullscreenenter"",""5"",""16245""
","""event"",""trial"",""time""
""blur"",""2"",""3124""
","""event"",""trial"",""time""
""focus"",""2"",""7810""
","""event"",""trial"",""time""
""fullscreenenter"",""5"",""16245""
","
","501.19999999925494","","48","","","3000","1","","","images/earth.jpg","images/tutrocket1","images/tutrocket2","null","images/tutrocket1","","1","practice","null","2","","",""
"d3-animate-choice","71","303039","0.0-61.0-1.3","202","5226","9","Male","false","true","true","true","""event"",""trial"",""time""
""blur"",""2"",""3124""
""focus"",""2"",""7810""
""fullscreenenter"",""5"",""16245""
","""event"",""trial"",""time""
""blur"",""2"",""3124""
","""event"",""trial"",""time""
""focus"",""2"",""7810""
","""event"",""trial"",""time""
""fullscreenenter"",""5"",""16245""
","
","651.8000000007451","","48","","","3000","1","","","images/tutyellowplanet.jpg","images/tutalien4","images/tutalien3","images/tutrocket1","images/tutalien4","images/t.png","2","practice","false","2","rare","1","2022-12-16 21:29:34.111"
"two-step-fixation","72","304047","0.0-61.0-2.3","202","5226","9","Male","false","true","true","true","""event"",""trial"",""time""
""blur"",""2"",""3124""
""focus"",""2"",""7810""
""fullscreenenter"",""5"",""16245""
","""event"",""trial"",""time""
""blur"",""2"",""3124""
","""event"",""trial"",""time""
""focus"",""2"",""7810""
","""event"",""trial"",""time""
""fullscreenenter"",""5"",""16245""
","
","","images/earth.jpg","","","","","","","","","","","","","","fixation","","","","","",""
"d3-animate-choice","73","306983","0.0-61.0-0.4","202","5226","9","Male","false","true","true","true","""event"",""trial"",""time""
""blur"",""2"",""3124""
""focus"",""2"",""7810""
""fullscreenenter"",""5"",""16245""
","""event"",""trial"",""time""
""blur"",""2"",""3124""
","""event"",""trial"",""time""
""focus"",""2"",""7810""
","""event"",""trial"",""time""
""fullscreenenter"",""5"",""16245""
","
","931.0999999977648","","48","","","3000","1","","","images/earth.jpg","images/tutrocket1","images/tutrocket2","null","images/tutrocket1","","1","practice","null","2","","",""
"d3-animate-choice","74","309720","0.0-61.0-1.4","202","5226","9","Male","false","true","true","true","""event"",""trial"",""time""
""blur"",""2"",""3124""
""focus"",""2"",""7810""
""fullscreenenter"",""5"",""16245""
","""event"",""trial"",""time""
""blur"",""2"",""3124""
","""event"",""trial"",""time""
""focus"",""2"",""7810""
","""event"",""trial"",""time""
""fullscreenenter"",""5"",""16245""
","
","730.5","","48","","","3000","1","","","images/tutgreenplanet.jpg","images/tutalien2","images/tutalien1","images/tutrocket1","images/tutalien2","images/nothing.png","2","practice","true","2","common","0","2022-12-16 21:29:40.792"
"two-step-fixation","75","310727","0.0-61.0-2.4","202","5226","9","Male","false","true","true","true","""event"",""trial"",""time""
""blur"",""2"",""3124""
""focus"",""2"",""7810""
""fullscreenenter"",""5"",""16245""
","""event"",""trial"",""time""
""blur"",""2"",""3124""
","""event"",""trial"",""time""
""focus"",""2"",""7810""
","""event"",""trial"",""time""
""fullscreenenter"",""5"",""16245""
","
","","images/earth.jpg","","","","","","","","","","","","","","fixation","","","","","",""
"d3-animate-choice","76","313679","0.0-61.0-0.5","202","5226","9","Male","false","true","true","true","""event"",""trial"",""time""
""blur"",""2"",""3124""
""focus"",""2"",""7810""
""fullscreenenter"",""5"",""16245""
","""event"",""trial"",""time""
""blur"",""2"",""3124""
","""event"",""trial"",""time""
""focus"",""2"",""7810""
","""event"",""trial"",""time""
""fullscreenenter"",""5"",""16245""
","
","947","","48","","","3000","1","","","images/earth.jpg","images/tutrocket1","images/tutrocket2","null","images/tutrocket1","","1","practice","null","2","","",""
"d3-animate-choice","77","317127","0.0-61.0-1.5","202","5226","9","Male","false","true","true","true","""event"",""trial"",""time""
""blur"",""2"",""3124""
""focus"",""2"",""7810""
""fullscreenenter"",""5"",""16245""
","""event"",""trial"",""time""
""blur"",""2"",""3124""
","""event"",""trial"",""time""
""focus"",""2"",""7810""
","""event"",""trial"",""time""
""fullscreenenter"",""5"",""16245""
","
","1443","","49","","","3000","1","","","images/tutyellowplanet.jpg","images/tutalien4","images/tutalien3","images/tutrocket1","images/tutalien3","images/t.png","2","practice","false","1","rare","1","2022-12-16 21:29:48.199"
"two-step-fixation","78","318135","0.0-61.0-2.5","202","5226","9","Male","false","true","true","true","""event"",""trial"",""time""
""blur"",""2"",""3124""
""focus"",""2"",""7810""
""fullscreenenter"",""5"",""16245""
","""event"",""trial"",""time""
""blur"",""2"",""3124""
","""event"",""trial"",""time""
""focus"",""2"",""7810""
","""event"",""trial"",""time""
""fullscreenenter"",""5"",""16245""
","
","","images/earth.jpg","","","","","","","","","","","","","","fixation","","","","","",""
"d3-animate-choice","79","320783","0.0-61.0-0.6","202","5226","9","Male","false","true","true","true","""event"",""trial"",""time""
""blur"",""2"",""3124""
""focus"",""2"",""7810""
""fullscreenenter"",""5"",""16245""
","""event"",""trial"",""time""
""blur"",""2"",""3124""
","""event"",""trial"",""time""
""focus"",""2"",""7810""
","""event"",""trial"",""time""
""fullscreenenter"",""5"",""16245""
","
","642.8000000007451","","48","","","3000","1","","","images/earth.jpg","images/tutrocket1","images/tutrocket2","null","images/tutrocket1","","1","practice","null","2","","",""
"d3-animate-choice","80","324799","0.0-61.0-1.6","202","5226","9","Male","false","true","true","true","""event"",""trial"",""time""
""blur"",""2"",""3124""
""focus"",""2"",""7810""
""fullscreenenter"",""5"",""16245""
","""event"",""trial"",""time""
""blur"",""2"",""3124""
","""event"",""trial"",""time""
""focus"",""2"",""7810""
","""event"",""trial"",""time""
""fullscreenenter"",""5"",""16245""
","
","2322.400000002235","","49","","","3000","1","","","images/tutgreenplanet.jpg","images/tutalien2","images/tutalien1","images/tutrocket1","images/tutalien1","images/t.png","2","practice","true","1","common","1","2022-12-16 21:29:55.872"
"two-step-fixation","81","325808","0.0-61.0-2.6","202","5226","9","Male","false","true","true","true","""event"",""trial"",""time""
""blur"",""2"",""3124""
""focus"",""2"",""7810""
""fullscreenenter"",""5"",""16245""
","""event"",""trial"",""time""
""blur"",""2"",""3124""
","""event"",""trial"",""time""
""focus"",""2"",""7810""
","""event"",""trial"",""time""
""fullscreenenter"",""5"",""16245""
","
","","images/earth.jpg","","","","","","","","","","","","","","fixation","","","","","",""
"d3-animate-choice","82","328911","0.0-61.0-0.7","202","5226","9","Male","false","true","true","true","""event"",""trial"",""time""
""blur"",""2"",""3124""
""focus"",""2"",""7810""
""fullscreenenter"",""5"",""16245""
","""event"",""trial"",""time""
""blur"",""2"",""3124""
","""event"",""trial"",""time""
""focus"",""2"",""7810""
","""event"",""trial"",""time""
""fullscreenenter"",""5"",""16245""
","
","1098.2000000029802","","48","","","3000","1","","","images/earth.jpg","images/tutrocket1","images/tutrocket2","null","images/tutrocket1","","1","practice","null","2","","",""
"d3-animate-choice","83","331719","0.0-61.0-1.7","202","5226","9","Male","false","true","true","true","""event"",""trial"",""time""
""blur"",""2"",""3124""
""focus"",""2"",""7810""
""fullscreenenter"",""5"",""16245""
","""event"",""trial"",""time""
""blur"",""2"",""3124""
","""event"",""trial"",""time""
""focus"",""2"",""7810""
","""event"",""trial"",""time""
""fullscreenenter"",""5"",""16245""
","
","802.3999999985099","","49","","","3000","1","","","images/tutyellowplanet.jpg","images/tutalien4","images/tutalien3","images/tutrocket1","images/tutalien3","images/t.png","2","practice","false","1","rare","1","2022-12-16 21:30:02.792"
"two-step-fixation","84","332728","0.0-61.0-2.7","202","5226","9","Male","false","true","true","true","""event"",""trial"",""time""
""blur"",""2"",""3124""
""focus"",""2"",""7810""
""fullscreenenter"",""5"",""16245""
","""event"",""trial"",""time""
""blur"",""2"",""3124""
","""event"",""trial"",""time""
""focus"",""2"",""7810""
","""event"",""trial"",""time""
""fullscreenenter"",""5"",""16245""
","
","","images/earth.jpg","","","","","","","","","","","","","","fixation","","","","","",""
"d3-animate-choice","85","336112","0.0-61.0-0.8","202","5226","9","Male","false","true","true","true","""event"",""trial"",""time""
""blur"",""2"",""3124""
""focus"",""2"",""7810""
""fullscreenenter"",""5"",""16245""
","""event"",""trial"",""time""
""blur"",""2"",""3124""
","""event"",""trial"",""time""
""focus"",""2"",""7810""
","""event"",""trial"",""time""
""fullscreenenter"",""5"",""16245""
","
","1378.199999999255","","48","","","3000","1","","","images/earth.jpg","images/tutrocket1","images/tutrocket2","null","images/tutrocket1","","1","practice","null","2","","",""
"d3-animate-choice","86","339736","0.0-61.0-1.8","202","5226","9","Male","false","true","true","true","""event"",""trial"",""time""
""blur"",""2"",""3124""
""focus"",""2"",""7810""
""fullscreenenter"",""5"",""16245""
","""event"",""trial"",""time""
""blur"",""2"",""3124""
","""event"",""trial"",""time""
""focus"",""2"",""7810""
","""event"",""trial"",""time""
""fullscreenenter"",""5"",""16245""
","
","1618.5999999977648","","49","","","3000","1","","","images/tutgreenplanet.jpg","images/tutalien2","images/tutalien1","images/tutrocket1","images/tutalien1","images/t.png","2","practice","true","1","common","1","2022-12-16 21:30:10.808"
"two-step-fixation","87","340744","0.0-61.0-2.8","202","5226","9","Male","false","true","true","true","""event"",""trial"",""time""
""blur"",""2"",""3124""
""focus"",""2"",""7810""
""fullscreenenter"",""5"",""16245""
","""event"",""trial"",""time""
""blur"",""2"",""3124""
","""event"",""trial"",""time""
""focus"",""2"",""7810""
","""event"",""trial"",""time""
""fullscreenenter"",""5"",""16245""
","
","","images/earth.jpg","","","","","","","","","","","","","","fixation","","","","","",""
"d3-animate-choice","88","343584","0.0-61.0-0.9","202","5226","9","Male","false","true","true","true","""event"",""trial"",""time""
""blur"",""2"",""3124""
""focus"",""2"",""7810""
""fullscreenenter"",""5"",""16245""
","""event"",""trial"",""time""
""blur"",""2"",""3124""
","""event"",""trial"",""time""
""focus"",""2"",""7810""
","""event"",""trial"",""time""
""fullscreenenter"",""5"",""16245""
","
","834.3000000007451","","48","","","3000","1","","","images/earth.jpg","images/tutrocket1","images/tutrocket2","null","images/tutrocket1","","1","practice","null","2","","",""
"d3-animate-choice","89","346600","0.0-61.0-1.9","202","5226","9","Male","false","true","true","true","""event"",""trial"",""time""
""blur"",""2"",""3124""
""focus"",""2"",""7810""
""fullscreenenter"",""5"",""16245""
","""event"",""trial"",""time""
""blur"",""2"",""3124""
","""event"",""trial"",""time""
""focus"",""2"",""7810""
","""event"",""trial"",""time""
""fullscreenenter"",""5"",""16245""
","
","1010.3000000007451","","49","","","3000","1","","","images/tutgreenplanet.jpg","images/tutalien2","images/tutalien1","images/tutrocket1","images/tutalien1","images/nothing.png","2","practice","true","1","common","0","2022-12-16 21:30:17.672"
"two-step-fixation","90","347608","0.0-61.0-2.9","202","5226","9","Male","false","true","true","true","""event"",""trial"",""time""
""blur"",""2"",""3124""
""focus"",""2"",""7810""
""fullscreenenter"",""5"",""16245""
","""event"",""trial"",""time""
""blur"",""2"",""3124""
","""event"",""trial"",""time""
""focus"",""2"",""7810""
","""event"",""trial"",""time""
""fullscreenenter"",""5"",""16245""
","
","","images/earth.jpg","","","","","","","","","","","","","","fixation","","","","","",""
"d3-animate-choice","91","350167","0.0-61.0-0.10","202","5226","9","Male","false","true","true","true","""event"",""trial"",""time""
""blur"",""2"",""3124""
""focus"",""2"",""7810""
""fullscreenenter"",""5"",""16245""
","""event"",""trial"",""time""
""blur"",""2"",""3124""
","""event"",""trial"",""time""
""focus"",""2"",""7810""
","""event"",""trial"",""time""
""fullscreenenter"",""5"",""16245""
","
","554.0999999977648","","49","","","3000","1","","","images/earth.jpg","images/tutrocket1","images/tutrocket2","null","images/tutrocket2","","1","practice","null","1","","",""
"d3-animate-choice","92","354183","0.0-61.0-1.10","202","5226","9","Male","false","true","true","true","""event"",""trial"",""time""
""blur"",""2"",""3124""
""focus"",""2"",""7810""
""fullscreenenter"",""5"",""16245""
","""event"",""trial"",""time""
""blur"",""2"",""3124""
","""event"",""trial"",""time""
""focus"",""2"",""7810""
","""event"",""trial"",""time""
""fullscreenenter"",""5"",""16245""
","
","2306.699999999255","","48","","","3000","1","","","images/tutyellowplanet.jpg","images/tutalien4","images/tutalien3","images/tutrocket2","images/tutalien4","images/nothing.png","2","practice","true","2","common","0","2022-12-16 21:30:25.255"
"two-step-fixation","93","355192","0.0-61.0-2.10","202","5226","9","Male","false","true","true","true","""event"",""trial"",""time""
""blur"",""2"",""3124""
""focus"",""2"",""7810""
""fullscreenenter"",""5"",""16245""
","""event"",""trial"",""time""
""blur"",""2"",""3124""
","""event"",""trial"",""time""
""focus"",""2"",""7810""
","""event"",""trial"",""time""
""fullscreenenter"",""5"",""16245""
","
","","images/earth.jpg","","","","","","","","","","","","","","fixation","","","","","",""
"d3-animate-choice","94","357808","0.0-61.0-0.11","202","5226","9","Male","false","true","true","true","""event"",""trial"",""time""
""blur"",""2"",""3124""
""focus"",""2"",""7810""
""fullscreenenter"",""5"",""16245""
","""event"",""trial"",""time""
""blur"",""2"",""3124""
","""event"",""trial"",""time""
""focus"",""2"",""7810""
","""event"",""trial"",""time""
""fullscreenenter"",""5"",""16245""
","
","610.8000000007451","","49","","","3000","1","","","images/earth.jpg","images/tutrocket1","images/tutrocket2","null","images/tutrocket2","","1","practice","null","1","","",""
"d3-animate-choice","95","361112","0.0-61.0-1.11","202","5226","9","Male","false","true","true","true","""event"",""trial"",""time""
""blur"",""2"",""3124""
""focus"",""2"",""7810""
""fullscreenenter"",""5"",""16245""
","""event"",""trial"",""time""
""blur"",""2"",""3124""
","""event"",""trial"",""time""
""focus"",""2"",""7810""
","""event"",""trial"",""time""
""fullscreenenter"",""5"",""16245""
","
","1298.800000000745","","49","","","3000","1","","","images/tutgreenplanet.jpg","images/tutalien2","images/tutalien1","images/tutrocket2","images/tutalien1","images/nothing.png","2","practice","false","1","rare","0","2022-12-16 21:30:32.184"
"two-step-fixation","96","362120","0.0-61.0-2.11","202","5226","9","Male","false","true","true","true","""event"",""trial"",""time""
""blur"",""2"",""3124""
""focus"",""2"",""7810""
""fullscreenenter"",""5"",""16245""
","""event"",""trial"",""time""
""blur"",""2"",""3124""
","""event"",""trial"",""time""
""focus"",""2"",""7810""
","""event"",""trial"",""time""
""fullscreenenter"",""5"",""16245""
","
","","images/earth.jpg","","","","","","","","","","","","","","fixation","","","","","",""
"d3-animate-choice","97","364552","0.0-61.0-0.12","202","5226","9","Male","false","true","true","true","""event"",""trial"",""time""
""blur"",""2"",""3124""
""focus"",""2"",""7810""
""fullscreenenter"",""5"",""16245""
","""event"",""trial"",""time""
""blur"",""2"",""3124""
","""event"",""trial"",""time""
""focus"",""2"",""7810""
","""event"",""trial"",""time""
""fullscreenenter"",""5"",""16245""
","
","426.29999999701977","","48","","","3000","1","","","images/earth.jpg","images/tutrocket1","images/tutrocket2","null","images/tutrocket1","","1","practice","null","2","","",""
"d3-animate-choice","98","367624","0.0-61.0-1.12","202","5226","9","Male","false","true","true","true","""event"",""trial"",""time""
""blur"",""2"",""3124""
""focus"",""2"",""7810""
""fullscreenenter"",""5"",""16245""
","""event"",""trial"",""time""
""blur"",""2"",""3124""
","""event"",""trial"",""time""
""focus"",""2"",""7810""
","""event"",""trial"",""time""
""fullscreenenter"",""5"",""16245""
","
","1066.5","","49","","","3000","1","","","images/tutgreenplanet.jpg","images/tutalien2","images/tutalien1","images/tutrocket1","images/tutalien1","images/nothing.png","2","practice","true","1","common","0","2022-12-16 21:30:38.696"
"two-step-fixation","99","368632","0.0-61.0-2.12","202","5226","9","Male","false","true","true","true","""event"",""trial"",""time""
""blur"",""2"",""3124""
""focus"",""2"",""7810""
""fullscreenenter"",""5"",""16245""
","""event"",""trial"",""time""
""blur"",""2"",""3124""
","""event"",""trial"",""time""
""focus"",""2"",""7810""
","""event"",""trial"",""time""
""fullscreenenter"",""5"",""16245""
","
","","images/earth.jpg","","","","","","","","","","","","","","fixation","","","","","",""
"d3-animate-choice","100","371047","0.0-61.0-0.13","202","5226","9","Male","false","true","true","true","""event"",""trial"",""time""
""blur"",""2"",""3124""
""focus"",""2"",""7810""
""fullscreenenter"",""5"",""16245""
","""event"",""trial"",""time""
""blur"",""2"",""3124""
","""event"",""trial"",""time""
""focus"",""2"",""7810""
","""event"",""trial"",""time""
""fullscreenenter"",""5"",""16245""
","
","410.6000000014901","","48","","","3000","1","","","images/earth.jpg","images/tutrocket1","images/tutrocket2","null","images/tutrocket1","","1","practice","null","2","","",""
"d3-animate-choice","101","373528","0.0-61.0-1.13","202","5226","9","Male","false","true","true","true","""event"",""trial"",""time""
""blur"",""2"",""3124""
""focus"",""2"",""7810""
""fullscreenenter"",""5"",""16245""
","""event"",""trial"",""time""
""blur"",""2"",""3124""
","""event"",""trial"",""time""
""focus"",""2"",""7810""
","""event"",""trial"",""time""
""fullscreenenter"",""5"",""16245""
","
","475","","49","","","3000","1","","","images/tutgreenplanet.jpg","images/tutalien2","images/tutalien1","images/tutrocket1","images/tutalien1","images/nothing.png","2","practice","true","1","common","0","2022-12-16 21:30:44.600"
"two-step-fixation","102","374535","0.0-61.0-2.13","202","5226","9","Male","false","true","true","true","""event"",""trial"",""time""
""blur"",""2"",""3124""
""focus"",""2"",""7810""
""fullscreenenter"",""5"",""16245""
","""event"",""trial"",""time""
""blur"",""2"",""3124""
","""event"",""trial"",""time""
""focus"",""2"",""7810""
","""event"",""trial"",""time""
""fullscreenenter"",""5"",""16245""
","
","","images/earth.jpg","","","","","","","","","","","","","","fixation","","","","","",""
"d3-animate-choice","103","376880","0.0-61.0-0.14","202","5226","9","Male","false","true","true","true","""event"",""trial"",""time""
""blur"",""2"",""3124""
""focus"",""2"",""7810""
""fullscreenenter"",""5"",""16245""
","""event"",""trial"",""time""
""blur"",""2"",""3124""
","""event"",""trial"",""time""
""focus"",""2"",""7810""
","""event"",""trial"",""time""
""fullscreenenter"",""5"",""16245""
","
","339.1000000014901","","48","","","3000","1","","","images/earth.jpg","images/tutrocket1","images/tutrocket2","null","images/tutrocket1","","1","practice","null","2","","",""
"d3-animate-choice","104","380312","0.0-61.0-1.14","202","5226","9","Male","false","true","true","true","""event"",""trial"",""time""
""blur"",""2"",""3124""
""focus"",""2"",""7810""
""fullscreenenter"",""5"",""16245""
","""event"",""trial"",""time""
""blur"",""2"",""3124""
","""event"",""trial"",""time""
""focus"",""2"",""7810""
","""event"",""trial"",""time""
""fullscreenenter"",""5"",""16245""
","
","1426.2999999970198","","48","","","3000","1","","","images/tutgreenplanet.jpg","images/tutalien2","images/tutalien1","images/tutrocket1","images/tutalien2","images/nothing.png","2","practice","true","2","common","0","2022-12-16 21:30:51.384"
"two-step-fixation","105","381320","0.0-61.0-2.14","202","5226","9","Male","false","true","true","true","""event"",""trial"",""time""
""blur"",""2"",""3124""
""focus"",""2"",""7810""
""fullscreenenter"",""5"",""16245""
","""event"",""trial"",""time""
""blur"",""2"",""3124""
","""event"",""trial"",""time""
""focus"",""2"",""7810""
","""event"",""trial"",""time""
""fullscreenenter"",""5"",""16245""
","
","","images/earth.jpg","","","","","","","","","","","","","","fixation","","","","","",""
"d3-animate-choice","106","384352","0.0-61.0-0.15","202","5226","9","Male","false","true","true","true","""event"",""trial"",""time""
""blur"",""2"",""3124""
""focus"",""2"",""7810""
""fullscreenenter"",""5"",""16245""
","""event"",""trial"",""time""
""blur"",""2"",""3124""
","""event"",""trial"",""time""
""focus"",""2"",""7810""
","""event"",""trial"",""time""
""fullscreenenter"",""5"",""16245""
","
","1026","","49","","","3000","1","","","images/earth.jpg","images/tutrocket1","images/tutrocket2","null","images/tutrocket2","","1","practice","null","1","","",""
"d3-animate-choice","107","386832","0.0-61.0-1.15","202","5226","9","Male","false","true","true","true","""event"",""trial"",""time""
""blur"",""2"",""3124""
""focus"",""2"",""7810""
""fullscreenenter"",""5"",""16245""
","""event"",""trial"",""time""
""blur"",""2"",""3124""
","""event"",""trial"",""time""
""focus"",""2"",""7810""
","""event"",""trial"",""time""
""fullscreenenter"",""5"",""16245""
","
","474.30000000074506","","48","","","3000","1","","","images/tutyellowplanet.jpg","images/tutalien4","images/tutalien3","images/tutrocket2","images/tutalien4","images/t.png","2","practice","true","2","common","1","2022-12-16 21:30:57.904"
"two-step-fixation","108","387840","0.0-61.0-2.15","202","5226","9","Male","false","true","true","true","""event"",""trial"",""time""
""blur"",""2"",""3124""
""focus"",""2"",""7810""
""fullscreenenter"",""5"",""16245""
","""event"",""trial"",""time""
""blur"",""2"",""3124""
","""event"",""trial"",""time""
""focus"",""2"",""7810""
","""event"",""trial"",""time""
""fullscreenenter"",""5"",""16245""
","
","","images/earth.jpg","","","","","","","","","","","","","","fixation","","","","","",""
"d3-animate-choice","109","390512","0.0-61.0-0.16","202","5226","9","Male","false","true","true","true","""event"",""trial"",""time""
""blur"",""2"",""3124""
""focus"",""2"",""7810""
""fullscreenenter"",""5"",""16245""
","""event"",""trial"",""time""
""blur"",""2"",""3124""
","""event"",""trial"",""time""
""focus"",""2"",""7810""
","""event"",""trial"",""time""
""fullscreenenter"",""5"",""16245""
","
","665.8000000007451","","49","","","3000","1","","","images/earth.jpg","images/tutrocket1","images/tutrocket2","null","images/tutrocket2","","1","practice","null","1","","",""
"d3-animate-choice","110","394527","0.0-61.0-1.16","202","5226","9","Male","false","true","true","true","""event"",""trial"",""time""
""blur"",""2"",""3124""
""focus"",""2"",""7810""
""fullscreenenter"",""5"",""16245""
","""event"",""trial"",""time""
""blur"",""2"",""3124""
","""event"",""trial"",""time""
""focus"",""2"",""7810""
","""event"",""trial"",""time""
""fullscreenenter"",""5"",""16245""
","
","2290.400000002235","","48","","","3000","1","","","images/tutgreenplanet.jpg","images/tutalien2","images/tutalien1","images/tutrocket2","images/tutalien2","images/nothing.png","2","practice","false","2","rare","0","2022-12-16 21:31:05.599"
"two-step-fixation","111","395536","0.0-61.0-2.16","202","5226","9","Male","false","true","true","true","""event"",""trial"",""time""
""blur"",""2"",""3124""
""focus"",""2"",""7810""
""fullscreenenter"",""5"",""16245""
","""event"",""trial"",""time""
""blur"",""2"",""3124""
","""event"",""trial"",""time""
""focus"",""2"",""7810""
","""event"",""trial"",""time""
""fullscreenenter"",""5"",""16245""
","
","","images/earth.jpg","","","","","","","","","","","","","","fixation","","","","","",""
"d3-animate-choice","112","398096","0.0-61.0-0.17","202","5226","9","Male","false","true","true","true","""event"",""trial"",""time""
""blur"",""2"",""3124""
""focus"",""2"",""7810""
""fullscreenenter"",""5"",""16245""
","""event"",""trial"",""time""
""blur"",""2"",""3124""
","""event"",""trial"",""time""
""focus"",""2"",""7810""
","""event"",""trial"",""time""
""fullscreenenter"",""5"",""16245""
","
","554.3999999985099","","49","","","3000","1","","","images/earth.jpg","images/tutrocket1","images/tutrocket2","null","images/tutrocket2","","1","practice","null","1","","",""
"d3-animate-choice","113","400512","0.0-61.0-1.17","202","5226","9","Male","false","true","true","true","""event"",""trial"",""time""
""blur"",""2"",""3124""
""focus"",""2"",""7810""
""fullscreenenter"",""5"",""16245""
","""event"",""trial"",""time""
""blur"",""2"",""3124""
","""event"",""trial"",""time""
""focus"",""2"",""7810""
","""event"",""trial"",""time""
""fullscreenenter"",""5"",""16245""
","
","409.5","","49","","","3000","1","","","images/tutyellowplanet.jpg","images/tutalien4","images/tutalien3","images/tutrocket2","images/tutalien3","images/nothing.png","2","practice","true","1","common","0","2022-12-16 21:31:11.584"
"two-step-fixation","114","401520","0.0-61.0-2.17","202","5226","9","Male","false","true","true","true","""event"",""trial"",""time""
""blur"",""2"",""3124""
""focus"",""2"",""7810""
""fullscreenenter"",""5"",""16245""
","""event"",""trial"",""time""
""blur"",""2"",""3124""
","""event"",""trial"",""time""
""focus"",""2"",""7810""
","""event"",""trial"",""time""
""fullscreenenter"",""5"",""16245""
","
","","images/earth.jpg","","","","","","","","","","","","","","fixation","","","","","",""
"d3-animate-choice","115","403852","0.0-61.0-0.18","202","5226","9","Male","false","true","true","true","""event"",""trial"",""time""
""blur"",""2"",""3124""
""focus"",""2"",""7810""
""fullscreenenter"",""5"",""16245""
","""event"",""trial"",""time""
""blur"",""2"",""3124""
","""event"",""trial"",""time""
""focus"",""2"",""7810""
","""event"",""trial"",""time""
""fullscreenenter"",""5"",""16245""
","
","330.30000000074506","","48","","","3000","1","","","images/earth.jpg","images/tutrocket1","images/tutrocket2","null","images/tutrocket1","","1","practice","null","2","","",""
"d3-animate-choice","116","407167","0.0-61.0-1.18","202","5226","9","Male","false","true","true","true","""event"",""trial"",""time""
""blur"",""2"",""3124""
""focus"",""2"",""7810""
""fullscreenenter"",""5"",""16245""
","""event"",""trial"",""time""
""blur"",""2"",""3124""
","""event"",""trial"",""time""
""focus"",""2"",""7810""
","""event"",""trial"",""time""
""fullscreenenter"",""5"",""16245""
","
","1309.800000000745","","49","","","3000","1","","","images/tutyellowplanet.jpg","images/tutalien4","images/tutalien3","images/tutrocket1","images/tutalien3","images/t.png","2","practice","false","1","rare","1","2022-12-16 21:31:18.239"
"two-step-fixation","117","408175","0.0-61.0-2.18","202","5226","9","Male","false","true","true","true","""event"",""trial"",""time""
""blur"",""2"",""3124""
""focus"",""2"",""7810""
""fullscreenenter"",""5"",""16245""
","""event"",""trial"",""time""
""blur"",""2"",""3124""
","""event"",""trial"",""time""
""focus"",""2"",""7810""
","""event"",""trial"",""time""
""fullscreenenter"",""5"",""16245""
","
","","images/earth.jpg","","","","","","","","","","","","","","fixation","","","","","",""
"d3-animate-choice","118","410576","0.0-61.0-0.19","202","5226","9","Male","false","true","true","true","""event"",""trial"",""time""
""blur"",""2"",""3124""
""focus"",""2"",""7810""
""fullscreenenter"",""5"",""16245""
","""event"",""trial"",""time""
""blur"",""2"",""3124""
","""event"",""trial"",""time""
""focus"",""2"",""7810""
","""event"",""trial"",""time""
""fullscreenenter"",""5"",""16245""
","
","394.8999999985099","","48","","","3000","1","","","images/earth.jpg","images/tutrocket1","images/tutrocket2","null","images/tutrocket1","","1","practice","null","2","","",""
"d3-animate-choice","119","413959","0.0-61.0-1.19","202","5226","9","Male","false","true","true","true","""event"",""trial"",""time""
""blur"",""2"",""3124""
""focus"",""2"",""7810""
""fullscreenenter"",""5"",""16245""
","""event"",""trial"",""time""
""blur"",""2"",""3124""
","""event"",""trial"",""time""
""focus"",""2"",""7810""
","""event"",""trial"",""time""
""fullscreenenter"",""5"",""16245""
","
","1378.5","","49","","","3000","1","","","images/tutgreenplanet.jpg","images/tutalien2","images/tutalien1","images/tutrocket1","images/tutalien1","images/nothing.png","2","practice","true","1","common","0","2022-12-16 21:31:25.031"
"two-step-fixation","120","414967","0.0-61.0-2.19","202","5226","9","Male","false","true","true","true","""event"",""trial"",""time""
""blur"",""2"",""3124""
""focus"",""2"",""7810""
""fullscreenenter"",""5"",""16245""
","""event"",""trial"",""time""
""blur"",""2"",""3124""
","""event"",""trial"",""time""
""focus"",""2"",""7810""
","""event"",""trial"",""time""
""fullscreenenter"",""5"",""16245""
","
","","images/earth.jpg","","","","","","","","","","","","","","fixation","","","","","",""
"d3-instructions","121","420812","0.0-62.0","202","5226","9","Male","false","true","true","true","""event"",""trial"",""time""
""blur"",""2"",""3124""
""focus"",""2"",""7810""
""fullscreenenter"",""5"",""16245""
","""event"",""trial"",""time""
""blur"",""2"",""3124""
","""event"",""trial"",""time""
""focus"",""2"",""7810""
","""event"",""trial"",""time""
""fullscreenenter"",""5"",""16245""
","
","","","","","","","","","","","","","","","","","","","","","",""
"audio-keyboard-response","122","422651","0.0-63.0","202","5226","9","Male","false","true","true","true","""event"",""trial"",""time""
""blur"",""2"",""3124""
""focus"",""2"",""7810""
""fullscreenenter"",""5"",""16245""
","""event"",""trial"",""time""
""blur"",""2"",""3124""
","""event"",""trial"",""time""
""focus"",""2"",""7810""
","""event"",""trial"",""time""
""fullscreenenter"",""5"",""16245""
","
","1840","audio/instructions/treasure_feedback.wav","32","","","","","","","","","","","","","","","","","","",""
"d3-instructions","123","430979","0.0-64.0","202","5226","9","Male","false","true","true","true","""event"",""trial"",""time""
""blur"",""2"",""3124""
""focus"",""2"",""7810""
""fullscreenenter"",""5"",""16245""
","""event"",""trial"",""time""
""blur"",""2"",""3124""
","""event"",""trial"",""time""
""focus"",""2"",""7810""
","""event"",""trial"",""time""
""fullscreenenter"",""5"",""16245""
","
","","","","","","","","","","","","","","","","","","","","","",""
"d3-instructions","124","437299","0.0-65.0","202","5226","9","Male","false","true","true","true","""event"",""trial"",""time""
""blur"",""2"",""3124""
""focus"",""2"",""7810""
""fullscreenenter"",""5"",""16245""
","""event"",""trial"",""time""
""blur"",""2"",""3124""
","""event"",""trial"",""time""
""focus"",""2"",""7810""
","""event"",""trial"",""time""
""fullscreenenter"",""5"",""16245""
","
","","","","","","","","","","","","","","","","","","","","","",""
"d3-instructions","125","445171","0.0-66.0","202","5226","9","Male","false","true","true","true","""event"",""trial"",""time""
""blur"",""2"",""3124""
""focus"",""2"",""7810""
""fullscreenenter"",""5"",""16245""
","""event"",""trial"",""time""
""blur"",""2"",""3124""
","""event"",""trial"",""time""
""focus"",""2"",""7810""
","""event"",""trial"",""time""
""fullscreenenter"",""5"",""16245""
","
","","","","","","","","","","","","","","","","","","","","","",""
"d3-instructions","126","447755","0.0-67.0","202","5226","9","Male","false","true","true","true","""event"",""trial"",""time""
""blur"",""2"",""3124""
""focus"",""2"",""7810""
""fullscreenenter"",""5"",""16245""
","""event"",""trial"",""time""
""blur"",""2"",""3124""
","""event"",""trial"",""time""
""focus"",""2"",""7810""
","""event"",""trial"",""time""
""fullscreenenter"",""5"",""16245""
","
","","","","","","","","","","","","","","","","","","","","","",""
"d3-instructions","127","450323","0.0-68.0","202","5226","9","Male","false","true","true","true","""event"",""trial"",""time""
""blur"",""2"",""3124""
""focus"",""2"",""7810""
""fullscreenenter"",""5"",""16245""
","""event"",""trial"",""time""
""blur"",""2"",""3124""
","""event"",""trial"",""time""
""focus"",""2"",""7810""
","""event"",""trial"",""time""
""fullscreenenter"",""5"",""16245""
","
","","","","","","","","","","","","","","","","","","","","","",""
"instructions-quiz","128","453523","0.0-69.0","202","5226","9","Male","false","true","true","true","""event"",""trial"",""time""
""blur"",""2"",""3124""
""focus"",""2"",""7810""
""fullscreenenter"",""5"",""16245""
","""event"",""trial"",""time""
""blur"",""2"",""3124""
","""event"",""trial"",""time""
""focus"",""2"",""7810""
","""event"",""trial"",""time""
""fullscreenenter"",""5"",""16245""
","
","3198.300000000745","audio/quiz/Q1_Prompt.wav","","0","","","","","","","","","","","","","","","","","",""
"audio-keyboard-response","129","463786","0.0-70.0","202","5226","9","Male","false","true","true","true","""event"",""trial"",""time""
""blur"",""2"",""3124""
""focus"",""2"",""7810""
""fullscreenenter"",""5"",""16245""
","""event"",""trial"",""time""
""blur"",""2"",""3124""
","""event"",""trial"",""time""
""focus"",""2"",""7810""
","""event"",""trial"",""time""
""fullscreenenter"",""5"",""16245""
","
","null","audio/quiz/Q1_Incorrect.wav","null","","","","","","","","","","","","","","","","","","",""
"instructions-quiz","130","470963","0.0-71.0","202","5226","9","Male","false","true","true","true","""event"",""trial"",""time""
""blur"",""2"",""3124""
""focus"",""2"",""7810""
""fullscreenenter"",""5"",""16245""
","""event"",""trial"",""time""
""blur"",""2"",""3124""
","""event"",""trial"",""time""
""focus"",""2"",""7810""
","""event"",""trial"",""time""
""fullscreenenter"",""5"",""16245""
","
","7175.79999999702","audio/quiz/Q2_Prompt.wav","","0","","","","","","","","","","","","","","","","","",""
"audio-keyboard-response","131","483827","0.0-72.0","202","5226","9","Male","false","true","true","true","""event"",""trial"",""time""
""blur"",""2"",""3124""
""focus"",""2"",""7810""
""fullscreenenter"",""5"",""16245""
","""event"",""trial"",""time""
""blur"",""2"",""3124""
","""event"",""trial"",""time""
""focus"",""2"",""7810""
","""event"",""trial"",""time""
""fullscreenenter"",""5"",""16245""
","
","null","audio/quiz/Q2_Correct.wav","null","","","","","","","","","","","","","","","","","","",""
"instructions-quiz","132","486259","0.0-73.0","202","5226","9","Male","false","true","true","true","""event"",""trial"",""time""
""blur"",""2"",""3124""
""focus"",""2"",""7810""
""fullscreenenter"",""5"",""16245""
","""event"",""trial"",""time""
""blur"",""2"",""3124""
","""event"",""trial"",""time""
""focus"",""2"",""7810""
","""event"",""trial"",""time""
""fullscreenenter"",""5"",""16245""
","
","2431","audio/quiz/Q3_Prompt.wav","","1","","","","","","","","","","","","","","","","","",""
"audio-keyboard-response","133","492056","0.0-74.0","202","5226","9","Male","false","true","true","true","""event"",""trial"",""time""
""blur"",""2"",""3124""
""focus"",""2"",""7810""
""fullscreenenter"",""5"",""16245""
","""event"",""trial"",""time""
""blur"",""2"",""3124""
","""event"",""trial"",""time""
""focus"",""2"",""7810""
","""event"",""trial"",""time""
""fullscreenenter"",""5"",""16245""
","
","null","audio/quiz/Q3_Correct.wav","null","","","","","","","","","","","","","","","","","","",""
"d3-instructions","134","495452","0.0-75.0","202","5226","9","Male","false","true","true","true","""event"",""trial"",""time""
""blur"",""2"",""3124""
""focus"",""2"",""7810""
""fullscreenenter"",""5"",""16245""
","""event"",""trial"",""time""
""blur"",""2"",""3124""
","""event"",""trial"",""time""
""focus"",""2"",""7810""
","""event"",""trial"",""time""
""fullscreenenter"",""5"",""16245""
","
","","","","","","","","","","","","","","","","","","","","","",""
"d3-animate-choice","135","499183","0.0-76.0-0.0","202","5226","9","Male","false","true","true","true","""event"",""trial"",""time""
""blur"",""2"",""3124""
""focus"",""2"",""7810""
""fullscreenenter"",""5"",""16245""
","""event"",""trial"",""time""
""blur"",""2"",""3124""
","""event"",""trial"",""time""
""focus"",""2"",""7810""
","""event"",""trial"",""time""
""fullscreenenter"",""5"",""16245""
","
","1726.2999999970198","","49","","","3000","1","","","images/earth.jpg","images/rocket1","images/rocket2","null","images/rocket2","","1","real","null","1","","",""
"d3-animate-choice","136","502696","0.0-76.0-1.0","202","5226","9","Male","false","true","true","true","""event"",""trial"",""time""
""blur"",""2"",""3124""
""focus"",""2"",""7810""
""fullscreenenter"",""5"",""16245""
","""event"",""trial"",""time""
""blur"",""2"",""3124""
","""event"",""trial"",""time""
""focus"",""2"",""7810""
","""event"",""trial"",""time""
""fullscreenenter"",""5"",""16245""
","
","1506.300000000745","","48","","","3000","1","","","images/redplanet1.jpg","images/alien2","images/alien1","images/rocket2","images/alien2","images/t.png","2","real","false","2","rare","1","2022-12-16 21:32:53.768"
"two-step-fixation","137","503704","0.0-76.0-2.0","202","5226","9","Male","false","true","true","true","""event"",""trial"",""time""
""blur"",""2"",""3124""
""focus"",""2"",""7810""
""fullscreenenter"",""5"",""16245""
","""event"",""trial"",""time""
""blur"",""2"",""3124""
","""event"",""trial"",""time""
""focus"",""2"",""7810""
","""event"",""trial"",""time""
""fullscreenenter"",""5"",""16245""
","
","","images/earth.jpg","","","","","","","","","","","","","","fixation","","","","","",""
"d3-animate-choice","138","506160","0.0-76.0-0.1","202","5226","9","Male","false","true","true","true","""event"",""trial"",""time""
""blur"",""2"",""3124""
""focus"",""2"",""7810""
""fullscreenenter"",""5"",""16245""
","""event"",""trial"",""time""
""blur"",""2"",""3124""
","""event"",""trial"",""time""
""focus"",""2"",""7810""
","""event"",""trial"",""time""
""fullscreenenter"",""5"",""16245""
","
","450.19999999925494","","49","","","3000","1","","","images/earth.jpg","images/rocket1","images/rocket2","null","images/rocket2","","1","real","null","1","","",""
"d3-animate-choice","139","509328","0.0-76.0-1.1","202","5226","9","Male","false","true","true","true","""event"",""trial"",""time""
""blur"",""2"",""3124""
""focus"",""2"",""7810""
""fullscreenenter"",""5"",""16245""
","""event"",""trial"",""time""
""blur"",""2"",""3124""
","""event"",""trial"",""time""
""focus"",""2"",""7810""
","""event"",""trial"",""time""
""fullscreenenter"",""5"",""16245""
","
","1162.300000000745","","48","","","3000","1","","","images/redplanet1.jpg","images/alien2","images/alien1","images/rocket2","images/alien2","images/t.png","2","real","false","2","rare","1","2022-12-16 21:33:00.400"
"two-step-fixation","140","510336","0.0-76.0-2.1","202","5226","9","Male","false","true","true","true","""event"",""trial"",""time""
""blur"",""2"",""3124""
""focus"",""2"",""7810""
""fullscreenenter"",""5"",""16245""
","""event"",""trial"",""time""
""blur"",""2"",""3124""
","""event"",""trial"",""time""
""focus"",""2"",""7810""
","""event"",""trial"",""time""
""fullscreenenter"",""5"",""16245""
","
","","images/earth.jpg","","","","","","","","","","","","","","fixation","","","","","",""
"d3-animate-choice","141","512751","0.0-76.0-0.2","202","5226","9","Male","false","true","true","true","""event"",""trial"",""time""
""blur"",""2"",""3124""
""focus"",""2"",""7810""
""fullscreenenter"",""5"",""16245""
","""event"",""trial"",""time""
""blur"",""2"",""3124""
","""event"",""trial"",""time""
""focus"",""2"",""7810""
","""event"",""trial"",""time""
""fullscreenenter"",""5"",""16245""
","
","409.5","","49","","","3000","1","","","images/earth.jpg","images/rocket1","images/rocket2","null","images/rocket2","","1","real","null","1","","",""
"d3-animate-choice","142","515711","0.0-76.0-1.2","202","5226","9","Male","false","true","true","true","""event"",""trial"",""time""
""blur"",""2"",""3124""
""focus"",""2"",""7810""
""fullscreenenter"",""5"",""16245""
","""event"",""trial"",""time""
""blur"",""2"",""3124""
","""event"",""trial"",""time""
""focus"",""2"",""7810""
","""event"",""trial"",""time""
""fullscreenenter"",""5"",""16245""
","
","954.6000000014901","","48","","","3000","1","","","images/redplanet1.jpg","images/alien2","images/alien1","images/rocket2","images/alien2","images/t.png","2","real","false","2","rare","1","2022-12-16 21:33:06.783"
"two-step-fixation","143","516719","0.0-76.0-2.2","202","5226","9","Male","false","true","true","true","""event"",""trial"",""time""
""blur"",""2"",""3124""
""focus"",""2"",""7810""
""fullscreenenter"",""5"",""16245""
","""event"",""trial"",""time""
""blur"",""2"",""3124""
","""event"",""trial"",""time""
""focus"",""2"",""7810""
","""event"",""trial"",""time""
""fullscreenenter"",""5"",""16245""
","
","","images/earth.jpg","","","","","","","","","","","","","","fixation","","","","","",""
"d3-animate-choice","144","519080","0.0-76.0-0.3","202","5226","9","Male","false","true","true","true","""event"",""trial"",""time""
""blur"",""2"",""3124""
""focus"",""2"",""7810""
""fullscreenenter"",""5"",""16245""
","""event"",""trial"",""time""
""blur"",""2"",""3124""
","""event"",""trial"",""time""
""focus"",""2"",""7810""
","""event"",""trial"",""time""
""fullscreenenter"",""5"",""16245""
","
","355.20000000298023","","49","","","3000","1","","","images/earth.jpg","images/rocket1","images/rocket2","null","images/rocket2","","1","real","null","1","","",""
"d3-animate-choice","145","521854","0.0-76.0-1.3","202","5226","9","Male","false","true","true","true","""event"",""trial"",""time""
""blur"",""2"",""3124""
""focus"",""2"",""7810""
""fullscreenenter"",""5"",""16245""
","""event"",""trial"",""time""
""blur"",""2"",""3124""
","""event"",""trial"",""time""
""focus"",""2"",""7810""
","""event"",""trial"",""time""
""fullscreenenter"",""5"",""16245""
","
","769.8000000007451","","48","","","3000","1","","","images/redplanet1.jpg","images/alien2","images/alien1","images/rocket2","images/alien2","images/nothing.png","2","real","false","2","rare","0","2022-12-16 21:33:12.926"
"two-step-fixation","146","522863","0.0-76.0-2.3","202","5226","9","Male","false","true","true","true","""event"",""trial"",""time""
""blur"",""2"",""3124""
""focus"",""2"",""7810""
""fullscreenenter"",""5"",""16245""
","""event"",""trial"",""time""
""blur"",""2"",""3124""
","""event"",""trial"",""time""
""focus"",""2"",""7810""
","""event"",""trial"",""time""
""fullscreenenter"",""5"",""16245""
","
","","images/earth.jpg","","","","","","","","","","","","","","fixation","","","","","",""
"d3-animate-choice","147","525616","0.0-76.0-0.4","202","5226","9","Male","false","true","true","true","""event"",""trial"",""time""
""blur"",""2"",""3124""
""focus"",""2"",""7810""
""fullscreenenter"",""5"",""16245""
","""event"",""trial"",""time""
""blur"",""2"",""3124""
","""event"",""trial"",""time""
""focus"",""2"",""7810""
","""event"",""trial"",""time""
""fullscreenenter"",""5"",""16245""
","
","746.6999999992549","","49","","","3000","1","","","images/earth.jpg","images/rocket1","images/rocket2","null","images/rocket2","","1","real","null","1","","",""
"d3-animate-choice","148","529463","0.0-76.0-1.4","202","5226","9","Male","false","true","true","true","""event"",""trial"",""time""
""blur"",""2"",""3124""
""focus"",""2"",""7810""
""fullscreenenter"",""5"",""16245""
","""event"",""trial"",""time""
""blur"",""2"",""3124""
","""event"",""trial"",""time""
""focus"",""2"",""7810""
","""event"",""trial"",""time""
""fullscreenenter"",""5"",""16245""
","
","1842","","49","","","3000","1","","","images/redplanet1.jpg","images/alien2","images/alien1","images/rocket2","images/alien1","images/t.png","2","real","false","1","rare","1","2022-12-16 21:33:20.535"
"two-step-fixation","149","530471","0.0-76.0-2.4","202","5226","9","Male","false","true","true","true","""event"",""trial"",""time""
""blur"",""2"",""3124""
""focus"",""2"",""7810""
""fullscreenenter"",""5"",""16245""
","""event"",""trial"",""time""
""blur"",""2"",""3124""
","""event"",""trial"",""time""
""focus"",""2"",""7810""
","""event"",""trial"",""time""
""fullscreenenter"",""5"",""16245""
","
","","images/earth.jpg","","","","","","","","","","","","","","fixation","","","","","",""
"d3-animate-choice","150","532895","0.0-76.0-0.5","202","5226","9","Male","false","true","true","true","""event"",""trial"",""time""
""blur"",""2"",""3124""
""focus"",""2"",""7810""
""fullscreenenter"",""5"",""16245""
","""event"",""trial"",""time""
""blur"",""2"",""3124""
","""event"",""trial"",""time""
""focus"",""2"",""7810""
","""event"",""trial"",""time""
""fullscreenenter"",""5"",""16245""
","
","418.0999999977648","","49","","","3000","1","","","images/earth.jpg","images/rocket1","images/rocket2","null","images/rocket2","","1","real","null","1","","",""
"d3-animate-choice","151","536905","0.0-76.0-1.5","202","5226","9","Male","false","true","true","true","""event"",""trial"",""time""
""blur"",""2"",""3124""
""focus"",""2"",""7810""
""fullscreenenter"",""5"",""16245""
","""event"",""trial"",""time""
""blur"",""2"",""3124""
","""event"",""trial"",""time""
""focus"",""2"",""7810""
","""event"",""trial"",""time""
""fullscreenenter"",""5"",""16245""
","
","2105.5","","49","","","3000","1","","","images/purpleplanet.jpg","images/alien4","images/alien3","images/rocket2","images/alien3","images/nothing.png","2","real","true","1","common","0","2022-12-16 21:33:27.977"
"two-step-fixation","152","537912","0.0-76.0-2.5","202","5226","9","Male","false","true","true","true","""event"",""trial"",""time""
""blur"",""2"",""3124""
""focus"",""2"",""7810""
""fullscreenenter"",""5"",""16245""
","""event"",""trial"",""time""
""blur"",""2"",""3124""
","""event"",""trial"",""time""
""focus"",""2"",""7810""
","""event"",""trial"",""time""
""fullscreenenter"",""5"",""16245""
","
","","images/earth.jpg","","","","","","","","","","","","","","fixation","","","","","",""
"d3-animate-choice","153","541248","0.0-76.0-0.6","202","5226","9","Male","false","true","true","true","""event"",""trial"",""time""
""blur"",""2"",""3124""
""focus"",""2"",""7810""
""fullscreenenter"",""5"",""16245""
","""event"",""trial"",""time""
""blur"",""2"",""3124""
","""event"",""trial"",""time""
""focus"",""2"",""7810""
","""event"",""trial"",""time""
""fullscreenenter"",""5"",""16245""
","
","1329.699999999255","","49","","","3000","1","","","images/earth.jpg","images/rocket1","images/rocket2","null","images/rocket2","","1","real","null","1","","",""
"d3-animate-choice","154","545263","0.0-76.0-1.6","202","5226","9","Male","false","true","true","true","""event"",""trial"",""time""
""blur"",""2"",""3124""
""focus"",""2"",""7810""
""fullscreenenter"",""5"",""16245""
","""event"",""trial"",""time""
""blur"",""2"",""3124""
","""event"",""trial"",""time""
""focus"",""2"",""7810""
","""event"",""trial"",""time""
""fullscreenenter"",""5"",""16245""
","
","2266","","48","","","3000","1","","","images/purpleplanet.jpg","images/alien4","images/alien3","images/rocket2","images/alien4","images/t.png","2","real","true","2","common","1","2022-12-16 21:33:36.335"
"two-step-fixation","155","546271","0.0-76.0-2.6","202","5226","9","Male","false","true","true","true","""event"",""trial"",""time""
""blur"",""2"",""3124""
""focus"",""2"",""7810""
""fullscreenenter"",""5"",""16245""
","""event"",""trial"",""time""
""blur"",""2"",""3124""
","""event"",""trial"",""time""
""focus"",""2"",""7810""
","""event"",""trial"",""time""
""fullscreenenter"",""5"",""16245""
","
","","images/earth.jpg","","","","","","","","","","","","","","fixation","","","","","",""
"d3-animate-choice","156","548751","0.0-76.0-0.7","202","5226","9","Male","false","true","true","true","""event"",""trial"",""time""
""blur"",""2"",""3124""
""focus"",""2"",""7810""
""fullscreenenter"",""5"",""16245""
","""event"",""trial"",""time""
""blur"",""2"",""3124""
","""event"",""trial"",""time""
""focus"",""2"",""7810""
","""event"",""trial"",""time""
""fullscreenenter"",""5"",""16245""
","
","474.0999999977648","","49","","","3000","1","","","images/earth.jpg","images/rocket1","images/rocket2","null","images/rocket2","","1","real","null","1","","",""
"d3-animate-choice","157","551935","0.0-76.0-1.7","202","5226","9","Male","false","true","true","true","""event"",""trial"",""time""
""blur"",""2"",""3124""
""focus"",""2"",""7810""
""fullscreenenter"",""5"",""16245""
","""event"",""trial"",""time""
""blur"",""2"",""3124""
","""event"",""trial"",""time""
""focus"",""2"",""7810""
","""event"",""trial"",""time""
""fullscreenenter"",""5"",""16245""
","
","1179","","48","","","3000","1","","","images/purpleplanet.jpg","images/alien4","images/alien3","images/rocket2","images/alien4","images/nothing.png","2","real","true","2","common","0","2022-12-16 21:33:43.007"
"two-step-fixation","158","552944","0.0-76.0-2.7","202","5226","9","Male","false","true","true","true","""event"",""trial"",""time""
""blur"",""2"",""3124""
""focus"",""2"",""7810""
""fullscreenenter"",""5"",""16245""
","""event"",""trial"",""time""
""blur"",""2"",""3124""
","""event"",""trial"",""time""
""focus"",""2"",""7810""
","""event"",""trial"",""time""
""fullscreenenter"",""5"",""16245""
","
","","images/earth.jpg","","","","","","","","","","","","","","fixation","","","","","",""
"d3-animate-choice","159","555319","0.0-76.0-0.8","202","5226","9","Male","false","true","true","true","""event"",""trial"",""time""
""blur"",""2"",""3124""
""focus"",""2"",""7810""
""fullscreenenter"",""5"",""16245""
","""event"",""trial"",""time""
""blur"",""2"",""3124""
","""event"",""trial"",""time""
""focus"",""2"",""7810""
","""event"",""trial"",""time""
""fullscreenenter"",""5"",""16245""
","
","370","","49","","","3000","1","","","images/earth.jpg","images/rocket1","images/rocket2","null","images/rocket2","","1","real","null","1","","",""
"d3-animate-choice","160","558447","0.0-76.0-1.8","202","5226","9","Male","false","true","true","true","""event"",""trial"",""time""
""blur"",""2"",""3124""
""focus"",""2"",""7810""
""fullscreenenter"",""5"",""16245""
","""event"",""trial"",""time""
""blur"",""2"",""3124""
","""event"",""trial"",""time""
""focus"",""2"",""7810""
","""event"",""trial"",""time""
""fullscreenenter"",""5"",""16245""
","
","1122.6000000014901","","49","","","3000","1","","","images/purpleplanet.jpg","images/alien4","images/alien3","images/rocket2","images/alien3","images/nothing.png","2","real","true","1","common","0","2022-12-16 21:33:49.519"
"two-step-fixation","161","559455","0.0-76.0-2.8","202","5226","9","Male","false","true","true","true","""event"",""trial"",""time""
""blur"",""2"",""3124""
""focus"",""2"",""7810""
""fullscreenenter"",""5"",""16245""
","""event"",""trial"",""time""
""blur"",""2"",""3124""
","""event"",""trial"",""time""
""focus"",""2"",""7810""
","""event"",""trial"",""time""
""fullscreenenter"",""5"",""16245""
","
","","images/earth.jpg","","","","","","","","","","","","","","fixation","","","","","",""
"d3-animate-choice","162","562320","0.0-76.0-0.9","202","5226","9","Male","false","true","true","true","""event"",""trial"",""time""
""blur"",""2"",""3124""
""focus"",""2"",""7810""
""fullscreenenter"",""5"",""16245""
","""event"",""trial"",""time""
""blur"",""2"",""3124""
","""event"",""trial"",""time""
""focus"",""2"",""7810""
","""event"",""trial"",""time""
""fullscreenenter"",""5"",""16245""
","
","858.1999999992549","","49","","","3000","1","","","images/earth.jpg","images/rocket1","images/rocket2","null","images/rocket2","","1","real","null","1","","",""
"d3-animate-choice","163","564960","0.0-76.0-1.9","202","5226","9","Male","false","true","true","true","""event"",""trial"",""time""
""blur"",""2"",""3124""
""focus"",""2"",""7810""
""fullscreenenter"",""5"",""16245""
","""event"",""trial"",""time""
""blur"",""2"",""3124""
","""event"",""trial"",""time""
""focus"",""2"",""7810""
","""event"",""trial"",""time""
""fullscreenenter"",""5"",""16245""
","
","633.5999999977648","","48","","","3000","1","","","images/purpleplanet.jpg","images/alien4","images/alien3","images/rocket2","images/alien4","images/t.png","2","real","true","2","common","1","2022-12-16 21:33:56.032"
"two-step-fixation","164","565967","0.0-76.0-2.9","202","5226","9","Male","false","true","true","true","""event"",""trial"",""time""
""blur"",""2"",""3124""
""focus"",""2"",""7810""
""fullscreenenter"",""5"",""16245""
","""event"",""trial"",""time""
""blur"",""2"",""3124""
","""event"",""trial"",""time""
""focus"",""2"",""7810""
","""event"",""trial"",""time""
""fullscreenenter"",""5"",""16245""
","
","","images/earth.jpg","","","","","","","","","","","","","","fixation","","","","","",""
"d3-animate-choice","165","568296","0.0-76.0-0.10","202","5226","9","Male","false","true","true","true","""event"",""trial"",""time""
""blur"",""2"",""3124""
""focus"",""2"",""7810""
""fullscreenenter"",""5"",""16245""
","""event"",""trial"",""time""
""blur"",""2"",""3124""
","""event"",""trial"",""time""
""focus"",""2"",""7810""
","""event"",""trial"",""time""
""fullscreenenter"",""5"",""16245""
","
","322.8999999985099","","49","","","3000","1","","","images/earth.jpg","images/rocket1","images/rocket2","null","images/rocket2","","1","real","null","1","","",""
"d3-animate-choice","166","572306","0.0-76.0-1.10","202","5226","9","Male","false","true","true","true","""event"",""trial"",""time""
""blur"",""2"",""3124""
""focus"",""2"",""7810""
""fullscreenenter"",""5"",""16245""
","""event"",""trial"",""time""
""blur"",""2"",""3124""
","""event"",""trial"",""time""
""focus"",""2"",""7810""
","""event"",""trial"",""time""
""fullscreenenter"",""5"",""16245""
","
","2441.699999999255","","49","","","3000","1","","","images/redplanet1.jpg","images/alien2","images/alien1","images/rocket2","images/alien1","images/t.png","2","real","false","1","rare","1","2022-12-16 21:34:03.378"
"two-step-fixation","167","573312","0.0-76.0-2.10","202","5226","9","Male","false","true","true","true","""event"",""trial"",""time""
""blur"",""2"",""3124""
""focus"",""2"",""7810""
""fullscreenenter"",""5"",""16245""
","""event"",""trial"",""time""
""blur"",""2"",""3124""
","""event"",""trial"",""time""
""focus"",""2"",""7810""
","""event"",""trial"",""time""
""fullscreenenter"",""5"",""16245""
","
","","images/earth.jpg","","","","","","","","","","","","","","fixation","","","","","",""
"d3-animate-choice","168","576832","0.0-76.0-0.11","202","5226","9","Male","false","true","true","true","""event"",""trial"",""time""
""blur"",""2"",""3124""
""focus"",""2"",""7810""
""fullscreenenter"",""5"",""16245""
","""event"",""trial"",""time""
""blur"",""2"",""3124""
","""event"",""trial"",""time""
""focus"",""2"",""7810""
","""event"",""trial"",""time""
""fullscreenenter"",""5"",""16245""
","
","1514.3999999985099","","49","","","3000","1","","","images/earth.jpg","images/rocket1","images/rocket2","null","images/rocket2","","1","real","null","1","","",""
"d3-animate-choice","169","580632","0.0-76.0-1.11","202","5226","9","Male","false","true","true","true","""event"",""trial"",""time""
""blur"",""2"",""3124""
""focus"",""2"",""7810""
""fullscreenenter"",""5"",""16245""
","""event"",""trial"",""time""
""blur"",""2"",""3124""
","""event"",""trial"",""time""
""focus"",""2"",""7810""
","""event"",""trial"",""time""
""fullscreenenter"",""5"",""16245""
","
","1793.6000000014901","","48","","","3000","1","","","images/purpleplanet.jpg","images/alien4","images/alien3","images/rocket2","images/alien4","images/t.png","2","real","true","2","common","1","2022-12-16 21:34:11.704"
"two-step-fixation","170","581650","0.0-76.0-2.11","202","5226","9","Male","false","true","true","true","""event"",""trial"",""time""
""blur"",""2"",""3124""
""focus"",""2"",""7810""
""fullscreenenter"",""5"",""16245""
","""event"",""trial"",""time""
""blur"",""2"",""3124""
","""event"",""trial"",""time""
""focus"",""2"",""7810""
","""event"",""trial"",""time""
""fullscreenenter"",""5"",""16245""
","
","","images/earth.jpg","","","","","","","","","","","","","","fixation","","","","","",""
"d3-animate-choice","171","583984","0.0-76.0-0.12","202","5226","9","Male","false","true","true","true","""event"",""trial"",""time""
""blur"",""2"",""3124""
""focus"",""2"",""7810""
""fullscreenenter"",""5"",""16245""
","""event"",""trial"",""time""
""blur"",""2"",""3124""
","""event"",""trial"",""time""
""focus"",""2"",""7810""
","""event"",""trial"",""time""
""fullscreenenter"",""5"",""16245""
","
","327.80000000074506","","49","","","3000","1","","","images/earth.jpg","images/rocket1","images/rocket2","null","images/rocket2","","1","real","null","1","","",""
"d3-animate-choice","172","586776","0.0-76.0-1.12","202","5226","9","Male","false","true","true","true","""event"",""trial"",""time""
""blur"",""2"",""3124""
""focus"",""2"",""7810""
""fullscreenenter"",""5"",""16245""
","""event"",""trial"",""time""
""blur"",""2"",""3124""
","""event"",""trial"",""time""
""focus"",""2"",""7810""
","""event"",""trial"",""time""
""fullscreenenter"",""5"",""16245""
","
","786","","48","","","3000","1","","","images/purpleplanet.jpg","images/alien4","images/alien3","images/rocket2","images/alien4","images/t.png","2","real","true","2","common","1","2022-12-16 21:34:17.848"
"two-step-fixation","173","587784","0.0-76.0-2.12","202","5226","9","Male","false","true","true","true","""event"",""trial"",""time""
""blur"",""2"",""3124""
""focus"",""2"",""7810""
""fullscreenenter"",""5"",""16245""
","""event"",""trial"",""time""
""blur"",""2"",""3124""
","""event"",""trial"",""time""
""focus"",""2"",""7810""
","""event"",""trial"",""time""
""fullscreenenter"",""5"",""16245""
","
","","images/earth.jpg","","","","","","","","","","","","","","fixation","","","","","",""
"d3-animate-choice","174","590135","0.0-76.0-0.13","202","5226","9","Male","false","true","true","true","""event"",""trial"",""time""
""blur"",""2"",""3124""
""focus"",""2"",""7810""
""fullscreenenter"",""5"",""16245""
","""event"",""trial"",""time""
""blur"",""2"",""3124""
","""event"",""trial"",""time""
""focus"",""2"",""7810""
","""event"",""trial"",""time""
""fullscreenenter"",""5"",""16245""
","
","346.19999999925494","","49","","","3000","1","","","images/earth.jpg","images/rocket1","images/rocket2","null","images/rocket2","","1","real","null","1","","",""
"d3-animate-choice","175","593199","0.0-76.0-1.13","202","5226","9","Male","false","true","true","true","""event"",""trial"",""time""
""blur"",""2"",""3124""
""focus"",""2"",""7810""
""fullscreenenter"",""5"",""16245""
","""event"",""trial"",""time""
""blur"",""2"",""3124""
","""event"",""trial"",""time""
""focus"",""2"",""7810""
","""event"",""trial"",""time""
""fullscreenenter"",""5"",""16245""
","
","1058.6000000014901","","48","","","3000","1","","","images/purpleplanet.jpg","images/alien4","images/alien3","images/rocket2","images/alien4","images/t.png","2","real","true","2","common","1","2022-12-16 21:34:24.271"
"two-step-fixation","176","594206","0.0-76.0-2.13","202","5226","9","Male","false","true","true","true","""event"",""trial"",""time""
""blur"",""2"",""3124""
""focus"",""2"",""7810""
""fullscreenenter"",""5"",""16245""
","""event"",""trial"",""time""
""blur"",""2"",""3124""
","""event"",""trial"",""time""
""focus"",""2"",""7810""
","""event"",""trial"",""time""
""fullscreenenter"",""5"",""16245""
","
","","images/earth.jpg","","","","","","","","","","","","","","fixation","","","","","",""
"d3-animate-choice","177","596568","0.0-76.0-0.14","202","5226","9","Male","false","true","true","true","""event"",""trial"",""time""
""blur"",""2"",""3124""
""focus"",""2"",""7810""
""fullscreenenter"",""5"",""16245""
","""event"",""trial"",""time""
""blur"",""2"",""3124""
","""event"",""trial"",""time""
""focus"",""2"",""7810""
","""event"",""trial"",""time""
""fullscreenenter"",""5"",""16245""
","
","356.29999999701977","","49","","","3000","1","","","images/earth.jpg","images/rocket1","images/rocket2","null","images/rocket2","","1","real","null","1","","",""
"d3-animate-choice","178","599323","0.0-76.0-1.14","202","5226","9","Male","false","true","true","true","""event"",""trial"",""time""
""blur"",""2"",""3124""
""focus"",""2"",""7810""
""fullscreenenter"",""5"",""16245""
","""event"",""trial"",""time""
""blur"",""2"",""3124""
","""event"",""trial"",""time""
""focus"",""2"",""7810""
","""event"",""trial"",""time""
""fullscreenenter"",""5"",""16245""
","
","753.1000000014901","","48","","","3000","1","","","images/purpleplanet.jpg","images/alien4","images/alien3","images/rocket2","images/alien4","images/t.png","2","real","true","2","common","1","2022-12-16 21:34:30.395"
"two-step-fixation","179","600328","0.0-76.0-2.14","202","5226","9","Male","false","true","true","true","""event"",""trial"",""time""
""blur"",""2"",""3124""
""focus"",""2"",""7810""
""fullscreenenter"",""5"",""16245""
","""event"",""trial"",""time""
""blur"",""2"",""3124""
","""event"",""trial"",""time""
""focus"",""2"",""7810""
","""event"",""trial"",""time""
""fullscreenenter"",""5"",""16245""
","
","","images/earth.jpg","","","","","","","","","","","","","","fixation","","","","","",""
"d3-animate-choice","180","602752","0.0-76.0-0.15","202","5226","9","Male","false","true","true","true","""event"",""trial"",""time""
""blur"",""2"",""3124""
""focus"",""2"",""7810""
""fullscreenenter"",""5"",""16245""
","""event"",""trial"",""time""
""blur"",""2"",""3124""
