"trial_type","trial_index","time_elapsed","internal_node_id","participant_id","subject_id","age","gender","rocket_sides","red_planet_first_rocket","red_display_order","purple_display_order","interactions","blur_events","focus_events","fullscreenenter_events","fullscreenexit_events","rt","stimulus","key_press","button_pressed","success","duration","valid_pressed","rts","keys","planet_text","right_text","left_text","center_text","chosen_text","reward_text","trial_stage","practice_trial","transition_type","choice","transition","reward","timestamp"
"pavlovia","0","4","0.0-0.0","877","669","25","Male","true","false","true","true","""event"",""trial"",""time""
""focus"",""1"",""4571""
","
","""event"",""trial"",""time""
""focus"",""1"",""4571""
","
","
","","","","","","","","","","","","","","","","","","","","","",""
"html-keyboard-response","1","6083","0.0-1.0","877","669","25","Male","true","false","true","true","""event"",""trial"",""time""
""focus"",""1"",""4571""
","
","""event"",""trial"",""time""
""focus"",""1"",""4571""
","
","
","6077.699999988079","Welcome! Press the space bar to begin.","32","","","","","","","","","","","","","","","","","","",""
"audio-keyboard-response","2","9650","0.0-2.0","877","669","25","Male","true","false","true","true","""event"",""trial"",""time""
""focus"",""1"",""4571""
","
","""event"",""trial"",""time""
""focus"",""1"",""4571""
","
","
","3460","audio/beep_loop.wav","32","","","","","","","","","","","","","","","","","","",""
"audio-button-response","3","13296","0.0-3.0","877","669","25","Male","true","false","true","true","""event"",""trial"",""time""
""focus"",""1"",""4571""
","
","""event"",""trial"",""time""
""focus"",""1"",""4571""
","
","
","NaN","audio/fish.mp3","","1","","","","","","","","","","","","","","","","","",""
"audio-button-response","4","16069","0.0-4.0","877","669","25","Male","true","false","true","true","""event"",""trial"",""time""
""focus"",""1"",""4571""
""fullscreenenter"",""5"",""18431""
","
","""event"",""trial"",""time""
""focus"",""1"",""4571""
","""event"",""trial"",""time""
""fullscreenenter"",""5"",""18431""
","
","NaN","audio/tiger.mp3","","4","","","","","","","","","","","","","","","","","",""
"fullscreen","5","19392","0.0-5.0","877","669","25","Male","true","false","true","true","""event"",""trial"",""time""
""focus"",""1"",""4571""
""fullscreenenter"",""5"",""18431""
","
","""event"",""trial"",""time""
""focus"",""1"",""4571""
","""event"",""trial"",""time""
""fullscreenenter"",""5"",""18431""
","
","","","","","true","","","","","","","","","","","","","","","","",""
"d3-instructions","6","34579","0.0-6.0","877","669","25","Male","true","false","true","true","""event"",""trial"",""time""
""focus"",""1"",""4571""
""fullscreenenter"",""5"",""18431""
","
","""event"",""trial"",""time""
""focus"",""1"",""4571""
","""event"",""trial"",""time""
""fullscreenenter"",""5"",""18431""
","
","","","","","","","","","","","","","","","","","","","","","",""
"d3-instructions","7","47746","0.0-7.0","877","669","25","Male","true","false","true","true","""event"",""trial"",""time""
""focus"",""1"",""4571""
""fullscreenenter"",""5"",""18431""
","
","""event"",""trial"",""time""
""focus"",""1"",""4571""
","""event"",""trial"",""time""
""fullscreenenter"",""5"",""18431""
","
","","","","","","","","","","","","","","","","","","","","","",""
"d3-instructions","8","56866","0.0-8.0","877","669","25","Male","true","false","true","true","""event"",""trial"",""time""
""focus"",""1"",""4571""
""fullscreenenter"",""5"",""18431""
","
","""event"",""trial"",""time""
""focus"",""1"",""4571""
","""event"",""trial"",""time""
""fullscreenenter"",""5"",""18431""
","
","","","","","","","","","","","","","","","","","","","","","",""
"d3-instructions","9","69058","0.0-9.0","877","669","25","Male","true","false","true","true","""event"",""trial"",""time""
""focus"",""1"",""4571""
""fullscreenenter"",""5"",""18431""
","
","""event"",""trial"",""time""
""focus"",""1"",""4571""
","""event"",""trial"",""time""
""fullscreenenter"",""5"",""18431""
","
","","","","","","","","","","","","","","","","","","","","","",""
"d3-instructions","10","88842","0.0-10.0","877","669","25","Male","true","false","true","true","""event"",""trial"",""time""
""focus"",""1"",""4571""
""fullscreenenter"",""5"",""18431""
","
","""event"",""trial"",""time""
""focus"",""1"",""4571""
","""event"",""trial"",""time""
""fullscreenenter"",""5"",""18431""
","
","","","","","","","","","","","","","","","","","","","","","",""
"d3-animate-choice","11","92618","0.0-11.0","877","669","25","Male","true","false","true","true","""event"",""trial"",""time""
""focus"",""1"",""4571""
""fullscreenenter"",""5"",""18431""
","
","""event"",""trial"",""time""
""focus"",""1"",""4571""
","""event"",""trial"",""time""
""fullscreenenter"",""5"",""18431""
","
","1760.800000011921","","49","","","3000","1","3345.5","48","images/tutgreenplanet.jpg","images/tutalien1","images/tutalien2","null","images/tutalien2","","NA","practice","null","","","",""
"d3-animate-choice","12","94985","0.0-12.0","877","669","25","Male","true","false","true","true","""event"",""trial"",""time""
""focus"",""1"",""4571""
""fullscreenenter"",""5"",""18431""
","
","""event"",""trial"",""time""
""focus"",""1"",""4571""
","""event"",""trial"",""time""
""fullscreenenter"",""5"",""18431""
","
","355.5","","48","","","3000","1","","","images/tutgreenplanet.jpg","images/tutalien1","images/tutalien2","null","images/tutalien1","","NA","practice","null","","","",""
"d3-animate-choice","13","97578","0.0-13.0","877","669","25","Male","true","false","true","true","""event"",""trial"",""time""
""focus"",""1"",""4571""
""fullscreenenter"",""5"",""18431""
","
","""event"",""trial"",""time""
""focus"",""1"",""4571""
","""event"",""trial"",""time""
""fullscreenenter"",""5"",""18431""
","
","583.5","","49","","","3000","1","","","images/tutgreenplanet.jpg","images/tutalien1","images/tutalien2","null","images/tutalien2","","NA","practice","null","","","",""
"d3-animate-choice","14","99958","0.0-14.0","877","669","25","Male","true","false","true","true","""event"",""trial"",""time""
""focus"",""1"",""4571""
""fullscreenenter"",""5"",""18431""
","
","""event"",""trial"",""time""
""focus"",""1"",""4571""
","""event"",""trial"",""time""
""fullscreenenter"",""5"",""18431""
","
","372.5999999642372","","48","","","3000","1","","","images/tutgreenplanet.jpg","images/tutalien1","images/tutalien2","null","images/tutalien1","","NA","practice","null","","","",""
"d3-instructions","15","109090","0.0-15.0","877","669","25","Male","true","false","true","true","""event"",""trial"",""time""
""focus"",""1"",""4571""
""fullscreenenter"",""5"",""18431""
","
","""event"",""trial"",""time""
""focus"",""1"",""4571""
","""event"",""trial"",""time""
""fullscreenenter"",""5"",""18431""
","
","","","","","","","","","","","","","","","","","","","","","",""
"d3-instructions","16","118330","0.0-16.0","877","669","25","Male","true","false","true","true","""event"",""trial"",""time""
""focus"",""1"",""4571""
""fullscreenenter"",""5"",""18431""
","
","""event"",""trial"",""time""
""focus"",""1"",""4571""
","""event"",""trial"",""time""
""fullscreenenter"",""5"",""18431""
","
","","","","","","","","","","","","","","","","","","","","","",""
"d3-instructions","17","130330","0.0-17.0","877","669","25","Male","true","false","true","true","""event"",""trial"",""time""
""focus"",""1"",""4571""
""fullscreenenter"",""5"",""18431""
","
","""event"",""trial"",""time""
""focus"",""1"",""4571""
","""event"",""trial"",""time""
""fullscreenenter"",""5"",""18431""
","
","","","","","","","","","","","","","","","","","","","","","",""
"d3-instructions","18","146471","0.0-18.0","877","669","25","Male","true","false","true","true","""event"",""trial"",""time""
""focus"",""1"",""4571""
""fullscreenenter"",""5"",""18431""
","
","""event"",""trial"",""time""
""focus"",""1"",""4571""
","""event"",""trial"",""time""
""fullscreenenter"",""5"",""18431""
","
","","","","","","","","","","","","","","","","","","","","","",""
"d3-instructions","19","161458","0.0-19.0","877","669","25","Male","true","false","true","true","""event"",""trial"",""time""
""focus"",""1"",""4571""
""fullscreenenter"",""5"",""18431""
","
","""event"",""trial"",""time""
""focus"",""1"",""4571""
","""event"",""trial"",""time""
""fullscreenenter"",""5"",""18431""
","
","","","","","","","","","","","","","","","","","","","","","",""
"d3-animate-choice","20","163894","0.0-20.0","877","669","25","Male","true","false","true","true","""event"",""trial"",""time""
""focus"",""1"",""4571""
""fullscreenenter"",""5"",""18431""
","
","""event"",""trial"",""time""
""focus"",""1"",""4571""
","""event"",""trial"",""time""
""fullscreenenter"",""5"",""18431""
","
","428.0999999642372","","49","","","3000","1","","","images/tutyellowplanet.jpg","null","images/tutalien3","null","images/tutalien3","images/t.png","NA","practice","null","","","",""
"d3-animate-choice","21","166229","0.0-21.0","877","669","25","Male","true","false","true","true","""event"",""trial"",""time""
""focus"",""1"",""4571""
""fullscreenenter"",""5"",""18431""
","
","""event"",""trial"",""time""
""focus"",""1"",""4571""
","""event"",""trial"",""time""
""fullscreenenter"",""5"",""18431""
","
","327.89999997615814","","49","","","3000","1","1847.5999999642372","49","images/tutyellowplanet.jpg","null","images/tutalien3","null","images/tutalien3","images/t.png","NA","practice","null","","","",""
"d3-animate-choice","22","168576","0.0-22.0","877","669","25","Male","true","false","true","true","""event"",""trial"",""time""
""focus"",""1"",""4571""
""fullscreenenter"",""5"",""18431""
","
","""event"",""trial"",""time""
""focus"",""1"",""4571""
","""event"",""trial"",""time""
""fullscreenenter"",""5"",""18431""
","
","337.19999998807907","","49","","","3000","1","","","images/tutyellowplanet.jpg","null","images/tutalien3","null","images/tutalien3","images/t.png","NA","practice","null","","","",""
"d3-animate-choice","23","170878","0.0-23.0","877","669","25","Male","true","false","true","true","""event"",""trial"",""time""
""focus"",""1"",""4571""
""fullscreenenter"",""5"",""18431""
","
","""event"",""trial"",""time""
""focus"",""1"",""4571""
","""event"",""trial"",""time""
""fullscreenenter"",""5"",""18431""
","
","294.5","","49","","","3000","1","","","images/tutyellowplanet.jpg","null","images/tutalien3","null","images/tutalien3","images/t.png","NA","practice","null","","","",""
"d3-animate-choice","24","173128","0.0-24.0","877","669","25","Male","true","false","true","true","""event"",""trial"",""time""
""focus"",""1"",""4571""
""fullscreenenter"",""5"",""18431""
","
","""event"",""trial"",""time""
""focus"",""1"",""4571""
","""event"",""trial"",""time""
""fullscreenenter"",""5"",""18431""
","
","241.30000001192093","","49","","","3000","1","1704.2000000476837","49","images/tutyellowplanet.jpg","null","images/tutalien3","null","images/tutalien3","images/t.png","NA","practice","null","","","",""
"d3-animate-choice","25","175407","0.0-25.0","877","669","25","Male","true","false","true","true","""event"",""trial"",""time""
""focus"",""1"",""4571""
""fullscreenenter"",""5"",""18431""
","
","""event"",""trial"",""time""
""focus"",""1"",""4571""
","""event"",""trial"",""time""
""fullscreenenter"",""5"",""18431""
","
","270.69999998807907","","49","","","3000","1","","","images/tutyellowplanet.jpg","null","images/tutalien3","null","images/tutalien3","images/t.png","NA","practice","null","","","",""
"d3-animate-choice","26","177916","0.0-26.0","877","669","25","Male","true","false","true","true","""event"",""trial"",""time""
""focus"",""1"",""4571""
""fullscreenenter"",""5"",""18431""
","
","""event"",""trial"",""time""
""focus"",""1"",""4571""
","""event"",""trial"",""time""
""fullscreenenter"",""5"",""18431""
","
","503.5","","49","","","3000","1","","","images/tutyellowplanet.jpg","null","images/tutalien3","null","images/tutalien3","images/t.png","NA","practice","null","","","",""
"d3-animate-choice","27","180387","0.0-27.0","877","669","25","Male","true","false","true","true","""event"",""trial"",""time""
""focus"",""1"",""4571""
""fullscreenenter"",""5"",""18431""
","
","""event"",""trial"",""time""
""focus"",""1"",""4571""
","""event"",""trial"",""time""
""fullscreenenter"",""5"",""18431""
","
","466.39999997615814","","49","","","3000","1","","","images/tutyellowplanet.jpg","null","images/tutalien3","null","images/tutalien3","images/t.png","NA","practice","null","","","",""
"d3-animate-choice","28","182923","0.0-28.0","877","669","25","Male","true","false","true","true","""event"",""trial"",""time""
""focus"",""1"",""4571""
""fullscreenenter"",""5"",""18431""
","
","""event"",""trial"",""time""
""focus"",""1"",""4571""
","""event"",""trial"",""time""
""fullscreenenter"",""5"",""18431""
","
","531.3999999761581","","49","","","3000","1","","","images/tutyellowplanet.jpg","null","images/tutalien3","null","images/tutalien3","images/t.png","NA","practice","null","","","",""
"d3-animate-choice","29","185341","0.0-29.0","877","669","25","Male","true","false","true","true","""event"",""trial"",""time""
""focus"",""1"",""4571""
""fullscreenenter"",""5"",""18431""
","
","""event"",""trial"",""time""
""focus"",""1"",""4571""
","""event"",""trial"",""time""
""fullscreenenter"",""5"",""18431""
","
","412.7000000476837","","49","","","3000","1","","","images/tutyellowplanet.jpg","null","images/tutalien3","null","images/tutalien3","images/t.png","NA","practice","null","","","",""
"d3-instructions","30","194427","0.0-30.0","877","669","25","Male","true","false","true","true","""event"",""trial"",""time""
""focus"",""1"",""4571""
""fullscreenenter"",""5"",""18431""
","
","""event"",""trial"",""time""
""focus"",""1"",""4571""
","""event"",""trial"",""time""
""fullscreenenter"",""5"",""18431""
","
","","","","","","","","","","","","","","","","","","","","","",""
"d3-instructions","31","207682","0.0-31.0","877","669","25","Male","true","false","true","true","""event"",""trial"",""time""
""focus"",""1"",""4571""
""fullscreenenter"",""5"",""18431""
","
","""event"",""trial"",""time""
""focus"",""1"",""4571""
","""event"",""trial"",""time""
""fullscreenenter"",""5"",""18431""
","
","","","","","","","","","","","","","","","","","","","","","",""
"d3-instructions","32","216289","0.0-32.0","877","669","25","Male","true","false","true","true","""event"",""trial"",""time""
""focus"",""1"",""4571""
""fullscreenenter"",""5"",""18431""
","
","""event"",""trial"",""time""
""focus"",""1"",""4571""
","""event"",""trial"",""time""
""fullscreenenter"",""5"",""18431""
","
","","","","","","","","","","","","","","","","","","","","","",""
"d3-instructions","33","227930","0.0-33.0","877","669","25","Male","true","false","true","true","""event"",""trial"",""time""
""focus"",""1"",""4571""
""fullscreenenter"",""5"",""18431""
","
","""event"",""trial"",""time""
""focus"",""1"",""4571""
","""event"",""trial"",""time""
""fullscreenenter"",""5"",""18431""
","
","","","","","","","","","","","","","","","","","","","","","",""
"d3-animate-choice","34","230712","0.0-34.0","877","669","25","Male","true","false","true","true","""event"",""trial"",""time""
""focus"",""1"",""4571""
""fullscreenenter"",""5"",""18431""
","
","""event"",""trial"",""time""
""focus"",""1"",""4571""
","""event"",""trial"",""time""
""fullscreenenter"",""5"",""18431""
","
","773","","49","","","3000","1","","","images/tutgreenplanet.jpg","images/tutalien1","images/tutalien2","null","images/tutalien2","images/t.png","NA","practice","null","","","",""
"d3-animate-choice","35","233247","0.0-35.0","877","669","25","Male","true","false","true","true","""event"",""trial"",""time""
""focus"",""1"",""4571""
""fullscreenenter"",""5"",""18431""
","
","""event"",""trial"",""time""
""focus"",""1"",""4571""
","""event"",""trial"",""time""
""fullscreenenter"",""5"",""18431""
","
","526.6000000238419","","49","","","3000","1","","","images/tutgreenplanet.jpg","images/tutalien1","images/tutalien2","null","images/tutalien2","images/t.png","NA","practice","null","","","",""
"d3-animate-choice","36","235791","0.0-36.0","877","669","25","Male","true","false","true","true","""event"",""trial"",""time""
""focus"",""1"",""4571""
""fullscreenenter"",""5"",""18431""
","
","""event"",""trial"",""time""
""focus"",""1"",""4571""
","""event"",""trial"",""time""
""fullscreenenter"",""5"",""18431""
","
","534.5","","49","","","3000","1","","","images/tutgreenplanet.jpg","images/tutalien1","images/tutalien2","null","images/tutalien2","images/t.png","NA","practice","null","","","",""
"d3-animate-choice","37","238045","0.0-37.0","877","669","25","Male","true","false","true","true","""event"",""trial"",""time""
""focus"",""1"",""4571""
""fullscreenenter"",""5"",""18431""
","
","""event"",""trial"",""time""
""focus"",""1"",""4571""
","""event"",""trial"",""time""
""fullscreenenter"",""5"",""18431""
","
","247","","49","","","3000","1","","","images/tutgreenplanet.jpg","images/tutalien1","images/tutalien2","null","images/tutalien2","images/t.png","NA","practice","null","","","",""
"d3-animate-choice","38","240390","0.0-38.0","877","669","25","Male","true","false","true","true","""event"",""trial"",""time""
""focus"",""1"",""4571""
""fullscreenenter"",""5"",""18431""
","
","""event"",""trial"",""time""
""focus"",""1"",""4571""
","""event"",""trial"",""time""
""fullscreenenter"",""5"",""18431""
","
","338.0999999642372","","49","","","3000","1","","","images/tutgreenplanet.jpg","images/tutalien1","images/tutalien2","null","images/tutalien2","images/t.png","NA","practice","null","","","",""
"d3-animate-choice","39","242939","0.0-39.0","877","669","25","Male","true","false","true","true","""event"",""trial"",""time""
""focus"",""1"",""4571""
""fullscreenenter"",""5"",""18431""
","
","""event"",""trial"",""time""
""focus"",""1"",""4571""
","""event"",""trial"",""time""
""fullscreenenter"",""5"",""18431""
","
","543.7000000476837","","49","","","3000","1","","","images/tutgreenplanet.jpg","images/tutalien1","images/tutalien2","null","images/tutalien2","images/t.png","NA","practice","null","","","",""
"d3-animate-choice","40","245253","0.0-40.0","877","669","25","Male","true","false","true","true","""event"",""trial"",""time""
""focus"",""1"",""4571""
""fullscreenenter"",""5"",""18431""
","
","""event"",""trial"",""time""
""focus"",""1"",""4571""
","""event"",""trial"",""time""
""fullscreenenter"",""5"",""18431""
","
","306.9000000357628","","49","","","3000","1","","","images/tutgreenplanet.jpg","images/tutalien1","images/tutalien2","null","images/tutalien2","images/t.png","NA","practice","null","","","",""
"d3-animate-choice","41","247557","0.0-41.0","877","669","25","Male","true","false","true","true","""event"",""trial"",""time""
""focus"",""1"",""4571""
""fullscreenenter"",""5"",""18431""
","
","""event"",""trial"",""time""
""focus"",""1"",""4571""
","""event"",""trial"",""time""
""fullscreenenter"",""5"",""18431""
","
","299.19999998807907","","49","","","3000","1","","","images/tutgreenplanet.jpg","images/tutalien1","images/tutalien2","null","images/tutalien2","images/t.png","NA","practice","null","","","",""
"d3-animate-choice","42","249925","0.0-42.0","877","669","25","Male","true","false","true","true","""event"",""trial"",""time""
""focus"",""1"",""4571""
""fullscreenenter"",""5"",""18431""
","
","""event"",""trial"",""time""
""focus"",""1"",""4571""
","""event"",""trial"",""time""
""fullscreenenter"",""5"",""18431""
","
","361","","49","","","3000","1","","","images/tutgreenplanet.jpg","images/tutalien1","images/tutalien2","null","images/tutalien2","images/t.png","NA","practice","null","","","",""
"d3-animate-choice","43","252358","0.0-43.0","877","669","25","Male","true","false","true","true","""event"",""trial"",""time""
""focus"",""1"",""4571""
""fullscreenenter"",""5"",""18431""
","
","""event"",""trial"",""time""
""focus"",""1"",""4571""
","""event"",""trial"",""time""
""fullscreenenter"",""5"",""18431""
","
","426.80000001192093","","49","","","3000","1","","","images/tutgreenplanet.jpg","images/tutalien1","images/tutalien2","null","images/tutalien2","images/t.png","NA","practice","null","","","",""
"d3-instructions","44","269418","0.0-44.0","877","669","25","Male","true","false","true","true","""event"",""trial"",""time""
""focus"",""1"",""4571""
""fullscreenenter"",""5"",""18431""
","
","""event"",""trial"",""time""
""focus"",""1"",""4571""
","""event"",""trial"",""time""
""fullscreenenter"",""5"",""18431""
","
","","","","","","","","","","","","","","","","","","","","","",""
"d3-instructions","45","276874","0.0-45.0","877","669","25","Male","true","false","true","true","""event"",""trial"",""time""
""focus"",""1"",""4571""
""fullscreenenter"",""5"",""18431""
","
","""event"",""trial"",""time""
""focus"",""1"",""4571""
","""event"",""trial"",""time""
""fullscreenenter"",""5"",""18431""
","
","","","","","","","","","","","","","","","","","","","","","",""
"d3-instructions","46","283994","0.0-46.0","877","669","25","Male","true","false","true","true","""event"",""trial"",""time""
""focus"",""1"",""4571""
""fullscreenenter"",""5"",""18431""
","
","""event"",""trial"",""time""
""focus"",""1"",""4571""
","""event"",""trial"",""time""
""fullscreenenter"",""5"",""18431""
","
","","","","","","","","","","","","","","","","","","","","","",""
"d3-instructions","47","303779","0.0-47.0","877","669","25","Male","true","false","true","true","""event"",""trial"",""time""
""focus"",""1"",""4571""
""fullscreenenter"",""5"",""18431""
","
","""event"",""trial"",""time""
""focus"",""1"",""4571""
","""event"",""trial"",""time""
""fullscreenenter"",""5"",""18431""
","
","","","","","","","","","","","","","","","","","","","","","",""
"d3-instructions","48","315434","0.0-48.0","877","669","25","Male","true","false","true","true","""event"",""trial"",""time""
""focus"",""1"",""4571""
""fullscreenenter"",""5"",""18431""
","
","""event"",""trial"",""time""
""focus"",""1"",""4571""
","""event"",""trial"",""time""
""fullscreenenter"",""5"",""18431""
","
","","","","","","","","","","","","","","","","","","","","","",""
"d3-instructions","49","326576","0.0-49.0","877","669","25","Male","true","false","true","true","""event"",""trial"",""time""
""focus"",""1"",""4571""
""fullscreenenter"",""5"",""18431""
","
","""event"",""trial"",""time""
""focus"",""1"",""4571""
","""event"",""trial"",""time""
""fullscreenenter"",""5"",""18431""
","
","","","","","","","","","","","","","","","","","","","","","",""
"d3-instructions","50","336889","0.0-50.0","877","669","25","Male","true","false","true","true","""event"",""trial"",""time""
""focus"",""1"",""4571""
""fullscreenenter"",""5"",""18431""
","
","""event"",""trial"",""time""
""focus"",""1"",""4571""
","""event"",""trial"",""time""
""fullscreenenter"",""5"",""18431""
","
","","","","","","","","","","","","","","","","","","","","","",""
"d3-instructions","51","341017","0.0-51.0","877","669","25","Male","true","false","true","true","""event"",""trial"",""time""
""focus"",""1"",""4571""
""fullscreenenter"",""5"",""18431""
","
","""event"",""trial"",""time""
""focus"",""1"",""4571""
","""event"",""trial"",""time""
""fullscreenenter"",""5"",""18431""
","
","","","","","","","","","","","","","","","","","","","","","",""
"d3-instructions","52","344634","0.0-52.0","877","669","25","Male","true","false","true","true","""event"",""trial"",""time""
""focus"",""1"",""4571""
""fullscreenenter"",""5"",""18431""
","
","""event"",""trial"",""time""
""focus"",""1"",""4571""
","""event"",""trial"",""time""
""fullscreenenter"",""5"",""18431""
","
","","","","","","","","","","","","","","","","","","","","","",""
"d3-instructions","53","361011","0.0-53.0","877","669","25","Male","true","false","true","true","""event"",""trial"",""time""
""focus"",""1"",""4571""
""fullscreenenter"",""5"",""18431""
","
","""event"",""trial"",""time""
""focus"",""1"",""4571""
","""event"",""trial"",""time""
""fullscreenenter"",""5"",""18431""
","
","","","","","","","","","","","","","","","","","","","","","",""
"d3-instructions","54","377354","0.0-54.0","877","669","25","Male","true","false","true","true","""event"",""trial"",""time""
""focus"",""1"",""4571""
""fullscreenenter"",""5"",""18431""
","
","""event"",""trial"",""time""
""focus"",""1"",""4571""
","""event"",""trial"",""time""
""fullscreenenter"",""5"",""18431""
","
","","","","","","","","","","","","","","","","","","","","","",""
"d3-instructions","55","388098","0.0-55.0","877","669","25","Male","true","false","true","true","""event"",""trial"",""time""
""focus"",""1"",""4571""
""fullscreenenter"",""5"",""18431""
","
","""event"",""trial"",""time""
""focus"",""1"",""4571""
","""event"",""trial"",""time""
""fullscreenenter"",""5"",""18431""
","
","","","","","","","","","","","","","","","","","","","","","",""
"d3-instructions","56","397323","0.0-56.0","877","669","25","Male","true","false","true","true","""event"",""trial"",""time""
""focus"",""1"",""4571""
""fullscreenenter"",""5"",""18431""
","
","""event"",""trial"",""time""
""focus"",""1"",""4571""
","""event"",""trial"",""time""
""fullscreenenter"",""5"",""18431""
","
","","","","","","","","","","","","","","","","","","","","","",""
"d3-instructions","57","411466","0.0-57.0","877","669","25","Male","true","false","true","true","""event"",""trial"",""time""
""focus"",""1"",""4571""
""fullscreenenter"",""5"",""18431""
","
","""event"",""trial"",""time""
""focus"",""1"",""4571""
","""event"",""trial"",""time""
""fullscreenenter"",""5"",""18431""
","
","","","","","","","","","","","","","","","","","","","","","",""
"d3-instructions","58","425074","0.0-58.0","877","669","25","Male","true","false","true","true","""event"",""trial"",""time""
""focus"",""1"",""4571""
""fullscreenenter"",""5"",""18431""
","
","""event"",""trial"",""time""
""focus"",""1"",""4571""
","""event"",""trial"",""time""
""fullscreenenter"",""5"",""18431""
","
","","","","","","","","","","","","","","","","","","","","","",""
"d3-instructions","59","432065","0.0-59.0","877","669","25","Male","true","false","true","true","""event"",""trial"",""time""
""focus"",""1"",""4571""
""fullscreenenter"",""5"",""18431""
","
","""event"",""trial"",""time""
""focus"",""1"",""4571""
","""event"",""trial"",""time""
""fullscreenenter"",""5"",""18431""
","
","","","","","","","","","","","","","","","","","","","","","",""
"d3-instructions","60","439633","0.0-60.0","877","669","25","Male","true","false","true","true","""event"",""trial"",""time""
""focus"",""1"",""4571""
""fullscreenenter"",""5"",""18431""
","
","""event"",""trial"",""time""
""focus"",""1"",""4571""
","""event"",""trial"",""time""
""fullscreenenter"",""5"",""18431""
","
","","","","","","","","","","","","","","","","","","","","","",""
"d3-animate-choice","61","442508","0.0-61.0-0.0","877","669","25","Male","true","false","true","true","""event"",""trial"",""time""
""focus"",""1"",""4571""
""fullscreenenter"",""5"",""18431""
","
","""event"",""trial"",""time""
""focus"",""1"",""4571""
","""event"",""trial"",""time""
""fullscreenenter"",""5"",""18431""
","
","868.6999999880791","","49","","","3000","1","","","images/earth.jpg","images/tutrocket2","images/tutrocket1","null","images/tutrocket1","","1","practice","null","1","","",""
"d3-animate-choice","62","445520","0.0-61.0-1.0","877","669","25","Male","true","false","true","true","""event"",""trial"",""time""
""focus"",""1"",""4571""
""fullscreenenter"",""5"",""18431""
","
","""event"",""trial"",""time""
""focus"",""1"",""4571""
","""event"",""trial"",""time""
""fullscreenenter"",""5"",""18431""
","
","1000.1999999880791","","49","","","3000","1","","","images/tutgreenplanet.jpg","images/tutalien2","images/tutalien1","images/tutrocket1","images/tutalien1","images/nothing.png","2","practice","false","1","rare","0","2022-02-05 14:00:08.882"
"two-step-fixation","63","446526","0.0-61.0-2.0","877","669","25","Male","true","false","true","true","""event"",""trial"",""time""
""focus"",""1"",""4571""
""fullscreenenter"",""5"",""18431""
","
","""event"",""trial"",""time""
""focus"",""1"",""4571""
","""event"",""trial"",""time""
""fullscreenenter"",""5"",""18431""
","
","","images/earth.jpg","","","","","","","","","","","","","","fixation","","","","","",""
"d3-animate-choice","64","450534","0.0-61.0-0.1","877","669","25","Male","true","false","true","true","""event"",""trial"",""time""
""focus"",""1"",""4571""
""fullscreenenter"",""5"",""18431""
","
","""event"",""trial"",""time""
""focus"",""1"",""4571""
","""event"",""trial"",""time""
""fullscreenenter"",""5"",""18431""
","
","1263.5","","50","","","3000","1","2761","48","images/earth.jpg","images/tutrocket2","images/tutrocket1","null","images/tutrocket2","","1","practice","null","","","",""
"d3-animate-choice","65","454005","0.0-61.0-1.1","877","669","25","Male","true","false","true","true","""event"",""trial"",""time""
""focus"",""1"",""4571""
""fullscreenenter"",""5"",""18431""
","
","""event"",""trial"",""time""
""focus"",""1"",""4571""
","""event"",""trial"",""time""
""fullscreenenter"",""5"",""18431""
","
","1463.6000000238419","","48","","","3000","1","","","images/tutgreenplanet.jpg","images/tutalien2","images/tutalien1","images/tutrocket2","images/tutalien2","images/nothing.png","2","practice","true","2","common","0","2022-02-05 14:00:17.367"
"two-step-fixation","66","455013","0.0-61.0-2.1","877","669","25","Male","true","false","true","true","""event"",""trial"",""time""
""focus"",""1"",""4571""
""fullscreenenter"",""5"",""18431""
","
","""event"",""trial"",""time""
""focus"",""1"",""4571""
","""event"",""trial"",""time""
""fullscreenenter"",""5"",""18431""
","
","","images/earth.jpg","","","","","","","","","","","","","","fixation","","","","","",""
"d3-animate-choice","67","457416","0.0-61.0-0.2","877","669","25","Male","true","false","true","true","""event"",""trial"",""time""
""focus"",""1"",""4571""
""fullscreenenter"",""5"",""18431""
","
","""event"",""trial"",""time""
""focus"",""1"",""4571""
","""event"",""trial"",""time""
""fullscreenenter"",""5"",""18431""
","
","393.5999999642372","","49","","","3000","1","","","images/earth.jpg","images/tutrocket2","images/tutrocket1","null","images/tutrocket1","","1","practice","null","1","","",""
"d3-animate-choice","68","460325","0.0-61.0-1.2","877","669","25","Male","true","false","true","true","""event"",""trial"",""time""
""focus"",""1"",""4571""
""fullscreenenter"",""5"",""18431""
","
","""event"",""trial"",""time""
""focus"",""1"",""4571""
","""event"",""trial"",""time""
""fullscreenenter"",""5"",""18431""
","
","901.9000000357628","","49","","","3000","1","","","images/tutyellowplanet.jpg","images/tutalien4","images/tutalien3","images/tutrocket1","images/tutalien3","images/nothing.png","2","practice","true","1","common","0","2022-02-05 14:00:23.687"
"two-step-fixation","69","461330","0.0-61.0-2.2","877","669","25","Male","true","false","true","true","""event"",""trial"",""time""
""focus"",""1"",""4571""
""fullscreenenter"",""5"",""18431""
","
","""event"",""trial"",""time""
""focus"",""1"",""4571""
","""event"",""trial"",""time""
""fullscreenenter"",""5"",""18431""
","
","","images/earth.jpg","","","","","","","","","","","","","","fixation","","","","","",""
"d3-animate-choice","70","463608","0.0-61.0-0.3","877","669","25","Male","true","false","true","true","""event"",""trial"",""time""
""focus"",""1"",""4571""
""fullscreenenter"",""5"",""18431""
","
","""event"",""trial"",""time""
""focus"",""1"",""4571""
","""event"",""trial"",""time""
""fullscreenenter"",""5"",""18431""
","
","268.69999998807907","","49","","","3000","1","","","images/earth.jpg","images/tutrocket2","images/tutrocket1","null","images/tutrocket1","","1","practice","null","1","","",""
"d3-animate-choice","71","466478","0.0-61.0-1.3","877","669","25","Male","true","false","true","true","""event"",""trial"",""time""
""focus"",""1"",""4571""
""fullscreenenter"",""5"",""18431""
","
","""event"",""trial"",""time""
""focus"",""1"",""4571""
","""event"",""trial"",""time""
""fullscreenenter"",""5"",""18431""
","
","862.5","","49","","","3000","1","","","images/tutgreenplanet.jpg","images/tutalien2","images/tutalien1","images/tutrocket1","images/tutalien1","images/nothing.png","2","practice","false","1","rare","0","2022-02-05 14:00:29.840"
"two-step-fixation","72","467483","0.0-61.0-2.3","877","669","25","Male","true","false","true","true","""event"",""trial"",""time""
""focus"",""1"",""4571""
""fullscreenenter"",""5"",""18431""
","
","""event"",""trial"",""time""
""focus"",""1"",""4571""
","""event"",""trial"",""time""
""fullscreenenter"",""5"",""18431""
","
","","images/earth.jpg","","","","","","","","","","","","","","fixation","","","","","",""
"d3-animate-choice","73","470552","0.0-61.0-0.4","877","669","25","Male","true","false","true","true","""event"",""trial"",""time""
""focus"",""1"",""4571""
""fullscreenenter"",""5"",""18431""
","
","""event"",""trial"",""time""
""focus"",""1"",""4571""
","""event"",""trial"",""time""
""fullscreenenter"",""5"",""18431""
","
","1059.699999988079","","48","","","3000","1","","","images/earth.jpg","images/tutrocket2","images/tutrocket1","null","images/tutrocket2","","1","practice","null","2","","",""
"d3-animate-choice","74","473710","0.0-61.0-1.4","877","669","25","Male","true","false","true","true","""event"",""trial"",""time""
""focus"",""1"",""4571""
""fullscreenenter"",""5"",""18431""
","
","""event"",""trial"",""time""
""focus"",""1"",""4571""
","""event"",""trial"",""time""
""fullscreenenter"",""5"",""18431""
","
","1150.2000000476837","","49","","","3000","1","","","images/tutgreenplanet.jpg","images/tutalien2","images/tutalien1","images/tutrocket2","images/tutalien1","images/t.png","2","practice","true","1","common","1","2022-02-05 14:00:37.072"
"two-step-fixation","75","474719","0.0-61.0-2.4","877","669","25","Male","true","false","true","true","""event"",""trial"",""time""
""focus"",""1"",""4571""
""fullscreenenter"",""5"",""18431""
","
","""event"",""trial"",""time""
""focus"",""1"",""4571""
","""event"",""trial"",""time""
""fullscreenenter"",""5"",""18431""
","
","","images/earth.jpg","","","","","","","","","","","","","","fixation","","","","","",""
"d3-animate-choice","76","478024","0.0-61.0-0.5","877","669","25","Male","true","false","true","true","""event"",""trial"",""time""
""focus"",""1"",""4571""
""fullscreenenter"",""5"",""18431""
","
","""event"",""trial"",""time""
""focus"",""1"",""4571""
","""event"",""trial"",""time""
""fullscreenenter"",""5"",""18431""
","
","1298.4000000357628","","48","","","3000","1","","","images/earth.jpg","images/tutrocket2","images/tutrocket1","null","images/tutrocket2","","1","practice","null","2","","",""
"d3-animate-choice","77","480515","0.0-61.0-1.5","877","669","25","Male","true","false","true","true","""event"",""trial"",""time""
""focus"",""1"",""4571""
""fullscreenenter"",""5"",""18431""
","
","""event"",""trial"",""time""
""focus"",""1"",""4571""
","""event"",""trial"",""time""
""fullscreenenter"",""5"",""18431""
","
","485.2000000476837","","49","","","3000","1","","","images/tutgreenplanet.jpg","images/tutalien2","images/tutalien1","images/tutrocket2","images/tutalien1","images/nothing.png","2","practice","true","1","common","0","2022-02-05 14:00:43.878"
"two-step-fixation","78","481525","0.0-61.0-2.5","877","669","25","Male","true","false","true","true","""event"",""trial"",""time""
""focus"",""1"",""4571""
""fullscreenenter"",""5"",""18431""
","
","""event"",""trial"",""time""
""focus"",""1"",""4571""
","""event"",""trial"",""time""
""fullscreenenter"",""5"",""18431""
","
","","images/earth.jpg","","","","","","","","","","","","","","fixation","","","","","",""
"d3-animate-choice","79","483549","0.0-61.0-0.6","877","669","25","Male","true","false","true","true","""event"",""trial"",""time""
""focus"",""1"",""4571""
""fullscreenenter"",""5"",""18431""
","
","""event"",""trial"",""time""
""focus"",""1"",""4571""
","""event"",""trial"",""time""
""fullscreenenter"",""5"",""18431""
","
","15.899999976158142","","49","","","3000","1","","","images/earth.jpg","images/tutrocket2","images/tutrocket1","null","images/tutrocket1","","1","practice","null","1","","",""
"d3-animate-choice","80","486029","0.0-61.0-1.6","877","669","25","Male","true","false","true","true","""event"",""trial"",""time""
""focus"",""1"",""4571""
""fullscreenenter"",""5"",""18431""
","
","""event"",""trial"",""time""
""focus"",""1"",""4571""
","""event"",""trial"",""time""
""fullscreenenter"",""5"",""18431""
","
","474.69999998807907","","48","","","3000","1","","","images/tutyellowplanet.jpg","images/tutalien4","images/tutalien3","images/tutrocket1","images/tutalien4","images/t.png","2","practice","true","2","common","1","2022-02-05 14:00:49.391"
"two-step-fixation","81","487034","0.0-61.0-2.6","877","669","25","Male","true","false","true","true","""event"",""trial"",""time""
""focus"",""1"",""4571""
""fullscreenenter"",""5"",""18431""
","
","""event"",""trial"",""time""
""focus"",""1"",""4571""
","""event"",""trial"",""time""
""fullscreenenter"",""5"",""18431""
","
","","images/earth.jpg","","","","","","","","","","","","","","fixation","","","","","",""
"d3-animate-choice","82","489324","0.0-61.0-0.7","877","669","25","Male","true","false","true","true","""event"",""trial"",""time""
""focus"",""1"",""4571""
""fullscreenenter"",""5"",""18431""
","
","""event"",""trial"",""time""
""focus"",""1"",""4571""
","""event"",""trial"",""time""
""fullscreenenter"",""5"",""18431""
","
","283.4000000357628","","49","","","3000","1","","","images/earth.jpg","images/tutrocket2","images/tutrocket1","null","images/tutrocket1","","1","practice","null","1","","",""
"d3-animate-choice","83","491798","0.0-61.0-1.7","877","669","25","Male","true","false","true","true","""event"",""trial"",""time""
""focus"",""1"",""4571""
""fullscreenenter"",""5"",""18431""
","
","""event"",""trial"",""time""
""focus"",""1"",""4571""
","""event"",""trial"",""time""
""fullscreenenter"",""5"",""18431""
","
","465.89999997615814","","48","","","3000","1","","","images/tutyellowplanet.jpg","images/tutalien4","images/tutalien3","images/tutrocket1","images/tutalien4","images/t.png","2","practice","true","2","common","1","2022-02-05 14:00:55.160"
"two-step-fixation","84","492807","0.0-61.0-2.7","877","669","25","Male","true","false","true","true","""event"",""trial"",""time""
""focus"",""1"",""4571""
""fullscreenenter"",""5"",""18431""
","
","""event"",""trial"",""time""
""focus"",""1"",""4571""
","""event"",""trial"",""time""
""fullscreenenter"",""5"",""18431""
","
","","images/earth.jpg","","","","","","","","","","","","","","fixation","","","","","",""
"d3-animate-choice","85","495318","0.0-61.0-0.8","877","669","25","Male","true","false","true","true","""event"",""trial"",""time""
""focus"",""1"",""4571""
""fullscreenenter"",""5"",""18431""
","
","""event"",""trial"",""time""
""focus"",""1"",""4571""
","""event"",""trial"",""time""
""fullscreenenter"",""5"",""18431""
","
","501.89999997615814","","49","","","3000","1","","","images/earth.jpg","images/tutrocket2","images/tutrocket1","null","images/tutrocket1","","1","practice","null","1","","",""
"d3-animate-choice","86","497777","0.0-61.0-1.8","877","669","25","Male","true","false","true","true","""event"",""trial"",""time""
""focus"",""1"",""4571""
""fullscreenenter"",""5"",""18431""
","
","""event"",""trial"",""time""
""focus"",""1"",""4571""
","""event"",""trial"",""time""
""fullscreenenter"",""5"",""18431""
","
","448.7000000476837","","48","","","3000","1","","","images/tutyellowplanet.jpg","images/tutalien4","images/tutalien3","images/tutrocket1","images/tutalien4","images/t.png","2","practice","true","2","common","1","2022-02-05 14:01:01.139"
"two-step-fixation","87","498787","0.0-61.0-2.8","877","669","25","Male","true","false","true","true","""event"",""trial"",""time""
""focus"",""1"",""4571""
""fullscreenenter"",""5"",""18431""
","
","""event"",""trial"",""time""
""focus"",""1"",""4571""
","""event"",""trial"",""time""
""fullscreenenter"",""5"",""18431""
","
","","images/earth.jpg","","","","","","","","","","","","","","fixation","","","","","",""
"d3-animate-choice","88","501166","0.0-61.0-0.9","877","669","25","Male","true","false","true","true","""event"",""trial"",""time""
""focus"",""1"",""4571""
""fullscreenenter"",""5"",""18431""
","
","""event"",""trial"",""time""
""focus"",""1"",""4571""
","""event"",""trial"",""time""
""fullscreenenter"",""5"",""18431""
","
","370.69999998807907","","49","","","3000","1","","","images/earth.jpg","images/tutrocket2","images/tutrocket1","null","images/tutrocket1","","1","practice","null","1","","",""
"d3-animate-choice","89","503611","0.0-61.0-1.9","877","669","25","Male","true","false","true","true","""event"",""trial"",""time""
""focus"",""1"",""4571""
""fullscreenenter"",""5"",""18431""
","
","""event"",""trial"",""time""
""focus"",""1"",""4571""
","""event"",""trial"",""time""
""fullscreenenter"",""5"",""18431""
","
","440","","48","","","3000","1","","","images/tutyellowplanet.jpg","images/tutalien4","images/tutalien3","images/tutrocket1","images/tutalien4","images/t.png","2","practice","true","2","common","1","2022-02-05 14:01:06.973"
"two-step-fixation","90","504617","0.0-61.0-2.9","877","669","25","Male","true","false","true","true","""event"",""trial"",""time""
""focus"",""1"",""4571""
""fullscreenenter"",""5"",""18431""
","
","""event"",""trial"",""time""
""focus"",""1"",""4571""
","""event"",""trial"",""time""
""fullscreenenter"",""5"",""18431""
","
","","images/earth.jpg","","","","","","","","","","","","","","fixation","","","","","",""
"d3-animate-choice","91","507139","0.0-61.0-0.10","877","669","25","Male","true","false","true","true","""event"",""trial"",""time""
""focus"",""1"",""4571""
""fullscreenenter"",""5"",""18431""
","
","""event"",""trial"",""time""
""focus"",""1"",""4571""
","""event"",""trial"",""time""
""fullscreenenter"",""5"",""18431""
","
","516.8999999761581","","49","","","3000","1","","","images/earth.jpg","images/tutrocket2","images/tutrocket1","null","images/tutrocket1","","1","practice","null","1","","",""
"d3-animate-choice","92","510337","0.0-61.0-1.10","877","669","25","Male","true","false","true","true","""event"",""trial"",""time""
""focus"",""1"",""4571""
""fullscreenenter"",""5"",""18431""
","
","""event"",""trial"",""time""
""focus"",""1"",""4571""
","""event"",""trial"",""time""
""fullscreenenter"",""5"",""18431""
","
","1193","","48","","","3000","1","","","images/tutgreenplanet.jpg","images/tutalien2","images/tutalien1","images/tutrocket1","images/tutalien2","images/nothing.png","2","practice","false","2","rare","0","2022-02-05 14:01:13.699"
"two-step-fixation","93","511343","0.0-61.0-2.10","877","669","25","Male","true","false","true","true","""event"",""trial"",""time""
""focus"",""1"",""4571""
""fullscreenenter"",""5"",""18431""
","
","""event"",""trial"",""time""
""focus"",""1"",""4571""
","""event"",""trial"",""time""
""fullscreenenter"",""5"",""18431""
","
","","images/earth.jpg","","","","","","","","","","","","","","fixation","","","","","",""
"d3-animate-choice","94","513973","0.0-61.0-0.11","877","669","25","Male","true","false","true","true","""event"",""trial"",""time""
""focus"",""1"",""4571""
""fullscreenenter"",""5"",""18431""
","
","""event"",""trial"",""time""
""focus"",""1"",""4571""
","""event"",""trial"",""time""
""fullscreenenter"",""5"",""18431""
","
","623.8999999761581","","49","","","3000","1","","","images/earth.jpg","images/tutrocket2","images/tutrocket1","null","images/tutrocket1","","1","practice","null","1","","",""
"d3-animate-choice","95","516972","0.0-61.0-1.11","877","669","25","Male","true","false","true","true","""event"",""trial"",""time""
""focus"",""1"",""4571""
""fullscreenenter"",""5"",""18431""
","
","""event"",""trial"",""time""
""focus"",""1"",""4571""
","""event"",""trial"",""time""
""fullscreenenter"",""5"",""18431""
","
","992.0999999642372","","49","","","3000","1","","","images/tutgreenplanet.jpg","images/tutalien2","images/tutalien1","images/tutrocket1","images/tutalien1","images/nothing.png","2","practice","false","1","rare","0","2022-02-05 14:01:20.334"
"two-step-fixation","96","517977","0.0-61.0-2.11","877","669","25","Male","true","false","true","true","""event"",""trial"",""time""
""focus"",""1"",""4571""
""fullscreenenter"",""5"",""18431""
","
","""event"",""trial"",""time""
""focus"",""1"",""4571""
","""event"",""trial"",""time""
""fullscreenenter"",""5"",""18431""
","
","","images/earth.jpg","","","","","","","","","","","","","","fixation","","","","","",""
"d3-animate-choice","97","520061","0.0-61.0-0.12","877","669","25","Male","true","false","true","true","""event"",""trial"",""time""
""focus"",""1"",""4571""
""fullscreenenter"",""5"",""18431""
","
","""event"",""trial"",""time""
""focus"",""1"",""4571""
","""event"",""trial"",""time""
""fullscreenenter"",""5"",""18431""
","
","78.30000001192093","","48","","","3000","1","","","images/earth.jpg","images/tutrocket2","images/tutrocket1","null","images/tutrocket2","","1","practice","null","2","","",""
"d3-animate-choice","98","522952","0.0-61.0-1.12","877","669","25","Male","true","false","true","true","""event"",""trial"",""time""
""focus"",""1"",""4571""
""fullscreenenter"",""5"",""18431""
","
","""event"",""trial"",""time""
""focus"",""1"",""4571""
","""event"",""trial"",""time""
""fullscreenenter"",""5"",""18431""
","
","881.2999999523163","","49","","","3000","1","","","images/tutgreenplanet.jpg","images/tutalien2","images/tutalien1","images/tutrocket2","images/tutalien1","images/nothing.png","2","practice","true","1","common","0","2022-02-05 14:01:26.314"
"two-step-fixation","99","523957","0.0-61.0-2.12","877","669","25","Male","true","false","true","true","""event"",""trial"",""time""
""focus"",""1"",""4571""
""fullscreenenter"",""5"",""18431""
","
","""event"",""trial"",""time""
""focus"",""1"",""4571""
","""event"",""trial"",""time""
""fullscreenenter"",""5"",""18431""
","
","","images/earth.jpg","","","","","","","","","","","","","","fixation","","","","","",""
"d3-animate-choice","100","526261","0.0-61.0-0.13","877","669","25","Male","true","false","true","true","""event"",""trial"",""time""
""focus"",""1"",""4571""
""fullscreenenter"",""5"",""18431""
","
","""event"",""trial"",""time""
""focus"",""1"",""4571""
","""event"",""trial"",""time""
""fullscreenenter"",""5"",""18431""
","
","296.5","","49","","","3000","1","","","images/earth.jpg","images/tutrocket2","images/tutrocket1","null","images/tutrocket1","","1","practice","null","1","","",""
"d3-animate-choice","101","528949","0.0-61.0-1.13","877","669","25","Male","true","false","true","true","""event"",""trial"",""time""
""focus"",""1"",""4571""
""fullscreenenter"",""5"",""18431""
","
","""event"",""trial"",""time""
""focus"",""1"",""4571""
","""event"",""trial"",""time""
""fullscreenenter"",""5"",""18431""
","
","680.4000000357628","","48","","","3000","1","","","images/tutyellowplanet.jpg","images/tutalien4","images/tutalien3","images/tutrocket1","images/tutalien4","images/t.png","2","practice","true","2","common","1","2022-02-05 14:01:32.311"
"two-step-fixation","102","529957","0.0-61.0-2.13","877","669","25","Male","true","false","true","true","""event"",""trial"",""time""
""focus"",""1"",""4571""
""fullscreenenter"",""5"",""18431""
","
","""event"",""trial"",""time""
""focus"",""1"",""4571""
","""event"",""trial"",""time""
""fullscreenenter"",""5"",""18431""
","
","","images/earth.jpg","","","","","","","","","","","","","","fixation","","","","","",""
"d3-animate-choice","103","532396","0.0-61.0-0.14","877","669","25","Male","true","false","true","true","""event"",""trial"",""time""
""focus"",""1"",""4571""
""fullscreenenter"",""5"",""18431""
","
","""event"",""trial"",""time""
""focus"",""1"",""4571""
","""event"",""trial"",""time""
""fullscreenenter"",""5"",""18431""
","
","432.80000001192093","","49","","","3000","1","","","images/earth.jpg","images/tutrocket2","images/tutrocket1","null","images/tutrocket1","","1","practice","null","1","","",""
"d3-animate-choice","104","534910","0.0-61.0-1.14","877","669","25","Male","true","false","true","true","""event"",""trial"",""time""
""focus"",""1"",""4571""
""fullscreenenter"",""5"",""18431""
","
","""event"",""trial"",""time""
""focus"",""1"",""4571""
","""event"",""trial"",""time""
""fullscreenenter"",""5"",""18431""
","
","506.89999997615814","","49","","","3000","1","","","images/tutgreenplanet.jpg","images/tutalien2","images/tutalien1","images/tutrocket1","images/tutalien1","images/t.png","2","practice","false","1","rare","1","2022-02-05 14:01:38.272"
"two-step-fixation","105","535918","0.0-61.0-2.14","877","669","25","Male","true","false","true","true","""event"",""trial"",""time""
""focus"",""1"",""4571""
""fullscreenenter"",""5"",""18431""
","
","""event"",""trial"",""time""
""focus"",""1"",""4571""
","""event"",""trial"",""time""
""fullscreenenter"",""5"",""18431""
","
","","images/earth.jpg","","","","","","","","","","","","","","fixation","","","","","",""
"d3-animate-choice","106","539287","0.0-61.0-0.15","877","669","25","Male","true","false","true","true","""event"",""trial"",""time""
""focus"",""1"",""4571""
""fullscreenenter"",""5"",""18431""
","
","""event"",""trial"",""time""
""focus"",""1"",""4571""
","""event"",""trial"",""time""
""fullscreenenter"",""5"",""18431""
","
","1359.300000011921","","49","","","3000","1","","","images/earth.jpg","images/tutrocket2","images/tutrocket1","null","images/tutrocket1","","1","practice","null","1","","",""
"d3-animate-choice","107","542544","0.0-61.0-1.15","877","669","25","Male","true","false","true","true","""event"",""trial"",""time""
""focus"",""1"",""4571""
""fullscreenenter"",""5"",""18431""
","
","""event"",""trial"",""time""
""focus"",""1"",""4571""
","""event"",""trial"",""time""
""fullscreenenter"",""5"",""18431""
","
","1247.0999999642372","","48","","","3000","1","","","images/tutgreenplanet.jpg","images/tutalien2","images/tutalien1","images/tutrocket1","images/tutalien2","images/nothing.png","2","practice","false","2","rare","0","2022-02-05 14:01:45.906"
"two-step-fixation","108","543553","0.0-61.0-2.15","877","669","25","Male","true","false","true","true","""event"",""trial"",""time""
""focus"",""1"",""4571""
""fullscreenenter"",""5"",""18431""
","
","""event"",""trial"",""time""
""focus"",""1"",""4571""
","""event"",""trial"",""time""
""fullscreenenter"",""5"",""18431""
","
","","images/earth.jpg","","","","","","","","","","","","","","fixation","","","","","",""
"d3-animate-choice","109","545864","0.0-61.0-0.16","877","669","25","Male","true","false","true","true","""event"",""trial"",""time""
""focus"",""1"",""4571""
""fullscreenenter"",""5"",""18431""
","
","""event"",""trial"",""time""
""focus"",""1"",""4571""
","""event"",""trial"",""time""
""fullscreenenter"",""5"",""18431""
","
","301.7999999523163","","49","","","3000","1","","","images/earth.jpg","images/tutrocket2","images/tutrocket1","null","images/tutrocket1","","1","practice","null","1","","",""
"d3-animate-choice","110","549036","0.0-61.0-1.16","877","669","25","Male","true","false","true","true","""event"",""trial"",""time""
""focus"",""1"",""4571""
""fullscreenenter"",""5"",""18431""
","
","""event"",""trial"",""time""
""focus"",""1"",""4571""
","""event"",""trial"",""time""
""fullscreenenter"",""5"",""18431""
","
","1164.800000011921","","48","","","3000","1","","","images/tutyellowplanet.jpg","images/tutalien4","images/tutalien3","images/tutrocket1","images/tutalien4","images/nothing.png","2","practice","true","2","common","0","2022-02-05 14:01:52.398"
"two-step-fixation","111","550042","0.0-61.0-2.16","877","669","25","Male","true","false","true","true","""event"",""trial"",""time""
""focus"",""1"",""4571""
""fullscreenenter"",""5"",""18431""
","
","""event"",""trial"",""time""
""focus"",""1"",""4571""
","""event"",""trial"",""time""
""fullscreenenter"",""5"",""18431""
","
","","images/earth.jpg","","","","","","","","","","","","","","fixation","","","","","",""
"d3-animate-choice","112","552745","0.0-61.0-0.17","877","669","25","Male","true","false","true","true","""event"",""trial"",""time""
""focus"",""1"",""4571""
""fullscreenenter"",""5"",""18431""
","
","""event"",""trial"",""time""
""focus"",""1"",""4571""
","""event"",""trial"",""time""
""fullscreenenter"",""5"",""18431""
","
","693","","49","","","3000","1","","","images/earth.jpg","images/tutrocket2","images/tutrocket1","null","images/tutrocket1","","1","practice","null","1","","",""
"d3-animate-choice","113","556754","0.0-61.0-1.17","877","669","25","Male","true","false","true","true","""event"",""trial"",""time""
""focus"",""1"",""4571""
""fullscreenenter"",""5"",""18431""
","
","""event"",""trial"",""time""
""focus"",""1"",""4571""
","""event"",""trial"",""time""
""fullscreenenter"",""5"",""18431""
","
","2014.1000000238419","","48","","","3000","1","","","images/tutyellowplanet.jpg","images/tutalien4","images/tutalien3","images/tutrocket1","images/tutalien4","images/t.png","2","practice","true","2","common","1","2022-02-05 14:02:00.116"
"two-step-fixation","114","557763","0.0-61.0-2.17","877","669","25","Male","true","false","true","true","""event"",""trial"",""time""
""focus"",""1"",""4571""
""fullscreenenter"",""5"",""18431""
","
","""event"",""trial"",""time""
""focus"",""1"",""4571""
","""event"",""trial"",""time""
""fullscreenenter"",""5"",""18431""
","
","","images/earth.jpg","","","","","","","","","","","","","","fixation","","","","","",""
"d3-animate-choice","115","560214","0.0-61.0-0.18","877","669","25","Male","true","false","true","true","""event"",""trial"",""time""
""focus"",""1"",""4571""
""fullscreenenter"",""5"",""18431""
","
","""event"",""trial"",""time""
""focus"",""1"",""4571""
","""event"",""trial"",""time""
""fullscreenenter"",""5"",""18431""
","
","442.7999999523163","","49","","","3000","1","","","images/earth.jpg","images/tutrocket2","images/tutrocket1","null","images/tutrocket1","","1","practice","null","1","","",""
"d3-animate-choice","116","562716","0.0-61.0-1.18","877","669","25","Male","true","false","true","true","""event"",""trial"",""time""
""focus"",""1"",""4571""
""fullscreenenter"",""5"",""18431""
","
","""event"",""trial"",""time""
""focus"",""1"",""4571""
","""event"",""trial"",""time""
""fullscreenenter"",""5"",""18431""
","
","496.5","","48","","","3000","1","","","images/tutgreenplanet.jpg","images/tutalien2","images/tutalien1","images/tutrocket1","images/tutalien2","images/nothing.png","2","practice","false","2","rare","0","2022-02-05 14:02:06.078"
"two-step-fixation","117","563722","0.0-61.0-2.18","877","669","25","Male","true","false","true","true","""event"",""trial"",""time""
""focus"",""1"",""4571""
""fullscreenenter"",""5"",""18431""
","
","""event"",""trial"",""time""
""focus"",""1"",""4571""
","""event"",""trial"",""time""
""fullscreenenter"",""5"",""18431""
","
","","images/earth.jpg","","","","","","","","","","","","","","fixation","","","","","",""
"d3-animate-choice","118","566124","0.0-61.0-0.19","877","669","25","Male","true","false","true","true","""event"",""trial"",""time""
""focus"",""1"",""4571""
""fullscreenenter"",""5"",""18431""
","
","""event"",""trial"",""time""
""focus"",""1"",""4571""
","""event"",""trial"",""time""
""fullscreenenter"",""5"",""18431""
","
","395.5","","49","","","3000","1","","","images/earth.jpg","images/tutrocket2","images/tutrocket1","null","images/tutrocket1","","1","practice","null","1","","",""
"d3-animate-choice","119","568894","0.0-61.0-1.19","877","669","25","Male","true","false","true","true","""event"",""trial"",""time""
""focus"",""1"",""4571""
""fullscreenenter"",""5"",""18431""
","
","""event"",""trial"",""time""
""focus"",""1"",""4571""
","""event"",""trial"",""time""
""fullscreenenter"",""5"",""18431""
","
","762.6999999880791","","48","","","3000","1","","","images/tutyellowplanet.jpg","images/tutalien4","images/tutalien3","images/tutrocket1","images/tutalien4","images/nothing.png","2","practice","true","2","common","0","2022-02-05 14:02:12.256"
"two-step-fixation","120","569899","0.0-61.0-2.19","877","669","25","Male","true","false","true","true","""event"",""trial"",""time""
""focus"",""1"",""4571""
""fullscreenenter"",""5"",""18431""
","
","""event"",""trial"",""time""
""focus"",""1"",""4571""
","""event"",""trial"",""time""
""fullscreenenter"",""5"",""18431""
","
","","images/earth.jpg","","","","","","","","","","","","","","fixation","","","","","",""
"d3-instructions","121","576786","0.0-62.0","877","669","25","Male","true","false","true","true","""event"",""trial"",""time""
""focus"",""1"",""4571""
""fullscreenenter"",""5"",""18431""
","
","""event"",""trial"",""time""
""focus"",""1"",""4571""
","""event"",""trial"",""time""
""fullscreenenter"",""5"",""18431""
","
","","","","","","","","","","","","","","","","","","","","","",""
"audio-keyboard-response","122","588251","0.0-63.0","877","669","25","Male","true","false","true","true","""event"",""trial"",""time""
""focus"",""1"",""4571""
""fullscreenenter"",""5"",""18431""
","
","""event"",""trial"",""time""
""focus"",""1"",""4571""
","""event"",""trial"",""time""
""fullscreenenter"",""5"",""18431""
","
","11465","audio/instructions/treasure_feedback.wav","32","","","","","","","","","","","","","","","","","","",""
"d3-instructions","123","607659","0.0-64.0","877","669","25","Male","true","false","true","true","""event"",""trial"",""time""
""focus"",""1"",""4571""
""fullscreenenter"",""5"",""18431""
","
","""event"",""trial"",""time""
""focus"",""1"",""4571""
","""event"",""trial"",""time""
""fullscreenenter"",""5"",""18431""
","
","","","","","","","","","","","","","","","","","","","","","",""
"d3-instructions","124","621906","0.0-65.0","877","669","25","Male","true","false","true","true","""event"",""trial"",""time""
""focus"",""1"",""4571""
""fullscreenenter"",""5"",""18431""
","
","""event"",""trial"",""time""
""focus"",""1"",""4571""
","""event"",""trial"",""time""
""fullscreenenter"",""5"",""18431""
","
","","","","","","","","","","","","","","","","","","","","","",""
"d3-instructions","125","646562","0.0-66.0","877","669","25","Male","true","false","true","true","""event"",""trial"",""time""
""focus"",""1"",""4571""
""fullscreenenter"",""5"",""18431""
","
","""event"",""trial"",""time""
""focus"",""1"",""4571""
","""event"",""trial"",""time""
""fullscreenenter"",""5"",""18431""
","
","","","","","","","","","","","","","","","","","","","","","",""
"d3-instructions","126","663451","0.0-67.0","877","669","25","Male","true","false","true","true","""event"",""trial"",""time""
""focus"",""1"",""4571""
""fullscreenenter"",""5"",""18431""
","
","""event"",""trial"",""time""
""focus"",""1"",""4571""
","""event"",""trial"",""time""
""fullscreenenter"",""5"",""18431""
","
","","","","","","","","","","","","","","","","","","","","","",""
"d3-instructions","127","673323","0.0-68.0","877","669","25","Male","true","false","true","true","""event"",""trial"",""time""
""focus"",""1"",""4571""
""fullscreenenter"",""5"",""18431""
","
","""event"",""trial"",""time""
""focus"",""1"",""4571""
","""event"",""trial"",""time""
""fullscreenenter"",""5"",""18431""
","
","","","","","","","","","","","","","","","","","","","","","",""
"instructions-quiz","128","678816","0.0-69.0","877","669","25","Male","true","false","true","true","""event"",""trial"",""time""
""focus"",""1"",""4571""
""fullscreenenter"",""5"",""18431""
","
","""event"",""trial"",""time""
""focus"",""1"",""4571""
","""event"",""trial"",""time""
""fullscreenenter"",""5"",""18431""
","
","5488.400000035763","audio/quiz/Q1_Prompt.wav","","1","","","","","","","","","","","","","","","","","",""
"audio-keyboard-response","129","687989","0.0-70.0","877","669","25","Male","true","false","true","true","""event"",""trial"",""time""
""focus"",""1"",""4571""
""fullscreenenter"",""5"",""18431""
","
","""event"",""trial"",""time""
""focus"",""1"",""4571""
","""event"",""trial"",""time""
""fullscreenenter"",""5"",""18431""
","
","null","audio/quiz/Q1_Correct.wav","null","","","","","","","","","","","","","","","","","","",""
"instructions-quiz","130","692279","0.0-71.0","877","669","25","Male","true","false","true","true","""event"",""trial"",""time""
""focus"",""1"",""4571""
""fullscreenenter"",""5"",""18431""
","
","""event"",""trial"",""time""
""focus"",""1"",""4571""
","""event"",""trial"",""time""
""fullscreenenter"",""5"",""18431""
","
","4285.300000011921","audio/quiz/Q2_Prompt.wav","","0","","","","","","","","","","","","","","","","","",""
"audio-keyboard-response","131","704364","0.0-72.0","877","669","25","Male","true","false","true","true","""event"",""trial"",""time""
""focus"",""1"",""4571""
""fullscreenenter"",""5"",""18431""
","
","""event"",""trial"",""time""
""focus"",""1"",""4571""
","""event"",""trial"",""time""
""fullscreenenter"",""5"",""18431""
","
","12086","audio/quiz/Q2_Correct.wav","32","","","","","","","","","","","","","","","","","","",""
"instructions-quiz","132","709008","0.0-73.0","877","669","25","Male","true","false","true","true","""event"",""trial"",""time""
""focus"",""1"",""4571""
""fullscreenenter"",""5"",""18431""
","
","""event"",""trial"",""time""
""focus"",""1"",""4571""
","""event"",""trial"",""time""
""fullscreenenter"",""5"",""18431""
","
","4638.300000011921","audio/quiz/Q3_Prompt.wav","","1","","","","","","","","","","","","","","","","","",""
"audio-keyboard-response","133","714808","0.0-74.0","877","669","25","Male","true","false","true","true","""event"",""trial"",""time""
""focus"",""1"",""4571""
""fullscreenenter"",""5"",""18431""
","
","""event"",""trial"",""time""
""focus"",""1"",""4571""
","""event"",""trial"",""time""
""fullscreenenter"",""5"",""18431""
","
","null","audio/quiz/Q3_Correct.wav","null","","","","","","","","","","","","","","","","","","",""
"d3-instructions","134","734604","0.0-75.0","877","669","25","Male","true","false","true","true","""event"",""trial"",""time""
""focus"",""1"",""4571""
""fullscreenenter"",""5"",""18431""
","
","""event"",""trial"",""time""
""focus"",""1"",""4571""
","""event"",""trial"",""time""
""fullscreenenter"",""5"",""18431""
","
","","","","","","","","","","","","","","","","","","","","","",""
"d3-animate-choice","135","737510","0.0-76.0-0.0","877","669","25","Male","true","false","true","true","""event"",""trial"",""time""
""focus"",""1"",""4571""
""fullscreenenter"",""5"",""18431""
","
","""event"",""trial"",""time""
""focus"",""1"",""4571""
","""event"",""trial"",""time""
""fullscreenenter"",""5"",""18431""
","
","897.6999999880791","","49","","","3000","1","","","images/earth.jpg","images/rocket2","images/rocket1","null","images/rocket1","","1","real","null","1","","",""
"d3-animate-choice","136","740109","0.0-76.0-1.0","877","669","25","Male","true","false","true","true","""event"",""trial"",""time""
""focus"",""1"",""4571""
""fullscreenenter"",""5"",""18431""
","
","""event"",""trial"",""time""
""focus"",""1"",""4571""
","""event"",""trial"",""time""
""fullscreenenter"",""5"",""18431""
","
","592.1999999880791","","49","","","3000","1","","","images/purpleplanet.jpg","images/alien4","images/alien3","images/rocket1","images/alien3","images/t.png","2","real","true","1","common","1","2022-02-05 14:05:03.471"
"two-step-fixation","137","741117","0.0-76.0-2.0","877","669","25","Male","true","false","true","true","""event"",""trial"",""time""
""focus"",""1"",""4571""
""fullscreenenter"",""5"",""18431""
","
","""event"",""trial"",""time""
""focus"",""1"",""4571""
","""event"",""trial"",""time""
""fullscreenenter"",""5"",""18431""
","
","","images/earth.jpg","","","","","","","","","","","","","","fixation","","","","","",""
"d3-animate-choice","138","743643","0.0-76.0-0.1","877","669","25","Male","true","false","true","true","""event"",""trial"",""time""
""focus"",""1"",""4571""
""fullscreenenter"",""5"",""18431""
","
","""event"",""trial"",""time""
""focus"",""1"",""4571""
","""event"",""trial"",""time""
""fullscreenenter"",""5"",""18431""
","
","520.6000000238419","","49","","","3000","1","","","images/earth.jpg","images/rocket2","images/rocket1","null","images/rocket1","","1","real","null","1","","",""
"d3-animate-choice","139","746068","0.0-76.0-1.1","877","669","25","Male","true","false","true","true","""event"",""trial"",""time""
""focus"",""1"",""4571""
""fullscreenenter"",""5"",""18431""
","
","""event"",""trial"",""time""
""focus"",""1"",""4571""
","""event"",""trial"",""time""
""fullscreenenter"",""5"",""18431""
","
","418.4000000357628","","49","","","3000","1","","","images/purpleplanet.jpg","images/alien4","images/alien3","images/rocket1","images/alien3","images/nothing.png","2","real","true","1","common","0","2022-02-05 14:05:09.430"
"two-step-fixation","140","747074","0.0-76.0-2.1","877","669","25","Male","true","false","true","true","""event"",""trial"",""time""
""focus"",""1"",""4571""
""fullscreenenter"",""5"",""18431""
","
","""event"",""trial"",""time""
""focus"",""1"",""4571""
","""event"",""trial"",""time""
""fullscreenenter"",""5"",""18431""
","
","","images/earth.jpg","","","","","","","","","","","","","","fixation","","","","","",""
"d3-animate-choice","141","749744","0.0-76.0-0.2","877","669","25","Male","true","false","true","true","""event"",""trial"",""time""
""focus"",""1"",""4571""
""fullscreenenter"",""5"",""18431""
","
","""event"",""trial"",""time""
""focus"",""1"",""4571""
","""event"",""trial"",""time""
""fullscreenenter"",""5"",""18431""
","
","660.5","","49","","","3000","1","","","images/earth.jpg","images/rocket2","images/rocket1","null","images/rocket1","","1","real","null","1","","",""
"d3-animate-choice","142","752630","0.0-76.0-1.2","877","669","25","Male","true","false","true","true","""event"",""trial"",""time""
""focus"",""1"",""4571""
""fullscreenenter"",""5"",""18431""
","
","""event"",""trial"",""time""
""focus"",""1"",""4571""
","""event"",""trial"",""time""
""fullscreenenter"",""5"",""18431""
","
","877.6999999880791","","48","","","3000","1","","","images/redplanet1.jpg","images/alien2","images/alien1","images/rocket1","images/alien2","images/t.png","2","real","false","2","rare","1","2022-02-05 14:05:15.992"
"two-step-fixation","143","753639","0.0-76.0-2.2","877","669","25","Male","true","false","true","true","""event"",""trial"",""time""
""focus"",""1"",""4571""
""fullscreenenter"",""5"",""18431""
","
","""event"",""trial"",""time""
""focus"",""1"",""4571""
","""event"",""trial"",""time""
""fullscreenenter"",""5"",""18431""
","
","","images/earth.jpg","","","","","","","","","","","","","","fixation","","","","","",""
"d3-animate-choice","144","756059","0.0-76.0-0.3","877","669","25","Male","true","false","true","true","""event"",""trial"",""time""
""focus"",""1"",""4571""
""fullscreenenter"",""5"",""18431""
","
","""event"",""trial"",""time""
""focus"",""1"",""4571""
","""event"",""trial"",""time""
""fullscreenenter"",""5"",""18431""
","
","415.10000002384186","","49","","","3000","1","","","images/earth.jpg","images/rocket2","images/rocket1","null","images/rocket1","","1","real","null","1","","",""
"d3-animate-choice","145","758867","0.0-76.0-1.3","877","669","25","Male","true","false","true","true","""event"",""trial"",""time""
""focus"",""1"",""4571""
""fullscreenenter"",""5"",""18431""
","
","""event"",""trial"",""time""
""focus"",""1"",""4571""
","""event"",""trial"",""time""
""fullscreenenter"",""5"",""18431""
","
","802.1999999880791","","48","","","3000","1","","","images/redplanet1.jpg","images/alien2","images/alien1","images/rocket1","images/alien2","images/t.png","2","real","false","2","rare","1","2022-02-05 14:05:22.229"
"two-step-fixation","146","759872","0.0-76.0-2.3","877","669","25","Male","true","false","true","true","""event"",""trial"",""time""
""focus"",""1"",""4571""
""fullscreenenter"",""5"",""18431""
","
","""event"",""trial"",""time""
""focus"",""1"",""4571""
","""event"",""trial"",""time""
""fullscreenenter"",""5"",""18431""
","
","","images/earth.jpg","","","","","","","","","","","","","","fixation","","","","","",""
"d3-animate-choice","147","762284","0.0-76.0-0.4","877","669","25","Male","true","false","true","true","""event"",""trial"",""time""
""focus"",""1"",""4571""
""fullscreenenter"",""5"",""18431""
","
","""event"",""trial"",""time""
""focus"",""1"",""4571""
","""event"",""trial"",""time""
""fullscreenenter"",""5"",""18431""
","
","406.69999998807907","","49","","","3000","1","","","images/earth.jpg","images/rocket2","images/rocket1","null","images/rocket1","","1","real","null","1","","",""
"d3-animate-choice","148","765333","0.0-76.0-1.4","877","669","25","Male","true","false","true","true","""event"",""trial"",""time""
""focus"",""1"",""4571""
""fullscreenenter"",""5"",""18431""
","
","""event"",""trial"",""time""
""focus"",""1"",""4571""
","""event"",""trial"",""time""
""fullscreenenter"",""5"",""18431""
","
","1041.5","","49","","","3000","1","","","images/purpleplanet.jpg","images/alien4","images/alien3","images/rocket1","images/alien3","images/nothing.png","2","real","true","1","common","0","2022-02-05 14:05:28.695"
"two-step-fixation","149","766339","0.0-76.0-2.4","877","669","25","Male","true","false","true","true","""event"",""trial"",""time""
""focus"",""1"",""4571""
""fullscreenenter"",""5"",""18431""
","
","""event"",""trial"",""time""
""focus"",""1"",""4571""
","""event"",""trial"",""time""
""fullscreenenter"",""5"",""18431""
","
","","images/earth.jpg","","","","","","","","","","","","","","fixation","","","","","",""
"d3-animate-choice","150","769227","0.0-76.0-0.5","877","669","25","Male","true","false","true","true","""event"",""trial"",""time""
""focus"",""1"",""4571""
""fullscreenenter"",""5"",""18431""
","
","""event"",""trial"",""time""
""focus"",""1"",""4571""
","""event"",""trial"",""time""
""fullscreenenter"",""5"",""18431""
","
","881.5","","49","","","3000","1","","","images/earth.jpg","images/rocket2","images/rocket1","null","images/rocket1","","1","real","null","1","","",""
"d3-animate-choice","151","772332","0.0-76.0-1.5","877","669","25","Male","true","false","true","true","""event"",""trial"",""time""
""focus"",""1"",""4571""
""fullscreenenter"",""5"",""18431""
","
","""event"",""trial"",""time""
""focus"",""1"",""4571""
","""event"",""trial"",""time""
""fullscreenenter"",""5"",""18431""
","
","1099","","48","","","3000","1","","","images/purpleplanet.jpg","images/alien4","images/alien3","images/rocket1","images/alien4","images/t.png","2","real","true","2","common","1","2022-02-05 14:05:35.694"
"two-step-fixation","152","773337","0.0-76.0-2.5","877","669","25","Male","true","false","true","true","""event"",""trial"",""time""
""focus"",""1"",""4571""
""fullscreenenter"",""5"",""18431""
","
","""event"",""trial"",""time""
""focus"",""1"",""4571""
","""event"",""trial"",""time""
""fullscreenenter"",""5"",""18431""
","
","","images/earth.jpg","","","","","","","","","","","","","","fixation","","","","","",""
"d3-animate-choice","153","775662","0.0-76.0-0.6","877","669","25","Male","true","false","true","true","""event"",""trial"",""time""
""focus"",""1"",""4571""
""fullscreenenter"",""5"",""18431""
","
","""event"",""trial"",""time""
""focus"",""1"",""4571""
","""event"",""trial"",""time""
""fullscreenenter"",""5"",""18431""
","
","317.2999999523163","","49","","","3000","1","","","images/earth.jpg","images/rocket2","images/rocket1","null","images/rocket1","","1","real","null","1","","",""
"d3-animate-choice","154","778598","0.0-76.0-1.6","877","669","25","Male","true","false","true","true","""event"",""trial"",""time""
""focus"",""1"",""4571""
""fullscreenenter"",""5"",""18431""
","
","""event"",""trial"",""time""
""focus"",""1"",""4571""
","""event"",""trial"",""time""
""fullscreenenter"",""5"",""18431""
","
","927.6999999880791","","48","","","3000","1","","","images/purpleplanet.jpg","images/alien4","images/alien3","images/rocket1","images/alien4","images/t.png","2","real","true","2","common","1","2022-02-05 14:05:41.960"
"two-step-fixation","155","779606","0.0-76.0-2.6","877","669","25","Male","true","false","true","true","""event"",""trial"",""time""
""focus"",""1"",""4571""
""fullscreenenter"",""5"",""18431""
","
","""event"",""trial"",""time""
""focus"",""1"",""4571""
","""event"",""trial"",""time""
""fullscreenenter"",""5"",""18431""
","
","","images/earth.jpg","","","","","","","","","","","","","","fixation","","","","","",""
"d3-animate-choice","156","781997","0.0-76.0-0.7","877","669","25","Male","true","false","true","true","""event"",""trial"",""time""
""focus"",""1"",""4571""
""fullscreenenter"",""5"",""18431""
","
","""event"",""trial"",""time""
""focus"",""1"",""4571""
","""event"",""trial"",""time""
""fullscreenenter"",""5"",""18431""
","
","383.39999997615814","","49","","","3000","1","","","images/earth.jpg","images/rocket2","images/rocket1","null","images/rocket1","","1","real","null","1","","",""
"d3-animate-choice","157","784672","0.0-76.0-1.7","877","669","25","Male","true","false","true","true","""event"",""trial"",""time""
""focus"",""1"",""4571""
""fullscreenenter"",""5"",""18431""
","
","""event"",""trial"",""time""
""focus"",""1"",""4571""
","""event"",""trial"",""time""
""fullscreenenter"",""5"",""18431""
","
","666.5","","48","","","3000","1","","","images/purpleplanet.jpg","images/alien4","images/alien3","images/rocket1","images/alien4","images/nothing.png","2","real","true","2","common","0","2022-02-05 14:05:48.034"
"two-step-fixation","158","785679","0.0-76.0-2.7","877","669","25","Male","true","false","true","true","""event"",""trial"",""time""
""focus"",""1"",""4571""
""fullscreenenter"",""5"",""18431""
","
","""event"",""trial"",""time""
""focus"",""1"",""4571""
","""event"",""trial"",""time""
""fullscreenenter"",""5"",""18431""
","
","","images/earth.jpg","","","","","","","","","","","","","","fixation","","","","","",""
"d3-animate-choice","159","788828","0.0-76.0-0.8","877","669","25","Male","true","false","true","true","""event"",""trial"",""time""
""focus"",""1"",""4571""
""fullscreenenter"",""5"",""18431""
","
","""event"",""trial"",""time""
""focus"",""1"",""4571""
","""event"",""trial"",""time""
""fullscreenenter"",""5"",""18431""
","
","1143.199999988079","","48","","","3000","1","","","images/earth.jpg","images/rocket2","images/rocket1","null","images/rocket2","","1","real","null","2","","",""
"d3-animate-choice","160","791640","0.0-76.0-1.8","877","669","25","Male","true","false","true","true","""event"",""trial"",""time""
""focus"",""1"",""4571""
""fullscreenenter"",""5"",""18431""
","
","""event"",""trial"",""time""
""focus"",""1"",""4571""
","""event"",""trial"",""time""
""fullscreenenter"",""5"",""18431""
","
","802.6000000238419","","48","","","3000","1","","","images/purpleplanet.jpg","images/alien4","images/alien3","images/rocket2","images/alien4","images/t.png","2","real","false","2","rare","1","2022-02-05 14:05:55.002"
"two-step-fixation","161","792644","0.0-76.0-2.8","877","669","25","Male","true","false","true","true","""event"",""trial"",""time""
""focus"",""1"",""4571""
""fullscreenenter"",""5"",""18431""
","
","""event"",""trial"",""time""
""focus"",""1"",""4571""
","""event"",""trial"",""time""
""fullscreenenter"",""5"",""18431""
","
","","images/earth.jpg","","","","","","","","","","","","","","fixation","","","","","",""
"d3-animate-choice","162","795910","0.0-76.0-0.9","877","669","25","Male","true","false","true","true","""event"",""trial"",""time""
""focus"",""1"",""4571""
""fullscreenenter"",""5"",""18431""
","
","""event"",""trial"",""time""
""focus"",""1"",""4571""
","""event"",""trial"",""time""
""fullscreenenter"",""5"",""18431""
","
","1258.699999988079","","48","","","3000","1","","","images/earth.jpg","images/rocket2","images/rocket1","null","images/rocket2","","1","real","null","2","","",""
"d3-animate-choice","163","798612","0.0-76.0-1.9","877","669","25","Male","true","false","true","true","""event"",""trial"",""time""
""focus"",""1"",""4571""
""fullscreenenter"",""5"",""18431""
","
","""event"",""trial"",""time""
""focus"",""1"",""4571""
","""event"",""trial"",""time""
""fullscreenenter"",""5"",""18431""
","
","695.6999999880791","","48","","","3000","1","","","images/redplanet1.jpg","images/alien2","images/alien1","images/rocket2","images/alien2","images/nothing.png","2","real","true","2","common","0","2022-02-05 14:06:01.974"
"two-step-fixation","164","799619","0.0-76.0-2.9","877","669","25","Male","true","false","true","true","""event"",""trial"",""time""
""focus"",""1"",""4571""
""fullscreenenter"",""5"",""18431""
","
","""event"",""trial"",""time""
""focus"",""1"",""4571""
","""event"",""trial"",""time""
""fullscreenenter"",""5"",""18431""
","
","","images/earth.jpg","","","","","","","","","","","","","","fixation","","","","","",""
"d3-animate-choice","165","802124","0.0-76.0-0.10","877","669","25","Male","true","false","true","true","""event"",""trial"",""time""
""focus"",""1"",""4571""
""fullscreenenter"",""5"",""18431""
","
","""event"",""trial"",""time""
""focus"",""1"",""4571""
","""event"",""trial"",""time""
""fullscreenenter"",""5"",""18431""
","
","498.9000000357628","","49","","","3000","1","","","images/earth.jpg","images/rocket2","images/rocket1","null","images/rocket1","","1","real","null","1","","",""
"d3-animate-choice","166","805199","0.0-76.0-1.10","877","669","25","Male","true","false","true","true","""event"",""trial"",""time""
""focus"",""1"",""4571""
""fullscreenenter"",""5"",""18431""
","
","""event"",""trial"",""time""
""focus"",""1"",""4571""
","""event"",""trial"",""time""
""fullscreenenter"",""5"",""18431""
","
","1066.0999999642372","","48","","","3000","1","","","images/purpleplanet.jpg","images/alien4","images/alien3","images/rocket1","images/alien4","images/t.png","2","real","true","2","common","1","2022-02-05 14:06:08.561"
"two-step-fixation","167","806208","0.0-76.0-2.10","877","669","25","Male","true","false","true","true","""event"",""trial"",""time""
""focus"",""1"",""4571""
""fullscreenenter"",""5"",""18431""
","
","""event"",""trial"",""time""
""focus"",""1"",""4571""
","""event"",""trial"",""time""
""fullscreenenter"",""5"",""18431""
","
","","images/earth.jpg","","","","","","","","","","","","","","fixation","","","","","",""
"d3-animate-choice","168","808724","0.0-76.0-0.11","877","669","25","Male","true","false","true","true","""event"",""trial"",""time""
""focus"",""1"",""4571""
""fullscreenenter"",""5"",""18431""
","
","""event"",""trial"",""time""
""focus"",""1"",""4571""
","""event"",""trial"",""time""
""fullscreenenter"",""5"",""18431""
","
","510.80000001192093","","49","","","3000","1","","","images/earth.jpg","images/rocket2","images/rocket1","null","images/rocket1","","1","real","null","1","","",""
"d3-animate-choice","169","811214","0.0-76.0-1.11","877","669","25","Male","true","false","true","true","""event"",""trial"",""time""
""focus"",""1"",""4571""
""fullscreenenter"",""5"",""18431""
","
","""event"",""trial"",""time""
""focus"",""1"",""4571""
","""event"",""trial"",""time""
""fullscreenenter"",""5"",""18431""
","
","481.5","","48","","","3000","1","","","images/purpleplanet.jpg","images/alien4","images/alien3","images/rocket1","images/alien4","images/t.png","2","real","true","2","common","1","2022-02-05 14:06:14.576"
"two-step-fixation","170","812220","0.0-76.0-2.11","877","669","25","Male","true","false","true","true","""event"",""trial"",""time""
""focus"",""1"",""4571""
""fullscreenenter"",""5"",""18431""
","
","""event"",""trial"",""time""
""focus"",""1"",""4571""
","""event"",""trial"",""time""
""fullscreenenter"",""5"",""18431""
","
","","images/earth.jpg","","","","","","","","","","","","","","fixation","","","","","",""
"d3-animate-choice","171","814517","0.0-76.0-0.12","877","669","25","Male","true","false","true","true","""event"",""trial"",""time""
""focus"",""1"",""4571""
""fullscreenenter"",""5"",""18431""
","
","""event"",""trial"",""time""
""focus"",""1"",""4571""
","""event"",""trial"",""time""
""fullscreenenter"",""5"",""18431""
","
","289.5","","49","","","3000","1","","","images/earth.jpg","images/rocket2","images/rocket1","null","images/rocket1","","1","real","null","1","","",""
"d3-animate-choice","172","817027","0.0-76.0-1.12","877","669","25","Male","true","false","true","true","""event"",""trial"",""time""
""focus"",""1"",""4571""
""fullscreenenter"",""5"",""18431""
","
","""event"",""trial"",""time""
""focus"",""1"",""4571""
","""event"",""trial"",""time""
""fullscreenenter"",""5"",""18431""
","
","504.30000001192093","","48","","","3000","1","","","images/purpleplanet.jpg","images/alien4","images/alien3","images/rocket1","images/alien4","images/t.png","2","real","true","2","common","1","2022-02-05 14:06:20.390"
"two-step-fixation","173","818032","0.0-76.0-2.12","877","669","25","Male","true","false","true","true","""event"",""trial"",""time""
""focus"",""1"",""4571""
""fullscreenenter"",""5"",""18431""
","
","""event"",""trial"",""time""
""focus"",""1"",""4571""
","""event"",""trial"",""time""
""fullscreenenter"",""5"",""18431""
","
","","images/earth.jpg","","","","","","","","","","","","","","fixation","","","","","",""
"d3-animate-choice","174","820428","0.0-76.0-0.13","877","669","25","Male","true","false","true","true","""event"",""trial"",""time""
""focus"",""1"",""4571""
""fullscreenenter"",""5"",""18431""
","
","""event"",""trial"",""time""
""focus"",""1"",""4571""
","""event"",""trial"",""time""
""fullscreenenter"",""5"",""18431""
","
","390.39999997615814","","49","","","3000","1","","","images/earth.jpg","images/rocket2","images/rocket1","null","images/rocket1","","1","real","null","1","","",""
"d3-animate-choice","175","823662","0.0-76.0-1.13","877","669","25","Male","true","false","true","true","""event"",""trial"",""time""
""focus"",""1"",""4571""
""fullscreenenter"",""5"",""18431""
","
","""event"",""trial"",""time""
""focus"",""1"",""4571""
","""event"",""trial"",""time""
""fullscreenenter"",""5"",""18431""
","
","1226.800000011921","","49","","","3000","1","","","images/redplanet1.jpg","images/alien2","images/alien1","images/rocket1","images/alien1","images/t.png","2","real","false","1","rare","1","2022-02-05 14:06:27.024"
"two-step-fixation","176","824671","0.0-76.0-2.13","877","669","25","Male","true","false","true","true","""event"",""trial"",""time""
""focus"",""1"",""4571""
""fullscreenenter"",""5"",""18431""
","
","""event"",""trial"",""time""
""focus"",""1"",""4571""
","""event"",""trial"",""time""
""fullscreenenter"",""5"",""18431""
","
","","images/earth.jpg","","","","","","","","","","","","","","fixation","","","","","",""
"d3-animate-choice","177","827067","0.0-76.0-0.14","877","669","25","Male","true","false","true","true","""event"",""trial"",""time""
""focus"",""1"",""4571""
""fullscreenenter"",""5"",""18431""
","
","""event"",""trial"",""time""
""focus"",""1"",""4571""
","""event"",""trial"",""time""
""fullscreenenter"",""5"",""18431""
","
","390.89999997615814","","49","","","3000","1","","","images/earth.jpg","images/rocket2","images/rocket1","null","images/rocket1","","1","real","null","1","","",""
"d3-animate-choice","178","829900","0.0-76.0-1.14","877","669","25","Male","true","false","true","true","""event"",""trial"",""time""
""focus"",""1"",""4571""
""fullscreenenter"",""5"",""18431""
","
","""event"",""trial"",""time""
""focus"",""1"",""4571""
","""event"",""trial"",""time""
""fullscreenenter"",""5"",""18431""
","
","826.8999999761581","","48","","","3000","1","","","images/redplanet1.jpg","images/alien2","images/alien1","images/rocket1","images/alien2","images/nothing.png","2","real","false","2","rare","0","2022-02-05 14:06:33.262"
"two-step-fixation","179","830907","0.0-76.0-2.14","877","669","25","Male","true","false","true","true","""event"",""trial"",""time""
""focus"",""1"",""4571""
""fullscreenenter"",""5"",""18431""
","
","""event"",""trial"",""time""
""focus"",""1"",""4571""
","""event"",""trial"",""time""
""fullscreenenter"",""5"",""18431""
","
","","images/earth.jpg","","","","","","","","","","","","","","fixation","","","","","",""
"d3-animate-choice","180","834201","0.0-76.0-0.15","877","669","25","Male","true","false","true","true","""event"",""trial"",""time""
""focus"",""1"",""4571""
""fullscreenenter"",""5"",""18431""
","
","""event"",""trial"",""time""
""focus"",""1"",""4571""
","""event"",""trial"",""time""
""fullscreenenter"",""5"",""18431""
","
","1284.1000000238419","","48","","","3000","1","","","images/earth.jpg","images/rocket2","images/rocket1","null","images/rocket2","","1","real","null","2","","",""
"d3-animate-choice","181","837510","0.0-76.0-1.15","877","669","25","Male","true","false","true","true","""event"",""trial"",""time""
""focus"",""1"",""4571""
""fullscreenenter"",""5"",""18431""
","
","""event"",""trial"",""time""
""focus"",""1"",""4571""
","""event"",""trial"",""time""
""fullscreenenter"",""5"",""18431""
","
","1300.7999999523163","","48","","","3000","1","","","images/purpleplanet.jpg","images/alien4","images/alien3","images/rocket2","images/alien4","images/nothing.png","2","real","false","2","rare","0","2022-02-05 14:06:40.872"
"two-step-fixation","182","838517","0.0-76.0-2.15","877","669","25","Male","true","false","true","true","""event"",""trial"",""time""
""focus"",""1"",""4571""
""fullscreenenter"",""5"",""18431""
","
","""event"",""trial"",""time""
""focus"",""1"",""4571""
","""event"",""trial"",""time""
""fullscreenenter"",""5"",""18431""
","
","","images/earth.jpg","","","","","","","","","","","","","","fixation","","","","","",""
"d3-animate-choice","183","840877","0.0-76.0-0.16","877","669","25","Male","true","false","true","true","""event"",""trial"",""time""
""focus"",""1"",""4571""
""fullscreenenter"",""5"",""18431""
","
","""event"",""trial"",""time""
""focus"",""1"",""4571""
","""event"",""trial"",""time""
""fullscreenenter"",""5"",""18431""
","
","353.19999998807907","","49","","","3000","1","","","images/earth.jpg","images/rocket2","images/rocket1","null","images/rocket1","","1","real","null","1","","",""
"d3-animate-choice","184","843388","0.0-76.0-1.16","877","669","25","Male","true","false","true","true","""event"",""trial"",""time""
""focus"",""1"",""4571""
""fullscreenenter"",""5"",""18431""
","
","""event"",""trial"",""time""
""focus"",""1"",""4571""
","""event"",""trial"",""time""
""fullscreenenter"",""5"",""18431""
","
","505.39999997615814","","49","","","3000","1","","","images/redplanet1.jpg","images/alien2","images/alien1","images/rocket1","images/alien1","images/t.png","2","real","false","1","rare","1","2022-02-05 14:06:46.750"
"two-step-fixation","185","844394","0.0-76.0-2.16","877","669","25","Male","true","false","true","true","""event"",""trial"",""time""
""focus"",""1"",""4571""
""fullscreenenter"",""5"",""18431""
","
","""event"",""trial"",""time""
""focus"",""1"",""4571""
","""event"",""trial"",""time""
""fullscreenenter"",""5"",""18431""
","
","","images/earth.jpg","","","","","","","","","","","","","","fixation","","","","","",""
"d3-animate-choice","186","846937","0.0-76.0-0.17","877","669","25","Male","true","false","true","true","""event"",""trial"",""time""
""focus"",""1"",""4571""
""fullscreenenter"",""5"",""18431""
","
","""event"",""trial"",""time""
""focus"",""1"",""4571""
","""event"",""trial"",""time""
""fullscreenenter"",""5"",""18431""
","
","532.4000000357628","","49","","","3000","1","","","images/earth.jpg","images/rocket2","images/rocket1","null","images/rocket1","","1","real","null","1","","",""
"d3-animate-choice","187","850157","0.0-76.0-1.17","877","669","25","Male","true","false","true","true","""event"",""trial"",""time""
""focus"",""1"",""4571""
""fullscreenenter"",""5"",""18431""
","
","""event"",""trial"",""time""
""focus"",""1"",""4571""
","""event"",""trial"",""time""
""fullscreenenter"",""5"",""18431""
","
","1212.5","","48","","","3000","1","","","images/purpleplanet.jpg","images/alien4","images/alien3","images/rocket1","images/alien4","images/t.png","2","real","true","2","common","1","2022-02-05 14:06:53.520"
"two-step-fixation","188","851165","0.0-76.0-2.17","877","669","25","Male","true","false","true","true","""event"",""trial"",""time""
""focus"",""1"",""4571""
""fullscreenenter"",""5"",""18431""
","
","""event"",""trial"",""time""
""focus"",""1"",""4571""
","""event"",""trial"",""time""
""fullscreenenter"",""5"",""18431""
","
","","images/earth.jpg","","","","","","","","","","","","","","fixation","","","","","",""
"d3-animate-choice","189","853676","0.0-76.0-0.18","877","669","25","Male","true","false","true","true","""event"",""trial"",""time""
""focus"",""1"",""4571""
""fullscreenenter"",""5"",""18431""
","
","""event"",""trial"",""time""
""focus"",""1"",""4571""
","""event"",""trial"",""time""
""fullscreenenter"",""5"",""18431""
","
","505","","48","","","3000","1","","","images/earth.jpg","images/rocket2","images/rocket1","null","images/rocket2","","1","real","null","2","","",""
"d3-animate-choice","190","857278","0.0-76.0-1.18","877","669","25","Male","true","false","true","true","""event"",""trial"",""time""
""focus"",""1"",""4571""
""fullscreenenter"",""5"",""18431""
","
","""event"",""trial"",""time""
""focus"",""1"",""4571""
","""event"",""trial"",""time""
""fullscreenenter"",""5"",""18431""
","
","1594.5999999642372","","49","","","3000","1","","","images/redplanet1.jpg","images/alien2","images/alien1","images/rocket2","images/alien1","images/nothing.png","2","real","true","1","common","0","2022-02-05 14:07:00.641"
"two-step-fixation","191","858283","0.0-76.0-2.18","877","669","25","Male","true","false","true","true","""event"",""trial"",""time""
""focus"",""1"",""4571""
""fullscreenenter"",""5"",""18431""
","
","""event"",""trial"",""time""
""focus"",""1"",""4571""
","""event"",""trial"",""time""
""fullscreenenter"",""5"",""18431""
","
","","images/earth.jpg","","","","","","","","","","","","","","fixation","","","","","",""
"d3-animate-choice","192","861027","0.0-76.0-0.19","877","669","25","Male","true","false","true","true","""event"",""trial"",""time""
""focus"",""1"",""4571""
""fullscreenenter"",""5"",""18431""
","
","""event"",""trial"",""time""
""focus"",""1"",""4571""
","""event"",""trial"",""time""
""fullscreenenter"",""5"",""18431""
","
","738.3000000119209","","49","","","3000","1","","","images/earth.jpg","images/rocket2","images/rocket1","null","images/rocket1","","1","real","null","1","","",""
"d3-animate-choice","193","864052","0.0-76.0-1.19","877","669","25","Male","true","false","true","true","""event"",""trial"",""time""
""focus"",""1"",""4571""
""fullscreenenter"",""5"",""18431""
","
","""event"",""trial"",""time""
""focus"",""1"",""4571""
","""event"",""trial"",""time""
""fullscreenenter"",""5"",""18431""
","
","1018.8999999761581","","49","","","3000","1","","","images/purpleplanet.jpg","images/alien4","images/alien3","images/rocket1","images/alien3","images/t.png","2","real","true","1","common","1","2022-02-05 14:07:07.414"
"two-step-fixation","194","865059","0.0-76.0-2.19","877","669","25","Male","true","false","true","true","""event"",""trial"",""time""
""focus"",""1"",""4571""
""fullscreenenter"",""5"",""18431""
","
","""event"",""trial"",""time""
""focus"",""1"",""4571""
","""event"",""trial"",""time""
""fullscreenenter"",""5"",""18431""
","
","","images/earth.jpg","","","","","","","","","","","","","","fixation","","","","","",""
"d3-animate-choice","195","868047","0.0-76.0-0.20","877","669","25","Male","true","false","true","true","""event"",""trial"",""time""
""focus"",""1"",""4571""
""fullscreenenter"",""5"",""18431""
","
","""event"",""trial"",""time""
""focus"",""1"",""4571""
","""event"",""trial"",""time""
""fullscreenenter"",""5"",""18431""
","
","979.9000000357628","","48","","","3000","1","","","images/earth.jpg","images/rocket2","images/rocket1","null","images/rocket2","","1","real","null","2","","",""
"d3-animate-choice","196","871563","0.0-76.0-1.20","877","669","25","Male","true","false","true","true","""event"",""trial"",""time""
""focus"",""1"",""4571""
""fullscreenenter"",""5"",""18431""
","
","""event"",""trial"",""time""
""focus"",""1"",""4571""
","""event"",""trial"",""time""
""fullscreenenter"",""5"",""18431""
","
","1510.800000011921","","48","","","3000","1","","","images/purpleplanet.jpg","images/alien4","images/alien3","images/rocket2","images/alien4","images/t.png","2","real","false","2","rare","1","2022-02-05 14:07:14.926"
"two-step-fixation","197","872569","0.0-76.0-2.20","877","669","25","Male","true","false","true","true","""event"",""trial"",""time""
""focus"",""1"",""4571""
""fullscreenenter"",""5"",""18431""
","
","""event"",""trial"",""time""
""focus"",""1"",""4571""
","""event"",""trial"",""time""
""fullscreenenter"",""5"",""18431""
","
","","images/earth.jpg","","","","","","","","","","","","","","fixation","","","","","",""
"d3-animate-choice","198","875110","0.0-76.0-0.21","877","669","25","Male","true","false","true","true","""event"",""trial"",""time""
""focus"",""1"",""4571""
""fullscreenenter"",""5"",""18431""
","
","""event"",""trial"",""time""
""focus"",""1"",""4571""
","""event"",""trial"",""time""
""fullscreenenter"",""5"",""18431""
","
","533","","49","","","3000","1","","","images/earth.jpg","images/rocket2","images/rocket1","null","images/rocket1","","1","real","null","1","","",""
"d3-animate-choice","199","878820","0.0-76.0-1.21","877","669","25","Male","true","false","true","true","""event"",""trial"",""time""
""focus"",""1"",""4571""
""fullscreenenter"",""5"",""18431""
","
","""event"",""trial"",""time""
""focus"",""1"",""4571""
","""event"",""trial"",""time""
""fullscreenenter"",""5"",""18431""
","
","1705.2999999523163","","49","","","3000","1","","","images/purpleplanet.jpg","images/alien4","images/alien3","images/rocket1","images/alien3","images/nothing.png","2","real","true","1","common","0","2022-02-05 14:07:22.182"
"two-step-fixation","200","879825","0.0-76.0-2.21","877","669","25","Male","true","false","true","true","""event"",""trial"",""time""
""focus"",""1"",""4571""
""fullscreenenter"",""5"",""18431""
","
","""event"",""trial"",""time""
""focus"",""1"",""4571""
","""event"",""trial"",""time""
""fullscreenenter"",""5"",""18431""
","
","","images/earth.jpg","","","","","","","","","","","","","","fixation","","","","","",""
"d3-animate-choice","201","882949","0.0-76.0-0.22","877","669","25","Male","true","false","true","true","""event"",""trial"",""time""
""focus"",""1"",""4571""
""fullscreenenter"",""5"",""18431""
","
","""event"",""trial"",""time""
""focus"",""1"",""4571""
","""event"",""trial"",""time""
""fullscreenenter"",""5"",""18431""
","
","1116.8999999761581","","48","","","3000","1","","","images/earth.jpg","images/rocket2","images/rocket1","null","images/rocket2","","1","real","null","2","","",""
"d3-animate-choice","202","885915","0.0-76.0-1.22","877","669","25","Male","true","false","true","true","""event"",""trial"",""time""
""focus"",""1"",""4571""
""fullscreenenter"",""5"",""18431""
","
","""event"",""trial"",""time""
""focus"",""1"",""4571""
","""event"",""trial"",""time""
""fullscreenenter"",""5"",""18431""
","
","960.5","","48","","","3000","1","","","images/redplanet1.jpg","images/alien2","images/alien1","images/rocket2","images/alien2","images/nothing.png","2","real","true","2","common","0","2022-02-05 14:07:29.278"
"two-step-fixation","203","886921","0.0-76.0-2.22","877","669","25","Male","true","false","true","true","""event"",""trial"",""time""
""focus"",""1"",""4571""
""fullscreenenter"",""5"",""18431""
","
","""event"",""trial"",""time""
""focus"",""1"",""4571""
","""event"",""trial"",""time""
""fullscreenenter"",""5"",""18431""
","
","","images/earth.jpg","","","","","","","","","","","","","","fixation","","","","","",""
"d3-animate-choice","204","889332","0.0-76.0-0.23","877","669","25","Male","true","false","true","true","""event"",""trial"",""time""
""focus"",""1"",""4571""
""fullscreenenter"",""5"",""18431""
","
","""event"",""trial"",""time""
""focus"",""1"",""4571""
","""event"",""trial"",""time""
""fullscreenenter"",""5"",""18431""
","
","405.19999998807907","","49","","","3000","1","","","images/earth.jpg","images/rocket2","images/rocket1","null","images/rocket1","","1","real","null","1","","",""
"d3-animate-choice","205","893330","0.0-76.0-1.23","877","669","25","Male","true","false","true","true","""event"",""trial"",""time""
""focus"",""1"",""4571""
""fullscreenenter"",""5"",""18431""
","
","""event"",""trial"",""time""
""focus"",""1"",""4571""
","""event"",""trial"",""time""
""fullscreenenter"",""5"",""18431""
","
","1993.300000011921","","49","","","3000","1","","","images/purpleplanet.jpg","images/alien4","images/alien3","images/rocket1","images/alien3","images/nothing.png","2","real","true","1","common","0","2022-02-05 14:07:36.693"
"two-step-fixation","206","894337","0.0-76.0-2.23","877","669","25","Male","true","false","true","true","""event"",""trial"",""time""
""focus"",""1"",""4571""
""fullscreenenter"",""5"",""18431""
","
","""event"",""trial"",""time""
""focus"",""1"",""4571""
","""event"",""trial"",""time""
""fullscreenenter"",""5"",""18431""
","
","","images/earth.jpg","","","","","","","","","","","","","","fixation","","","","","",""
"d3-animate-choice","207","896661","0.0-76.0-0.24","877","669","25","Male","true","false","true","true","""event"",""trial"",""time""
""focus"",""1"",""4571""
""fullscreenenter"",""5"",""18431""
","
","""event"",""trial"",""time""
""focus"",""1"",""4571""
","""event"",""trial"",""time""
""fullscreenenter"",""5"",""18431""
","
","315.39999997615814","","49","","","3000","1","","","images/earth.jpg","images/rocket2","images/rocket1","null","images/rocket1","","1","real","null","1","","",""
"d3-animate-choice","208","899790","0.0-76.0-1.24","877","669","25","Male","true","false","true","true","""event"",""trial"",""time""
""focus"",""1"",""4571""
""fullscreenenter"",""5"",""18431""
