"trial_type","trial_index","time_elapsed","internal_node_id","participant_id","subject_id","age","gender","rocket_sides","red_planet_first_rocket","red_display_order","purple_display_order","interactions","blur_events","focus_events","fullscreenenter_events","fullscreenexit_events","rt","stimulus","key_press","button_pressed","success","duration","valid_pressed","rts","keys","planet_text","right_text","left_text","center_text","chosen_text","reward_text","trial_stage","practice_trial","transition_type","choice","transition","reward","timestamp"
"pavlovia","0","3","0.0-0.0","787","833","22","Female","false","true","true","true","
","
","
","
","
","","","","","","","","","","","","","","","","","","","","","",""
"html-keyboard-response","1","2143","0.0-1.0","787","833","22","Female","false","true","true","true","
","
","
","
","
","2139.100000023842","Welcome! Press the space bar to begin.","32","","","","","","","","","","","","","","","","","","",""
"audio-keyboard-response","2","5013","0.0-2.0","787","833","22","Female","false","true","true","true","
","
","
","
","
","2789","audio/beep_loop.wav","32","","","","","","","","","","","","","","","","","","",""
"audio-button-response","3","9453","0.0-3.0","787","833","22","Female","false","true","true","true","
","
","
","
","
","NaN","audio/fish.mp3","","1","","","","","","","","","","","","","","","","","",""
"audio-button-response","4","11840","0.0-4.0","787","833","22","Female","false","true","true","true","""event"",""trial"",""time""
""fullscreenenter"",""5"",""15325""
","
","
","""event"",""trial"",""time""
""fullscreenenter"",""5"",""15325""
","
","NaN","audio/tiger.mp3","","4","","","","","","","","","","","","","","","","","",""
"fullscreen","5","16321","0.0-5.0","787","833","22","Female","false","true","true","true","""event"",""trial"",""time""
""fullscreenenter"",""5"",""15325""
","
","
","""event"",""trial"",""time""
""fullscreenenter"",""5"",""15325""
","
","","","","","true","","","","","","","","","","","","","","","","",""
"d3-instructions","6","33398","0.0-6.0","787","833","22","Female","false","true","true","true","""event"",""trial"",""time""
""fullscreenenter"",""5"",""15325""
","
","
","""event"",""trial"",""time""
""fullscreenenter"",""5"",""15325""
","
","","","","","","","","","","","","","","","","","","","","","",""
"d3-instructions","7","40893","0.0-7.0","787","833","22","Female","false","true","true","true","""event"",""trial"",""time""
""fullscreenenter"",""5"",""15325""
","
","
","""event"",""trial"",""time""
""fullscreenenter"",""5"",""15325""
","
","","","","","","","","","","","","","","","","","","","","","",""
"d3-instructions","8","47221","0.0-8.0","787","833","22","Female","false","true","true","true","""event"",""trial"",""time""
""fullscreenenter"",""5"",""15325""
","
","
","""event"",""trial"",""time""
""fullscreenenter"",""5"",""15325""
","
","","","","","","","","","","","","","","","","","","","","","",""
"d3-instructions","9","57829","0.0-9.0","787","833","22","Female","false","true","true","true","""event"",""trial"",""time""
""fullscreenenter"",""5"",""15325""
","
","
","""event"",""trial"",""time""
""fullscreenenter"",""5"",""15325""
","
","","","","","","","","","","","","","","","","","","","","","",""
"d3-instructions","10","77292","0.0-10.0","787","833","22","Female","false","true","true","true","""event"",""trial"",""time""
""fullscreenenter"",""5"",""15325""
","
","
","""event"",""trial"",""time""
""fullscreenenter"",""5"",""15325""
","
","","","","","","","","","","","","","","","","","","","","","",""
"d3-animate-choice","11","80011","0.0-11.0","787","833","22","Female","false","true","true","true","""event"",""trial"",""time""
""fullscreenenter"",""5"",""15325""
","
","
","""event"",""trial"",""time""
""fullscreenenter"",""5"",""15325""
","
","711.1000000238419","","49","","","3000","1","1816.6999999284744,2572.1999999284744","48,48","images/tutgreenplanet.jpg","images/tutalien1","images/tutalien2","null","images/tutalien2","","NA","practice","null","","","",""
"d3-animate-choice","12","82799","0.0-12.0","787","833","22","Female","false","true","true","true","""event"",""trial"",""time""
""fullscreenenter"",""5"",""15325""
","
","
","""event"",""trial"",""time""
""fullscreenenter"",""5"",""15325""
","
","780.6000000238419","","48","","","3000","1","","","images/tutgreenplanet.jpg","images/tutalien1","images/tutalien2","null","images/tutalien1","","NA","practice","null","","","",""
"d3-animate-choice","13","85269","0.0-13.0","787","833","22","Female","false","true","true","true","""event"",""trial"",""time""
""fullscreenenter"",""5"",""15325""
","
","
","""event"",""trial"",""time""
""fullscreenenter"",""5"",""15325""
","
","451.7999999523163","","49","","","3000","1","","","images/tutgreenplanet.jpg","images/tutalien1","images/tutalien2","null","images/tutalien2","","NA","practice","null","","","",""
"d3-animate-choice","14","87597","0.0-14.0","787","833","22","Female","false","true","true","true","""event"",""trial"",""time""
""fullscreenenter"",""5"",""15325""
","
","
","""event"",""trial"",""time""
""fullscreenenter"",""5"",""15325""
","
","311.10000002384186","","49","","","3000","1","","","images/tutgreenplanet.jpg","images/tutalien1","images/tutalien2","null","images/tutalien2","","NA","practice","null","","","",""
"d3-instructions","15","93742","0.0-15.0","787","833","22","Female","false","true","true","true","""event"",""trial"",""time""
""fullscreenenter"",""5"",""15325""
","
","
","""event"",""trial"",""time""
""fullscreenenter"",""5"",""15325""
","
","","","","","","","","","","","","","","","","","","","","","",""
"d3-instructions","16","100658","0.0-16.0","787","833","22","Female","false","true","true","true","""event"",""trial"",""time""
""fullscreenenter"",""5"",""15325""
","
","
","""event"",""trial"",""time""
""fullscreenenter"",""5"",""15325""
","
","","","","","","","","","","","","","","","","","","","","","",""
"d3-instructions","17","109388","0.0-17.0","787","833","22","Female","false","true","true","true","""event"",""trial"",""time""
""fullscreenenter"",""5"",""15325""
","
","
","""event"",""trial"",""time""
""fullscreenenter"",""5"",""15325""
","
","","","","","","","","","","","","","","","","","","","","","",""
"d3-instructions","18","123375","0.0-18.0","787","833","22","Female","false","true","true","true","""event"",""trial"",""time""
""fullscreenenter"",""5"",""15325""
","
","
","""event"",""trial"",""time""
""fullscreenenter"",""5"",""15325""
","
","","","","","","","","","","","","","","","","","","","","","",""
"d3-instructions","19","132195","0.0-19.0","787","833","22","Female","false","true","true","true","""event"",""trial"",""time""
""fullscreenenter"",""5"",""15325""
","
","
","""event"",""trial"",""time""
""fullscreenenter"",""5"",""15325""
","
","","","","","","","","","","","","","","","","","","","","","",""
"d3-animate-choice","20","135168","0.0-20.0","787","833","22","Female","false","true","true","true","""event"",""trial"",""time""
""fullscreenenter"",""5"",""15325""
","
","
","""event"",""trial"",""time""
""fullscreenenter"",""5"",""15325""
","
","961","","49","","","3000","1","1671.2999999523163","49","images/tutyellowplanet.jpg","null","images/tutalien3","null","images/tutalien3","images/t.png","NA","practice","null","","","",""
"d3-animate-choice","21","137485","0.0-21.0","787","833","22","Female","false","true","true","true","""event"",""trial"",""time""
""fullscreenenter"",""5"",""15325""
","
","
","""event"",""trial"",""time""
""fullscreenenter"",""5"",""15325""
","
","310.10000002384186","","49","","","3000","1","","","images/tutyellowplanet.jpg","null","images/tutalien3","null","images/tutalien3","images/t.png","NA","practice","null","","","",""
"d3-animate-choice","22","139541","0.0-22.0","787","833","22","Female","false","true","true","true","""event"",""trial"",""time""
""fullscreenenter"",""5"",""15325""
","
","
","""event"",""trial"",""time""
""fullscreenenter"",""5"",""15325""
","
","48.5","","49","","","3000","1","","","images/tutyellowplanet.jpg","null","images/tutalien3","null","images/tutalien3","images/nothing.png","NA","practice","null","","","",""
"d3-animate-choice","23","141784","0.0-23.0","787","833","22","Female","false","true","true","true","""event"",""trial"",""time""
""fullscreenenter"",""5"",""15325""
","
","
","""event"",""trial"",""time""
""fullscreenenter"",""5"",""15325""
","
","235.5","","49","","","3000","1","","","images/tutyellowplanet.jpg","null","images/tutalien3","null","images/tutalien3","images/t.png","NA","practice","null","","","",""
"d3-animate-choice","24","144027","0.0-24.0","787","833","22","Female","false","true","true","true","""event"",""trial"",""time""
""fullscreenenter"",""5"",""15325""
","
","
","""event"",""trial"",""time""
""fullscreenenter"",""5"",""15325""
","
","226","","49","","","3000","1","","","images/tutyellowplanet.jpg","null","images/tutalien3","null","images/tutalien3","images/nothing.png","NA","practice","null","","","",""
"d3-animate-choice","25","146183","0.0-25.0","787","833","22","Female","false","true","true","true","""event"",""trial"",""time""
""fullscreenenter"",""5"",""15325""
","
","
","""event"",""trial"",""time""
""fullscreenenter"",""5"",""15325""
","
","152.39999997615814","","49","","","3000","1","","","images/tutyellowplanet.jpg","null","images/tutalien3","null","images/tutalien3","images/t.png","NA","practice","null","","","",""
"d3-animate-choice","26","148263","0.0-26.0","787","833","22","Female","false","true","true","true","""event"",""trial"",""time""
""fullscreenenter"",""5"",""15325""
","
","
","""event"",""trial"",""time""
""fullscreenenter"",""5"",""15325""
","
","68.5","","49","","","3000","1","","","images/tutyellowplanet.jpg","null","images/tutalien3","null","images/tutalien3","images/t.png","NA","practice","null","","","",""
"d3-animate-choice","27","150347","0.0-27.0","787","833","22","Female","false","true","true","true","""event"",""trial"",""time""
""fullscreenenter"",""5"",""15325""
","
","
","""event"",""trial"",""time""
""fullscreenenter"",""5"",""15325""
","
","82.10000002384186","","49","","","3000","1","","","images/tutyellowplanet.jpg","null","images/tutalien3","null","images/tutalien3","images/t.png","NA","practice","null","","","",""
"d3-animate-choice","28","152545","0.0-28.0","787","833","22","Female","false","true","true","true","""event"",""trial"",""time""
""fullscreenenter"",""5"",""15325""
","
","
","""event"",""trial"",""time""
""fullscreenenter"",""5"",""15325""
","
","189.70000004768372","","49","","","3000","1","","","images/tutyellowplanet.jpg","null","images/tutalien3","null","images/tutalien3","images/t.png","NA","practice","null","","","",""
"d3-animate-choice","29","154651","0.0-29.0","787","833","22","Female","false","true","true","true","""event"",""trial"",""time""
""fullscreenenter"",""5"",""15325""
","
","
","""event"",""trial"",""time""
""fullscreenenter"",""5"",""15325""
","
","98.59999990463257","","49","","","3000","1","","","images/tutyellowplanet.jpg","null","images/tutalien3","null","images/tutalien3","images/t.png","NA","practice","null","","","",""
"d3-instructions","30","163288","0.0-30.0","787","833","22","Female","false","true","true","true","""event"",""trial"",""time""
""fullscreenenter"",""5"",""15325""
","
","
","""event"",""trial"",""time""
""fullscreenenter"",""5"",""15325""
","
","","","","","","","","","","","","","","","","","","","","","",""
"d3-instructions","31","173812","0.0-31.0","787","833","22","Female","false","true","true","true","""event"",""trial"",""time""
""fullscreenenter"",""5"",""15325""
","
","
","""event"",""trial"",""time""
""fullscreenenter"",""5"",""15325""
","
","","","","","","","","","","","","","","","","","","","","","",""
"d3-instructions","32","180638","0.0-32.0","787","833","22","Female","false","true","true","true","""event"",""trial"",""time""
""fullscreenenter"",""5"",""15325""
","
","
","""event"",""trial"",""time""
""fullscreenenter"",""5"",""15325""
","
","","","","","","","","","","","","","","","","","","","","","",""
"d3-instructions","33","184780","0.0-33.0","787","833","22","Female","false","true","true","true","""event"",""trial"",""time""
""fullscreenenter"",""5"",""15325""
","
","
","""event"",""trial"",""time""
""fullscreenenter"",""5"",""15325""
","
","","","","","","","","","","","","","","","","","","","","","",""
"d3-animate-choice","34","187946","0.0-34.0","787","833","22","Female","false","true","true","true","""event"",""trial"",""time""
""fullscreenenter"",""5"",""15325""
","
","
","""event"",""trial"",""time""
""fullscreenenter"",""5"",""15325""
","
","1150.3999999761581","","49","","","3000","1","","","images/tutgreenplanet.jpg","images/tutalien1","images/tutalien2","null","images/tutalien2","images/t.png","NA","practice","null","","","",""
"d3-animate-choice","35","190244","0.0-35.0","787","833","22","Female","false","true","true","true","""event"",""trial"",""time""
""fullscreenenter"",""5"",""15325""
","
","
","""event"",""trial"",""time""
""fullscreenenter"",""5"",""15325""
","
","291.1999999284744","","49","","","3000","1","","","images/tutgreenplanet.jpg","images/tutalien1","images/tutalien2","null","images/tutalien2","images/t.png","NA","practice","null","","","",""
"d3-animate-choice","36","192486","0.0-36.0","787","833","22","Female","false","true","true","true","""event"",""trial"",""time""
""fullscreenenter"",""5"",""15325""
","
","
","""event"",""trial"",""time""
""fullscreenenter"",""5"",""15325""
","
","239.70000004768372","","49","","","3000","1","","","images/tutgreenplanet.jpg","images/tutalien1","images/tutalien2","null","images/tutalien2","images/nothing.png","NA","practice","null","","","",""
"d3-animate-choice","37","194624","0.0-37.0","787","833","22","Female","false","true","true","true","""event"",""trial"",""time""
""fullscreenenter"",""5"",""15325""
","
","
","""event"",""trial"",""time""
""fullscreenenter"",""5"",""15325""
","
","128.19999992847443","","49","","","3000","1","","","images/tutgreenplanet.jpg","images/tutalien1","images/tutalien2","null","images/tutalien2","images/t.png","NA","practice","null","","","",""
"d3-animate-choice","38","196893","0.0-38.0","787","833","22","Female","false","true","true","true","""event"",""trial"",""time""
""fullscreenenter"",""5"",""15325""
","
","
","""event"",""trial"",""time""
""fullscreenenter"",""5"",""15325""
","
","252","","48","","","3000","1","","","images/tutgreenplanet.jpg","images/tutalien1","images/tutalien2","null","images/tutalien1","images/nothing.png","NA","practice","null","","","",""
"d3-animate-choice","39","199110","0.0-39.0","787","833","22","Female","false","true","true","true","""event"",""trial"",""time""
""fullscreenenter"",""5"",""15325""
","
","
","""event"",""trial"",""time""
""fullscreenenter"",""5"",""15325""
","
","206.09999990463257","","48","","","3000","1","","","images/tutgreenplanet.jpg","images/tutalien1","images/tutalien2","null","images/tutalien1","images/nothing.png","NA","practice","null","","","",""
"d3-animate-choice","40","201292","0.0-40.0","787","833","22","Female","false","true","true","true","""event"",""trial"",""time""
""fullscreenenter"",""5"",""15325""
","
","
","""event"",""trial"",""time""
""fullscreenenter"",""5"",""15325""
","
","180.40000009536743","","49","","","3000","1","","","images/tutgreenplanet.jpg","images/tutalien1","images/tutalien2","null","images/tutalien2","images/t.png","NA","practice","null","","","",""
"d3-animate-choice","41","203482","0.0-41.0","787","833","22","Female","false","true","true","true","""event"",""trial"",""time""
""fullscreenenter"",""5"",""15325""
","
","
","""event"",""trial"",""time""
""fullscreenenter"",""5"",""15325""
","
","174.59999990463257","","49","","","3000","1","2112.399999976158","49","images/tutgreenplanet.jpg","images/tutalien1","images/tutalien2","null","images/tutalien2","images/t.png","NA","practice","null","","","",""
"d3-animate-choice","42","205820","0.0-42.0","787","833","22","Female","false","true","true","true","""event"",""trial"",""time""
""fullscreenenter"",""5"",""15325""
","
","
","""event"",""trial"",""time""
""fullscreenenter"",""5"",""15325""
","
","334.10000002384186","","49","","","3000","1","","","images/tutgreenplanet.jpg","images/tutalien1","images/tutalien2","null","images/tutalien2","images/t.png","NA","practice","null","","","",""
"d3-animate-choice","43","207995","0.0-43.0","787","833","22","Female","false","true","true","true","""event"",""trial"",""time""
""fullscreenenter"",""5"",""15325""
","
","
","""event"",""trial"",""time""
""fullscreenenter"",""5"",""15325""
","
","159.10000002384186","","49","","","3000","1","","","images/tutgreenplanet.jpg","images/tutalien1","images/tutalien2","null","images/tutalien2","images/t.png","NA","practice","null","","","",""
"d3-instructions","44","216917","0.0-44.0","787","833","22","Female","false","true","true","true","""event"",""trial"",""time""
""fullscreenenter"",""5"",""15325""
","
","
","""event"",""trial"",""time""
""fullscreenenter"",""5"",""15325""
","
","","","","","","","","","","","","","","","","","","","","","",""
"d3-instructions","45","219297","0.0-45.0","787","833","22","Female","false","true","true","true","""event"",""trial"",""time""
""fullscreenenter"",""5"",""15325""
","
","
","""event"",""trial"",""time""
""fullscreenenter"",""5"",""15325""
","
","","","","","","","","","","","","","","","","","","","","","",""
"d3-instructions","46","223563","0.0-46.0","787","833","22","Female","false","true","true","true","""event"",""trial"",""time""
""fullscreenenter"",""5"",""15325""
","
","
","""event"",""trial"",""time""
""fullscreenenter"",""5"",""15325""
","
","","","","","","","","","","","","","","","","","","","","","",""
"d3-instructions","47","240095","0.0-47.0","787","833","22","Female","false","true","true","true","""event"",""trial"",""time""
""fullscreenenter"",""5"",""15325""
","
","
","""event"",""trial"",""time""
""fullscreenenter"",""5"",""15325""
","
","","","","","","","","","","","","","","","","","","","","","",""
"d3-instructions","48","249665","0.0-48.0","787","833","22","Female","false","true","true","true","""event"",""trial"",""time""
""fullscreenenter"",""5"",""15325""
","
","
","""event"",""trial"",""time""
""fullscreenenter"",""5"",""15325""
","
","","","","","","","","","","","","","","","","","","","","","",""
"d3-instructions","49","258373","0.0-49.0","787","833","22","Female","false","true","true","true","""event"",""trial"",""time""
""fullscreenenter"",""5"",""15325""
","
","
","""event"",""trial"",""time""
""fullscreenenter"",""5"",""15325""
","
","","","","","","","","","","","","","","","","","","","","","",""
"d3-instructions","50","261116","0.0-50.0","787","833","22","Female","false","true","true","true","""event"",""trial"",""time""
""fullscreenenter"",""5"",""15325""
","
","
","""event"",""trial"",""time""
""fullscreenenter"",""5"",""15325""
","
","","","","","","","","","","","","","","","","","","","","","",""
"d3-instructions","51","263417","0.0-51.0","787","833","22","Female","false","true","true","true","""event"",""trial"",""time""
""fullscreenenter"",""5"",""15325""
","
","
","""event"",""trial"",""time""
""fullscreenenter"",""5"",""15325""
","
","","","","","","","","","","","","","","","","","","","","","",""
"d3-instructions","52","265539","0.0-52.0","787","833","22","Female","false","true","true","true","""event"",""trial"",""time""
""fullscreenenter"",""5"",""15325""
","
","
","""event"",""trial"",""time""
""fullscreenenter"",""5"",""15325""
","
","","","","","","","","","","","","","","","","","","","","","",""
"d3-instructions","53","274518","0.0-53.0","787","833","22","Female","false","true","true","true","""event"",""trial"",""time""
""fullscreenenter"",""5"",""15325""
","
","
","""event"",""trial"",""time""
""fullscreenenter"",""5"",""15325""
","
","","","","","","","","","","","","","","","","","","","","","",""
"d3-instructions","54","286878","0.0-54.0","787","833","22","Female","false","true","true","true","""event"",""trial"",""time""
""fullscreenenter"",""5"",""15325""
","
","
","""event"",""trial"",""time""
""fullscreenenter"",""5"",""15325""
","
","","","","","","","","","","","","","","","","","","","","","",""
"d3-instructions","55","291550","0.0-55.0","787","833","22","Female","false","true","true","true","""event"",""trial"",""time""
""fullscreenenter"",""5"",""15325""
","
","
","""event"",""trial"",""time""
""fullscreenenter"",""5"",""15325""
","
","","","","","","","","","","","","","","","","","","","","","",""
"d3-instructions","56","295583","0.0-56.0","787","833","22","Female","false","true","true","true","""event"",""trial"",""time""
""fullscreenenter"",""5"",""15325""
","
","
","""event"",""trial"",""time""
""fullscreenenter"",""5"",""15325""
","
","","","","","","","","","","","","","","","","","","","","","",""
"d3-instructions","57","298683","0.0-57.0","787","833","22","Female","false","true","true","true","""event"",""trial"",""time""
""fullscreenenter"",""5"",""15325""
","
","
","""event"",""trial"",""time""
""fullscreenenter"",""5"",""15325""
","
","","","","","","","","","","","","","","","","","","","","","",""
"d3-instructions","58","302279","0.0-58.0","787","833","22","Female","false","true","true","true","""event"",""trial"",""time""
""fullscreenenter"",""5"",""15325""
","
","
","""event"",""trial"",""time""
""fullscreenenter"",""5"",""15325""
","
","","","","","","","","","","","","","","","","","","","","","",""
"d3-instructions","59","304022","0.0-59.0","787","833","22","Female","false","true","true","true","""event"",""trial"",""time""
""fullscreenenter"",""5"",""15325""
","
","
","""event"",""trial"",""time""
""fullscreenenter"",""5"",""15325""
","
","","","","","","","","","","","","","","","","","","","","","",""
"d3-instructions","60","307725","0.0-60.0","787","833","22","Female","false","true","true","true","""event"",""trial"",""time""
""fullscreenenter"",""5"",""15325""
","
","
","""event"",""trial"",""time""
""fullscreenenter"",""5"",""15325""
","
","","","","","","","","","","","","","","","","","","","","","",""
"d3-animate-choice","61","310743","0.0-61.0-0.0","787","833","22","Female","false","true","true","true","""event"",""trial"",""time""
""fullscreenenter"",""5"",""15325""
","
","
","""event"",""trial"",""time""
""fullscreenenter"",""5"",""15325""
","
","1013.7000000476837","","49","","","3000","1","","","images/earth.jpg","images/tutrocket2","images/tutrocket1","null","images/tutrocket1","","1","practice","null","1","","",""
"d3-animate-choice","62","313839","0.0-61.0-1.0","787","833","22","Female","false","true","true","true","""event"",""trial"",""time""
""fullscreenenter"",""5"",""15325""
","
","
","""event"",""trial"",""time""
""fullscreenenter"",""5"",""15325""
","
","1090.1000000238419","","48","","","3000","1","","","images/tutgreenplanet.jpg","images/tutalien2","images/tutalien1","images/tutrocket1","images/tutalien2","images/nothing.png","2","practice","true","2","common","0","2022-02-20 05:15:03.893"
"two-step-fixation","63","314841","0.0-61.0-2.0","787","833","22","Female","false","true","true","true","""event"",""trial"",""time""
""fullscreenenter"",""5"",""15325""
","
","
","""event"",""trial"",""time""
""fullscreenenter"",""5"",""15325""
","
","","images/earth.jpg","","","","","","","","","","","","","","fixation","","","","","",""
"d3-animate-choice","64","317303","0.0-61.0-0.1","787","833","22","Female","false","true","true","true","""event"",""trial"",""time""
""fullscreenenter"",""5"",""15325""
","
","
","""event"",""trial"",""time""
""fullscreenenter"",""5"",""15325""
","
","460.2999999523163","","49","","","3000","1","","","images/earth.jpg","images/tutrocket2","images/tutrocket1","null","images/tutrocket1","","1","practice","null","1","","",""
"d3-animate-choice","65","319698","0.0-61.0-1.1","787","833","22","Female","false","true","true","true","""event"",""trial"",""time""
""fullscreenenter"",""5"",""15325""
","
","
","""event"",""trial"",""time""
""fullscreenenter"",""5"",""15325""
","
","379.10000002384186","","49","","","3000","1","","","images/tutgreenplanet.jpg","images/tutalien2","images/tutalien1","images/tutrocket1","images/tutalien1","images/nothing.png","2","practice","true","1","common","0","2022-02-20 05:15:09.752"
"two-step-fixation","66","320709","0.0-61.0-2.1","787","833","22","Female","false","true","true","true","""event"",""trial"",""time""
""fullscreenenter"",""5"",""15325""
","
","
","""event"",""trial"",""time""
""fullscreenenter"",""5"",""15325""
","
","","images/earth.jpg","","","","","","","","","","","","","","fixation","","","","","",""
"d3-animate-choice","67","322930","0.0-61.0-0.2","787","833","22","Female","false","true","true","true","""event"",""trial"",""time""
""fullscreenenter"",""5"",""15325""
","
","
","""event"",""trial"",""time""
""fullscreenenter"",""5"",""15325""
","
","216.70000004768372","","49","","","3000","1","","","images/earth.jpg","images/tutrocket2","images/tutrocket1","null","images/tutrocket1","","1","practice","null","1","","",""
"d3-animate-choice","68","325405","0.0-61.0-1.2","787","833","22","Female","false","true","true","true","""event"",""trial"",""time""
""fullscreenenter"",""5"",""15325""
","
","
","""event"",""trial"",""time""
""fullscreenenter"",""5"",""15325""
","
","464.89999997615814","","49","","","3000","1","","","images/tutgreenplanet.jpg","images/tutalien2","images/tutalien1","images/tutrocket1","images/tutalien1","images/nothing.png","2","practice","true","1","common","0","2022-02-20 05:15:15.459"
"two-step-fixation","69","326419","0.0-61.0-2.2","787","833","22","Female","false","true","true","true","""event"",""trial"",""time""
""fullscreenenter"",""5"",""15325""
","
","
","""event"",""trial"",""time""
""fullscreenenter"",""5"",""15325""
","
","","images/earth.jpg","","","","","","","","","","","","","","fixation","","","","","",""
"d3-animate-choice","70","328653","0.0-61.0-0.3","787","833","22","Female","false","true","true","true","""event"",""trial"",""time""
""fullscreenenter"",""5"",""15325""
","
","
","""event"",""trial"",""time""
""fullscreenenter"",""5"",""15325""
","
","216.60000002384186","","49","","","3000","1","","","images/earth.jpg","images/tutrocket2","images/tutrocket1","null","images/tutrocket1","","1","practice","null","1","","",""
"d3-animate-choice","71","330926","0.0-61.0-1.3","787","833","22","Female","false","true","true","true","""event"",""trial"",""time""
""fullscreenenter"",""5"",""15325""
","
","
","""event"",""trial"",""time""
""fullscreenenter"",""5"",""15325""
","
","271.59999990463257","","48","","","3000","1","","","images/tutgreenplanet.jpg","images/tutalien2","images/tutalien1","images/tutrocket1","images/tutalien2","images/t.png","2","practice","true","2","common","1","2022-02-20 05:15:20.980"
"two-step-fixation","72","331936","0.0-61.0-2.3","787","833","22","Female","false","true","true","true","""event"",""trial"",""time""
""fullscreenenter"",""5"",""15325""
","
","
","""event"",""trial"",""time""
""fullscreenenter"",""5"",""15325""
","
","","images/earth.jpg","","","","","","","","","","","","","","fixation","","","","","",""
"d3-animate-choice","73","334184","0.0-61.0-0.4","787","833","22","Female","false","true","true","true","""event"",""trial"",""time""
""fullscreenenter"",""5"",""15325""
","
","
","""event"",""trial"",""time""
""fullscreenenter"",""5"",""15325""
","
","239.30000007152557","","49","","","3000","1","","","images/earth.jpg","images/tutrocket2","images/tutrocket1","null","images/tutrocket1","","1","practice","null","1","","",""
"d3-animate-choice","74","336413","0.0-61.0-1.4","787","833","22","Female","false","true","true","true","""event"",""trial"",""time""
""fullscreenenter"",""5"",""15325""
","
","
","""event"",""trial"",""time""
""fullscreenenter"",""5"",""15325""
","
","213.39999997615814","","48","","","3000","1","","","images/tutgreenplanet.jpg","images/tutalien2","images/tutalien1","images/tutrocket1","images/tutalien2","images/nothing.png","2","practice","true","2","common","0","2022-02-20 05:15:26.467"
"two-step-fixation","75","337427","0.0-61.0-2.4","787","833","22","Female","false","true","true","true","""event"",""trial"",""time""
""fullscreenenter"",""5"",""15325""
","
","
","""event"",""trial"",""time""
""fullscreenenter"",""5"",""15325""
","
","","images/earth.jpg","","","","","","","","","","","","","","fixation","","","","","",""
"d3-animate-choice","76","340415","0.0-61.0-0.5","787","833","22","Female","false","true","true","true","""event"",""trial"",""time""
""fullscreenenter"",""5"",""15325""
","
","
","""event"",""trial"",""time""
""fullscreenenter"",""5"",""15325""
","
","986","","48","","","3000","1","","","images/earth.jpg","images/tutrocket2","images/tutrocket1","null","images/tutrocket2","","1","practice","null","2","","",""
"d3-animate-choice","77","342851","0.0-61.0-1.5","787","833","22","Female","false","true","true","true","""event"",""trial"",""time""
""fullscreenenter"",""5"",""15325""
","
","
","""event"",""trial"",""time""
""fullscreenenter"",""5"",""15325""
","
","434","","48","","","3000","1","","","images/tutyellowplanet.jpg","images/tutalien4","images/tutalien3","images/tutrocket2","images/tutalien4","images/t.png","2","practice","true","2","common","1","2022-02-20 05:15:32.905"
"two-step-fixation","78","343854","0.0-61.0-2.5","787","833","22","Female","false","true","true","true","""event"",""trial"",""time""
""fullscreenenter"",""5"",""15325""
","
","
","""event"",""trial"",""time""
""fullscreenenter"",""5"",""15325""
","
","","images/earth.jpg","","","","","","","","","","","","","","fixation","","","","","",""
"d3-animate-choice","79","346212","0.0-61.0-0.6","787","833","22","Female","false","true","true","true","""event"",""trial"",""time""
""fullscreenenter"",""5"",""15325""
","
","
","""event"",""trial"",""time""
""fullscreenenter"",""5"",""15325""
","
","355.5","","48","","","3000","1","","","images/earth.jpg","images/tutrocket2","images/tutrocket1","null","images/tutrocket2","","1","practice","null","2","","",""
"d3-animate-choice","80","348430","0.0-61.0-1.6","787","833","22","Female","false","true","true","true","""event"",""trial"",""time""
""fullscreenenter"",""5"",""15325""
","
","
","""event"",""trial"",""time""
""fullscreenenter"",""5"",""15325""
","
","215.79999995231628","","48","","","3000","1","","","images/tutyellowplanet.jpg","images/tutalien4","images/tutalien3","images/tutrocket2","images/tutalien4","images/nothing.png","2","practice","true","2","common","0","2022-02-20 05:15:38.484"
"two-step-fixation","81","349432","0.0-61.0-2.6","787","833","22","Female","false","true","true","true","""event"",""trial"",""time""
""fullscreenenter"",""5"",""15325""
","
","
","""event"",""trial"",""time""
""fullscreenenter"",""5"",""15325""
","
","","images/earth.jpg","","","","","","","","","","","","","","fixation","","","","","",""
"d3-animate-choice","82","351642","0.0-61.0-0.7","787","833","22","Female","false","true","true","true","""event"",""trial"",""time""
""fullscreenenter"",""5"",""15325""
","
","
","""event"",""trial"",""time""
""fullscreenenter"",""5"",""15325""
","
","207.69999992847443","","48","","","3000","1","","","images/earth.jpg","images/tutrocket2","images/tutrocket1","null","images/tutrocket2","","1","practice","null","2","","",""
"d3-animate-choice","83","353942","0.0-61.0-1.7","787","833","22","Female","false","true","true","true","""event"",""trial"",""time""
""fullscreenenter"",""5"",""15325""
","
","
","""event"",""trial"",""time""
""fullscreenenter"",""5"",""15325""
","
","297.7999999523163","","48","","","3000","1","","","images/tutyellowplanet.jpg","images/tutalien4","images/tutalien3","images/tutrocket2","images/tutalien4","images/t.png","2","practice","true","2","common","1","2022-02-20 05:15:43.996"
"two-step-fixation","84","354944","0.0-61.0-2.7","787","833","22","Female","false","true","true","true","""event"",""trial"",""time""
""fullscreenenter"",""5"",""15325""
","
","
","""event"",""trial"",""time""
""fullscreenenter"",""5"",""15325""
","
","","images/earth.jpg","","","","","","","","","","","","","","fixation","","","","","",""
"d3-animate-choice","85","357200","0.0-61.0-0.8","787","833","22","Female","false","true","true","true","""event"",""trial"",""time""
""fullscreenenter"",""5"",""15325""
","
","
","""event"",""trial"",""time""
""fullscreenenter"",""5"",""15325""
","
","252.89999997615814","","48","","","3000","1","","","images/earth.jpg","images/tutrocket2","images/tutrocket1","null","images/tutrocket2","","1","practice","null","2","","",""
"d3-animate-choice","86","359546","0.0-61.0-1.8","787","833","22","Female","false","true","true","true","""event"",""trial"",""time""
""fullscreenenter"",""5"",""15325""
","
","
","""event"",""trial"",""time""
""fullscreenenter"",""5"",""15325""
","
","345","","48","","","3000","1","","","images/tutyellowplanet.jpg","images/tutalien4","images/tutalien3","images/tutrocket2","images/tutalien4","images/t.png","2","practice","true","2","common","1","2022-02-20 05:15:49.600"
"two-step-fixation","87","360548","0.0-61.0-2.8","787","833","22","Female","false","true","true","true","""event"",""trial"",""time""
""fullscreenenter"",""5"",""15325""
","
","
","""event"",""trial"",""time""
""fullscreenenter"",""5"",""15325""
","
","","images/earth.jpg","","","","","","","","","","","","","","fixation","","","","","",""
"d3-animate-choice","88","362794","0.0-61.0-0.9","787","833","22","Female","false","true","true","true","""event"",""trial"",""time""
""fullscreenenter"",""5"",""15325""
","
","
","""event"",""trial"",""time""
""fullscreenenter"",""5"",""15325""
","
","243.5","","48","","","3000","1","","","images/earth.jpg","images/tutrocket2","images/tutrocket1","null","images/tutrocket2","","1","practice","null","2","","",""
"d3-animate-choice","89","365019","0.0-61.0-1.9","787","833","22","Female","false","true","true","true","""event"",""trial"",""time""
""fullscreenenter"",""5"",""15325""
","
","
","""event"",""trial"",""time""
""fullscreenenter"",""5"",""15325""
","
","223.79999995231628","","48","","","3000","1","","","images/tutyellowplanet.jpg","images/tutalien4","images/tutalien3","images/tutrocket2","images/tutalien4","images/nothing.png","2","practice","true","2","common","0","2022-02-20 05:15:55.073"
"two-step-fixation","90","366021","0.0-61.0-2.9","787","833","22","Female","false","true","true","true","""event"",""trial"",""time""
""fullscreenenter"",""5"",""15325""
","
","
","""event"",""trial"",""time""
""fullscreenenter"",""5"",""15325""
","
","","images/earth.jpg","","","","","","","","","","","","","","fixation","","","","","",""
"d3-animate-choice","91","368270","0.0-61.0-0.10","787","833","22","Female","false","true","true","true","""event"",""trial"",""time""
""fullscreenenter"",""5"",""15325""
","
","
","""event"",""trial"",""time""
""fullscreenenter"",""5"",""15325""
","
","247","","48","","","3000","1","","","images/earth.jpg","images/tutrocket2","images/tutrocket1","null","images/tutrocket2","","1","practice","null","2","","",""
"d3-animate-choice","92","370509","0.0-61.0-1.10","787","833","22","Female","false","true","true","true","""event"",""trial"",""time""
""fullscreenenter"",""5"",""15325""
","
","
","""event"",""trial"",""time""
""fullscreenenter"",""5"",""15325""
","
","236.89999997615814","","48","","","3000","1","","","images/tutyellowplanet.jpg","images/tutalien4","images/tutalien3","images/tutrocket2","images/tutalien4","images/nothing.png","2","practice","true","2","common","0","2022-02-20 05:16:00.564"
"two-step-fixation","93","371513","0.0-61.0-2.10","787","833","22","Female","false","true","true","true","""event"",""trial"",""time""
""fullscreenenter"",""5"",""15325""
","
","
","""event"",""trial"",""time""
""fullscreenenter"",""5"",""15325""
","
","","images/earth.jpg","","","","","","","","","","","","","","fixation","","","","","",""
"d3-animate-choice","94","373972","0.0-61.0-0.11","787","833","22","Female","false","true","true","true","""event"",""trial"",""time""
""fullscreenenter"",""5"",""15325""
","
","
","""event"",""trial"",""time""
""fullscreenenter"",""5"",""15325""
","
","456.7999999523163","","48","","","3000","1","","","images/earth.jpg","images/tutrocket2","images/tutrocket1","null","images/tutrocket2","","1","practice","null","2","","",""
"d3-animate-choice","95","376452","0.0-61.0-1.11","787","833","22","Female","false","true","true","true","""event"",""trial"",""time""
""fullscreenenter"",""5"",""15325""
","
","
","""event"",""trial"",""time""
""fullscreenenter"",""5"",""15325""
","
","478.2999999523163","","49","","","3000","1","","","images/tutyellowplanet.jpg","images/tutalien4","images/tutalien3","images/tutrocket2","images/tutalien3","images/nothing.png","2","practice","true","1","common","0","2022-02-20 05:16:06.506"
"two-step-fixation","96","377455","0.0-61.0-2.11","787","833","22","Female","false","true","true","true","""event"",""trial"",""time""
""fullscreenenter"",""5"",""15325""
","
","
","""event"",""trial"",""time""
""fullscreenenter"",""5"",""15325""
","
","","images/earth.jpg","","","","","","","","","","","","","","fixation","","","","","",""
"d3-animate-choice","97","379875","0.0-61.0-0.12","787","833","22","Female","false","true","true","true","""event"",""trial"",""time""
""fullscreenenter"",""5"",""15325""
","
","
","""event"",""trial"",""time""
""fullscreenenter"",""5"",""15325""
","
","418.5","","48","","","3000","1","","","images/earth.jpg","images/tutrocket2","images/tutrocket1","null","images/tutrocket2","","1","practice","null","2","","",""
"d3-animate-choice","98","382187","0.0-61.0-1.12","787","833","22","Female","false","true","true","true","""event"",""trial"",""time""
""fullscreenenter"",""5"",""15325""
","
","
","""event"",""trial"",""time""
""fullscreenenter"",""5"",""15325""
","
","309.60000002384186","","49","","","3000","1","","","images/tutyellowplanet.jpg","images/tutalien4","images/tutalien3","images/tutrocket2","images/tutalien3","images/t.png","2","practice","true","1","common","1","2022-02-20 05:16:12.241"
"two-step-fixation","99","383189","0.0-61.0-2.12","787","833","22","Female","false","true","true","true","""event"",""trial"",""time""
""fullscreenenter"",""5"",""15325""
","
","
","""event"",""trial"",""time""
""fullscreenenter"",""5"",""15325""
","
","","images/earth.jpg","","","","","","","","","","","","","","fixation","","","","","",""
"d3-animate-choice","100","385486","0.0-61.0-0.13","787","833","22","Female","false","true","true","true","""event"",""trial"",""time""
""fullscreenenter"",""5"",""15325""
","
","
","""event"",""trial"",""time""
""fullscreenenter"",""5"",""15325""
","
","293.90000009536743","","49","","","3000","1","","","images/earth.jpg","images/tutrocket2","images/tutrocket1","null","images/tutrocket1","","1","practice","null","1","","",""
"d3-animate-choice","101","387703","0.0-61.0-1.13","787","833","22","Female","false","true","true","true","""event"",""trial"",""time""
""fullscreenenter"",""5"",""15325""
","
","
","""event"",""trial"",""time""
""fullscreenenter"",""5"",""15325""
","
","214.80000007152557","","48","","","3000","1","","","images/tutgreenplanet.jpg","images/tutalien2","images/tutalien1","images/tutrocket1","images/tutalien2","images/t.png","2","practice","true","2","common","1","2022-02-20 05:16:17.757"
"two-step-fixation","102","388706","0.0-61.0-2.13","787","833","22","Female","false","true","true","true","""event"",""trial"",""time""
""fullscreenenter"",""5"",""15325""
","
","
","""event"",""trial"",""time""
""fullscreenenter"",""5"",""15325""
","
","","images/earth.jpg","","","","","","","","","","","","","","fixation","","","","","",""
"d3-animate-choice","103","390908","0.0-61.0-0.14","787","833","22","Female","false","true","true","true","""event"",""trial"",""time""
""fullscreenenter"",""5"",""15325""
","
","
","""event"",""trial"",""time""
""fullscreenenter"",""5"",""15325""
","
","199.60000002384186","","49","","","3000","1","","","images/earth.jpg","images/tutrocket2","images/tutrocket1","null","images/tutrocket1","","1","practice","null","1","","",""
"d3-animate-choice","104","393148","0.0-61.0-1.14","787","833","22","Female","false","true","true","true","""event"",""trial"",""time""
""fullscreenenter"",""5"",""15325""
","
","
","""event"",""trial"",""time""
""fullscreenenter"",""5"",""15325""
","
","238.29999995231628","","48","","","3000","1","","","images/tutyellowplanet.jpg","images/tutalien4","images/tutalien3","images/tutrocket1","images/tutalien4","images/t.png","2","practice","false","2","rare","1","2022-02-20 05:16:23.202"
"two-step-fixation","105","394150","0.0-61.0-2.14","787","833","22","Female","false","true","true","true","""event"",""trial"",""time""
""fullscreenenter"",""5"",""15325""
","
","
","""event"",""trial"",""time""
""fullscreenenter"",""5"",""15325""
","
","","images/earth.jpg","","","","","","","","","","","","","","fixation","","","","","",""
"d3-animate-choice","106","396422","0.0-61.0-0.15","787","833","22","Female","false","true","true","true","""event"",""trial"",""time""
""fullscreenenter"",""5"",""15325""
","
","
","""event"",""trial"",""time""
""fullscreenenter"",""5"",""15325""
","
","269.8000000715256","","49","","","3000","1","","","images/earth.jpg","images/tutrocket2","images/tutrocket1","null","images/tutrocket1","","1","practice","null","1","","",""
"d3-animate-choice","107","398833","0.0-61.0-1.15","787","833","22","Female","false","true","true","true","""event"",""trial"",""time""
""fullscreenenter"",""5"",""15325""
","
","
","""event"",""trial"",""time""
""fullscreenenter"",""5"",""15325""
","
","408.90000009536743","","48","","","3000","1","","","images/tutgreenplanet.jpg","images/tutalien2","images/tutalien1","images/tutrocket1","images/tutalien2","images/t.png","2","practice","true","2","common","1","2022-02-20 05:16:28.888"
"two-step-fixation","108","399837","0.0-61.0-2.15","787","833","22","Female","false","true","true","true","""event"",""trial"",""time""
""fullscreenenter"",""5"",""15325""
","
","
","""event"",""trial"",""time""
""fullscreenenter"",""5"",""15325""
","
","","images/earth.jpg","","","","","","","","","","","","","","fixation","","","","","",""
"d3-animate-choice","109","402130","0.0-61.0-0.16","787","833","22","Female","false","true","true","true","""event"",""trial"",""time""
""fullscreenenter"",""5"",""15325""
","
","
","""event"",""trial"",""time""
""fullscreenenter"",""5"",""15325""
","
","290.5","","48","","","3000","1","","","images/earth.jpg","images/tutrocket2","images/tutrocket1","null","images/tutrocket2","","1","practice","null","2","","",""
"d3-animate-choice","110","404421","0.0-61.0-1.16","787","833","22","Female","false","true","true","true","""event"",""trial"",""time""
""fullscreenenter"",""5"",""15325""
","
","
","""event"",""trial"",""time""
""fullscreenenter"",""5"",""15325""
","
","289.5","","48","","","3000","1","","","images/tutyellowplanet.jpg","images/tutalien4","images/tutalien3","images/tutrocket2","images/tutalien4","images/nothing.png","2","practice","true","2","common","0","2022-02-20 05:16:34.475"
"two-step-fixation","111","405423","0.0-61.0-2.16","787","833","22","Female","false","true","true","true","""event"",""trial"",""time""
""fullscreenenter"",""5"",""15325""
","
","
","""event"",""trial"",""time""
""fullscreenenter"",""5"",""15325""
","
","","images/earth.jpg","","","","","","","","","","","","","","fixation","","","","","",""
"d3-animate-choice","112","407671","0.0-61.0-0.17","787","833","22","Female","false","true","true","true","""event"",""trial"",""time""
""fullscreenenter"",""5"",""15325""
","
","
","""event"",""trial"",""time""
""fullscreenenter"",""5"",""15325""
","
","244.89999997615814","","49","","","3000","1","","","images/earth.jpg","images/tutrocket2","images/tutrocket1","null","images/tutrocket1","","1","practice","null","1","","",""
"d3-animate-choice","113","409889","0.0-61.0-1.17","787","833","22","Female","false","true","true","true","""event"",""trial"",""time""
""fullscreenenter"",""5"",""15325""
","
","
","""event"",""trial"",""time""
""fullscreenenter"",""5"",""15325""
","
","215.20000004768372","","48","","","3000","1","","","images/tutyellowplanet.jpg","images/tutalien4","images/tutalien3","images/tutrocket1","images/tutalien4","images/nothing.png","2","practice","false","2","rare","0","2022-02-20 05:16:39.943"
"two-step-fixation","114","410891","0.0-61.0-2.17","787","833","22","Female","false","true","true","true","""event"",""trial"",""time""
""fullscreenenter"",""5"",""15325""
","
","
","""event"",""trial"",""time""
""fullscreenenter"",""5"",""15325""
","
","","images/earth.jpg","","","","","","","","","","","","","","fixation","","","","","",""
"d3-animate-choice","115","413154","0.0-61.0-0.18","787","833","22","Female","false","true","true","true","""event"",""trial"",""time""
""fullscreenenter"",""5"",""15325""
","
","
","""event"",""trial"",""time""
""fullscreenenter"",""5"",""15325""
","
","260.10000002384186","","49","","","3000","1","","","images/earth.jpg","images/tutrocket2","images/tutrocket1","null","images/tutrocket1","","1","practice","null","1","","",""
"d3-animate-choice","116","415782","0.0-61.0-1.18","787","833","22","Female","false","true","true","true","""event"",""trial"",""time""
""fullscreenenter"",""5"",""15325""
","
","
","""event"",""trial"",""time""
""fullscreenenter"",""5"",""15325""
","
","624.8999999761581","","48","","","3000","1","","","images/tutyellowplanet.jpg","images/tutalien4","images/tutalien3","images/tutrocket1","images/tutalien4","images/nothing.png","2","practice","false","2","rare","0","2022-02-20 05:16:45.836"
"two-step-fixation","117","416784","0.0-61.0-2.18","787","833","22","Female","false","true","true","true","""event"",""trial"",""time""
""fullscreenenter"",""5"",""15325""
","
","
","""event"",""trial"",""time""
""fullscreenenter"",""5"",""15325""
","
","","images/earth.jpg","","","","","","","","","","","","","","fixation","","","","","",""
"d3-animate-choice","118","419054","0.0-61.0-0.19","787","833","22","Female","false","true","true","true","""event"",""trial"",""time""
""fullscreenenter"",""5"",""15325""
","
","
","""event"",""trial"",""time""
""fullscreenenter"",""5"",""15325""
","
","268.09999990463257","","49","","","3000","1","","","images/earth.jpg","images/tutrocket2","images/tutrocket1","null","images/tutrocket1","","1","practice","null","1","","",""
"d3-animate-choice","119","421614","0.0-61.0-1.19","787","833","22","Female","false","true","true","true","""event"",""trial"",""time""
""fullscreenenter"",""5"",""15325""
","
","
","""event"",""trial"",""time""
""fullscreenenter"",""5"",""15325""
","
","557.8999999761581","","48","","","3000","1","","","images/tutgreenplanet.jpg","images/tutalien2","images/tutalien1","images/tutrocket1","images/tutalien2","images/t.png","2","practice","true","2","common","1","2022-02-20 05:16:51.668"
"two-step-fixation","120","422616","0.0-61.0-2.19","787","833","22","Female","false","true","true","true","""event"",""trial"",""time""
""fullscreenenter"",""5"",""15325""
","
","
","""event"",""trial"",""time""
""fullscreenenter"",""5"",""15325""
","
","","images/earth.jpg","","","","","","","","","","","","","","fixation","","","","","",""
"d3-instructions","121","426609","0.0-62.0","787","833","22","Female","false","true","true","true","""event"",""trial"",""time""
""fullscreenenter"",""5"",""15325""
","
","
","""event"",""trial"",""time""
""fullscreenenter"",""5"",""15325""
","
","","","","","","","","","","","","","","","","","","","","","",""
"audio-keyboard-response","122","428683","0.0-63.0","787","833","22","Female","false","true","true","true","""event"",""trial"",""time""
""fullscreenenter"",""5"",""15325""
","
","
","""event"",""trial"",""time""
""fullscreenenter"",""5"",""15325""
","
","2069","audio/instructions/treasure_feedback.wav","32","","","","","","","","","","","","","","","","","","",""
"d3-instructions","123","437146","0.0-64.0","787","833","22","Female","false","true","true","true","""event"",""trial"",""time""
""fullscreenenter"",""5"",""15325""
","
","
","""event"",""trial"",""time""
""fullscreenenter"",""5"",""15325""
","
","","","","","","","","","","","","","","","","","","","","","",""
"d3-instructions","124","455606","0.0-65.0","787","833","22","Female","false","true","true","true","""event"",""trial"",""time""
""fullscreenenter"",""5"",""15325""
","
","
","""event"",""trial"",""time""
""fullscreenenter"",""5"",""15325""
","
","","","","","","","","","","","","","","","","","","","","","",""
"d3-instructions","125","480408","0.0-66.0","787","833","22","Female","false","true","true","true","""event"",""trial"",""time""
""fullscreenenter"",""5"",""15325""
","
","
","""event"",""trial"",""time""
""fullscreenenter"",""5"",""15325""
","
","","","","","","","","","","","","","","","","","","","","","",""
"d3-instructions","126","498736","0.0-67.0","787","833","22","Female","false","true","true","true","""event"",""trial"",""time""
""fullscreenenter"",""5"",""15325""
","
","
","""event"",""trial"",""time""
""fullscreenenter"",""5"",""15325""
","
","","","","","","","","","","","","","","","","","","","","","",""
"d3-instructions","127","502162","0.0-68.0","787","833","22","Female","false","true","true","true","""event"",""trial"",""time""
""fullscreenenter"",""5"",""15325""
","
","
","""event"",""trial"",""time""
""fullscreenenter"",""5"",""15325""
","
","","","","","","","","","","","","","","","","","","","","","",""
"instructions-quiz","128","504803","0.0-69.0","787","833","22","Female","false","true","true","true","""event"",""trial"",""time""
""fullscreenenter"",""5"",""15325""
","
","
","""event"",""trial"",""time""
""fullscreenenter"",""5"",""15325""
","
","2639.600000023842","audio/quiz/Q1_Prompt.wav","","1","","","","","","","","","","","","","","","","","",""
"audio-keyboard-response","129","513968","0.0-70.0","787","833","22","Female","false","true","true","true","""event"",""trial"",""time""
""fullscreenenter"",""5"",""15325""
","
","
","""event"",""trial"",""time""
""fullscreenenter"",""5"",""15325""
","
","null","audio/quiz/Q1_Correct.wav","null","","","","","","","","","","","","","","","","","","",""
"instructions-quiz","130","518553","0.0-71.0","787","833","22","Female","false","true","true","true","""event"",""trial"",""time""
""fullscreenenter"",""5"",""15325""
","
","
","""event"",""trial"",""time""
""fullscreenenter"",""5"",""15325""
","
","4584.899999976158","audio/quiz/Q2_Prompt.wav","","1","","","","","","","","","","","","","","","","","",""
"audio-keyboard-response","131","530907","0.0-72.0","787","833","22","Female","false","true","true","true","""event"",""trial"",""time""
""fullscreenenter"",""5"",""15325""
","
","
","""event"",""trial"",""time""
""fullscreenenter"",""5"",""15325""
","
","12349","audio/quiz/Q2_Incorrect.wav","32","","","","","","","","","","","","","","","","","","",""
"instructions-quiz","132","535473","0.0-73.0","787","833","22","Female","false","true","true","true","""event"",""trial"",""time""
""fullscreenenter"",""5"",""15325""
","
","
","""event"",""trial"",""time""
""fullscreenenter"",""5"",""15325""
","
","4565.600000023842","audio/quiz/Q3_Prompt.wav","","1","","","","","","","","","","","","","","","","","",""
"audio-keyboard-response","133","540752","0.0-74.0","787","833","22","Female","false","true","true","true","""event"",""trial"",""time""
""fullscreenenter"",""5"",""15325""
","
","
","""event"",""trial"",""time""
""fullscreenenter"",""5"",""15325""
","
","5280","audio/quiz/Q3_Correct.wav","32","","","","","","","","","","","","","","","","","","",""
"d3-instructions","134","542844","0.0-75.0","787","833","22","Female","false","true","true","true","""event"",""trial"",""time""
""fullscreenenter"",""5"",""15325""
","
","
","""event"",""trial"",""time""
""fullscreenenter"",""5"",""15325""
","
","","","","","","","","","","","","","","","","","","","","","",""
"d3-animate-choice","135","545903","0.0-76.0-0.0","787","833","22","Female","false","true","true","true","""event"",""trial"",""time""
""fullscreenenter"",""5"",""15325""
","
","
","""event"",""trial"",""time""
""fullscreenenter"",""5"",""15325""
","
","1057.3000000715256","","49","","","3000","1","","","images/earth.jpg","images/rocket1","images/rocket2","null","images/rocket2","","1","real","null","1","","",""
"d3-animate-choice","136","548283","0.0-76.0-1.0","787","833","22","Female","false","true","true","true","""event"",""trial"",""time""
""fullscreenenter"",""5"",""15325""
","
","
","""event"",""trial"",""time""
""fullscreenenter"",""5"",""15325""
","
","376.39999997615814","","49","","","3000","1","","","images/purpleplanet.jpg","images/alien4","images/alien3","images/rocket2","images/alien3","images/t.png","2","real","true","1","common","1","2022-02-20 05:18:58.337"
"two-step-fixation","137","549286","0.0-76.0-2.0","787","833","22","Female","false","true","true","true","""event"",""trial"",""time""
""fullscreenenter"",""5"",""15325""
","
","
","""event"",""trial"",""time""
""fullscreenenter"",""5"",""15325""
","
","","images/earth.jpg","","","","","","","","","","","","","","fixation","","","","","",""
"d3-animate-choice","138","551508","0.0-76.0-0.1","787","833","22","Female","false","true","true","true","""event"",""trial"",""time""
""fullscreenenter"",""5"",""15325""
","
","
","""event"",""trial"",""time""
""fullscreenenter"",""5"",""15325""
","
","204.69999992847443","","49","","","3000","1","","","images/earth.jpg","images/rocket1","images/rocket2","null","images/rocket2","","1","real","null","1","","",""
"d3-animate-choice","139","553832","0.0-76.0-1.1","787","833","22","Female","false","true","true","true","""event"",""trial"",""time""
""fullscreenenter"",""5"",""15325""
","
","
","""event"",""trial"",""time""
""fullscreenenter"",""5"",""15325""
","
","321.89999997615814","","49","","","3000","1","","","images/purpleplanet.jpg","images/alien4","images/alien3","images/rocket2","images/alien3","images/t.png","2","real","true","1","common","1","2022-02-20 05:19:03.886"
"two-step-fixation","140","554834","0.0-76.0-2.1","787","833","22","Female","false","true","true","true","""event"",""trial"",""time""
""fullscreenenter"",""5"",""15325""
","
","
","""event"",""trial"",""time""
""fullscreenenter"",""5"",""15325""
","
","","images/earth.jpg","","","","","","","","","","","","","","fixation","","","","","",""
"d3-animate-choice","141","557096","0.0-76.0-0.2","787","833","22","Female","false","true","true","true","""event"",""trial"",""time""
""fullscreenenter"",""5"",""15325""
","
","
","""event"",""trial"",""time""
""fullscreenenter"",""5"",""15325""
","
","260.89999997615814","","49","","","3000","1","","","images/earth.jpg","images/rocket1","images/rocket2","null","images/rocket2","","1","real","null","1","","",""
"d3-animate-choice","142","559334","0.0-76.0-1.2","787","833","22","Female","false","true","true","true","""event"",""trial"",""time""
""fullscreenenter"",""5"",""15325""
","
","
","""event"",""trial"",""time""
""fullscreenenter"",""5"",""15325""
","
","236.5","","49","","","3000","1","","","images/purpleplanet.jpg","images/alien4","images/alien3","images/rocket2","images/alien3","images/t.png","2","real","true","1","common","1","2022-02-20 05:19:09.388"
"two-step-fixation","143","560335","0.0-76.0-2.2","787","833","22","Female","false","true","true","true","""event"",""trial"",""time""
""fullscreenenter"",""5"",""15325""
","
","
","""event"",""trial"",""time""
""fullscreenenter"",""5"",""15325""
","
","","images/earth.jpg","","","","","","","","","","","","","","fixation","","","","","",""
"d3-animate-choice","144","562528","0.0-76.0-0.3","787","833","22","Female","false","true","true","true","""event"",""trial"",""time""
""fullscreenenter"",""5"",""15325""
","
","
","""event"",""trial"",""time""
""fullscreenenter"",""5"",""15325""
","
","189.69999992847443","","49","","","3000","1","","","images/earth.jpg","images/rocket1","images/rocket2","null","images/rocket2","","1","real","null","1","","",""
"d3-animate-choice","145","564843","0.0-76.0-1.3","787","833","22","Female","false","true","true","true","""event"",""trial"",""time""
""fullscreenenter"",""5"",""15325""
","
","
","""event"",""trial"",""time""
""fullscreenenter"",""5"",""15325""
","
","313.2999999523163","","49","","","3000","1","","","images/purpleplanet.jpg","images/alien4","images/alien3","images/rocket2","images/alien3","images/nothing.png","2","real","true","1","common","0","2022-02-20 05:19:14.897"
"two-step-fixation","146","565847","0.0-76.0-2.3","787","833","22","Female","false","true","true","true","""event"",""trial"",""time""
""fullscreenenter"",""5"",""15325""
","
","
","""event"",""trial"",""time""
""fullscreenenter"",""5"",""15325""
","
","","images/earth.jpg","","","","","","","","","","","","","","fixation","","","","","",""
"d3-animate-choice","147","568014","0.0-76.0-0.4","787","833","22","Female","false","true","true","true","""event"",""trial"",""time""
""fullscreenenter"",""5"",""15325""
","
","
","""event"",""trial"",""time""
""fullscreenenter"",""5"",""15325""
","
","164.5","","49","","","3000","1","","","images/earth.jpg","images/rocket1","images/rocket2","null","images/rocket2","","1","real","null","1","","",""
"d3-animate-choice","148","570234","0.0-76.0-1.4","787","833","22","Female","false","true","true","true","""event"",""trial"",""time""
""fullscreenenter"",""5"",""15325""
","
","
","""event"",""trial"",""time""
""fullscreenenter"",""5"",""15325""
","
","218.30000007152557","","49","","","3000","1","","","images/purpleplanet.jpg","images/alien4","images/alien3","images/rocket2","images/alien3","images/t.png","2","real","true","1","common","1","2022-02-20 05:19:20.288"
"two-step-fixation","149","571235","0.0-76.0-2.4","787","833","22","Female","false","true","true","true","""event"",""trial"",""time""
""fullscreenenter"",""5"",""15325""
","
","
","""event"",""trial"",""time""
""fullscreenenter"",""5"",""15325""
","
","","images/earth.jpg","","","","","","","","","","","","","","fixation","","","","","",""
"d3-animate-choice","150","573397","0.0-76.0-0.5","787","833","22","Female","false","true","true","true","""event"",""trial"",""time""
""fullscreenenter"",""5"",""15325""
","
","
","""event"",""trial"",""time""
""fullscreenenter"",""5"",""15325""
","
","159.10000002384186","","49","","","3000","1","","","images/earth.jpg","images/rocket1","images/rocket2","null","images/rocket2","","1","real","null","1","","",""
"d3-animate-choice","151","575694","0.0-76.0-1.5","787","833","22","Female","false","true","true","true","""event"",""trial"",""time""
""fullscreenenter"",""5"",""15325""
","
","
","""event"",""trial"",""time""
""fullscreenenter"",""5"",""15325""
","
","295.2000000476837","","49","","","3000","1","","","images/purpleplanet.jpg","images/alien4","images/alien3","images/rocket2","images/alien3","images/nothing.png","2","real","true","1","common","0","2022-02-20 05:19:25.748"
"two-step-fixation","152","576696","0.0-76.0-2.5","787","833","22","Female","false","true","true","true","""event"",""trial"",""time""
""fullscreenenter"",""5"",""15325""
","
","
","""event"",""trial"",""time""
""fullscreenenter"",""5"",""15325""
","
","","images/earth.jpg","","","","","","","","","","","","","","fixation","","","","","",""
"d3-animate-choice","153","578930","0.0-76.0-0.6","787","833","22","Female","false","true","true","true","""event"",""trial"",""time""
""fullscreenenter"",""5"",""15325""
","
","
","""event"",""trial"",""time""
""fullscreenenter"",""5"",""15325""
","
","230.40000009536743","","49","","","3000","1","","","images/earth.jpg","images/rocket1","images/rocket2","null","images/rocket2","","1","real","null","1","","",""
"d3-animate-choice","154","581256","0.0-76.0-1.6","787","833","22","Female","false","true","true","true","""event"",""trial"",""time""
""fullscreenenter"",""5"",""15325""
","
","
","""event"",""trial"",""time""
""fullscreenenter"",""5"",""15325""
","
","322.60000002384186","","49","","","3000","1","","","images/purpleplanet.jpg","images/alien4","images/alien3","images/rocket2","images/alien3","images/nothing.png","2","real","true","1","common","0","2022-02-20 05:19:31.310"
"two-step-fixation","155","582259","0.0-76.0-2.6","787","833","22","Female","false","true","true","true","""event"",""trial"",""time""
""fullscreenenter"",""5"",""15325""
","
","
","""event"",""trial"",""time""
""fullscreenenter"",""5"",""15325""
","
","","images/earth.jpg","","","","","","","","","","","","","","fixation","","","","","",""
"d3-animate-choice","156","584564","0.0-76.0-0.7","787","833","22","Female","false","true","true","true","""event"",""trial"",""time""
""fullscreenenter"",""5"",""15325""
","
","
","""event"",""trial"",""time""
""fullscreenenter"",""5"",""15325""
","
","302.59999990463257","","49","","","3000","1","","","images/earth.jpg","images/rocket1","images/rocket2","null","images/rocket2","","1","real","null","1","","",""
"d3-animate-choice","157","586877","0.0-76.0-1.7","787","833","22","Female","false","true","true","true","""event"",""trial"",""time""
""fullscreenenter"",""5"",""15325""
","
","
","""event"",""trial"",""time""
""fullscreenenter"",""5"",""15325""
","
","308.89999997615814","","48","","","3000","1","","","images/purpleplanet.jpg","images/alien4","images/alien3","images/rocket2","images/alien4","images/t.png","2","real","true","2","common","1","2022-02-20 05:19:36.931"
"two-step-fixation","158","587879","0.0-76.0-2.7","787","833","22","Female","false","true","true","true","""event"",""trial"",""time""
""fullscreenenter"",""5"",""15325""
","
","
","""event"",""trial"",""time""
""fullscreenenter"",""5"",""15325""
","
","","images/earth.jpg","","","","","","","","","","","","","","fixation","","","","","",""
"d3-animate-choice","159","590097","0.0-76.0-0.8","787","833","22","Female","false","true","true","true","""event"",""trial"",""time""
""fullscreenenter"",""5"",""15325""
","
","
","""event"",""trial"",""time""
""fullscreenenter"",""5"",""15325""
","
","215.10000002384186","","49","","","3000","1","","","images/earth.jpg","images/rocket1","images/rocket2","null","images/rocket2","","1","real","null","1","","",""
"d3-animate-choice","160","592445","0.0-76.0-1.8","787","833","22","Female","false","true","true","true","""event"",""trial"",""time""
""fullscreenenter"",""5"",""15325""
","
","
","""event"",""trial"",""time""
""fullscreenenter"",""5"",""15325""
","
","346.60000002384186","","48","","","3000","1","","","images/purpleplanet.jpg","images/alien4","images/alien3","images/rocket2","images/alien4","images/t.png","2","real","true","2","common","1","2022-02-20 05:19:42.499"
"two-step-fixation","161","593448","0.0-76.0-2.8","787","833","22","Female","false","true","true","true","""event"",""trial"",""time""
""fullscreenenter"",""5"",""15325""
","
","
","""event"",""trial"",""time""
""fullscreenenter"",""5"",""15325""
","
","","images/earth.jpg","","","","","","","","","","","","","","fixation","","","","","",""
"d3-animate-choice","162","595515","0.0-76.0-0.9","787","833","22","Female","false","true","true","true","""event"",""trial"",""time""
""fullscreenenter"",""5"",""15325""
","
","
","""event"",""trial"",""time""
""fullscreenenter"",""5"",""15325""
","
","64.29999995231628","","49","","","3000","1","","","images/earth.jpg","images/rocket1","images/rocket2","null","images/rocket2","","1","real","null","1","","",""
"d3-animate-choice","163","598112","0.0-76.0-1.9","787","833","22","Female","false","true","true","true","""event"",""trial"",""time""
""fullscreenenter"",""5"",""15325""
","
","
","""event"",""trial"",""time""
""fullscreenenter"",""5"",""15325""
","
","594.5","","48","","","3000","1","","","images/purpleplanet.jpg","images/alien4","images/alien3","images/rocket2","images/alien4","images/t.png","2","real","true","2","common","1","2022-02-20 05:19:48.166"
"two-step-fixation","164","599114","0.0-76.0-2.9","787","833","22","Female","false","true","true","true","""event"",""trial"",""time""
""fullscreenenter"",""5"",""15325""
","
","
","""event"",""trial"",""time""
""fullscreenenter"",""5"",""15325""
","
","","images/earth.jpg","","","","","","","","","","","","","","fixation","","","","","",""
"d3-animate-choice","165","601272","0.0-76.0-0.10","787","833","22","Female","false","true","true","true","""event"",""trial"",""time""
""fullscreenenter"",""5"",""15325""
","
","
","""event"",""trial"",""time""
""fullscreenenter"",""5"",""15325""
","
","156.39999997615814","","49","","","3000","1","","","images/earth.jpg","images/rocket1","images/rocket2","null","images/rocket2","","1","real","null","1","","",""
"d3-animate-choice","166","603580","0.0-76.0-1.10","787","833","22","Female","false","true","true","true","""event"",""trial"",""time""
""fullscreenenter"",""5"",""15325""
","
","
","""event"",""trial"",""time""
""fullscreenenter"",""5"",""15325""
","
","306.39999997615814","","48","","","3000","1","","","images/redplanet1.jpg","images/alien2","images/alien1","images/rocket2","images/alien2","images/t.png","2","real","false","2","rare","1","2022-02-20 05:19:53.634"
"two-step-fixation","167","604582","0.0-76.0-2.10","787","833","22","Female","false","true","true","true","""event"",""trial"",""time""
""fullscreenenter"",""5"",""15325""
","
","
","""event"",""trial"",""time""
""fullscreenenter"",""5"",""15325""
","
","","images/earth.jpg","","","","","","","","","","","","","","fixation","","","","","",""
"d3-animate-choice","168","606861","0.0-76.0-0.11","787","833","22","Female","false","true","true","true","""event"",""trial"",""time""
""fullscreenenter"",""5"",""15325""
","
","
","""event"",""trial"",""time""
""fullscreenenter"",""5"",""15325""
","
","277.39999997615814","","48","","","3000","1","","","images/earth.jpg","images/rocket1","images/rocket2","null","images/rocket1","","1","real","null","2","","",""
"d3-animate-choice","169","609083","0.0-76.0-1.11","787","833","22","Female","false","true","true","true","""event"",""trial"",""time""
""fullscreenenter"",""5"",""15325""
","
","
","""event"",""trial"",""time""
""fullscreenenter"",""5"",""15325""
","
","219","","48","","","3000","1","","","images/purpleplanet.jpg","images/alien4","images/alien3","images/rocket1","images/alien4","images/nothing.png","2","real","false","2","rare","0","2022-02-20 05:19:59.137"
"two-step-fixation","170","610085","0.0-76.0-2.11","787","833","22","Female","false","true","true","true","""event"",""trial"",""time""
""fullscreenenter"",""5"",""15325""
","
","
","""event"",""trial"",""time""
""fullscreenenter"",""5"",""15325""
","
","","images/earth.jpg","","","","","","","","","","","","","","fixation","","","","","",""
"d3-animate-choice","171","612292","0.0-76.0-0.12","787","833","22","Female","false","true","true","true","""event"",""trial"",""time""
""fullscreenenter"",""5"",""15325""
","
","
","""event"",""trial"",""time""
""fullscreenenter"",""5"",""15325""
","
","204.89999997615814","","48","","","3000","1","","","images/earth.jpg","images/rocket1","images/rocket2","null","images/rocket1","","1","real","null","2","","",""
"d3-animate-choice","172","614591","0.0-76.0-1.12","787","833","22","Female","false","true","true","true","""event"",""trial"",""time""
""fullscreenenter"",""5"",""15325""
","
","
","""event"",""trial"",""time""
""fullscreenenter"",""5"",""15325""
","
","296.60000002384186","","48","","","3000","1","","","images/redplanet1.jpg","images/alien2","images/alien1","images/rocket1","images/alien2","images/nothing.png","2","real","true","2","common","0","2022-02-20 05:20:04.645"
"two-step-fixation","173","615593","0.0-76.0-2.12","787","833","22","Female","false","true","true","true","""event"",""trial"",""time""
""fullscreenenter"",""5"",""15325""
","
","
","""event"",""trial"",""time""
""fullscreenenter"",""5"",""15325""
","
","","images/earth.jpg","","","","","","","","","","","","","","fixation","","","","","",""
"d3-animate-choice","174","617793","0.0-76.0-0.13","787","833","22","Female","false","true","true","true","""event"",""trial"",""time""
""fullscreenenter"",""5"",""15325""
","
","
","""event"",""trial"",""time""
""fullscreenenter"",""5"",""15325""
","
","198.5","","48","","","3000","1","","","images/earth.jpg","images/rocket1","images/rocket2","null","images/rocket1","","1","real","null","2","","",""
"d3-animate-choice","175","620394","0.0-76.0-1.13","787","833","22","Female","false","true","true","true","""event"",""trial"",""time""
""fullscreenenter"",""5"",""15325""
","
","
","""event"",""trial"",""time""
""fullscreenenter"",""5"",""15325""
","
","599","","48","","","3000","1","","","images/purpleplanet.jpg","images/alien4","images/alien3","images/rocket1","images/alien4","images/nothing.png","2","real","false","2","rare","0","2022-02-20 05:20:10.448"
"two-step-fixation","176","621395","0.0-76.0-2.13","787","833","22","Female","false","true","true","true","""event"",""trial"",""time""
""fullscreenenter"",""5"",""15325""
","
","
","""event"",""trial"",""time""
""fullscreenenter"",""5"",""15325""
","
","","images/earth.jpg","","","","","","","","","","","","","","fixation","","","","","",""
"d3-animate-choice","177","623689","0.0-76.0-0.14","787","833","22","Female","false","true","true","true","""event"",""trial"",""time""
""fullscreenenter"",""5"",""15325""
","
","
","""event"",""trial"",""time""
""fullscreenenter"",""5"",""15325""
","
","291.89999997615814","","48","","","3000","1","","","images/earth.jpg","images/rocket1","images/rocket2","null","images/rocket1","","1","real","null","2","","",""
"d3-animate-choice","178","626501","0.0-76.0-1.14","787","833","22","Female","false","true","true","true","""event"",""trial"",""time""
""fullscreenenter"",""5"",""15325""
","
","
","""event"",""trial"",""time""
""fullscreenenter"",""5"",""15325""
","
","810.2000000476837","","49","","","3000","1","","","images/purpleplanet.jpg","images/alien4","images/alien3","images/rocket1","images/alien3","images/nothing.png","2","real","false","1","rare","0","2022-02-20 05:20:16.555"
"two-step-fixation","179","627503","0.0-76.0-2.14","787","833","22","Female","false","true","true","true","""event"",""trial"",""time""
""fullscreenenter"",""5"",""15325""
","
","
","""event"",""trial"",""time""
""fullscreenenter"",""5"",""15325""
","
","","images/earth.jpg","","","","","","","","","","","","","","fixation","","","","","",""
"d3-animate-choice","180","629755","0.0-76.0-0.15","787","833","22","Female","false","true","true","true","""event"",""trial"",""time""
""fullscreenenter"",""5"",""15325""
","
","
","""event"",""trial"",""time""
""fullscreenenter"",""5"",""15325""
","
","248.5","","48","","","3000","1","","","images/earth.jpg","images/rocket1","images/rocket2","null","images/rocket1","","1","real","null","2","","",""
"d3-animate-choice","181","632410","0.0-76.0-1.15","787","833","22","Female","false","true","true","true","""event"",""trial"",""time""
""fullscreenenter"",""5"",""15325""
","
","
","""event"",""trial"",""time""
""fullscreenenter"",""5"",""15325""
","
","653.1999999284744","","49","","","3000","1","","","images/purpleplanet.jpg","images/alien4","images/alien3","images/rocket1","images/alien3","images/t.png","2","real","false","1","rare","1","2022-02-20 05:20:22.464"
"two-step-fixation","182","633412","0.0-76.0-2.15","787","833","22","Female","false","true","true","true","""event"",""trial"",""time""
""fullscreenenter"",""5"",""15325""
","
","
","""event"",""trial"",""time""
""fullscreenenter"",""5"",""15325""
","
","","images/earth.jpg","","","","","","","","","","","","","","fixation","","","","","",""
"d3-animate-choice","183","635667","0.0-76.0-0.16","787","833","22","Female","false","true","true","true","""event"",""trial"",""time""
""fullscreenenter"",""5"",""15325""
","
","
","""event"",""trial"",""time""
""fullscreenenter"",""5"",""15325""
","
","252.20000004768372","","49","","","3000","1","","","images/earth.jpg","images/rocket1","images/rocket2","null","images/rocket2","","1","real","null","1","","",""
"d3-animate-choice","184","638297","0.0-76.0-1.16","787","833","22","Female","false","true","true","true","""event"",""trial"",""time""
""fullscreenenter"",""5"",""15325""
","
","
","""event"",""trial"",""time""
""fullscreenenter"",""5"",""15325""
","
","627.7000000476837","","49","","","3000","1","","","images/redplanet1.jpg","images/alien2","images/alien1","images/rocket2","images/alien1","images/nothing.png","2","real","false","1","rare","0","2022-02-20 05:20:28.351"
"two-step-fixation","185","639299","0.0-76.0-2.16","787","833","22","Female","false","true","true","true","""event"",""trial"",""time""
""fullscreenenter"",""5"",""15325""
","
","
","""event"",""trial"",""time""
""fullscreenenter"",""5"",""15325""
","
","","images/earth.jpg","","","","","","","","","","","","","","fixation","","","","","",""
"d3-animate-choice","186","641583","0.0-76.0-0.17","787","833","22","Female","false","true","true","true","""event"",""trial"",""time""
""fullscreenenter"",""5"",""15325""
","
","
","""event"",""trial"",""time""
""fullscreenenter"",""5"",""15325""
","
","281.60000002384186","","49","","","3000","1","","","images/earth.jpg","images/rocket1","images/rocket2","null","images/rocket2","","1","real","null","1","","",""
"d3-animate-choice","187","643949","0.0-76.0-1.17","787","833","22","Female","false","true","true","true","""event"",""trial"",""time""
""fullscreenenter"",""5"",""15325""
","
","
","""event"",""trial"",""time""
""fullscreenenter"",""5"",""15325""
","
","363.60000002384186","","49","","","3000","1","","","images/purpleplanet.jpg","images/alien4","images/alien3","images/rocket2","images/alien3","images/t.png","2","real","true","1","common","1","2022-02-20 05:20:34.003"
"two-step-fixation","188","644951","0.0-76.0-2.17","787","833","22","Female","false","true","true","true","""event"",""trial"",""time""
""fullscreenenter"",""5"",""15325""
","
","
","""event"",""trial"",""time""
""fullscreenenter"",""5"",""15325""
","
","","images/earth.jpg","","","","","","","","","","","","","","fixation","","","","","",""
"d3-animate-choice","189","647206","0.0-76.0-0.18","787","833","22","Female","false","true","true","true","""event"",""trial"",""time""
""fullscreenenter"",""5"",""15325""
","
","
","""event"",""trial"",""time""
""fullscreenenter"",""5"",""15325""
","
","253.79999995231628","","49","","","3000","1","","","images/earth.jpg","images/rocket1","images/rocket2","null","images/rocket2","","1","real","null","1","","",""
"d3-animate-choice","190","649541","0.0-76.0-1.18","787","833","22","Female","false","true","true","true","""event"",""trial"",""time""
""fullscreenenter"",""5"",""15325""
","
","
","""event"",""trial"",""time""
""fullscreenenter"",""5"",""15325""
","
","332.2000000476837","","49","","","3000","1","","","images/purpleplanet.jpg","images/alien4","images/alien3","images/rocket2","images/alien3","images/nothing.png","2","real","true","1","common","0","2022-02-20 05:20:39.595"
"two-step-fixation","191","650543","0.0-76.0-2.18","787","833","22","Female","false","true","true","true","""event"",""trial"",""time""
""fullscreenenter"",""5"",""15325""
","
","
","""event"",""trial"",""time""
""fullscreenenter"",""5"",""15325""
","
","","images/earth.jpg","","","","","","","","","","","","","","fixation","","","","","",""
"d3-animate-choice","192","652819","0.0-76.0-0.19","787","833","22","Female","false","true","true","true","""event"",""trial"",""time""
""fullscreenenter"",""5"",""15325""
","
","
","""event"",""trial"",""time""
""fullscreenenter"",""5"",""15325""
","
","274.2999999523163","","49","","","3000","1","","","images/earth.jpg","images/rocket1","images/rocket2","null","images/rocket2","","1","real","null","1","","",""
"d3-animate-choice","193","655069","0.0-76.0-1.19","787","833","22","Female","false","true","true","true","""event"",""trial"",""time""
""fullscreenenter"",""5"",""15325""
","
","
","""event"",""trial"",""time""
""fullscreenenter"",""5"",""15325""
","
","247.10000002384186","","49","","","3000","1","","","images/redplanet1.jpg","images/alien2","images/alien1","images/rocket2","images/alien1","images/nothing.png","2","real","false","1","rare","0","2022-02-20 05:20:45.123"
"two-step-fixation","194","656072","0.0-76.0-2.19","787","833","22","Female","false","true","true","true","""event"",""trial"",""time""
""fullscreenenter"",""5"",""15325""
","
","
","""event"",""trial"",""time""
""fullscreenenter"",""5"",""15325""
","
","","images/earth.jpg","","","","","","","","","","","","","","fixation","","","","","",""
"d3-animate-choice","195","658078","0.0-76.0-0.20","787","833","22","Female","false","true","true","true","""event"",""trial"",""time""
""fullscreenenter"",""5"",""15325""
","
","
","""event"",""trial"",""time""
""fullscreenenter"",""5"",""15325""
","
","4.5","","49","","","3000","1","","","images/earth.jpg","images/rocket1","images/rocket2","null","images/rocket2","","1","real","null","1","","",""
"d3-animate-choice","196","660605","0.0-76.0-1.20","787","833","22","Female","false","true","true","true","""event"",""trial"",""time""
""fullscreenenter"",""5"",""15325""
","
","
","""event"",""trial"",""time""
""fullscreenenter"",""5"",""15325""
","
","524.8999999761581","","48","","","3000","1","","","images/redplanet1.jpg","images/alien2","images/alien1","images/rocket2","images/alien2","images/nothing.png","2","real","false","2","rare","0","2022-02-20 05:20:50.659"
"two-step-fixation","197","661606","0.0-76.0-2.20","787","833","22","Female","false","true","true","true","""event"",""trial"",""time""
""fullscreenenter"",""5"",""15325""
","
","
","""event"",""trial"",""time""
""fullscreenenter"",""5"",""15325""
","
","","images/earth.jpg","","","","","","","","","","","","","","fixation","","","","","",""
"d3-animate-choice","198","663767","0.0-76.0-0.21","787","833","22","Female","false","true","true","true","""event"",""trial"",""time""
""fullscreenenter"",""5"",""15325""
","
","
","""event"",""trial"",""time""
""fullscreenenter"",""5"",""15325""
","
","158.70000004768372","","49","","","3000","1","","","images/earth.jpg","images/rocket1","images/rocket2","null","images/rocket2","","1","real","null","1","","",""
"d3-animate-choice","199","666171","0.0-76.0-1.21","787","833","22","Female","false","true","true","true","""event"",""trial"",""time""
""fullscreenenter"",""5"",""15325""
","
","
","""event"",""trial"",""time""
""fullscreenenter"",""5"",""15325""
","
","402.7000000476837","","49","","","3000","1","","","images/purpleplanet.jpg","images/alien4","images/alien3","images/rocket2","images/alien3","images/t.png","2","real","true","1","common","1","2022-02-20 05:20:56.226"
"two-step-fixation","200","667174","0.0-76.0-2.21","787","833","22","Female","false","true","true","true","""event"",""trial"",""time""
""fullscreenenter"",""5"",""15325""
","
","
","""event"",""trial"",""time""
""fullscreenenter"",""5"",""15325""
","
","","images/earth.jpg","","","","","","","","","","","","","","fixation","","","","","",""
"d3-animate-choice","201","669409","0.0-76.0-0.22","787","833","22","Female","false","true","true","true","""event"",""trial"",""time""
""fullscreenenter"",""5"",""15325""
","
","
","""event"",""trial"",""time""
""fullscreenenter"",""5"",""15325""
","
","233.5","","49","","","3000","1","","","images/earth.jpg","images/rocket1","images/rocket2","null","images/rocket2","","1","real","null","1","","",""
"d3-animate-choice","202","671765","0.0-76.0-1.22","787","833","22","Female","false","true","true","true","""event"",""trial"",""time""
""fullscreenenter"",""5"",""15325""
","
","
","""event"",""trial"",""time""
""fullscreenenter"",""5"",""15325""
","
","353.5","","49","","","3000","1","","","images/purpleplanet.jpg","images/alien4","images/alien3","images/rocket2","images/alien3","images/t.png","2","real","true","1","common","1","2022-02-20 05:21:01.819"
"two-step-fixation","203","672767","0.0-76.0-2.22","787","833","22","Female","false","true","true","true","""event"",""trial"",""time""
""fullscreenenter"",""5"",""15325""
","
","
","""event"",""trial"",""time""
""fullscreenenter"",""5"",""15325""
","
","","images/earth.jpg","","","","","","","","","","","","","","fixation","","","","","",""
"d3-animate-choice","204","675030","0.0-76.0-0.23","787","833","22","Female","false","true","true","true","""event"",""trial"",""time""
""fullscreenenter"",""5"",""15325""
","
","
","""event"",""trial"",""time""
""fullscreenenter"",""5"",""15325""
","
","261.2000000476837","","49","","","3000","1","","","images/earth.jpg","images/rocket1","images/rocket2","null","images/rocket2","","1","real","null","1","","",""
"d3-animate-choice","205","677417","0.0-76.0-1.23","787","833","22","Female","false","true","true","true","""event"",""trial"",""time""
""fullscreenenter"",""5"",""15325""
","
","
","""event"",""trial"",""time""
""fullscreenenter"",""5"",""15325""
","
","385.3000000715256","","49","","","3000","1","","","images/purpleplanet.jpg","images/alien4","images/alien3","images/rocket2","images/alien3","images/nothing.png","2","real","true","1","common","0","2022-02-20 05:21:07.471"
"two-step-fixation","206","678419","0.0-76.0-2.23","787","833","22","Female","false","true","true","true","""event"",""trial"",""time""
""fullscreenenter"",""5"",""15325""
","
","
","""event"",""trial"",""time""
""fullscreenenter"",""5"",""15325""
","
","","images/earth.jpg","","","","","","","","","","","","","","fixation","","","","","",""
"d3-animate-choice","207","680678","0.0-76.0-0.24","787","833","22","Female","false","true","true","true","""event"",""trial"",""time""
""fullscreenenter"",""5"",""15325""
","
","
","""event"",""trial"",""time""
""fullscreenenter"",""5"",""15325""
","
","257.5","","49","","","3000","1","","","images/earth.jpg","images/rocket1","images/rocket2","null","images/rocket2","","1","real","null","1","","",""
"d3-animate-choice","208","683349","0.0-76.0-1.24","787","833","22","Female","false","true","true","true","""event"",""trial"",""time""
""fullscreenenter"",""5"",""15325""
","
","
","""event"",""trial"",""time""
""fullscreenenter"",""5"",""15325""
","
","668.3999999761581","","48","","","3000","1","","","images/redplanet1.jpg","images/alien2","images/alien1","images/rocket2","images/alien2","images/t.png","2","real","false","2","rare","1","2022-02-20 05:21:13.403"
"two-step-fixation","209","684351","0.0-76.0-2.24","787","833","22","Female","false","true","true","true","""event"",""trial"",""time""
""fullscreenenter"",""5"",""15325""
","
","
","""event"",""trial"",""time""
""fullscreenenter"",""5"",""15325""
","
","","images/earth.jpg","","","","","","","","","","","","","","fixation","","","","","",""
"d3-animate-choice","210","686604","0.0-76.0-0.25","787","833","22","Female","false","true","true","true","""event"",""trial"",""time""
""fullscreenenter"",""5"",""15325""
","
","
","""event"",""trial"",""time""
""fullscreenenter"",""5"",""15325""
","
","251.10000002384186","","49","","","3000","1","","","images/earth.jpg","images/rocket1","images/rocket2","null","images/rocket2","","1","real","null","1","","",""
"d3-animate-choice","211","688884","0.0-76.0-1.25","787","833","22","Female","false","true","true","true","""event"",""trial"",""time""
""fullscreenenter"",""5"",""15325""
","
","
","""event"",""trial"",""time""
""fullscreenenter"",""5"",""15325""
","
","279.09999990463257","","48","","","3000","1","","","images/redplanet1.jpg","images/alien2","images/alien1","images/rocket2","images/alien2","images/t.png","2","real","false","2","rare","1","2022-02-20 05:21:18.938"
"two-step-fixation","212","689887","0.0-76.0-2.25","787","833","22","Female","false","true","true","true","""event"",""trial"",""time""
""fullscreenenter"",""5"",""15325""
","
","
","""event"",""trial"",""time""
""fullscreenenter"",""5"",""15325""
","
","","images/earth.jpg","","","","","","","","","","","","","","fixation","","","","","",""
"d3-animate-choice","213","692215","0.0-76.0-0.26","787","833","22","Female","false","true","true","true","""event"",""trial"",""time""
""fullscreenenter"",""5"",""15325""
","
","
","""event"",""trial"",""time""
""fullscreenenter"",""5"",""15325""
","
","324.7999999523163","","48","","","3000","1","","","images/earth.jpg","images/rocket1","images/rocket2","null","images/rocket1","","1","real","null","2","","",""
"d3-animate-choice","214","694593","0.0-76.0-1.26","787","833","22","Female","false","true","true","true","""event"",""trial"",""time""
""fullscreenenter"",""5"",""15325""
","
","
","""event"",""trial"",""time""
""fullscreenenter"",""5"",""15325""
","
","376.39999997615814","","48","","","3000","1","","","images/redplanet1.jpg","images/alien2","images/alien1","images/rocket1","images/alien2","images/t.png","2","real","true","2","common","1","2022-02-20 05:21:24.647"
"two-step-fixation","215","695596","0.0-76.0-2.26","787","833","22","Female","false","true","true","true","""event"",""trial"",""time""
""fullscreenenter"",""5"",""15325""
","
","
","""event"",""trial"",""time""
""fullscreenenter"",""5"",""15325""
","
","","images/earth.jpg","","","","","","","","","","","","","","fixation","","","","","",""
"d3-animate-choice","216","697850","0.0-76.0-0.27","787","833","22","Female","false","true","true","true","""event"",""trial"",""time""
""fullscreenenter"",""5"",""15325""
","
","
","""event"",""trial"",""time""
""fullscreenenter"",""5"",""15325""
","
","252.29999995231628","","48","","","3000","1","","","images/earth.jpg","images/rocket1","images/rocket2","null","images/rocket1","","1","real","null","2","","",""
"d3-animate-choice","217","700157","0.0-76.0-1.27","787","833","22","Female","false","true","true","true","""event"",""trial"",""time""
""fullscreenenter"",""5"",""15325""
","
","
","""event"",""trial"",""time""
""fullscreenenter"",""5"",""15325""
","
","305.60000002384186","","48","","","3000","1","","","images/purpleplanet.jpg","images/alien4","images/alien3","images/rocket1","images/alien4","images/t.png","2","real","false","2","rare","1","2022-02-20 05:21:30.211"
"two-step-fixation","218","701159","0.0-76.0-2.27","787","833","22","Female","false","true","true","true","""event"",""trial"",""time""
""fullscreenenter"",""5"",""15325""
","
","
","""event"",""trial"",""time""
""fullscreenenter"",""5"",""15325""
","
","","images/earth.jpg","","","","","","","","","","","","","","fixation","","","","","",""
"d3-animate-choice","219","703432","0.0-76.0-0.28","787","833","22","Female","false","true","true","true","""event"",""trial"",""time""
""fullscreenenter"",""5"",""15325""
","
","
","""event"",""trial"",""time""
""fullscreenenter"",""5"",""15325""
","
","271.3000000715256","","48","","","3000","1","","","images/earth.jpg","images/rocket1","images/rocket2","null","images/rocket1","","1","real","null","2","","",""
"d3-animate-choice","220","705853","0.0-76.0-1.28","787","833","22","Female","false","true","true","true","""event"",""trial"",""time""
""fullscreenenter"",""5"",""15325""
","
","
","""event"",""trial"",""time""
""fullscreenenter"",""5"",""15325""
","
","418.2999999523163","","48","","","3000","1","","","images/purpleplanet.jpg","images/alien4","images/alien3","images/rocket1","images/alien4","images/t.png","2","real","false","2","rare","1","2022-02-20 05:21:35.907"
"two-step-fixation","221","706855","0.0-76.0-2.28","787","833","22","Female","false","true","true","true","""event"",""trial"",""time""
""fullscreenenter"",""5"",""15325""
","
","
","""event"",""trial"",""time""
""fullscreenenter"",""5"",""15325""
","
","","images/earth.jpg","","","","","","","","","","","","","","fixation","","","","","",""
"d3-animate-choice","222","709054","0.0-76.0-0.29","787","833","22","Female","false","true","true","true","""event"",""trial"",""time""
""fullscreenenter"",""5"",""15325""
","
","
","""event"",""trial"",""time""
""fullscreenenter"",""5"",""15325""
","
","195.89999997615814","","48","","","3000","1","","","images/earth.jpg","images/rocket1","images/rocket2","null","images/rocket1","","1","real","null","2","","",""
"d3-animate-choice","223","711327","0.0-76.0-1.29","787","833","22","Female","false","true","true","true","""event"",""trial"",""time""
""fullscreenenter"",""5"",""15325""
","
","
","""event"",""trial"",""time""
""fullscreenenter"",""5"",""15325""
","
","271.10000002384186","","48","","","3000","1","","","images/redplanet1.jpg","images/alien2","images/alien1","images/rocket1","images/alien2","images/t.png","2","real","true","2","common","1","2022-02-20 05:21:41.382"
"two-step-fixation","224","712329","0.0-76.0-2.29","787","833","22","Female","false","true","true","true","""event"",""trial"",""time""
""fullscreenenter"",""5"",""15325""
","
","
","""event"",""trial"",""time""
""fullscreenenter"",""5"",""15325""
","
","","images/earth.jpg","","","","","","","","","","","","","","fixation","","","","","",""
"d3-animate-choice","225","714625","0.0-76.0-0.30","787","833","22","Female","false","true","true","true","""event"",""trial"",""time""
""fullscreenenter"",""5"",""15325""
","
","
","""event"",""trial"",""time""
""fullscreenenter"",""5"",""15325""
","
","293.90000009536743","","48","","","3000","1","","","images/earth.jpg","images/rocket1","images/rocket2","null","images/rocket1","","1","real","null","2","","",""
"d3-animate-choice","226","716852","0.0-76.0-1.30","787","833","22","Female","false","true","true","true","""event"",""trial"",""time""
""fullscreenenter"",""5"",""15325""
","
","
","""event"",""trial"",""time""
""fullscreenenter"",""5"",""15325""
","
","223.59999990463257","","48","","","3000","1","","","images/redplanet1.jpg","images/alien2","images/alien1","images/rocket1","images/alien2","images/nothing.png","2","real","true","2","common","0","2022-02-20 05:21:46.906"
"two-step-fixation","227","717854","0.0-76.0-2.30","787","833","22","Female","false","true","true","true","""event"",""trial"",""time""
""fullscreenenter"",""5"",""15325""
","
","
","""event"",""trial"",""time""
""fullscreenenter"",""5"",""15325""
","
","","images/earth.jpg","","","","","","","","","","","","","","fixation","","","","","",""
"d3-animate-choice","228","720272","0.0-76.0-0.31","787","833","22","Female","false","true","true","true","""event"",""trial"",""time""
""fullscreenenter"",""5"",""15325""
","
","
","""event"",""trial"",""time""
""fullscreenenter"",""5"",""15325""
","
","416","","49","","","3000","1","","","images/earth.jpg","images/rocket1","images/rocket2","null","images/rocket2","","1","real","null","1","","",""
"d3-animate-choice","229","722592","0.0-76.0-1.31","787","833","22","Female","false","true","true","true","""event"",""trial"",""time""
""fullscreenenter"",""5"",""15325""
","
","
","""event"",""trial"",""time""
""fullscreenenter"",""5"",""15325""
","
","318.39999997615814","","48","","","3000","1","","","images/purpleplanet.jpg","images/alien4","images/alien3","images/rocket2","images/alien4","images/t.png","2","real","true","2","common","1","2022-02-20 05:21:52.646"
"two-step-fixation","230","723594","0.0-76.0-2.31","787","833","22","Female","false","true","true","true","""event"",""trial"",""time""
""fullscreenenter"",""5"",""15325""
","
","
","""event"",""trial"",""time""
""fullscreenenter"",""5"",""15325""
","
","","images/earth.jpg","","","","","","","","","","","","","","fixation","","","","","",""
"d3-animate-choice","231","725863","0.0-76.0-0.32","787","833","22","Female","false","true","true","true","""event"",""trial"",""time""
""fullscreenenter"",""5"",""15325""
","
","
","""event"",""trial"",""time""
""fullscreenenter"",""5"",""15325""
","
","267.90000009536743","","49","","","3000","1","","","images/earth.jpg","images/rocket1","images/rocket2","null","images/rocket2","","1","real","null","1","","",""
"d3-animate-choice","232","728120","0.0-76.0-1.32","787","833","22","Female","false","true","true","true","""event"",""trial"",""time""
""fullscreenenter"",""5"",""15325""
","
","
","""event"",""trial"",""time""
""fullscreenenter"",""5"",""15325""
","
","255.39999997615814","","48","","","3000","1","","","images/purpleplanet.jpg","images/alien4","images/alien3","images/rocket2","images/alien4","images/t.png","2","real","true","2","common","1","2022-02-20 05:21:58.174"
"two-step-fixation","233","729122","0.0-76.0-2.32","787","833","22","Female","false","true","true","true","""event"",""trial"",""time""
""fullscreenenter"",""5"",""15325""
","
","
","""event"",""trial"",""time""
""fullscreenenter"",""5"",""15325""
","
","","images/earth.jpg","","","","","","","","","","","","","","fixation","","","","","",""
"d3-animate-choice","234","731389","0.0-76.0-0.33","787","833","22","Female","false","true","true","true","""event"",""trial"",""time""
""fullscreenenter"",""5"",""15325""
","
","
","""event"",""trial"",""time""
""fullscreenenter"",""5"",""15325""
","
","266.2000000476837","","49","","","3000","1","","","images/earth.jpg","images/rocket1","images/rocket2","null","images/rocket2","","1","real","null","1","","",""
"d3-animate-choice","235","733719","0.0-76.0-1.33","787","833","22","Female","false","true","true","true","""event"",""trial"",""time""
""fullscreenenter"",""5"",""15325""
","
","
","""event"",""trial"",""time""
""fullscreenenter"",""5"",""15325""
","
","327.2000000476837","","48","","","3000","1","","","images/redplanet1.jpg","images/alien2","images/alien1","images/rocket2","images/alien2","images/t.png","2","real","false","2","rare","1","2022-02-20 05:22:03.773"
"two-step-fixation","236","734721","0.0-76.0-2.33","787","833","22","Female","false","true","true","true","""event"",""trial"",""time""
""fullscreenenter"",""5"",""15325""
","
","
","""event"",""trial"",""time""
""fullscreenenter"",""5"",""15325""
","
","","images/earth.jpg","","","","","","","","","","","","","","fixation","","","","","",""
"d3-animate-choice","237","736907","0.0-76.0-0.34","787","833","22","Female","false","true","true","true","""event"",""trial"",""time""
""fullscreenenter"",""5"",""15325""
","
","
","""event"",""trial"",""time""
""fullscreenenter"",""5"",""15325""
","
","183.39999997615814","","49","","","3000","1","","","images/earth.jpg","images/rocket1","images/rocket2","null","images/rocket2","","1","real","null","1","","",""
"d3-animate-choice","238","739171","0.0-76.0-1.34","787","833","22","Female","false","true","true","true","""event"",""trial"",""time""
""fullscreenenter"",""5"",""15325""
","
","
","""event"",""trial"",""time""
""fullscreenenter"",""5"",""15325""
","
","261.39999997615814","","48","","","3000","1","","","images/purpleplanet.jpg","images/alien4","images/alien3","images/rocket2","images/alien4","images/t.png","2","real","true","2","common","1","2022-02-20 05:22:09.225"
"two-step-fixation","239","740174","0.0-76.0-2.34","787","833","22","Female","false","true","true","true","""event"",""trial"",""time""
""fullscreenenter"",""5"",""15325""
","
","
","""event"",""trial"",""time""
""fullscreenenter"",""5"",""15325""
","
","","images/earth.jpg","","","","","","","","","","","","","","fixation","","","","","",""
"d3-animate-choice","240","742409","0.0-76.0-0.35","787","833","22","Female","false","true","true","true","""event"",""trial"",""time""
""fullscreenenter"",""5"",""15325""
","
","
","""event"",""trial"",""time""
""fullscreenenter"",""5"",""15325""
","
","233.09999990463257","","49","","","3000","1","","","images/earth.jpg","images/rocket1","images/rocket2","null","images/rocket2","","1","real","null","1","","",""
"d3-animate-choice","241","744651","0.0-76.0-1.35","787","833","22","Female","false","true","true","true","""event"",""trial"",""time""
""fullscreenenter"",""5"",""15325""
","
","
","""event"",""trial"",""time""
""fullscreenenter"",""5"",""15325""
","
","239.5","","48","","","3000","1","","","images/purpleplanet.jpg","images/alien4","images/alien3","images/rocket2","images/alien4","images/nothing.png","2","real","true","2","common","0","2022-02-20 05:22:14.705"
"two-step-fixation","242","745653","0.0-76.0-2.35","787","833","22","Female","false","true","true","true","""event"",""trial"",""time""
""fullscreenenter"",""5"",""15325""
","
","
","""event"",""trial"",""time""
""fullscreenenter"",""5"",""15325""
","
","","images/earth.jpg","","","","","","","","","","","","","","fixation","","","","","",""
"d3-animate-choice","243","747792","0.0-76.0-0.36","787","833","22","Female","false","true","true","true","""event"",""trial"",""time""
""fullscreenenter"",""5"",""15325""
","
","
","""event"",""trial"",""time""
""fullscreenenter"",""5"",""15325""
","
","135.39999997615814","","49","","","3000","1","","","images/earth.jpg","images/rocket1","images/rocket2","null","images/rocket2","","1","real","null","1","","",""
"d3-animate-choice","244","750120","0.0-76.0-1.36","787","833","22","Female","false","true","true","true","""event"",""trial"",""time""
""fullscreenenter"",""5"",""15325""
","
","
","""event"",""trial"",""time""
""fullscreenenter"",""5"",""15325""
","
","324.7999999523163","","48","","","3000","1","","","images/purpleplanet.jpg","images/alien4","images/alien3","images/rocket2","images/alien4","images/nothing.png","2","real","true","2","common","0","2022-02-20 05:22:20.174"
"two-step-fixation","245","751121","0.0-76.0-2.36","787","833","22","Female","false","true","true","true","""event"",""trial"",""time""
""fullscreenenter"",""5"",""15325""
","
","
","""event"",""trial"",""time""
""fullscreenenter"",""5"",""15325""
","
","","images/earth.jpg","","","","","","","","","","","","","","fixation","","","","","",""
"d3-animate-choice","246","753370","0.0-76.0-0.37","787","833","22","Female","false","true","true","true","""event"",""trial"",""time""
""fullscreenenter"",""5"",""15325""
","
","
","""event"",""trial"",""time""
""fullscreenenter"",""5"",""15325""
","
","247.20000004768372","","49","","","3000","1","","","images/earth.jpg","images/rocket1","images/rocket2","null","images/rocket2","","1","real","null","1","","",""
