"trial_type","trial_index","time_elapsed","internal_node_id","participant_id","subject_id","age","gender","rocket_sides","red_planet_first_rocket","red_display_order","purple_display_order","interactions","blur_events","focus_events","fullscreenenter_events","fullscreenexit_events","rt","stimulus","key_press","button_pressed","success","duration","valid_pressed","rts","keys","planet_text","right_text","left_text","center_text","chosen_text","reward_text","trial_stage","practice_trial","transition_type","choice","transition","reward","timestamp"
"pavlovia","0","2","0.0-0.0","1488","1834","17","Male","true","true","true","true","""event"",""trial"",""time""
""blur"",""1"",""4027""
""focus"",""1"",""4119""
","""event"",""trial"",""time""
""blur"",""1"",""4027""
","""event"",""trial"",""time""
""focus"",""1"",""4119""
","
","
","","","","","","","","","","","","","","","","","","","","","",""
"html-keyboard-response","1","6383","0.0-1.0","1488","1834","17","Male","true","true","true","true","""event"",""trial"",""time""
""blur"",""1"",""4027""
""focus"",""1"",""4119""
","""event"",""trial"",""time""
""blur"",""1"",""4027""
","""event"",""trial"",""time""
""focus"",""1"",""4119""
","
","
","6380.199999988079","Welcome! Press the space bar to begin.","32","","","","","","","","","","","","","","","","","","",""
"audio-keyboard-response","2","9480","0.0-2.0","1488","1834","17","Male","true","true","true","true","""event"",""trial"",""time""
""blur"",""1"",""4027""
""focus"",""1"",""4119""
","""event"",""trial"",""time""
""blur"",""1"",""4027""
","""event"",""trial"",""time""
""focus"",""1"",""4119""
","
","
","3061","audio/beep_loop.wav","32","","","","","","","","","","","","","","","","","","",""
"audio-button-response","3","22170","0.0-3.0","1488","1834","17","Male","true","true","true","true","""event"",""trial"",""time""
""blur"",""1"",""4027""
""focus"",""1"",""4119""
","""event"",""trial"",""time""
""blur"",""1"",""4027""
","""event"",""trial"",""time""
""focus"",""1"",""4119""
","
","
","NaN","audio/fish.mp3","","1","","","","","","","","","","","","","","","","","",""
"audio-button-response","4","24907","0.0-4.0","1488","1834","17","Male","true","true","true","true","""event"",""trial"",""time""
""blur"",""1"",""4027""
""focus"",""1"",""4119""
""fullscreenenter"",""5"",""29394""
","""event"",""trial"",""time""
""blur"",""1"",""4027""
","""event"",""trial"",""time""
""focus"",""1"",""4119""
","""event"",""trial"",""time""
""fullscreenenter"",""5"",""29394""
","
","NaN","audio/tiger.mp3","","4","","","","","","","","","","","","","","","","","",""
"fullscreen","5","30378","0.0-5.0","1488","1834","17","Male","true","true","true","true","""event"",""trial"",""time""
""blur"",""1"",""4027""
""focus"",""1"",""4119""
""fullscreenenter"",""5"",""29394""
","""event"",""trial"",""time""
""blur"",""1"",""4027""
","""event"",""trial"",""time""
""focus"",""1"",""4119""
","""event"",""trial"",""time""
""fullscreenenter"",""5"",""29394""
","
","","","","","true","","","","","","","","","","","","","","","","",""
"d3-instructions","6","52664","0.0-6.0","1488","1834","17","Male","true","true","true","true","""event"",""trial"",""time""
""blur"",""1"",""4027""
""focus"",""1"",""4119""
""fullscreenenter"",""5"",""29394""
","""event"",""trial"",""time""
""blur"",""1"",""4027""
","""event"",""trial"",""time""
""focus"",""1"",""4119""
","""event"",""trial"",""time""
""fullscreenenter"",""5"",""29394""
","
","","","","","","","","","","","","","","","","","","","","","",""
"d3-instructions","7","63112","0.0-7.0","1488","1834","17","Male","true","true","true","true","""event"",""trial"",""time""
""blur"",""1"",""4027""
""focus"",""1"",""4119""
""fullscreenenter"",""5"",""29394""
","""event"",""trial"",""time""
""blur"",""1"",""4027""
","""event"",""trial"",""time""
""focus"",""1"",""4119""
","""event"",""trial"",""time""
""fullscreenenter"",""5"",""29394""
","
","","","","","","","","","","","","","","","","","","","","","",""
"d3-instructions","8","65528","0.0-8.0","1488","1834","17","Male","true","true","true","true","""event"",""trial"",""time""
""blur"",""1"",""4027""
""focus"",""1"",""4119""
""fullscreenenter"",""5"",""29394""
","""event"",""trial"",""time""
""blur"",""1"",""4027""
","""event"",""trial"",""time""
""focus"",""1"",""4119""
","""event"",""trial"",""time""
""fullscreenenter"",""5"",""29394""
","
","","","","","","","","","","","","","","","","","","","","","",""
"d3-instructions","9","71600","0.0-9.0","1488","1834","17","Male","true","true","true","true","""event"",""trial"",""time""
""blur"",""1"",""4027""
""focus"",""1"",""4119""
""fullscreenenter"",""5"",""29394""
","""event"",""trial"",""time""
""blur"",""1"",""4027""
","""event"",""trial"",""time""
""focus"",""1"",""4119""
","""event"",""trial"",""time""
""fullscreenenter"",""5"",""29394""
","
","","","","","","","","","","","","","","","","","","","","","",""
"d3-instructions","10","85120","0.0-10.0","1488","1834","17","Male","true","true","true","true","""event"",""trial"",""time""
""blur"",""1"",""4027""
""focus"",""1"",""4119""
""fullscreenenter"",""5"",""29394""
","""event"",""trial"",""time""
""blur"",""1"",""4027""
","""event"",""trial"",""time""
""focus"",""1"",""4119""
","""event"",""trial"",""time""
""fullscreenenter"",""5"",""29394""
","
","","","","","","","","","","","","","","","","","","","","","",""
"d3-animate-choice","11","105943","0.0-11.0","1488","1834","17","Male","true","true","true","true","""event"",""trial"",""time""
""blur"",""1"",""4027""
""focus"",""1"",""4119""
""fullscreenenter"",""5"",""29394""
","""event"",""trial"",""time""
""blur"",""1"",""4027""
","""event"",""trial"",""time""
""focus"",""1"",""4119""
","""event"",""trial"",""time""
""fullscreenenter"",""5"",""29394""
","
","4333.5","","35","","","3000","1","6501.300000011921,15645.5,15653.100000023842,15757.399999976158,17469.80000001192,17957.80000001192,18165.5,18341.5,18581.600000023842,18669.600000023842,18773.600000023842,18805.600000023842,18893.69999998808,18965.600000023842,19053.30000001192,19093.30000001192,19485.399999976158","32,68,65,83,144,97,96,97,97,96,97,49,96,97,49,96,49","images/tutgreenplanet.jpg","images/tutalien1","images/tutalien2","null","images/tutalien2","","NA","practice","null","","","",""
"d3-animate-choice","12","109992","0.0-12.0","1488","1834","17","Male","true","true","true","true","""event"",""trial"",""time""
""blur"",""1"",""4027""
""focus"",""1"",""4119""
""fullscreenenter"",""5"",""29394""
","""event"",""trial"",""time""
""blur"",""1"",""4027""
","""event"",""trial"",""time""
""focus"",""1"",""4119""
","""event"",""trial"",""time""
""fullscreenenter"",""5"",""29394""
","
","110.5","","144","","","3000","1","2030.0999999642372","49","images/tutgreenplanet.jpg","images/tutalien1","images/tutalien2","null","images/tutalien2","","NA","practice","null","","","",""
"d3-animate-choice","13","114838","0.0-13.0","1488","1834","17","Male","true","true","true","true","""event"",""trial"",""time""
""blur"",""1"",""4027""
""focus"",""1"",""4119""
""fullscreenenter"",""5"",""29394""
","""event"",""trial"",""time""
""blur"",""1"",""4027""
","""event"",""trial"",""time""
""focus"",""1"",""4119""
","""event"",""trial"",""time""
""fullscreenenter"",""5"",""29394""
","
","958","","50","","","3000","1","1510,1837.699999988079,2838.100000023842","50,50,48","images/tutgreenplanet.jpg","images/tutalien1","images/tutalien2","null","images/tutalien1","","NA","practice","null","","","",""
"d3-animate-choice","14","117466","0.0-14.0","1488","1834","17","Male","true","true","true","true","""event"",""trial"",""time""
""blur"",""1"",""4027""
""focus"",""1"",""4119""
""fullscreenenter"",""5"",""29394""
","""event"",""trial"",""time""
""blur"",""1"",""4027""
","""event"",""trial"",""time""
""focus"",""1"",""4119""
","""event"",""trial"",""time""
""fullscreenenter"",""5"",""29394""
","
","625.5999999642372","","48","","","3000","1","","","images/tutgreenplanet.jpg","images/tutalien1","images/tutalien2","null","images/tutalien1","","NA","practice","null","","","",""
"d3-instructions","15","123271","0.0-15.0","1488","1834","17","Male","true","true","true","true","""event"",""trial"",""time""
""blur"",""1"",""4027""
""focus"",""1"",""4119""
""fullscreenenter"",""5"",""29394""
","""event"",""trial"",""time""
""blur"",""1"",""4027""
","""event"",""trial"",""time""
""focus"",""1"",""4119""
","""event"",""trial"",""time""
""fullscreenenter"",""5"",""29394""
","
","","","","","","","","","","","","","","","","","","","","","",""
"d3-instructions","16","127504","0.0-16.0","1488","1834","17","Male","true","true","true","true","""event"",""trial"",""time""
""blur"",""1"",""4027""
""focus"",""1"",""4119""
""fullscreenenter"",""5"",""29394""
","""event"",""trial"",""time""
""blur"",""1"",""4027""
","""event"",""trial"",""time""
""focus"",""1"",""4119""
","""event"",""trial"",""time""
""fullscreenenter"",""5"",""29394""
","
","","","","","","","","","","","","","","","","","","","","","",""
"d3-instructions","17","132807","0.0-17.0","1488","1834","17","Male","true","true","true","true","""event"",""trial"",""time""
""blur"",""1"",""4027""
""focus"",""1"",""4119""
""fullscreenenter"",""5"",""29394""
","""event"",""trial"",""time""
""blur"",""1"",""4027""
","""event"",""trial"",""time""
""focus"",""1"",""4119""
","""event"",""trial"",""time""
""fullscreenenter"",""5"",""29394""
","
","","","","","","","","","","","","","","","","","","","","","",""
"d3-instructions","18","140160","0.0-18.0","1488","1834","17","Male","true","true","true","true","""event"",""trial"",""time""
""blur"",""1"",""4027""
""focus"",""1"",""4119""
""fullscreenenter"",""5"",""29394""
","""event"",""trial"",""time""
""blur"",""1"",""4027""
","""event"",""trial"",""time""
""focus"",""1"",""4119""
","""event"",""trial"",""time""
""fullscreenenter"",""5"",""29394""
","
","","","","","","","","","","","","","","","","","","","","","",""
"d3-instructions","19","154719","0.0-19.0","1488","1834","17","Male","true","true","true","true","""event"",""trial"",""time""
""blur"",""1"",""4027""
""focus"",""1"",""4119""
""fullscreenenter"",""5"",""29394""
","""event"",""trial"",""time""
""blur"",""1"",""4027""
","""event"",""trial"",""time""
""focus"",""1"",""4119""
","""event"",""trial"",""time""
""fullscreenenter"",""5"",""29394""
","
","","","","","","","","","","","","","","","","","","","","","",""
"d3-animate-choice","20","157281","0.0-20.0","1488","1834","17","Male","true","true","true","true","""event"",""trial"",""time""
""blur"",""1"",""4027""
""focus"",""1"",""4119""
""fullscreenenter"",""5"",""29394""
","""event"",""trial"",""time""
""blur"",""1"",""4027""
","""event"",""trial"",""time""
""focus"",""1"",""4119""
","""event"",""trial"",""time""
""fullscreenenter"",""5"",""29394""
","
","558.5","","49","","","3000","1","","","images/tutyellowplanet.jpg","null","images/tutalien3","null","images/tutalien3","images/t.png","NA","practice","null","","","",""
"d3-animate-choice","21","159625","0.0-21.0","1488","1834","17","Male","true","true","true","true","""event"",""trial"",""time""
""blur"",""1"",""4027""
""focus"",""1"",""4119""
""fullscreenenter"",""5"",""29394""
","""event"",""trial"",""time""
""blur"",""1"",""4027""
","""event"",""trial"",""time""
""focus"",""1"",""4119""
","""event"",""trial"",""time""
""fullscreenenter"",""5"",""29394""
","
","341.89999997615814","","49","","","3000","1","","","images/tutyellowplanet.jpg","null","images/tutalien3","null","images/tutalien3","images/t.png","NA","practice","null","","","",""
"d3-animate-choice","22","161760","0.0-22.0","1488","1834","17","Male","true","true","true","true","""event"",""trial"",""time""
""blur"",""1"",""4027""
""focus"",""1"",""4119""
""fullscreenenter"",""5"",""29394""
","""event"",""trial"",""time""
""blur"",""1"",""4027""
","""event"",""trial"",""time""
""focus"",""1"",""4119""
","""event"",""trial"",""time""
""fullscreenenter"",""5"",""29394""
","
","116.60000002384186","","49","","","3000","1","","","images/tutyellowplanet.jpg","null","images/tutalien3","null","images/tutalien3","images/t.png","NA","practice","null","","","",""
"d3-animate-choice","23","164017","0.0-23.0","1488","1834","17","Male","true","true","true","true","""event"",""trial"",""time""
""blur"",""1"",""4027""
""focus"",""1"",""4119""
""fullscreenenter"",""5"",""29394""
","""event"",""trial"",""time""
""blur"",""1"",""4027""
","""event"",""trial"",""time""
""focus"",""1"",""4119""
","""event"",""trial"",""time""
""fullscreenenter"",""5"",""29394""
","
","247.10000002384186","","49","","","3000","1","","","images/tutyellowplanet.jpg","null","images/tutalien3","null","images/tutalien3","images/t.png","NA","practice","null","","","",""
"d3-animate-choice","24","166171","0.0-24.0","1488","1834","17","Male","true","true","true","true","""event"",""trial"",""time""
""blur"",""1"",""4027""
""focus"",""1"",""4119""
""fullscreenenter"",""5"",""29394""
","""event"",""trial"",""time""
""blur"",""1"",""4027""
","""event"",""trial"",""time""
""focus"",""1"",""4119""
","""event"",""trial"",""time""
""fullscreenenter"",""5"",""29394""
","
","149.5","","49","","","3000","1","","","images/tutyellowplanet.jpg","null","images/tutalien3","null","images/tutalien3","images/t.png","NA","practice","null","","","",""
"d3-animate-choice","25","168337","0.0-25.0","1488","1834","17","Male","true","true","true","true","""event"",""trial"",""time""
""blur"",""1"",""4027""
""focus"",""1"",""4119""
""fullscreenenter"",""5"",""29394""
","""event"",""trial"",""time""
""blur"",""1"",""4027""
","""event"",""trial"",""time""
""focus"",""1"",""4119""
","""event"",""trial"",""time""
""fullscreenenter"",""5"",""29394""
","
","163.69999998807907","","49","","","3000","1","2163.699999988079","49","images/tutyellowplanet.jpg","null","images/tutalien3","null","images/tutalien3","images/t.png","NA","practice","null","","","",""
"d3-animate-choice","26","170880","0.0-26.0","1488","1834","17","Male","true","true","true","true","""event"",""trial"",""time""
""blur"",""1"",""4027""
""focus"",""1"",""4119""
""fullscreenenter"",""5"",""29394""
","""event"",""trial"",""time""
""blur"",""1"",""4027""
","""event"",""trial"",""time""
""focus"",""1"",""4119""
","""event"",""trial"",""time""
""fullscreenenter"",""5"",""29394""
","
","534.1000000238419","","49","","","3000","1","","","images/tutyellowplanet.jpg","null","images/tutalien3","null","images/tutalien3","images/t.png","NA","practice","null","","","",""
"d3-animate-choice","27","172985","0.0-27.0","1488","1834","17","Male","true","true","true","true","""event"",""trial"",""time""
""blur"",""1"",""4027""
""focus"",""1"",""4119""
""fullscreenenter"",""5"",""29394""
","""event"",""trial"",""time""
""blur"",""1"",""4027""
","""event"",""trial"",""time""
""focus"",""1"",""4119""
","""event"",""trial"",""time""
""fullscreenenter"",""5"",""29394""
","
","102.69999998807907","","49","","","3000","1","1935.5","49","images/tutyellowplanet.jpg","null","images/tutalien3","null","images/tutalien3","images/t.png","NA","practice","null","","","",""
"d3-animate-choice","28","175356","0.0-28.0","1488","1834","17","Male","true","true","true","true","""event"",""trial"",""time""
""blur"",""1"",""4027""
""focus"",""1"",""4119""
""fullscreenenter"",""5"",""29394""
","""event"",""trial"",""time""
""blur"",""1"",""4027""
","""event"",""trial"",""time""
""focus"",""1"",""4119""
","""event"",""trial"",""time""
""fullscreenenter"",""5"",""29394""
","
","365.60000002384186","","49","","","3000","1","","","images/tutyellowplanet.jpg","null","images/tutalien3","null","images/tutalien3","images/t.png","NA","practice","null","","","",""
"d3-animate-choice","29","177633","0.0-29.0","1488","1834","17","Male","true","true","true","true","""event"",""trial"",""time""
""blur"",""1"",""4027""
""focus"",""1"",""4119""
""fullscreenenter"",""5"",""29394""
","""event"",""trial"",""time""
""blur"",""1"",""4027""
","""event"",""trial"",""time""
""focus"",""1"",""4119""
","""event"",""trial"",""time""
""fullscreenenter"",""5"",""29394""
","
","275.19999998807907","","49","","","3000","1","","","images/tutyellowplanet.jpg","null","images/tutalien3","null","images/tutalien3","images/t.png","NA","practice","null","","","",""
"d3-instructions","30","186951","0.0-30.0","1488","1834","17","Male","true","true","true","true","""event"",""trial"",""time""
""blur"",""1"",""4027""
""focus"",""1"",""4119""
""fullscreenenter"",""5"",""29394""
","""event"",""trial"",""time""
""blur"",""1"",""4027""
","""event"",""trial"",""time""
""focus"",""1"",""4119""
","""event"",""trial"",""time""
""fullscreenenter"",""5"",""29394""
","
","","","","","","","","","","","","","","","","","","","","","",""
"d3-instructions","31","194688","0.0-31.0","1488","1834","17","Male","true","true","true","true","""event"",""trial"",""time""
""blur"",""1"",""4027""
""focus"",""1"",""4119""
""fullscreenenter"",""5"",""29394""
","""event"",""trial"",""time""
""blur"",""1"",""4027""
","""event"",""trial"",""time""
""focus"",""1"",""4119""
","""event"",""trial"",""time""
""fullscreenenter"",""5"",""29394""
","
","","","","","","","","","","","","","","","","","","","","","",""
"d3-instructions","32","200536","0.0-32.0","1488","1834","17","Male","true","true","true","true","""event"",""trial"",""time""
""blur"",""1"",""4027""
""focus"",""1"",""4119""
""fullscreenenter"",""5"",""29394""
","""event"",""trial"",""time""
""blur"",""1"",""4027""
","""event"",""trial"",""time""
""focus"",""1"",""4119""
","""event"",""trial"",""time""
""fullscreenenter"",""5"",""29394""
","
","","","","","","","","","","","","","","","","","","","","","",""
"d3-instructions","33","203800","0.0-33.0","1488","1834","17","Male","true","true","true","true","""event"",""trial"",""time""
""blur"",""1"",""4027""
""focus"",""1"",""4119""
""fullscreenenter"",""5"",""29394""
","""event"",""trial"",""time""
""blur"",""1"",""4027""
","""event"",""trial"",""time""
""focus"",""1"",""4119""
","""event"",""trial"",""time""
""fullscreenenter"",""5"",""29394""
","
","","","","","","","","","","","","","","","","","","","","","",""
"d3-animate-choice","34","206625","0.0-34.0","1488","1834","17","Male","true","true","true","true","""event"",""trial"",""time""
""blur"",""1"",""4027""
""focus"",""1"",""4119""
""fullscreenenter"",""5"",""29394""
","""event"",""trial"",""time""
""blur"",""1"",""4027""
","""event"",""trial"",""time""
""focus"",""1"",""4119""
","""event"",""trial"",""time""
""fullscreenenter"",""5"",""29394""
","
","822.8000000119209","","49","","","3000","1","","","images/tutgreenplanet.jpg","images/tutalien1","images/tutalien2","null","images/tutalien2","images/t.png","NA","practice","null","","","",""
"d3-animate-choice","35","208921","0.0-35.0","1488","1834","17","Male","true","true","true","true","""event"",""trial"",""time""
""blur"",""1"",""4027""
""focus"",""1"",""4119""
""fullscreenenter"",""5"",""29394""
","""event"",""trial"",""time""
""blur"",""1"",""4027""
","""event"",""trial"",""time""
""focus"",""1"",""4119""
","""event"",""trial"",""time""
""fullscreenenter"",""5"",""29394""
","
","285.5","","49","","","3000","1","","","images/tutgreenplanet.jpg","images/tutalien1","images/tutalien2","null","images/tutalien2","images/t.png","NA","practice","null","","","",""
"d3-animate-choice","36","211247","0.0-36.0","1488","1834","17","Male","true","true","true","true","""event"",""trial"",""time""
""blur"",""1"",""4027""
""focus"",""1"",""4119""
""fullscreenenter"",""5"",""29394""
","""event"",""trial"",""time""
""blur"",""1"",""4027""
","""event"",""trial"",""time""
""focus"",""1"",""4119""
","""event"",""trial"",""time""
""fullscreenenter"",""5"",""29394""
","
","307.80000001192093","","49","","","3000","1","2299.600000023842","49","images/tutgreenplanet.jpg","images/tutalien1","images/tutalien2","null","images/tutalien2","images/t.png","NA","practice","null","","","",""
"d3-animate-choice","37","213681","0.0-37.0","1488","1834","17","Male","true","true","true","true","""event"",""trial"",""time""
""blur"",""1"",""4027""
""focus"",""1"",""4119""
""fullscreenenter"",""5"",""29394""
","""event"",""trial"",""time""
""blur"",""1"",""4027""
","""event"",""trial"",""time""
""focus"",""1"",""4119""
","""event"",""trial"",""time""
""fullscreenenter"",""5"",""29394""
","
","431.5","","49","","","3000","1","","","images/tutgreenplanet.jpg","images/tutalien1","images/tutalien2","null","images/tutalien2","images/t.png","NA","practice","null","","","",""
"d3-animate-choice","38","215952","0.0-38.0","1488","1834","17","Male","true","true","true","true","""event"",""trial"",""time""
""blur"",""1"",""4027""
""focus"",""1"",""4119""
""fullscreenenter"",""5"",""29394""
","""event"",""trial"",""time""
""blur"",""1"",""4027""
","""event"",""trial"",""time""
""focus"",""1"",""4119""
","""event"",""trial"",""time""
""fullscreenenter"",""5"",""29394""
","
","254","","49","","","3000","1","","","images/tutgreenplanet.jpg","images/tutalien1","images/tutalien2","null","images/tutalien2","images/t.png","NA","practice","null","","","",""
"d3-animate-choice","39","218225","0.0-39.0","1488","1834","17","Male","true","true","true","true","""event"",""trial"",""time""
""blur"",""1"",""4027""
""focus"",""1"",""4119""
""fullscreenenter"",""5"",""29394""
","""event"",""trial"",""time""
""blur"",""1"",""4027""
","""event"",""trial"",""time""
""focus"",""1"",""4119""
","""event"",""trial"",""time""
""fullscreenenter"",""5"",""29394""
","
","270.89999997615814","","49","","","3000","1","","","images/tutgreenplanet.jpg","images/tutalien1","images/tutalien2","null","images/tutalien2","images/t.png","NA","practice","null","","","",""
"d3-animate-choice","40","220344","0.0-40.0","1488","1834","17","Male","true","true","true","true","""event"",""trial"",""time""
""blur"",""1"",""4027""
""focus"",""1"",""4119""
""fullscreenenter"",""5"",""29394""
","""event"",""trial"",""time""
""blur"",""1"",""4027""
","""event"",""trial"",""time""
""focus"",""1"",""4119""
","""event"",""trial"",""time""
""fullscreenenter"",""5"",""29394""
","
","117.29999995231628","","49","","","3000","1","","","images/tutgreenplanet.jpg","images/tutalien1","images/tutalien2","null","images/tutalien2","images/t.png","NA","practice","null","","","",""
"d3-animate-choice","41","222400","0.0-41.0","1488","1834","17","Male","true","true","true","true","""event"",""trial"",""time""
""blur"",""1"",""4027""
""focus"",""1"",""4119""
""fullscreenenter"",""5"",""29394""
","""event"",""trial"",""time""
""blur"",""1"",""4027""
","""event"",""trial"",""time""
""focus"",""1"",""4119""
","""event"",""trial"",""time""
""fullscreenenter"",""5"",""29394""
","
","46.69999998807907","","49","","","3000","1","","","images/tutgreenplanet.jpg","images/tutalien1","images/tutalien2","null","images/tutalien2","images/t.png","NA","practice","null","","","",""
"d3-animate-choice","42","224545","0.0-42.0","1488","1834","17","Male","true","true","true","true","""event"",""trial"",""time""
""blur"",""1"",""4027""
""focus"",""1"",""4119""
""fullscreenenter"",""5"",""29394""
","""event"",""trial"",""time""
""blur"",""1"",""4027""
","""event"",""trial"",""time""
""focus"",""1"",""4119""
","""event"",""trial"",""time""
""fullscreenenter"",""5"",""29394""
","
","141.5","","49","","","3000","1","","","images/tutgreenplanet.jpg","images/tutalien1","images/tutalien2","null","images/tutalien2","images/t.png","NA","practice","null","","","",""
"d3-animate-choice","43","226585","0.0-43.0","1488","1834","17","Male","true","true","true","true","""event"",""trial"",""time""
""blur"",""1"",""4027""
""focus"",""1"",""4119""
""fullscreenenter"",""5"",""29394""
","""event"",""trial"",""time""
""blur"",""1"",""4027""
","""event"",""trial"",""time""
""focus"",""1"",""4119""
","""event"",""trial"",""time""
""fullscreenenter"",""5"",""29394""
","
","37.80000001192093","","49","","","3000","1","","","images/tutgreenplanet.jpg","images/tutalien1","images/tutalien2","null","images/tutalien2","images/t.png","NA","practice","null","","","",""
"d3-instructions","44","237799","0.0-44.0","1488","1834","17","Male","true","true","true","true","""event"",""trial"",""time""
""blur"",""1"",""4027""
""focus"",""1"",""4119""
""fullscreenenter"",""5"",""29394""
","""event"",""trial"",""time""
""blur"",""1"",""4027""
","""event"",""trial"",""time""
""focus"",""1"",""4119""
","""event"",""trial"",""time""
""fullscreenenter"",""5"",""29394""
","
","","","","","","","","","","","","","","","","","","","","","",""
"d3-instructions","45","242000","0.0-45.0","1488","1834","17","Male","true","true","true","true","""event"",""trial"",""time""
""blur"",""1"",""4027""
""focus"",""1"",""4119""
""fullscreenenter"",""5"",""29394""
","""event"",""trial"",""time""
""blur"",""1"",""4027""
","""event"",""trial"",""time""
""focus"",""1"",""4119""
","""event"",""trial"",""time""
""fullscreenenter"",""5"",""29394""
","
","","","","","","","","","","","","","","","","","","","","","",""
"d3-instructions","46","245311","0.0-46.0","1488","1834","17","Male","true","true","true","true","""event"",""trial"",""time""
""blur"",""1"",""4027""
""focus"",""1"",""4119""
""fullscreenenter"",""5"",""29394""
","""event"",""trial"",""time""
""blur"",""1"",""4027""
","""event"",""trial"",""time""
""focus"",""1"",""4119""
","""event"",""trial"",""time""
""fullscreenenter"",""5"",""29394""
","
","","","","","","","","","","","","","","","","","","","","","",""
"d3-instructions","47","260120","0.0-47.0","1488","1834","17","Male","true","true","true","true","""event"",""trial"",""time""
""blur"",""1"",""4027""
""focus"",""1"",""4119""
""fullscreenenter"",""5"",""29394""
","""event"",""trial"",""time""
""blur"",""1"",""4027""
","""event"",""trial"",""time""
""focus"",""1"",""4119""
","""event"",""trial"",""time""
""fullscreenenter"",""5"",""29394""
","
","","","","","","","","","","","","","","","","","","","","","",""
"d3-instructions","48","268144","0.0-48.0","1488","1834","17","Male","true","true","true","true","""event"",""trial"",""time""
""blur"",""1"",""4027""
""focus"",""1"",""4119""
""fullscreenenter"",""5"",""29394""
","""event"",""trial"",""time""
""blur"",""1"",""4027""
","""event"",""trial"",""time""
""focus"",""1"",""4119""
","""event"",""trial"",""time""
""fullscreenenter"",""5"",""29394""
","
","","","","","","","","","","","","","","","","","","","","","",""
"d3-instructions","49","278400","0.0-49.0","1488","1834","17","Male","true","true","true","true","""event"",""trial"",""time""
""blur"",""1"",""4027""
""focus"",""1"",""4119""
""fullscreenenter"",""5"",""29394""
","""event"",""trial"",""time""
""blur"",""1"",""4027""
","""event"",""trial"",""time""
""focus"",""1"",""4119""
","""event"",""trial"",""time""
""fullscreenenter"",""5"",""29394""
","
","","","","","","","","","","","","","","","","","","","","","",""
"d3-instructions","50","289775","0.0-50.0","1488","1834","17","Male","true","true","true","true","""event"",""trial"",""time""
""blur"",""1"",""4027""
""focus"",""1"",""4119""
""fullscreenenter"",""5"",""29394""
","""event"",""trial"",""time""
""blur"",""1"",""4027""
","""event"",""trial"",""time""
""focus"",""1"",""4119""
","""event"",""trial"",""time""
""fullscreenenter"",""5"",""29394""
","
","","","","","","","","","","","","","","","","","","","","","",""
"d3-instructions","51","291760","0.0-51.0","1488","1834","17","Male","true","true","true","true","""event"",""trial"",""time""
""blur"",""1"",""4027""
""focus"",""1"",""4119""
""fullscreenenter"",""5"",""29394""
","""event"",""trial"",""time""
""blur"",""1"",""4027""
","""event"",""trial"",""time""
""focus"",""1"",""4119""
","""event"",""trial"",""time""
""fullscreenenter"",""5"",""29394""
","
","","","","","","","","","","","","","","","","","","","","","",""
"d3-instructions","52","292936","0.0-52.0","1488","1834","17","Male","true","true","true","true","""event"",""trial"",""time""
""blur"",""1"",""4027""
""focus"",""1"",""4119""
""fullscreenenter"",""5"",""29394""
","""event"",""trial"",""time""
""blur"",""1"",""4027""
","""event"",""trial"",""time""
""focus"",""1"",""4119""
","""event"",""trial"",""time""
""fullscreenenter"",""5"",""29394""
","
","","","","","","","","","","","","","","","","","","","","","",""
"d3-instructions","53","299064","0.0-53.0","1488","1834","17","Male","true","true","true","true","""event"",""trial"",""time""
""blur"",""1"",""4027""
""focus"",""1"",""4119""
""fullscreenenter"",""5"",""29394""
","""event"",""trial"",""time""
""blur"",""1"",""4027""
","""event"",""trial"",""time""
""focus"",""1"",""4119""
","""event"",""trial"",""time""
""fullscreenenter"",""5"",""29394""
","
","","","","","","","","","","","","","","","","","","","","","",""
"d3-instructions","54","306336","0.0-54.0","1488","1834","17","Male","true","true","true","true","""event"",""trial"",""time""
""blur"",""1"",""4027""
""focus"",""1"",""4119""
""fullscreenenter"",""5"",""29394""
","""event"",""trial"",""time""
""blur"",""1"",""4027""
","""event"",""trial"",""time""
""focus"",""1"",""4119""
","""event"",""trial"",""time""
""fullscreenenter"",""5"",""29394""
","
","","","","","","","","","","","","","","","","","","","","","",""
"d3-instructions","55","329816","0.0-55.0","1488","1834","17","Male","true","true","true","true","""event"",""trial"",""time""
""blur"",""1"",""4027""
""focus"",""1"",""4119""
""fullscreenenter"",""5"",""29394""
","""event"",""trial"",""time""
""blur"",""1"",""4027""
","""event"",""trial"",""time""
""focus"",""1"",""4119""
","""event"",""trial"",""time""
""fullscreenenter"",""5"",""29394""
","
","","","","","","","","","","","","","","","","","","","","","",""
"d3-instructions","56","336432","0.0-56.0","1488","1834","17","Male","true","true","true","true","""event"",""trial"",""time""
""blur"",""1"",""4027""
""focus"",""1"",""4119""
""fullscreenenter"",""5"",""29394""
","""event"",""trial"",""time""
""blur"",""1"",""4027""
","""event"",""trial"",""time""
""focus"",""1"",""4119""
","""event"",""trial"",""time""
""fullscreenenter"",""5"",""29394""
","
","","","","","","","","","","","","","","","","","","","","","",""
"d3-instructions","57","343231","0.0-57.0","1488","1834","17","Male","true","true","true","true","""event"",""trial"",""time""
""blur"",""1"",""4027""
""focus"",""1"",""4119""
""fullscreenenter"",""5"",""29394""
","""event"",""trial"",""time""
""blur"",""1"",""4027""
","""event"",""trial"",""time""
""focus"",""1"",""4119""
","""event"",""trial"",""time""
""fullscreenenter"",""5"",""29394""
","
","","","","","","","","","","","","","","","","","","","","","",""
"d3-instructions","58","354823","0.0-58.0","1488","1834","17","Male","true","true","true","true","""event"",""trial"",""time""
""blur"",""1"",""4027""
""focus"",""1"",""4119""
""fullscreenenter"",""5"",""29394""
","""event"",""trial"",""time""
""blur"",""1"",""4027""
","""event"",""trial"",""time""
""focus"",""1"",""4119""
","""event"",""trial"",""time""
""fullscreenenter"",""5"",""29394""
","
","","","","","","","","","","","","","","","","","","","","","",""
"d3-instructions","59","358071","0.0-59.0","1488","1834","17","Male","true","true","true","true","""event"",""trial"",""time""
""blur"",""1"",""4027""
""focus"",""1"",""4119""
""fullscreenenter"",""5"",""29394""
","""event"",""trial"",""time""
""blur"",""1"",""4027""
","""event"",""trial"",""time""
""focus"",""1"",""4119""
","""event"",""trial"",""time""
""fullscreenenter"",""5"",""29394""
","
","","","","","","","","","","","","","","","","","","","","","",""
"d3-instructions","60","361759","0.0-60.0","1488","1834","17","Male","true","true","true","true","""event"",""trial"",""time""
""blur"",""1"",""4027""
""focus"",""1"",""4119""
""fullscreenenter"",""5"",""29394""
","""event"",""trial"",""time""
""blur"",""1"",""4027""
","""event"",""trial"",""time""
""focus"",""1"",""4119""
","""event"",""trial"",""time""
""fullscreenenter"",""5"",""29394""
","
","","","","","","","","","","","","","","","","","","","","","",""
"d3-animate-choice","61","364825","0.0-61.0-0.0","1488","1834","17","Male","true","true","true","true","""event"",""trial"",""time""
""blur"",""1"",""4027""
""focus"",""1"",""4119""
""fullscreenenter"",""5"",""29394""
","""event"",""trial"",""time""
""blur"",""1"",""4027""
","""event"",""trial"",""time""
""focus"",""1"",""4119""
","""event"",""trial"",""time""
""fullscreenenter"",""5"",""29394""
","
","1062.2999999523163","","49","","","3000","1","","","images/earth.jpg","images/tutrocket2","images/tutrocket1","null","images/tutrocket1","","1","practice","null","1","","",""
"d3-animate-choice","62","367334","0.0-61.0-1.0","1488","1834","17","Male","true","true","true","true","""event"",""trial"",""time""
""blur"",""1"",""4027""
""focus"",""1"",""4119""
""fullscreenenter"",""5"",""29394""
","""event"",""trial"",""time""
""blur"",""1"",""4027""
","""event"",""trial"",""time""
""focus"",""1"",""4119""
","""event"",""trial"",""time""
""fullscreenenter"",""5"",""29394""
","
","500","","49","","","3000","1","","","images/tutgreenplanet.jpg","images/tutalien2","images/tutalien1","images/tutrocket1","images/tutalien1","images/nothing.png","2","practice","true","1","common","0","2022-05-18 00:40:30.043"
"two-step-fixation","63","368343","0.0-61.0-2.0","1488","1834","17","Male","true","true","true","true","""event"",""trial"",""time""
""blur"",""1"",""4027""
""focus"",""1"",""4119""
""fullscreenenter"",""5"",""29394""
","""event"",""trial"",""time""
""blur"",""1"",""4027""
","""event"",""trial"",""time""
""focus"",""1"",""4119""
","""event"",""trial"",""time""
""fullscreenenter"",""5"",""29394""
","
","","images/earth.jpg","","","","","","","","","","","","","","fixation","","","","","",""
"d3-animate-choice","64","370694","0.0-61.0-0.1","1488","1834","17","Male","true","true","true","true","""event"",""trial"",""time""
""blur"",""1"",""4027""
""focus"",""1"",""4119""
""fullscreenenter"",""5"",""29394""
","""event"",""trial"",""time""
""blur"",""1"",""4027""
","""event"",""trial"",""time""
""focus"",""1"",""4119""
","""event"",""trial"",""time""
""fullscreenenter"",""5"",""29394""
","
","334.5","","49","","","3000","1","","","images/earth.jpg","images/tutrocket2","images/tutrocket1","null","images/tutrocket1","","1","practice","null","1","","",""
"d3-animate-choice","65","373042","0.0-61.0-1.1","1488","1834","17","Male","true","true","true","true","""event"",""trial"",""time""
""blur"",""1"",""4027""
""focus"",""1"",""4119""
""fullscreenenter"",""5"",""29394""
","""event"",""trial"",""time""
""blur"",""1"",""4027""
","""event"",""trial"",""time""
""focus"",""1"",""4119""
","""event"",""trial"",""time""
""fullscreenenter"",""5"",""29394""
","
","343.80000001192093","","48","","","3000","1","","","images/tutgreenplanet.jpg","images/tutalien2","images/tutalien1","images/tutrocket1","images/tutalien2","images/t.png","2","practice","true","2","common","1","2022-05-18 00:40:35.751"
"two-step-fixation","66","374043","0.0-61.0-2.1","1488","1834","17","Male","true","true","true","true","""event"",""trial"",""time""
""blur"",""1"",""4027""
""focus"",""1"",""4119""
""fullscreenenter"",""5"",""29394""
","""event"",""trial"",""time""
""blur"",""1"",""4027""
","""event"",""trial"",""time""
""focus"",""1"",""4119""
","""event"",""trial"",""time""
""fullscreenenter"",""5"",""29394""
","
","","images/earth.jpg","","","","","","","","","","","","","","fixation","","","","","",""
"d3-animate-choice","67","376319","0.0-61.0-0.2","1488","1834","17","Male","true","true","true","true","""event"",""trial"",""time""
""blur"",""1"",""4027""
""focus"",""1"",""4119""
""fullscreenenter"",""5"",""29394""
","""event"",""trial"",""time""
""blur"",""1"",""4027""
","""event"",""trial"",""time""
""focus"",""1"",""4119""
","""event"",""trial"",""time""
""fullscreenenter"",""5"",""29394""
","
","266.39999997615814","","49","","","3000","1","","","images/earth.jpg","images/tutrocket2","images/tutrocket1","null","images/tutrocket1","","1","practice","null","1","","",""
"d3-animate-choice","68","378803","0.0-61.0-1.2","1488","1834","17","Male","true","true","true","true","""event"",""trial"",""time""
""blur"",""1"",""4027""
""focus"",""1"",""4119""
""fullscreenenter"",""5"",""29394""
","""event"",""trial"",""time""
""blur"",""1"",""4027""
","""event"",""trial"",""time""
""focus"",""1"",""4119""
","""event"",""trial"",""time""
""fullscreenenter"",""5"",""29394""
","
","478.9000000357628","","48","","","3000","1","","","images/tutgreenplanet.jpg","images/tutalien2","images/tutalien1","images/tutrocket1","images/tutalien2","images/nothing.png","2","practice","true","2","common","0","2022-05-18 00:40:41.512"
"two-step-fixation","69","379813","0.0-61.0-2.2","1488","1834","17","Male","true","true","true","true","""event"",""trial"",""time""
""blur"",""1"",""4027""
""focus"",""1"",""4119""
""fullscreenenter"",""5"",""29394""
","""event"",""trial"",""time""
""blur"",""1"",""4027""
","""event"",""trial"",""time""
""focus"",""1"",""4119""
","""event"",""trial"",""time""
""fullscreenenter"",""5"",""29394""
","
","","images/earth.jpg","","","","","","","","","","","","","","fixation","","","","","",""
"d3-animate-choice","70","382290","0.0-61.0-0.3","1488","1834","17","Male","true","true","true","true","""event"",""trial"",""time""
""blur"",""1"",""4027""
""focus"",""1"",""4119""
""fullscreenenter"",""5"",""29394""
","""event"",""trial"",""time""
""blur"",""1"",""4027""
","""event"",""trial"",""time""
""focus"",""1"",""4119""
","""event"",""trial"",""time""
""fullscreenenter"",""5"",""29394""
","
","473.19999998807907","","49","","","3000","1","","","images/earth.jpg","images/tutrocket2","images/tutrocket1","null","images/tutrocket1","","1","practice","null","1","","",""
"d3-animate-choice","71","384617","0.0-61.0-1.3","1488","1834","17","Male","true","true","true","true","""event"",""trial"",""time""
""blur"",""1"",""4027""
""focus"",""1"",""4119""
""fullscreenenter"",""5"",""29394""
","""event"",""trial"",""time""
""blur"",""1"",""4027""
","""event"",""trial"",""time""
""focus"",""1"",""4119""
","""event"",""trial"",""time""
""fullscreenenter"",""5"",""29394""
","
","324","","49","","","3000","1","","","images/tutgreenplanet.jpg","images/tutalien2","images/tutalien1","images/tutrocket1","images/tutalien1","images/nothing.png","2","practice","true","1","common","0","2022-05-18 00:40:47.326"
"two-step-fixation","72","385618","0.0-61.0-2.3","1488","1834","17","Male","true","true","true","true","""event"",""trial"",""time""
""blur"",""1"",""4027""
""focus"",""1"",""4119""
""fullscreenenter"",""5"",""29394""
","""event"",""trial"",""time""
""blur"",""1"",""4027""
","""event"",""trial"",""time""
""focus"",""1"",""4119""
","""event"",""trial"",""time""
""fullscreenenter"",""5"",""29394""
","
","","images/earth.jpg","","","","","","","","","","","","","","fixation","","","","","",""
"d3-animate-choice","73","387653","0.0-61.0-0.4","1488","1834","17","Male","true","true","true","true","""event"",""trial"",""time""
""blur"",""1"",""4027""
""focus"",""1"",""4119""
""fullscreenenter"",""5"",""29394""
","""event"",""trial"",""time""
""blur"",""1"",""4027""
","""event"",""trial"",""time""
""focus"",""1"",""4119""
","""event"",""trial"",""time""
""fullscreenenter"",""5"",""29394""
","
","27.5","","48","","","3000","1","","","images/earth.jpg","images/tutrocket2","images/tutrocket1","null","images/tutrocket2","","1","practice","null","2","","",""
"d3-animate-choice","74","389965","0.0-61.0-1.4","1488","1834","17","Male","true","true","true","true","""event"",""trial"",""time""
""blur"",""1"",""4027""
""focus"",""1"",""4119""
""fullscreenenter"",""5"",""29394""
","""event"",""trial"",""time""
""blur"",""1"",""4027""
","""event"",""trial"",""time""
""focus"",""1"",""4119""
","""event"",""trial"",""time""
""fullscreenenter"",""5"",""29394""
","
","305.0999999642372","","48","","","3000","1","","","images/tutyellowplanet.jpg","images/tutalien4","images/tutalien3","images/tutrocket2","images/tutalien4","images/t.png","2","practice","true","2","common","1","2022-05-18 00:40:52.674"
"two-step-fixation","75","390969","0.0-61.0-2.4","1488","1834","17","Male","true","true","true","true","""event"",""trial"",""time""
""blur"",""1"",""4027""
""focus"",""1"",""4119""
""fullscreenenter"",""5"",""29394""
","""event"",""trial"",""time""
""blur"",""1"",""4027""
","""event"",""trial"",""time""
""focus"",""1"",""4119""
","""event"",""trial"",""time""
""fullscreenenter"",""5"",""29394""
","
","","images/earth.jpg","","","","","","","","","","","","","","fixation","","","","","",""
"d3-animate-choice","76","393225","0.0-61.0-0.5","1488","1834","17","Male","true","true","true","true","""event"",""trial"",""time""
""blur"",""1"",""4027""
""focus"",""1"",""4119""
""fullscreenenter"",""5"",""29394""
","""event"",""trial"",""time""
""blur"",""1"",""4027""
","""event"",""trial"",""time""
""focus"",""1"",""4119""
","""event"",""trial"",""time""
""fullscreenenter"",""5"",""29394""
","
","252.69999998807907","","48","","","3000","1","","","images/earth.jpg","images/tutrocket2","images/tutrocket1","null","images/tutrocket2","","1","practice","null","2","","",""
"d3-animate-choice","77","395457","0.0-61.0-1.5","1488","1834","17","Male","true","true","true","true","""event"",""trial"",""time""
""blur"",""1"",""4027""
""focus"",""1"",""4119""
""fullscreenenter"",""5"",""29394""
","""event"",""trial"",""time""
""blur"",""1"",""4027""
","""event"",""trial"",""time""
""focus"",""1"",""4119""
","""event"",""trial"",""time""
""fullscreenenter"",""5"",""29394""
","
","228.20000004768372","","48","","","3000","1","","","images/tutyellowplanet.jpg","images/tutalien4","images/tutalien3","images/tutrocket2","images/tutalien4","images/t.png","2","practice","true","2","common","1","2022-05-18 00:40:58.166"
"two-step-fixation","78","396460","0.0-61.0-2.5","1488","1834","17","Male","true","true","true","true","""event"",""trial"",""time""
""blur"",""1"",""4027""
""focus"",""1"",""4119""
""fullscreenenter"",""5"",""29394""
","""event"",""trial"",""time""
""blur"",""1"",""4027""
","""event"",""trial"",""time""
""focus"",""1"",""4119""
","""event"",""trial"",""time""
""fullscreenenter"",""5"",""29394""
","
","","images/earth.jpg","","","","","","","","","","","","","","fixation","","","","","",""
"d3-animate-choice","79","399064","0.0-61.0-0.6","1488","1834","17","Male","true","true","true","true","""event"",""trial"",""time""
""blur"",""1"",""4027""
""focus"",""1"",""4119""
""fullscreenenter"",""5"",""29394""
","""event"",""trial"",""time""
""blur"",""1"",""4027""
","""event"",""trial"",""time""
""focus"",""1"",""4119""
","""event"",""trial"",""time""
""fullscreenenter"",""5"",""29394""
","
","602.1999999880791","","48","","","3000","1","","","images/earth.jpg","images/tutrocket2","images/tutrocket1","null","images/tutrocket2","","1","practice","null","2","","",""
"d3-animate-choice","80","401336","0.0-61.0-1.6","1488","1834","17","Male","true","true","true","true","""event"",""trial"",""time""
""blur"",""1"",""4027""
""focus"",""1"",""4119""
""fullscreenenter"",""5"",""29394""
","""event"",""trial"",""time""
""blur"",""1"",""4027""
","""event"",""trial"",""time""
""focus"",""1"",""4119""
","""event"",""trial"",""time""
""fullscreenenter"",""5"",""29394""
","
","269.5","","48","","","3000","1","","","images/tutyellowplanet.jpg","images/tutalien4","images/tutalien3","images/tutrocket2","images/tutalien4","images/t.png","2","practice","true","2","common","1","2022-05-18 00:41:04.045"
"two-step-fixation","81","402339","0.0-61.0-2.6","1488","1834","17","Male","true","true","true","true","""event"",""trial"",""time""
""blur"",""1"",""4027""
""focus"",""1"",""4119""
""fullscreenenter"",""5"",""29394""
","""event"",""trial"",""time""
""blur"",""1"",""4027""
","""event"",""trial"",""time""
""focus"",""1"",""4119""
","""event"",""trial"",""time""
""fullscreenenter"",""5"",""29394""
","
","","images/earth.jpg","","","","","","","","","","","","","","fixation","","","","","",""
"d3-animate-choice","82","404576","0.0-61.0-0.7","1488","1834","17","Male","true","true","true","true","""event"",""trial"",""time""
""blur"",""1"",""4027""
""focus"",""1"",""4119""
""fullscreenenter"",""5"",""29394""
","""event"",""trial"",""time""
""blur"",""1"",""4027""
","""event"",""trial"",""time""
""focus"",""1"",""4119""
","""event"",""trial"",""time""
""fullscreenenter"",""5"",""29394""
","
","235.19999998807907","","48","","","3000","1","","","images/earth.jpg","images/tutrocket2","images/tutrocket1","null","images/tutrocket2","","1","practice","null","2","","",""
"d3-animate-choice","83","406601","0.0-61.0-1.7","1488","1834","17","Male","true","true","true","true","""event"",""trial"",""time""
""blur"",""1"",""4027""
""focus"",""1"",""4119""
""fullscreenenter"",""5"",""29394""
","""event"",""trial"",""time""
""blur"",""1"",""4027""
","""event"",""trial"",""time""
""focus"",""1"",""4119""
","""event"",""trial"",""time""
""fullscreenenter"",""5"",""29394""
","
","22.19999998807907","","48","","","3000","1","","","images/tutgreenplanet.jpg","images/tutalien2","images/tutalien1","images/tutrocket2","images/tutalien2","images/t.png","2","practice","false","2","rare","1","2022-05-18 00:41:09.310"
"two-step-fixation","84","407603","0.0-61.0-2.7","1488","1834","17","Male","true","true","true","true","""event"",""trial"",""time""
""blur"",""1"",""4027""
""focus"",""1"",""4119""
""fullscreenenter"",""5"",""29394""
","""event"",""trial"",""time""
""blur"",""1"",""4027""
","""event"",""trial"",""time""
""focus"",""1"",""4119""
","""event"",""trial"",""time""
""fullscreenenter"",""5"",""29394""
","
","","images/earth.jpg","","","","","","","","","","","","","","fixation","","","","","",""
"d3-animate-choice","85","409936","0.0-61.0-0.8","1488","1834","17","Male","true","true","true","true","""event"",""trial"",""time""
""blur"",""1"",""4027""
""focus"",""1"",""4119""
""fullscreenenter"",""5"",""29394""
","""event"",""trial"",""time""
""blur"",""1"",""4027""
","""event"",""trial"",""time""
""focus"",""1"",""4119""
","""event"",""trial"",""time""
""fullscreenenter"",""5"",""29394""
","
","330.39999997615814","","48","","","3000","1","","","images/earth.jpg","images/tutrocket2","images/tutrocket1","null","images/tutrocket2","","1","practice","null","2","","",""
"d3-animate-choice","86","412168","0.0-61.0-1.8","1488","1834","17","Male","true","true","true","true","""event"",""trial"",""time""
""blur"",""1"",""4027""
""focus"",""1"",""4119""
""fullscreenenter"",""5"",""29394""
","""event"",""trial"",""time""
""blur"",""1"",""4027""
","""event"",""trial"",""time""
""focus"",""1"",""4119""
","""event"",""trial"",""time""
""fullscreenenter"",""5"",""29394""
","
","229.89999997615814","","48","","","3000","1","","","images/tutyellowplanet.jpg","images/tutalien4","images/tutalien3","images/tutrocket2","images/tutalien4","images/nothing.png","2","practice","true","2","common","0","2022-05-18 00:41:14.877"
"two-step-fixation","87","413171","0.0-61.0-2.8","1488","1834","17","Male","true","true","true","true","""event"",""trial"",""time""
""blur"",""1"",""4027""
""focus"",""1"",""4119""
""fullscreenenter"",""5"",""29394""
","""event"",""trial"",""time""
""blur"",""1"",""4027""
","""event"",""trial"",""time""
""focus"",""1"",""4119""
","""event"",""trial"",""time""
""fullscreenenter"",""5"",""29394""
","
","","images/earth.jpg","","","","","","","","","","","","","","fixation","","","","","",""
"d3-animate-choice","88","415640","0.0-61.0-0.9","1488","1834","17","Male","true","true","true","true","""event"",""trial"",""time""
""blur"",""1"",""4027""
""focus"",""1"",""4119""
""fullscreenenter"",""5"",""29394""
","""event"",""trial"",""time""
""blur"",""1"",""4027""
","""event"",""trial"",""time""
""focus"",""1"",""4119""
","""event"",""trial"",""time""
""fullscreenenter"",""5"",""29394""
","
","467.0999999642372","","48","","","3000","1","","","images/earth.jpg","images/tutrocket2","images/tutrocket1","null","images/tutrocket2","","1","practice","null","2","","",""
"d3-animate-choice","89","417889","0.0-61.0-1.9","1488","1834","17","Male","true","true","true","true","""event"",""trial"",""time""
""blur"",""1"",""4027""
""focus"",""1"",""4119""
""fullscreenenter"",""5"",""29394""
","""event"",""trial"",""time""
""blur"",""1"",""4027""
","""event"",""trial"",""time""
""focus"",""1"",""4119""
","""event"",""trial"",""time""
""fullscreenenter"",""5"",""29394""
","
","245.80000001192093","","49","","","3000","1","","","images/tutgreenplanet.jpg","images/tutalien2","images/tutalien1","images/tutrocket2","images/tutalien1","images/nothing.png","2","practice","false","1","rare","0","2022-05-18 00:41:20.598"
"two-step-fixation","90","418891","0.0-61.0-2.9","1488","1834","17","Male","true","true","true","true","""event"",""trial"",""time""
""blur"",""1"",""4027""
""focus"",""1"",""4119""
""fullscreenenter"",""5"",""29394""
","""event"",""trial"",""time""
""blur"",""1"",""4027""
","""event"",""trial"",""time""
""focus"",""1"",""4119""
","""event"",""trial"",""time""
""fullscreenenter"",""5"",""29394""
","
","","images/earth.jpg","","","","","","","","","","","","","","fixation","","","","","",""
"d3-animate-choice","91","421153","0.0-61.0-0.10","1488","1834","17","Male","true","true","true","true","""event"",""trial"",""time""
""blur"",""1"",""4027""
""focus"",""1"",""4119""
""fullscreenenter"",""5"",""29394""
","""event"",""trial"",""time""
""blur"",""1"",""4027""
","""event"",""trial"",""time""
""focus"",""1"",""4119""
","""event"",""trial"",""time""
""fullscreenenter"",""5"",""29394""
","
","258.10000002384186","","48","","","3000","1","","","images/earth.jpg","images/tutrocket2","images/tutrocket1","null","images/tutrocket2","","1","practice","null","2","","",""
"d3-animate-choice","92","423544","0.0-61.0-1.10","1488","1834","17","Male","true","true","true","true","""event"",""trial"",""time""
""blur"",""1"",""4027""
""focus"",""1"",""4119""
""fullscreenenter"",""5"",""29394""
","""event"",""trial"",""time""
""blur"",""1"",""4027""
","""event"",""trial"",""time""
""focus"",""1"",""4119""
","""event"",""trial"",""time""
""fullscreenenter"",""5"",""29394""
","
","389.10000002384186","","49","","","3000","1","","","images/tutyellowplanet.jpg","images/tutalien4","images/tutalien3","images/tutrocket2","images/tutalien3","images/nothing.png","2","practice","true","1","common","0","2022-05-18 00:41:26.254"
"two-step-fixation","93","424546","0.0-61.0-2.10","1488","1834","17","Male","true","true","true","true","""event"",""trial"",""time""
""blur"",""1"",""4027""
""focus"",""1"",""4119""
""fullscreenenter"",""5"",""29394""
","""event"",""trial"",""time""
""blur"",""1"",""4027""
","""event"",""trial"",""time""
""focus"",""1"",""4119""
","""event"",""trial"",""time""
""fullscreenenter"",""5"",""29394""
","
","","images/earth.jpg","","","","","","","","","","","","","","fixation","","","","","",""
"d3-animate-choice","94","426568","0.0-61.0-0.11","1488","1834","17","Male","true","true","true","true","""event"",""trial"",""time""
""blur"",""1"",""4027""
""focus"",""1"",""4119""
""fullscreenenter"",""5"",""29394""
","""event"",""trial"",""time""
""blur"",""1"",""4027""
","""event"",""trial"",""time""
""focus"",""1"",""4119""
","""event"",""trial"",""time""
""fullscreenenter"",""5"",""29394""
","
","19.700000047683716","","49","","","3000","1","","","images/earth.jpg","images/tutrocket2","images/tutrocket1","null","images/tutrocket1","","1","practice","null","1","","",""
"d3-animate-choice","95","429024","0.0-61.0-1.11","1488","1834","17","Male","true","true","true","true","""event"",""trial"",""time""
""blur"",""1"",""4027""
""focus"",""1"",""4119""
""fullscreenenter"",""5"",""29394""
","""event"",""trial"",""time""
""blur"",""1"",""4027""
","""event"",""trial"",""time""
""focus"",""1"",""4119""
","""event"",""trial"",""time""
""fullscreenenter"",""5"",""29394""
","
","453","","49","","","3000","1","","","images/tutyellowplanet.jpg","images/tutalien4","images/tutalien3","images/tutrocket1","images/tutalien3","images/nothing.png","2","practice","false","1","rare","0","2022-05-18 00:41:31.733"
"two-step-fixation","96","430026","0.0-61.0-2.11","1488","1834","17","Male","true","true","true","true","""event"",""trial"",""time""
""blur"",""1"",""4027""
""focus"",""1"",""4119""
""fullscreenenter"",""5"",""29394""
","""event"",""trial"",""time""
""blur"",""1"",""4027""
","""event"",""trial"",""time""
""focus"",""1"",""4119""
","""event"",""trial"",""time""
""fullscreenenter"",""5"",""29394""
","
","","images/earth.jpg","","","","","","","","","","","","","","fixation","","","","","",""
"d3-animate-choice","97","432288","0.0-61.0-0.12","1488","1834","17","Male","true","true","true","true","""event"",""trial"",""time""
""blur"",""1"",""4027""
""focus"",""1"",""4119""
""fullscreenenter"",""5"",""29394""
","""event"",""trial"",""time""
""blur"",""1"",""4027""
","""event"",""trial"",""time""
""focus"",""1"",""4119""
","""event"",""trial"",""time""
""fullscreenenter"",""5"",""29394""
","
","259.80000001192093","","49","","","3000","1","","","images/earth.jpg","images/tutrocket2","images/tutrocket1","null","images/tutrocket1","","1","practice","null","1","","",""
"d3-animate-choice","98","434784","0.0-61.0-1.12","1488","1834","17","Male","true","true","true","true","""event"",""trial"",""time""
""blur"",""1"",""4027""
""focus"",""1"",""4119""
""fullscreenenter"",""5"",""29394""
","""event"",""trial"",""time""
""blur"",""1"",""4027""
","""event"",""trial"",""time""
""focus"",""1"",""4119""
","""event"",""trial"",""time""
""fullscreenenter"",""5"",""29394""
","
","493.5","","48","","","3000","1","","","images/tutyellowplanet.jpg","images/tutalien4","images/tutalien3","images/tutrocket1","images/tutalien4","images/t.png","2","practice","false","2","rare","1","2022-05-18 00:41:37.493"
"two-step-fixation","99","435786","0.0-61.0-2.12","1488","1834","17","Male","true","true","true","true","""event"",""trial"",""time""
""blur"",""1"",""4027""
""focus"",""1"",""4119""
""fullscreenenter"",""5"",""29394""
","""event"",""trial"",""time""
""blur"",""1"",""4027""
","""event"",""trial"",""time""
""focus"",""1"",""4119""
","""event"",""trial"",""time""
""fullscreenenter"",""5"",""29394""
","
","","images/earth.jpg","","","","","","","","","","","","","","fixation","","","","","",""
"d3-animate-choice","100","438056","0.0-61.0-0.13","1488","1834","17","Male","true","true","true","true","""event"",""trial"",""time""
""blur"",""1"",""4027""
""focus"",""1"",""4119""
""fullscreenenter"",""5"",""29394""
","""event"",""trial"",""time""
""blur"",""1"",""4027""
","""event"",""trial"",""time""
""focus"",""1"",""4119""
","""event"",""trial"",""time""
""fullscreenenter"",""5"",""29394""
","
","267.19999998807907","","49","","","3000","1","","","images/earth.jpg","images/tutrocket2","images/tutrocket1","null","images/tutrocket1","","1","practice","null","1","","",""
"d3-animate-choice","101","440360","0.0-61.0-1.13","1488","1834","17","Male","true","true","true","true","""event"",""trial"",""time""
""blur"",""1"",""4027""
""focus"",""1"",""4119""
""fullscreenenter"",""5"",""29394""
","""event"",""trial"",""time""
""blur"",""1"",""4027""
","""event"",""trial"",""time""
""focus"",""1"",""4119""
","""event"",""trial"",""time""
""fullscreenenter"",""5"",""29394""
","
","301.2999999523163","","48","","","3000","1","","","images/tutgreenplanet.jpg","images/tutalien2","images/tutalien1","images/tutrocket1","images/tutalien2","images/nothing.png","2","practice","true","2","common","0","2022-05-18 00:41:43.069"
"two-step-fixation","102","441362","0.0-61.0-2.13","1488","1834","17","Male","true","true","true","true","""event"",""trial"",""time""
""blur"",""1"",""4027""
""focus"",""1"",""4119""
""fullscreenenter"",""5"",""29394""
","""event"",""trial"",""time""
""blur"",""1"",""4027""
","""event"",""trial"",""time""
""focus"",""1"",""4119""
","""event"",""trial"",""time""
""fullscreenenter"",""5"",""29394""
","
","","images/earth.jpg","","","","","","","","","","","","","","fixation","","","","","",""
"d3-animate-choice","103","444729","0.0-61.0-0.14","1488","1834","17","Male","true","true","true","true","""event"",""trial"",""time""
""blur"",""1"",""4027""
""focus"",""1"",""4119""
""fullscreenenter"",""5"",""29394""
","""event"",""trial"",""time""
""blur"",""1"",""4027""
","""event"",""trial"",""time""
""focus"",""1"",""4119""
","""event"",""trial"",""time""
""fullscreenenter"",""5"",""29394""
","
","1363.699999988079","","48","","","3000","1","","","images/earth.jpg","images/tutrocket2","images/tutrocket1","null","images/tutrocket2","","1","practice","null","2","","",""
"d3-animate-choice","104","448732","0.0-61.0-1.14","1488","1834","17","Male","true","true","true","true","""event"",""trial"",""time""
""blur"",""1"",""4027""
""focus"",""1"",""4119""
""fullscreenenter"",""5"",""29394""
","""event"",""trial"",""time""
""blur"",""1"",""4027""
","""event"",""trial"",""time""
""focus"",""1"",""4119""
","""event"",""trial"",""time""
""fullscreenenter"",""5"",""29394""
","
","989.4000000357628","","50","","","3000","1","2701.100000023842,3581","50,48","images/tutgreenplanet.jpg","images/tutalien2","images/tutalien1","images/tutrocket2","images/tutalien2","","2","practice","false","","rare","0","2022-05-18 00:41:51.441"
"two-step-fixation","105","449733","0.0-61.0-2.14","1488","1834","17","Male","true","true","true","true","""event"",""trial"",""time""
""blur"",""1"",""4027""
""focus"",""1"",""4119""
""fullscreenenter"",""5"",""29394""
","""event"",""trial"",""time""
""blur"",""1"",""4027""
","""event"",""trial"",""time""
""focus"",""1"",""4119""
","""event"",""trial"",""time""
""fullscreenenter"",""5"",""29394""
","
","","images/earth.jpg","","","","","","","","","","","","","","fixation","","","","","",""
"d3-animate-choice","106","453736","0.0-61.0-0.15","1488","1834","17","Male","true","true","true","true","""event"",""trial"",""time""
""blur"",""1"",""4027""
""focus"",""1"",""4119""
""fullscreenenter"",""5"",""29394""
","""event"",""trial"",""time""
""blur"",""1"",""4027""
","""event"",""trial"",""time""
""focus"",""1"",""4119""
","""event"",""trial"",""time""
""fullscreenenter"",""5"",""29394""
","
","2072.399999976158","","49","","","3000","1","","","images/earth.jpg","images/tutrocket2","images/tutrocket1","null","images/tutrocket1","","1","practice","null","1","","",""
"d3-animate-choice","107","456440","0.0-61.0-1.15","1488","1834","17","Male","true","true","true","true","""event"",""trial"",""time""
""blur"",""1"",""4027""
""focus"",""1"",""4119""
""fullscreenenter"",""5"",""29394""
","""event"",""trial"",""time""
""blur"",""1"",""4027""
","""event"",""trial"",""time""
""focus"",""1"",""4119""
","""event"",""trial"",""time""
""fullscreenenter"",""5"",""29394""
","
","702.3000000119209","","48","","","3000","1","","","images/tutyellowplanet.jpg","images/tutalien4","images/tutalien3","images/tutrocket1","images/tutalien4","images/t.png","2","practice","false","2","rare","1","2022-05-18 00:41:59.149"
"two-step-fixation","108","457442","0.0-61.0-2.15","1488","1834","17","Male","true","true","true","true","""event"",""trial"",""time""
""blur"",""1"",""4027""
""focus"",""1"",""4119""
""fullscreenenter"",""5"",""29394""
","""event"",""trial"",""time""
""blur"",""1"",""4027""
","""event"",""trial"",""time""
""focus"",""1"",""4119""
","""event"",""trial"",""time""
""fullscreenenter"",""5"",""29394""
","
","","images/earth.jpg","","","","","","","","","","","","","","fixation","","","","","",""
"d3-animate-choice","109","459729","0.0-61.0-0.16","1488","1834","17","Male","true","true","true","true","""event"",""trial"",""time""
""blur"",""1"",""4027""
""focus"",""1"",""4119""
""fullscreenenter"",""5"",""29394""
","""event"",""trial"",""time""
""blur"",""1"",""4027""
","""event"",""trial"",""time""
""focus"",""1"",""4119""
","""event"",""trial"",""time""
""fullscreenenter"",""5"",""29394""
","
","283.60000002384186","","49","","","3000","1","","","images/earth.jpg","images/tutrocket2","images/tutrocket1","null","images/tutrocket1","","1","practice","null","1","","",""
"d3-animate-choice","110","462217","0.0-61.0-1.16","1488","1834","17","Male","true","true","true","true","""event"",""trial"",""time""
""blur"",""1"",""4027""
""focus"",""1"",""4119""
""fullscreenenter"",""5"",""29394""
","""event"",""trial"",""time""
""blur"",""1"",""4027""
","""event"",""trial"",""time""
""focus"",""1"",""4119""
","""event"",""trial"",""time""
""fullscreenenter"",""5"",""29394""
","
","484.7000000476837","","48","","","3000","1","","","images/tutyellowplanet.jpg","images/tutalien4","images/tutalien3","images/tutrocket1","images/tutalien4","images/nothing.png","2","practice","false","2","rare","0","2022-05-18 00:42:04.926"
"two-step-fixation","111","463219","0.0-61.0-2.16","1488","1834","17","Male","true","true","true","true","""event"",""trial"",""time""
""blur"",""1"",""4027""
""focus"",""1"",""4119""
""fullscreenenter"",""5"",""29394""
","""event"",""trial"",""time""
""blur"",""1"",""4027""
","""event"",""trial"",""time""
""focus"",""1"",""4119""
","""event"",""trial"",""time""
""fullscreenenter"",""5"",""29394""
","
","","images/earth.jpg","","","","","","","","","","","","","","fixation","","","","","",""
"d3-animate-choice","112","465585","0.0-61.0-0.17","1488","1834","17","Male","true","true","true","true","""event"",""trial"",""time""
""blur"",""1"",""4027""
""focus"",""1"",""4119""
""fullscreenenter"",""5"",""29394""
","""event"",""trial"",""time""
""blur"",""1"",""4027""
","""event"",""trial"",""time""
""focus"",""1"",""4119""
","""event"",""trial"",""time""
""fullscreenenter"",""5"",""29394""
","
","362.5","","48","","","3000","1","","","images/earth.jpg","images/tutrocket2","images/tutrocket1","null","images/tutrocket2","","1","practice","null","2","","",""
"d3-animate-choice","113","467872","0.0-61.0-1.17","1488","1834","17","Male","true","true","true","true","""event"",""trial"",""time""
""blur"",""1"",""4027""
""focus"",""1"",""4119""
""fullscreenenter"",""5"",""29394""
","""event"",""trial"",""time""
""blur"",""1"",""4027""
","""event"",""trial"",""time""
""focus"",""1"",""4119""
","""event"",""trial"",""time""
""fullscreenenter"",""5"",""29394""
","
","284.80000001192093","","49","","","3000","1","","","images/tutyellowplanet.jpg","images/tutalien4","images/tutalien3","images/tutrocket2","images/tutalien3","images/t.png","2","practice","true","1","common","1","2022-05-18 00:42:10.581"
"two-step-fixation","114","468875","0.0-61.0-2.17","1488","1834","17","Male","true","true","true","true","""event"",""trial"",""time""
""blur"",""1"",""4027""
""focus"",""1"",""4119""
""fullscreenenter"",""5"",""29394""
","""event"",""trial"",""time""
""blur"",""1"",""4027""
","""event"",""trial"",""time""
""focus"",""1"",""4119""
","""event"",""trial"",""time""
""fullscreenenter"",""5"",""29394""
","
","","images/earth.jpg","","","","","","","","","","","","","","fixation","","","","","",""
"d3-animate-choice","115","471201","0.0-61.0-0.18","1488","1834","17","Male","true","true","true","true","""event"",""trial"",""time""
""blur"",""1"",""4027""
""focus"",""1"",""4119""
""fullscreenenter"",""5"",""29394""
","""event"",""trial"",""time""
""blur"",""1"",""4027""
","""event"",""trial"",""time""
""focus"",""1"",""4119""
","""event"",""trial"",""time""
""fullscreenenter"",""5"",""29394""
","
","322.9000000357628","","49","","","3000","1","","","images/earth.jpg","images/tutrocket2","images/tutrocket1","null","images/tutrocket1","","1","practice","null","1","","",""
"d3-animate-choice","116","474392","0.0-61.0-1.18","1488","1834","17","Male","true","true","true","true","""event"",""trial"",""time""
""blur"",""1"",""4027""
""focus"",""1"",""4119""
""fullscreenenter"",""5"",""29394""
","""event"",""trial"",""time""
""blur"",""1"",""4027""
","""event"",""trial"",""time""
""focus"",""1"",""4119""
","""event"",""trial"",""time""
""fullscreenenter"",""5"",""29394""
","
","1189.4000000357628","","48","","","3000","1","","","images/tutgreenplanet.jpg","images/tutalien2","images/tutalien1","images/tutrocket1","images/tutalien2","images/nothing.png","2","practice","true","2","common","0","2022-05-18 00:42:17.101"
"two-step-fixation","117","475395","0.0-61.0-2.18","1488","1834","17","Male","true","true","true","true","""event"",""trial"",""time""
""blur"",""1"",""4027""
""focus"",""1"",""4119""
""fullscreenenter"",""5"",""29394""
","""event"",""trial"",""time""
""blur"",""1"",""4027""
","""event"",""trial"",""time""
""focus"",""1"",""4119""
","""event"",""trial"",""time""
""fullscreenenter"",""5"",""29394""
","
","","images/earth.jpg","","","","","","","","","","","","","","fixation","","","","","",""
"d3-animate-choice","118","478096","0.0-61.0-0.19","1488","1834","17","Male","true","true","true","true","""event"",""trial"",""time""
""blur"",""1"",""4027""
""focus"",""1"",""4119""
""fullscreenenter"",""5"",""29394""
","""event"",""trial"",""time""
""blur"",""1"",""4027""
","""event"",""trial"",""time""
""focus"",""1"",""4119""
","""event"",""trial"",""time""
""fullscreenenter"",""5"",""29394""
","
","698.7000000476837","","48","","","3000","1","","","images/earth.jpg","images/tutrocket2","images/tutrocket1","null","images/tutrocket2","","1","practice","null","2","","",""
"d3-animate-choice","119","481224","0.0-61.0-1.19","1488","1834","17","Male","true","true","true","true","""event"",""trial"",""time""
""blur"",""1"",""4027""
""focus"",""1"",""4119""
""fullscreenenter"",""5"",""29394""
","""event"",""trial"",""time""
""blur"",""1"",""4027""
","""event"",""trial"",""time""
""focus"",""1"",""4119""
","""event"",""trial"",""time""
""fullscreenenter"",""5"",""29394""
","
","1101.6000000238419","","49","","","3000","1","","","images/tutgreenplanet.jpg","images/tutalien2","images/tutalien1","images/tutrocket2","images/tutalien1","images/nothing.png","2","practice","false","1","rare","0","2022-05-18 00:42:23.933"
"two-step-fixation","120","482227","0.0-61.0-2.19","1488","1834","17","Male","true","true","true","true","""event"",""trial"",""time""
""blur"",""1"",""4027""
""focus"",""1"",""4119""
""fullscreenenter"",""5"",""29394""
","""event"",""trial"",""time""
""blur"",""1"",""4027""
","""event"",""trial"",""time""
""focus"",""1"",""4119""
","""event"",""trial"",""time""
""fullscreenenter"",""5"",""29394""
","
","","images/earth.jpg","","","","","","","","","","","","","","fixation","","","","","",""
"d3-instructions","121","546231","0.0-62.0","1488","1834","17","Male","true","true","true","true","""event"",""trial"",""time""
""blur"",""1"",""4027""
""focus"",""1"",""4119""
""fullscreenenter"",""5"",""29394""
","""event"",""trial"",""time""
""blur"",""1"",""4027""
","""event"",""trial"",""time""
""focus"",""1"",""4119""
","""event"",""trial"",""time""
""fullscreenenter"",""5"",""29394""
","
","","","","","","","","","","","","","","","","","","","","","",""
"audio-keyboard-response","122","550104","0.0-63.0","1488","1834","17","Male","true","true","true","true","""event"",""trial"",""time""
""blur"",""1"",""4027""
""focus"",""1"",""4119""
""fullscreenenter"",""5"",""29394""
","""event"",""trial"",""time""
""blur"",""1"",""4027""
","""event"",""trial"",""time""
""focus"",""1"",""4119""
","""event"",""trial"",""time""
""fullscreenenter"",""5"",""29394""
","
","3851","audio/instructions/treasure_feedback.wav","32","","","","","","","","","","","","","","","","","","",""
"d3-instructions","123","618567","0.0-64.0","1488","1834","17","Male","true","true","true","true","""event"",""trial"",""time""
""blur"",""1"",""4027""
""focus"",""1"",""4119""
""fullscreenenter"",""5"",""29394""
","""event"",""trial"",""time""
""blur"",""1"",""4027""
","""event"",""trial"",""time""
""focus"",""1"",""4119""
","""event"",""trial"",""time""
""fullscreenenter"",""5"",""29394""
","
","","","","","","","","","","","","","","","","","","","","","",""
"d3-instructions","124","636495","0.0-65.0","1488","1834","17","Male","true","true","true","true","""event"",""trial"",""time""
""blur"",""1"",""4027""
""focus"",""1"",""4119""
""fullscreenenter"",""5"",""29394""
","""event"",""trial"",""time""
""blur"",""1"",""4027""
","""event"",""trial"",""time""
""focus"",""1"",""4119""
","""event"",""trial"",""time""
""fullscreenenter"",""5"",""29394""
","
","","","","","","","","","","","","","","","","","","","","","",""
"d3-instructions","125","662567","0.0-66.0","1488","1834","17","Male","true","true","true","true","""event"",""trial"",""time""
""blur"",""1"",""4027""
""focus"",""1"",""4119""
""fullscreenenter"",""5"",""29394""
","""event"",""trial"",""time""
""blur"",""1"",""4027""
","""event"",""trial"",""time""
""focus"",""1"",""4119""
","""event"",""trial"",""time""
""fullscreenenter"",""5"",""29394""
","
","","","","","","","","","","","","","","","","","","","","","",""
"d3-instructions","126","679039","0.0-67.0","1488","1834","17","Male","true","true","true","true","""event"",""trial"",""time""
""blur"",""1"",""4027""
""focus"",""1"",""4119""
""fullscreenenter"",""5"",""29394""
","""event"",""trial"",""time""
""blur"",""1"",""4027""
","""event"",""trial"",""time""
""focus"",""1"",""4119""
","""event"",""trial"",""time""
""fullscreenenter"",""5"",""29394""
","
","","","","","","","","","","","","","","","","","","","","","",""
"d3-instructions","127","697543","0.0-68.0","1488","1834","17","Male","true","true","true","true","""event"",""trial"",""time""
""blur"",""1"",""4027""
""focus"",""1"",""4119""
""fullscreenenter"",""5"",""29394""
","""event"",""trial"",""time""
""blur"",""1"",""4027""
","""event"",""trial"",""time""
""focus"",""1"",""4119""
","""event"",""trial"",""time""
""fullscreenenter"",""5"",""29394""
","
","","","","","","","","","","","","","","","","","","","","","",""
"instructions-quiz","128","711779","0.0-69.0","1488","1834","17","Male","true","true","true","true","""event"",""trial"",""time""
""blur"",""1"",""4027""
""focus"",""1"",""4119""
""fullscreenenter"",""5"",""29394""
","""event"",""trial"",""time""
""blur"",""1"",""4027""
","""event"",""trial"",""time""
""focus"",""1"",""4119""
","""event"",""trial"",""time""
""fullscreenenter"",""5"",""29394""
","
","14234.400000035763","audio/quiz/Q1_Prompt.wav","","1","","","","","","","","","","","","","","","","","",""
"audio-keyboard-response","129","720911","0.0-70.0","1488","1834","17","Male","true","true","true","true","""event"",""trial"",""time""
""blur"",""1"",""4027""
""focus"",""1"",""4119""
""fullscreenenter"",""5"",""29394""
","""event"",""trial"",""time""
""blur"",""1"",""4027""
","""event"",""trial"",""time""
""focus"",""1"",""4119""
","""event"",""trial"",""time""
""fullscreenenter"",""5"",""29394""
","
","9131","audio/quiz/Q1_Correct.wav","32","","","","","","","","","","","","","","","","","","",""
"instructions-quiz","130","733753","0.0-71.0","1488","1834","17","Male","true","true","true","true","""event"",""trial"",""time""
""blur"",""1"",""4027""
""focus"",""1"",""4119""
""fullscreenenter"",""5"",""29394""
","""event"",""trial"",""time""
""blur"",""1"",""4027""
","""event"",""trial"",""time""
""focus"",""1"",""4119""
","""event"",""trial"",""time""
""fullscreenenter"",""5"",""29394""
","
","12840.899999976158","audio/quiz/Q2_Prompt.wav","","1","","","","","","","","","","","","","","","","","",""
"audio-keyboard-response","131","747829","0.0-72.0","1488","1834","17","Male","true","true","true","true","""event"",""trial"",""time""
""blur"",""1"",""4027""
""focus"",""1"",""4119""
""fullscreenenter"",""5"",""29394""
","""event"",""trial"",""time""
""blur"",""1"",""4027""
","""event"",""trial"",""time""
""focus"",""1"",""4119""
","""event"",""trial"",""time""
""fullscreenenter"",""5"",""29394""
","
","null","audio/quiz/Q2_Incorrect.wav","null","","","","","","","","","","","","","","","","","","",""
"instructions-quiz","132","753907","0.0-73.0","1488","1834","17","Male","true","true","true","true","""event"",""trial"",""time""
""blur"",""1"",""4027""
""focus"",""1"",""4119""
""fullscreenenter"",""5"",""29394""
","""event"",""trial"",""time""
""blur"",""1"",""4027""
","""event"",""trial"",""time""
""focus"",""1"",""4119""
","""event"",""trial"",""time""
""fullscreenenter"",""5"",""29394""
","
","6077.5","audio/quiz/Q3_Prompt.wav","","1","","","","","","","","","","","","","","","","","",""
"audio-keyboard-response","133","759699","0.0-74.0","1488","1834","17","Male","true","true","true","true","""event"",""trial"",""time""
""blur"",""1"",""4027""
""focus"",""1"",""4119""
""fullscreenenter"",""5"",""29394""
","""event"",""trial"",""time""
""blur"",""1"",""4027""
","""event"",""trial"",""time""
""focus"",""1"",""4119""
","""event"",""trial"",""time""
""fullscreenenter"",""5"",""29394""
","
","null","audio/quiz/Q3_Correct.wav","null","","","","","","","","","","","","","","","","","","",""
"d3-instructions","134","924760","0.0-75.0","1488","1834","17","Male","true","true","true","true","""event"",""trial"",""time""
""blur"",""1"",""4027""
""focus"",""1"",""4119""
""fullscreenenter"",""5"",""29394""
","""event"",""trial"",""time""
""blur"",""1"",""4027""
","""event"",""trial"",""time""
""focus"",""1"",""4119""
","""event"",""trial"",""time""
""fullscreenenter"",""5"",""29394""
","
","","","","","","","","","","","","","","","","","","","","","",""
"d3-animate-choice","135","927625","0.0-76.0-0.0","1488","1834","17","Male","true","true","true","true","""event"",""trial"",""time""
""blur"",""1"",""4027""
""focus"",""1"",""4119""
""fullscreenenter"",""5"",""29394""
","""event"",""trial"",""time""
""blur"",""1"",""4027""
","""event"",""trial"",""time""
""focus"",""1"",""4119""
","""event"",""trial"",""time""
""fullscreenenter"",""5"",""29394""
","
","861","","49","","","3000","1","","","images/earth.jpg","images/rocket2","images/rocket1","null","images/rocket1","","1","real","null","1","","",""
"d3-animate-choice","136","930720","0.0-76.0-1.0","1488","1834","17","Male","true","true","true","true","""event"",""trial"",""time""
""blur"",""1"",""4027""
""focus"",""1"",""4119""
""fullscreenenter"",""5"",""29394""
","""event"",""trial"",""time""
""blur"",""1"",""4027""
","""event"",""trial"",""time""
""focus"",""1"",""4119""
","""event"",""trial"",""time""
""fullscreenenter"",""5"",""29394""
","
","1092.6000000238419","","48","","","3000","1","","","images/purpleplanet.jpg","images/alien4","images/alien3","images/rocket1","images/alien4","images/nothing.png","2","real","false","2","rare","0","2022-05-18 00:49:53.429"
"two-step-fixation","137","931724","0.0-76.0-2.0","1488","1834","17","Male","true","true","true","true","""event"",""trial"",""time""
""blur"",""1"",""4027""
""focus"",""1"",""4119""
""fullscreenenter"",""5"",""29394""
","""event"",""trial"",""time""
""blur"",""1"",""4027""
","""event"",""trial"",""time""
""focus"",""1"",""4119""
","""event"",""trial"",""time""
""fullscreenenter"",""5"",""29394""
","
","","images/earth.jpg","","","","","","","","","","","","","","fixation","","","","","",""
"d3-animate-choice","138","934001","0.0-76.0-0.1","1488","1834","17","Male","true","true","true","true","""event"",""trial"",""time""
""blur"",""1"",""4027""
""focus"",""1"",""4119""
""fullscreenenter"",""5"",""29394""
","""event"",""trial"",""time""
""blur"",""1"",""4027""
","""event"",""trial"",""time""
""focus"",""1"",""4119""
","""event"",""trial"",""time""
""fullscreenenter"",""5"",""29394""
","
","273.89999997615814","","49","","","3000","1","","","images/earth.jpg","images/rocket2","images/rocket1","null","images/rocket1","","1","real","null","1","","",""
"d3-animate-choice","139","936344","0.0-76.0-1.1","1488","1834","17","Male","true","true","true","true","""event"",""trial"",""time""
""blur"",""1"",""4027""
""focus"",""1"",""4119""
""fullscreenenter"",""5"",""29394""
","""event"",""trial"",""time""
""blur"",""1"",""4027""
","""event"",""trial"",""time""
""focus"",""1"",""4119""
","""event"",""trial"",""time""
""fullscreenenter"",""5"",""29394""
","
","341","","49","","","3000","1","","","images/redplanet1.jpg","images/alien2","images/alien1","images/rocket1","images/alien1","images/nothing.png","2","real","true","1","common","0","2022-05-18 00:49:59.053"
"two-step-fixation","140","937347","0.0-76.0-2.1","1488","1834","17","Male","true","true","true","true","""event"",""trial"",""time""
""blur"",""1"",""4027""
""focus"",""1"",""4119""
""fullscreenenter"",""5"",""29394""
","""event"",""trial"",""time""
""blur"",""1"",""4027""
","""event"",""trial"",""time""
""focus"",""1"",""4119""
","""event"",""trial"",""time""
""fullscreenenter"",""5"",""29394""
","
","","images/earth.jpg","","","","","","","","","","","","","","fixation","","","","","",""
"d3-animate-choice","141","939353","0.0-76.0-0.2","1488","1834","17","Male","true","true","true","true","""event"",""trial"",""time""
""blur"",""1"",""4027""
""focus"",""1"",""4119""
""fullscreenenter"",""5"",""29394""
","""event"",""trial"",""time""
""blur"",""1"",""4027""
","""event"",""trial"",""time""
""focus"",""1"",""4119""
","""event"",""trial"",""time""
""fullscreenenter"",""5"",""29394""
","
","3","","49","","","3000","1","","","images/earth.jpg","images/rocket2","images/rocket1","null","images/rocket1","","1","real","null","1","","",""
"d3-animate-choice","142","941616","0.0-76.0-1.2","1488","1834","17","Male","true","true","true","true","""event"",""trial"",""time""
""blur"",""1"",""4027""
""focus"",""1"",""4119""
""fullscreenenter"",""5"",""29394""
","""event"",""trial"",""time""
""blur"",""1"",""4027""
","""event"",""trial"",""time""
""focus"",""1"",""4119""
","""event"",""trial"",""time""
""fullscreenenter"",""5"",""29394""
","
","260.89999997615814","","49","","","3000","1","","","images/redplanet1.jpg","images/alien2","images/alien1","images/rocket1","images/alien1","images/t.png","2","real","true","1","common","1","2022-05-18 00:50:04.325"
"two-step-fixation","143","942619","0.0-76.0-2.2","1488","1834","17","Male","true","true","true","true","""event"",""trial"",""time""
""blur"",""1"",""4027""
""focus"",""1"",""4119""
""fullscreenenter"",""5"",""29394""
","""event"",""trial"",""time""
""blur"",""1"",""4027""
","""event"",""trial"",""time""
""focus"",""1"",""4119""
","""event"",""trial"",""time""
""fullscreenenter"",""5"",""29394""
","
","","images/earth.jpg","","","","","","","","","","","","","","fixation","","","","","",""
"d3-animate-choice","144","944913","0.0-76.0-0.3","1488","1834","17","Male","true","true","true","true","""event"",""trial"",""time""
""blur"",""1"",""4027""
""focus"",""1"",""4119""
""fullscreenenter"",""5"",""29394""
","""event"",""trial"",""time""
""blur"",""1"",""4027""
","""event"",""trial"",""time""
""focus"",""1"",""4119""
","""event"",""trial"",""time""
""fullscreenenter"",""5"",""29394""
","
","290","","49","","","3000","1","","","images/earth.jpg","images/rocket2","images/rocket1","null","images/rocket1","","1","real","null","1","","",""
"d3-animate-choice","145","947113","0.0-76.0-1.3","1488","1834","17","Male","true","true","true","true","""event"",""trial"",""time""
""blur"",""1"",""4027""
""focus"",""1"",""4119""
""fullscreenenter"",""5"",""29394""
","""event"",""trial"",""time""
""blur"",""1"",""4027""
","""event"",""trial"",""time""
""focus"",""1"",""4119""
","""event"",""trial"",""time""
""fullscreenenter"",""5"",""29394""
","
","195.80000001192093","","49","","","3000","1","","","images/redplanet1.jpg","images/alien2","images/alien1","images/rocket1","images/alien1","images/nothing.png","2","real","true","1","common","0","2022-05-18 00:50:09.822"
"two-step-fixation","146","948116","0.0-76.0-2.3","1488","1834","17","Male","true","true","true","true","""event"",""trial"",""time""
""blur"",""1"",""4027""
""focus"",""1"",""4119""
""fullscreenenter"",""5"",""29394""
","""event"",""trial"",""time""
""blur"",""1"",""4027""
","""event"",""trial"",""time""
""focus"",""1"",""4119""
","""event"",""trial"",""time""
""fullscreenenter"",""5"",""29394""
","
","","images/earth.jpg","","","","","","","","","","","","","","fixation","","","","","",""
"d3-animate-choice","147","950416","0.0-76.0-0.4","1488","1834","17","Male","true","true","true","true","""event"",""trial"",""time""
""blur"",""1"",""4027""
""focus"",""1"",""4119""
""fullscreenenter"",""5"",""29394""
","""event"",""trial"",""time""
""blur"",""1"",""4027""
","""event"",""trial"",""time""
""focus"",""1"",""4119""
","""event"",""trial"",""time""
""fullscreenenter"",""5"",""29394""
","
","295.5999999642372","","48","","","3000","1","","","images/earth.jpg","images/rocket2","images/rocket1","null","images/rocket2","","1","real","null","2","","",""
"d3-animate-choice","148","952761","0.0-76.0-1.4","1488","1834","17","Male","true","true","true","true","""event"",""trial"",""time""
""blur"",""1"",""4027""
""focus"",""1"",""4119""
""fullscreenenter"",""5"",""29394""
","""event"",""trial"",""time""
""blur"",""1"",""4027""
","""event"",""trial"",""time""
""focus"",""1"",""4119""
","""event"",""trial"",""time""
""fullscreenenter"",""5"",""29394""
","
","341.69999998807907","","48","","","3000","1","","","images/redplanet1.jpg","images/alien2","images/alien1","images/rocket2","images/alien2","images/nothing.png","2","real","false","2","rare","0","2022-05-18 00:50:15.470"
"two-step-fixation","149","953765","0.0-76.0-2.4","1488","1834","17","Male","true","true","true","true","""event"",""trial"",""time""
""blur"",""1"",""4027""
""focus"",""1"",""4119""
""fullscreenenter"",""5"",""29394""
","""event"",""trial"",""time""
""blur"",""1"",""4027""
","""event"",""trial"",""time""
""focus"",""1"",""4119""
","""event"",""trial"",""time""
""fullscreenenter"",""5"",""29394""
","
","","images/earth.jpg","","","","","","","","","","","","","","fixation","","","","","",""
"d3-animate-choice","150","955985","0.0-76.0-0.5","1488","1834","17","Male","true","true","true","true","""event"",""trial"",""time""
""blur"",""1"",""4027""
""focus"",""1"",""4119""
""fullscreenenter"",""5"",""29394""
","""event"",""trial"",""time""
""blur"",""1"",""4027""
","""event"",""trial"",""time""
""focus"",""1"",""4119""
","""event"",""trial"",""time""
""fullscreenenter"",""5"",""29394""
","
","216.30000001192093","","48","","","3000","1","","","images/earth.jpg","images/rocket2","images/rocket1","null","images/rocket2","","1","real","null","2","","",""
"d3-animate-choice","151","958281","0.0-76.0-1.5","1488","1834","17","Male","true","true","true","true","""event"",""trial"",""time""
""blur"",""1"",""4027""
""focus"",""1"",""4119""
""fullscreenenter"",""5"",""29394""
","""event"",""trial"",""time""
""blur"",""1"",""4027""
","""event"",""trial"",""time""
""focus"",""1"",""4119""
","""event"",""trial"",""time""
""fullscreenenter"",""5"",""29394""
","
","292.5","","49","","","3000","1","","","images/purpleplanet.jpg","images/alien4","images/alien3","images/rocket2","images/alien3","images/nothing.png","2","real","true","1","common","0","2022-05-18 00:50:20.990"
"two-step-fixation","152","959284","0.0-76.0-2.5","1488","1834","17","Male","true","true","true","true","""event"",""trial"",""time""
""blur"",""1"",""4027""
""focus"",""1"",""4119""
""fullscreenenter"",""5"",""29394""
","""event"",""trial"",""time""
""blur"",""1"",""4027""
","""event"",""trial"",""time""
""focus"",""1"",""4119""
","""event"",""trial"",""time""
""fullscreenenter"",""5"",""29394""
","
","","images/earth.jpg","","","","","","","","","","","","","","fixation","","","","","",""
"d3-animate-choice","153","961449","0.0-76.0-0.6","1488","1834","17","Male","true","true","true","true","""event"",""trial"",""time""
""blur"",""1"",""4027""
""focus"",""1"",""4119""
""fullscreenenter"",""5"",""29394""
","""event"",""trial"",""time""
""blur"",""1"",""4027""
","""event"",""trial"",""time""
""focus"",""1"",""4119""
","""event"",""trial"",""time""
""fullscreenenter"",""5"",""29394""
","
","161.4000000357628","","48","","","3000","1","","","images/earth.jpg","images/rocket2","images/rocket1","null","images/rocket2","","1","real","null","2","","",""
"d3-animate-choice","154","963792","0.0-76.0-1.6","1488","1834","17","Male","true","true","true","true","""event"",""trial"",""time""
""blur"",""1"",""4027""
""focus"",""1"",""4119""
""fullscreenenter"",""5"",""29394""
","""event"",""trial"",""time""
""blur"",""1"",""4027""
","""event"",""trial"",""time""
""focus"",""1"",""4119""
","""event"",""trial"",""time""
""fullscreenenter"",""5"",""29394""
","
","340.30000001192093","","48","","","3000","1","","","images/purpleplanet.jpg","images/alien4","images/alien3","images/rocket2","images/alien4","images/t.png","2","real","true","2","common","1","2022-05-18 00:50:26.501"
"two-step-fixation","155","964795","0.0-76.0-2.6","1488","1834","17","Male","true","true","true","true","""event"",""trial"",""time""
""blur"",""1"",""4027""
""focus"",""1"",""4119""
""fullscreenenter"",""5"",""29394""
","""event"",""trial"",""time""
""blur"",""1"",""4027""
","""event"",""trial"",""time""
""focus"",""1"",""4119""
","""event"",""trial"",""time""
""fullscreenenter"",""5"",""29394""
","
","","images/earth.jpg","","","","","","","","","","","","","","fixation","","","","","",""
"d3-animate-choice","156","967417","0.0-76.0-0.7","1488","1834","17","Male","true","true","true","true","""event"",""trial"",""time""
""blur"",""1"",""4027""
""focus"",""1"",""4119""
""fullscreenenter"",""5"",""29394""
","""event"",""trial"",""time""
""blur"",""1"",""4027""
","""event"",""trial"",""time""
""focus"",""1"",""4119""
","""event"",""trial"",""time""
""fullscreenenter"",""5"",""29394""
","
","618.1999999880791","","49","","","3000","1","","","images/earth.jpg","images/rocket2","images/rocket1","null","images/rocket1","","1","real","null","1","","",""
"d3-animate-choice","157","970168","0.0-76.0-1.7","1488","1834","17","Male","true","true","true","true","""event"",""trial"",""time""
""blur"",""1"",""4027""
""focus"",""1"",""4119""
""fullscreenenter"",""5"",""29394""
","""event"",""trial"",""time""
""blur"",""1"",""4027""
","""event"",""trial"",""time""
""focus"",""1"",""4119""
","""event"",""trial"",""time""
""fullscreenenter"",""5"",""29394""
","
","748.4000000357628","","48","","","3000","1","","","images/redplanet1.jpg","images/alien2","images/alien1","images/rocket1","images/alien2","images/t.png","2","real","true","2","common","1","2022-05-18 00:50:32.877"
"two-step-fixation","158","971172","0.0-76.0-2.7","1488","1834","17","Male","true","true","true","true","""event"",""trial"",""time""
""blur"",""1"",""4027""
""focus"",""1"",""4119""
""fullscreenenter"",""5"",""29394""
","""event"",""trial"",""time""
""blur"",""1"",""4027""
","""event"",""trial"",""time""
""focus"",""1"",""4119""
","""event"",""trial"",""time""
""fullscreenenter"",""5"",""29394""
","
","","images/earth.jpg","","","","","","","","","","","","","","fixation","","","","","",""
"d3-animate-choice","159","973608","0.0-76.0-0.8","1488","1834","17","Male","true","true","true","true","""event"",""trial"",""time""
""blur"",""1"",""4027""
""focus"",""1"",""4119""
""fullscreenenter"",""5"",""29394""
","""event"",""trial"",""time""
""blur"",""1"",""4027""
","""event"",""trial"",""time""
""focus"",""1"",""4119""
","""event"",""trial"",""time""
""fullscreenenter"",""5"",""29394""
","
","433.7000000476837","","48","","","3000","1","","","images/earth.jpg","images/rocket2","images/rocket1","null","images/rocket2","","1","real","null","2","","",""
"d3-animate-choice","160","976313","0.0-76.0-1.8","1488","1834","17","Male","true","true","true","true","""event"",""trial"",""time""
""blur"",""1"",""4027""
""focus"",""1"",""4119""
""fullscreenenter"",""5"",""29394""
","""event"",""trial"",""time""
""blur"",""1"",""4027""
","""event"",""trial"",""time""
""focus"",""1"",""4119""
","""event"",""trial"",""time""
""fullscreenenter"",""5"",""29394""
","
","700.8999999761581","","48","","","3000","1","","","images/purpleplanet.jpg","images/alien4","images/alien3","images/rocket2","images/alien4","images/nothing.png","2","real","true","2","common","0","2022-05-18 00:50:39.022"
"two-step-fixation","161","977315","0.0-76.0-2.8","1488","1834","17","Male","true","true","true","true","""event"",""trial"",""time""
""blur"",""1"",""4027""
""focus"",""1"",""4119""
""fullscreenenter"",""5"",""29394""
","""event"",""trial"",""time""
""blur"",""1"",""4027""
","""event"",""trial"",""time""
""focus"",""1"",""4119""
","""event"",""trial"",""time""
""fullscreenenter"",""5"",""29394""
","
","","images/earth.jpg","","","","","","","","","","","","","","fixation","","","","","",""
"d3-animate-choice","162","979544","0.0-76.0-0.9","1488","1834","17","Male","true","true","true","true","""event"",""trial"",""time""
""blur"",""1"",""4027""
""focus"",""1"",""4119""
""fullscreenenter"",""5"",""29394""
","""event"",""trial"",""time""
""blur"",""1"",""4027""
","""event"",""trial"",""time""
""focus"",""1"",""4119""
","""event"",""trial"",""time""
""fullscreenenter"",""5"",""29394""
","
","226.69999998807907","","49","","","3000","1","","","images/earth.jpg","images/rocket2","images/rocket1","null","images/rocket1","","1","real","null","1","","",""
"d3-animate-choice","163","981976","0.0-76.0-1.9","1488","1834","17","Male","true","true","true","true","""event"",""trial"",""time""
""blur"",""1"",""4027""
""focus"",""1"",""4119""
""fullscreenenter"",""5"",""29394""
","""event"",""trial"",""time""
""blur"",""1"",""4027""
","""event"",""trial"",""time""
""focus"",""1"",""4119""
","""event"",""trial"",""time""
""fullscreenenter"",""5"",""29394""
","
","429.69999998807907","","49","","","3000","1","","","images/redplanet1.jpg","images/alien2","images/alien1","images/rocket1","images/alien1","images/nothing.png","2","real","true","1","common","0","2022-05-18 00:50:44.685"
"two-step-fixation","164","982979","0.0-76.0-2.9","1488","1834","17","Male","true","true","true","true","""event"",""trial"",""time""
""blur"",""1"",""4027""
""focus"",""1"",""4119""
""fullscreenenter"",""5"",""29394""
","""event"",""trial"",""time""
""blur"",""1"",""4027""
","""event"",""trial"",""time""
""focus"",""1"",""4119""
","""event"",""trial"",""time""
""fullscreenenter"",""5"",""29394""
","
","","images/earth.jpg","","","","","","","","","","","","","","fixation","","","","","",""
"d3-animate-choice","165","985112","0.0-76.0-0.10","1488","1834","17","Male","true","true","true","true","""event"",""trial"",""time""
""blur"",""1"",""4027""
""focus"",""1"",""4119""
""fullscreenenter"",""5"",""29394""
","""event"",""trial"",""time""
""blur"",""1"",""4027""
","""event"",""trial"",""time""
""focus"",""1"",""4119""
","""event"",""trial"",""time""
""fullscreenenter"",""5"",""29394""
","
","131.10000002384186","","48","","","3000","1","","","images/earth.jpg","images/rocket2","images/rocket1","null","images/rocket2","","1","real","null","2","","",""
"d3-animate-choice","166","988592","0.0-76.0-1.10","1488","1834","17","Male","true","true","true","true","""event"",""trial"",""time""
""blur"",""1"",""4027""
""focus"",""1"",""4119""
""fullscreenenter"",""5"",""29394""
","""event"",""trial"",""time""
""blur"",""1"",""4027""
","""event"",""trial"",""time""
""focus"",""1"",""4119""
","""event"",""trial"",""time""
""fullscreenenter"",""5"",""29394""
","
","1477.8999999761581","","48","","","3000","1","","","images/redplanet1.jpg","images/alien2","images/alien1","images/rocket2","images/alien2","images/t.png","2","real","false","2","rare","1","2022-05-18 00:50:51.301"
"two-step-fixation","167","989594","0.0-76.0-2.10","1488","1834","17","Male","true","true","true","true","""event"",""trial"",""time""
""blur"",""1"",""4027""
""focus"",""1"",""4119""
""fullscreenenter"",""5"",""29394""
","""event"",""trial"",""time""
""blur"",""1"",""4027""
","""event"",""trial"",""time""
""focus"",""1"",""4119""
","""event"",""trial"",""time""
""fullscreenenter"",""5"",""29394""
","
","","images/earth.jpg","","","","","","","","","","","","","","fixation","","","","","",""
"d3-animate-choice","168","991924","0.0-76.0-0.11","1488","1834","17","Male","true","true","true","true","""event"",""trial"",""time""
""blur"",""1"",""4027""
""focus"",""1"",""4119""
""fullscreenenter"",""5"",""29394""
","""event"",""trial"",""time""
""blur"",""1"",""4027""
","""event"",""trial"",""time""
""focus"",""1"",""4119""
","""event"",""trial"",""time""
""fullscreenenter"",""5"",""29394""
","
","315.19999998807907","","49","","","3000","1","","","images/earth.jpg","images/rocket2","images/rocket1","null","images/rocket1","","1","real","null","1","","",""
"d3-animate-choice","169","994352","0.0-76.0-1.11","1488","1834","17","Male","true","true","true","true","""event"",""trial"",""time""
""blur"",""1"",""4027""
""focus"",""1"",""4119""
""fullscreenenter"",""5"",""29394""
","""event"",""trial"",""time""
""blur"",""1"",""4027""
","""event"",""trial"",""time""
""focus"",""1"",""4119""
","""event"",""trial"",""time""
""fullscreenenter"",""5"",""29394""
","
","425.4000000357628","","48","","","3000","1","","","images/redplanet1.jpg","images/alien2","images/alien1","images/rocket1","images/alien2","images/t.png","2","real","true","2","common","1","2022-05-18 00:50:57.062"
"two-step-fixation","170","995355","0.0-76.0-2.11","1488","1834","17","Male","true","true","true","true","""event"",""trial"",""time""
""blur"",""1"",""4027""
""focus"",""1"",""4119""
""fullscreenenter"",""5"",""29394""
","""event"",""trial"",""time""
""blur"",""1"",""4027""
","""event"",""trial"",""time""
""focus"",""1"",""4119""
","""event"",""trial"",""time""
""fullscreenenter"",""5"",""29394""
","
","","images/earth.jpg","","","","","","","","","","","","","","fixation","","","","","",""
"d3-animate-choice","171","997664","0.0-76.0-0.12","1488","1834","17","Male","true","true","true","true","""event"",""trial"",""time""
""blur"",""1"",""4027""
""focus"",""1"",""4119""
""fullscreenenter"",""5"",""29394""
","""event"",""trial"",""time""
""blur"",""1"",""4027""
","""event"",""trial"",""time""
""focus"",""1"",""4119""
","""event"",""trial"",""time""
""fullscreenenter"",""5"",""29394""
","
","307.10000002384186","","48","","","3000","1","","","images/earth.jpg","images/rocket2","images/rocket1","null","images/rocket2","","1","real","null","2","","",""
"d3-animate-choice","172","1001192","0.0-76.0-1.12","1488","1834","17","Male","true","true","true","true","""event"",""trial"",""time""
""blur"",""1"",""4027""
""focus"",""1"",""4119""
""fullscreenenter"",""5"",""29394""
","""event"",""trial"",""time""
""blur"",""1"",""4027""
","""event"",""trial"",""time""
""focus"",""1"",""4119""
","""event"",""trial"",""time""
""fullscreenenter"",""5"",""29394""
","
","1525.300000011921","","49","","","3000","1","","","images/purpleplanet.jpg","images/alien4","images/alien3","images/rocket2","images/alien3","images/t.png","2","real","true","1","common","1","2022-05-18 00:51:03.901"
"two-step-fixation","173","1002195","0.0-76.0-2.12","1488","1834","17","Male","true","true","true","true","""event"",""trial"",""time""
""blur"",""1"",""4027""
""focus"",""1"",""4119""
""fullscreenenter"",""5"",""29394""
","""event"",""trial"",""time""
""blur"",""1"",""4027""
","""event"",""trial"",""time""
""focus"",""1"",""4119""
","""event"",""trial"",""time""
""fullscreenenter"",""5"",""29394""
","
","","images/earth.jpg","","","","","","","","","","","","","","fixation","","","","","",""
"d3-animate-choice","174","1004321","0.0-76.0-0.13","1488","1834","17","Male","true","true","true","true","""event"",""trial"",""time""
""blur"",""1"",""4027""
""focus"",""1"",""4119""
""fullscreenenter"",""5"",""29394""
","""event"",""trial"",""time""
""blur"",""1"",""4027""
","""event"",""trial"",""time""
""focus"",""1"",""4119""
","""event"",""trial"",""time""
""fullscreenenter"",""5"",""29394""
","
","123","","48","","","3000","1","","","images/earth.jpg","images/rocket2","images/rocket1","null","images/rocket2","","1","real","null","2","","",""
"d3-animate-choice","175","1007040","0.0-76.0-1.13","1488","1834","17","Male","true","true","true","true","""event"",""trial"",""time""
""blur"",""1"",""4027""
""focus"",""1"",""4119""
""fullscreenenter"",""5"",""29394""
","""event"",""trial"",""time""
""blur"",""1"",""4027""
","""event"",""trial"",""time""
""focus"",""1"",""4119""
","""event"",""trial"",""time""
""fullscreenenter"",""5"",""29394""
","
","716.9000000357628","","48","","","3000","1","","","images/purpleplanet.jpg","images/alien4","images/alien3","images/rocket2","images/alien4","images/t.png","2","real","true","2","common","1","2022-05-18 00:51:09.749"
"two-step-fixation","176","1008042","0.0-76.0-2.13","1488","1834","17","Male","true","true","true","true","""event"",""trial"",""time""
""blur"",""1"",""4027""
""focus"",""1"",""4119""
""fullscreenenter"",""5"",""29394""
","""event"",""trial"",""time""
""blur"",""1"",""4027""
","""event"",""trial"",""time""
""focus"",""1"",""4119""
","""event"",""trial"",""time""
""fullscreenenter"",""5"",""29394""
","
","","images/earth.jpg","","","","","","","","","","","","","","fixation","","","","","",""
"d3-animate-choice","177","1010930","0.0-76.0-0.14","1488","1834","17","Male","true","true","true","true","""event"",""trial"",""time""
""blur"",""1"",""4027""
""focus"",""1"",""4119""
""fullscreenenter"",""5"",""29394""
","""event"",""trial"",""time""
""blur"",""1"",""4027""
","""event"",""trial"",""time""
""focus"",""1"",""4119""
","""event"",""trial"",""time""
""fullscreenenter"",""5"",""29394""
","
","884.0999999642372","","49","","","3000","1","","","images/earth.jpg","images/rocket2","images/rocket1","null","images/rocket1","","1","real","null","1","","",""
"d3-animate-choice","178","1013592","0.0-76.0-1.14","1488","1834","17","Male","true","true","true","true","""event"",""trial"",""time""
""blur"",""1"",""4027""
""focus"",""1"",""4119""
""fullscreenenter"",""5"",""29394""
","""event"",""trial"",""time""
""blur"",""1"",""4027""
","""event"",""trial"",""time""
""focus"",""1"",""4119""
","""event"",""trial"",""time""
""fullscreenenter"",""5"",""29394""
","
