"trial_type","trial_index","time_elapsed","internal_node_id","participant_id","subject_id","age","gender","rocket_sides","red_planet_first_rocket","red_display_order","purple_display_order","interactions","blur_events","focus_events","fullscreenenter_events","fullscreenexit_events","rt","stimulus","key_press","button_pressed","success","duration","valid_pressed","rts","keys","planet_text","right_text","left_text","center_text","chosen_text","reward_text","trial_stage","practice_trial","transition_type","choice","transition","reward","timestamp"
"pavlovia","0","4","0.0-0.0","973","6112","23","Female","true","true","true","false","
","
","
","
","
","","","","","","","","","","","","","","","","","","","","","",""
"html-keyboard-response","1","5506","0.0-1.0","973","6112","23","Female","true","true","true","false","
","
","
","
","
","5501.599999904633","Welcome! Press the space bar to begin.","32","","","","","","","","","","","","","","","","","","",""
"audio-keyboard-response","2","8554","0.0-2.0","973","6112","23","Female","true","true","true","false","
","
","
","
","
","3051","audio/beep_loop.wav","32","","","","","","","","","","","","","","","","","","",""
"audio-button-response","3","11339","0.0-3.0","973","6112","23","Female","true","true","true","false","
","
","
","
","
","NaN","audio/fish.mp3","","1","","","","","","","","","","","","","","","","","",""
"audio-button-response","4","14226","0.0-4.0","973","6112","23","Female","true","true","true","false","""event"",""trial"",""time""
""fullscreenenter"",""5"",""16435""
","
","
","""event"",""trial"",""time""
""fullscreenenter"",""5"",""16435""
","
","NaN","audio/tiger.mp3","","4","","","","","","","","","","","","","","","","","",""
"fullscreen","5","17424","0.0-5.0","973","6112","23","Female","true","true","true","false","""event"",""trial"",""time""
""fullscreenenter"",""5"",""16435""
","
","
","""event"",""trial"",""time""
""fullscreenenter"",""5"",""16435""
","
","","","","","true","","","","","","","","","","","","","","","","",""
"d3-instructions","6","26210","0.0-6.0","973","6112","23","Female","true","true","true","false","""event"",""trial"",""time""
""fullscreenenter"",""5"",""16435""
","
","
","""event"",""trial"",""time""
""fullscreenenter"",""5"",""16435""
","
","","","","","","","","","","","","","","","","","","","","","",""
"d3-instructions","7","31153","0.0-7.0","973","6112","23","Female","true","true","true","false","""event"",""trial"",""time""
""fullscreenenter"",""5"",""16435""
","
","
","""event"",""trial"",""time""
""fullscreenenter"",""5"",""16435""
","
","","","","","","","","","","","","","","","","","","","","","",""
"d3-instructions","8","33257","0.0-8.0","973","6112","23","Female","true","true","true","false","""event"",""trial"",""time""
""fullscreenenter"",""5"",""16435""
","
","
","""event"",""trial"",""time""
""fullscreenenter"",""5"",""16435""
","
","","","","","","","","","","","","","","","","","","","","","",""
"d3-instructions","9","45113","0.0-9.0","973","6112","23","Female","true","true","true","false","""event"",""trial"",""time""
""fullscreenenter"",""5"",""16435""
","
","
","""event"",""trial"",""time""
""fullscreenenter"",""5"",""16435""
","
","","","","","","","","","","","","","","","","","","","","","",""
"d3-instructions","10","55977","0.0-10.0","973","6112","23","Female","true","true","true","false","""event"",""trial"",""time""
""fullscreenenter"",""5"",""16435""
","
","
","""event"",""trial"",""time""
""fullscreenenter"",""5"",""16435""
","
","","","","","","","","","","","","","","","","","","","","","",""
"d3-animate-choice","11","59856","0.0-11.0","973","6112","23","Female","true","true","true","false","""event"",""trial"",""time""
""fullscreenenter"",""5"",""16435""
","
","
","""event"",""trial"",""time""
""fullscreenenter"",""5"",""16435""
","
","1870","","49","","","3000","1","","","images/tutgreenplanet.jpg","images/tutalien1","images/tutalien2","null","images/tutalien2","","NA","practice","null","","","",""
"d3-animate-choice","12","63272","0.0-12.0","973","6112","23","Female","true","true","true","false","""event"",""trial"",""time""
""fullscreenenter"",""5"",""16435""
","
","
","""event"",""trial"",""time""
""fullscreenenter"",""5"",""16435""
","
","1406.7999997138977","","48","","","3000","1","","","images/tutgreenplanet.jpg","images/tutalien1","images/tutalien2","null","images/tutalien1","","NA","practice","null","","","",""
"d3-animate-choice","13","65873","0.0-13.0","973","6112","23","Female","true","true","true","false","""event"",""trial"",""time""
""fullscreenenter"",""5"",""16435""
","
","
","""event"",""trial"",""time""
""fullscreenenter"",""5"",""16435""
","
","591.2999997138977","","49","","","3000","1","","","images/tutgreenplanet.jpg","images/tutalien1","images/tutalien2","null","images/tutalien2","","NA","practice","null","","","",""
"d3-animate-choice","14","68392","0.0-14.0","973","6112","23","Female","true","true","true","false","""event"",""trial"",""time""
""fullscreenenter"",""5"",""16435""
","
","
","""event"",""trial"",""time""
""fullscreenenter"",""5"",""16435""
","
","510.40000009536743","","48","","","3000","1","","","images/tutgreenplanet.jpg","images/tutalien1","images/tutalien2","null","images/tutalien1","","NA","practice","null","","","",""
"d3-instructions","15","75552","0.0-15.0","973","6112","23","Female","true","true","true","false","""event"",""trial"",""time""
""fullscreenenter"",""5"",""16435""
","
","
","""event"",""trial"",""time""
""fullscreenenter"",""5"",""16435""
","
","","","","","","","","","","","","","","","","","","","","","",""
"d3-instructions","16","81904","0.0-16.0","973","6112","23","Female","true","true","true","false","""event"",""trial"",""time""
""fullscreenenter"",""5"",""16435""
","
","
","""event"",""trial"",""time""
""fullscreenenter"",""5"",""16435""
","
","","","","","","","","","","","","","","","","","","","","","",""
"d3-instructions","17","90305","0.0-17.0","973","6112","23","Female","true","true","true","false","""event"",""trial"",""time""
""fullscreenenter"",""5"",""16435""
","
","
","""event"",""trial"",""time""
""fullscreenenter"",""5"",""16435""
","
","","","","","","","","","","","","","","","","","","","","","",""
"d3-instructions","18","101817","0.0-18.0","973","6112","23","Female","true","true","true","false","""event"",""trial"",""time""
""fullscreenenter"",""5"",""16435""
","
","
","""event"",""trial"",""time""
""fullscreenenter"",""5"",""16435""
","
","","","","","","","","","","","","","","","","","","","","","",""
"d3-instructions","19","108665","0.0-19.0","973","6112","23","Female","true","true","true","false","""event"",""trial"",""time""
""fullscreenenter"",""5"",""16435""
","
","
","""event"",""trial"",""time""
""fullscreenenter"",""5"",""16435""
","
","","","","","","","","","","","","","","","","","","","","","",""
"d3-animate-choice","20","112401","0.0-20.0","973","6112","23","Female","true","true","true","false","""event"",""trial"",""time""
""fullscreenenter"",""5"",""16435""
","
","
","""event"",""trial"",""time""
""fullscreenenter"",""5"",""16435""
","
","1725.9000000953674","","49","","","3000","1","","","images/tutyellowplanet.jpg","null","images/tutalien3","null","images/tutalien3","images/t.png","NA","practice","null","","","",""
"d3-animate-choice","21","114976","0.0-21.0","973","6112","23","Female","true","true","true","false","""event"",""trial"",""time""
""fullscreenenter"",""5"",""16435""
","
","
","""event"",""trial"",""time""
""fullscreenenter"",""5"",""16435""
","
","567.0999999046326","","49","","","3000","1","","","images/tutyellowplanet.jpg","null","images/tutalien3","null","images/tutalien3","images/t.png","NA","practice","null","","","",""
"d3-animate-choice","22","117368","0.0-22.0","973","6112","23","Female","true","true","true","false","""event"",""trial"",""time""
""fullscreenenter"",""5"",""16435""
","
","
","""event"",""trial"",""time""
""fullscreenenter"",""5"",""16435""
","
","383.59999990463257","","49","","","3000","1","","","images/tutyellowplanet.jpg","null","images/tutalien3","null","images/tutalien3","images/t.png","NA","practice","null","","","",""
"d3-animate-choice","23","119720","0.0-23.0","973","6112","23","Female","true","true","true","false","""event"",""trial"",""time""
""fullscreenenter"",""5"",""16435""
","
","
","""event"",""trial"",""time""
""fullscreenenter"",""5"",""16435""
","
","342.5","","49","","","3000","1","","","images/tutyellowplanet.jpg","null","images/tutalien3","null","images/tutalien3","images/t.png","NA","practice","null","","","",""
"d3-animate-choice","24","122280","0.0-24.0","973","6112","23","Female","true","true","true","false","""event"",""trial"",""time""
""fullscreenenter"",""5"",""16435""
","
","
","""event"",""trial"",""time""
""fullscreenenter"",""5"",""16435""
","
","551.0999999046326","","49","","","3000","1","","","images/tutyellowplanet.jpg","null","images/tutalien3","null","images/tutalien3","images/t.png","NA","practice","null","","","",""
"d3-animate-choice","25","124576","0.0-25.0","973","6112","23","Female","true","true","true","false","""event"",""trial"",""time""
""fullscreenenter"",""5"",""16435""
","
","
","""event"",""trial"",""time""
""fullscreenenter"",""5"",""16435""
","
","287.09999990463257","","49","","","3000","1","","","images/tutyellowplanet.jpg","null","images/tutalien3","null","images/tutalien3","images/nothing.png","NA","practice","null","","","",""
"d3-animate-choice","26","126968","0.0-26.0","973","6112","23","Female","true","true","true","false","""event"",""trial"",""time""
""fullscreenenter"",""5"",""16435""
","
","
","""event"",""trial"",""time""
""fullscreenenter"",""5"",""16435""
","
","383.8999996185303","","49","","","3000","1","","","images/tutyellowplanet.jpg","null","images/tutalien3","null","images/tutalien3","images/t.png","NA","practice","null","","","",""
"d3-animate-choice","27","129360","0.0-27.0","973","6112","23","Female","true","true","true","false","""event"",""trial"",""time""
""fullscreenenter"",""5"",""16435""
","
","
","""event"",""trial"",""time""
""fullscreenenter"",""5"",""16435""
","
","383.30000019073486","","49","","","3000","1","","","images/tutyellowplanet.jpg","null","images/tutalien3","null","images/tutalien3","images/nothing.png","NA","practice","null","","","",""
"d3-animate-choice","28","131816","0.0-28.0","973","6112","23","Female","true","true","true","false","""event"",""trial"",""time""
""fullscreenenter"",""5"",""16435""
","
","
","""event"",""trial"",""time""
""fullscreenenter"",""5"",""16435""
","
","447.09999990463257","","49","","","3000","1","","","images/tutyellowplanet.jpg","null","images/tutalien3","null","images/tutalien3","images/nothing.png","NA","practice","null","","","",""
"d3-animate-choice","29","134248","0.0-29.0","973","6112","23","Female","true","true","true","false","""event"",""trial"",""time""
""fullscreenenter"",""5"",""16435""
","
","
","""event"",""trial"",""time""
""fullscreenenter"",""5"",""16435""
","
","422.90000009536743","","49","","","3000","1","","","images/tutyellowplanet.jpg","null","images/tutalien3","null","images/tutalien3","images/t.png","NA","practice","null","","","",""
"d3-instructions","30","140384","0.0-30.0","973","6112","23","Female","true","true","true","false","""event"",""trial"",""time""
""fullscreenenter"",""5"",""16435""
","
","
","""event"",""trial"",""time""
""fullscreenenter"",""5"",""16435""
","
","","","","","","","","","","","","","","","","","","","","","",""
"d3-instructions","31","145600","0.0-31.0","973","6112","23","Female","true","true","true","false","""event"",""trial"",""time""
""fullscreenenter"",""5"",""16435""
","
","
","""event"",""trial"",""time""
""fullscreenenter"",""5"",""16435""
","
","","","","","","","","","","","","","","","","","","","","","",""
"d3-instructions","32","148337","0.0-32.0","973","6112","23","Female","true","true","true","false","""event"",""trial"",""time""
""fullscreenenter"",""5"",""16435""
","
","
","""event"",""trial"",""time""
""fullscreenenter"",""5"",""16435""
","
","","","","","","","","","","","","","","","","","","","","","",""
"d3-instructions","33","150257","0.0-33.0","973","6112","23","Female","true","true","true","false","""event"",""trial"",""time""
""fullscreenenter"",""5"",""16435""
","
","
","""event"",""trial"",""time""
""fullscreenenter"",""5"",""16435""
","
","","","","","","","","","","","","","","","","","","","","","",""
"d3-animate-choice","34","152672","0.0-34.0","973","6112","23","Female","true","true","true","false","""event"",""trial"",""time""
""fullscreenenter"",""5"",""16435""
","
","
","""event"",""trial"",""time""
""fullscreenenter"",""5"",""16435""
","
","406.59999990463257","","49","","","3000","1","","","images/tutgreenplanet.jpg","images/tutalien1","images/tutalien2","null","images/tutalien2","images/t.png","NA","practice","null","","","",""
"d3-animate-choice","35","155008","0.0-35.0","973","6112","23","Female","true","true","true","false","""event"",""trial"",""time""
""fullscreenenter"",""5"",""16435""
","
","
","""event"",""trial"",""time""
""fullscreenenter"",""5"",""16435""
","
","326.80000019073486","","49","","","3000","1","","","images/tutgreenplanet.jpg","images/tutalien1","images/tutalien2","null","images/tutalien2","images/t.png","NA","practice","null","","","",""
"d3-animate-choice","36","157336","0.0-36.0","973","6112","23","Female","true","true","true","false","""event"",""trial"",""time""
""fullscreenenter"",""5"",""16435""
","
","
","""event"",""trial"",""time""
""fullscreenenter"",""5"",""16435""
","
","318.90000009536743","","49","","","3000","1","","","images/tutgreenplanet.jpg","images/tutalien1","images/tutalien2","null","images/tutalien2","images/t.png","NA","practice","null","","","",""
"d3-animate-choice","37","159592","0.0-37.0","973","6112","23","Female","true","true","true","false","""event"",""trial"",""time""
""fullscreenenter"",""5"",""16435""
","
","
","""event"",""trial"",""time""
""fullscreenenter"",""5"",""16435""
","
","247.90000009536743","","49","","","3000","1","","","images/tutgreenplanet.jpg","images/tutalien1","images/tutalien2","null","images/tutalien2","images/t.png","NA","practice","null","","","",""
"d3-animate-choice","38","161816","0.0-38.0","973","6112","23","Female","true","true","true","false","""event"",""trial"",""time""
""fullscreenenter"",""5"",""16435""
","
","
","""event"",""trial"",""time""
""fullscreenenter"",""5"",""16435""
","
","215","","49","","","3000","1","","","images/tutgreenplanet.jpg","images/tutalien1","images/tutalien2","null","images/tutalien2","images/t.png","NA","practice","null","","","",""
"d3-animate-choice","39","163986","0.0-39.0","973","6112","23","Female","true","true","true","false","""event"",""trial"",""time""
""fullscreenenter"",""5"",""16435""
","
","
","""event"",""trial"",""time""
""fullscreenenter"",""5"",""16435""
","
","158.80000019073486","","49","","","3000","1","","","images/tutgreenplanet.jpg","images/tutalien1","images/tutalien2","null","images/tutalien2","images/t.png","NA","practice","null","","","",""
"d3-animate-choice","40","166177","0.0-40.0","973","6112","23","Female","true","true","true","false","""event"",""trial"",""time""
""fullscreenenter"",""5"",""16435""
","
","
","""event"",""trial"",""time""
""fullscreenenter"",""5"",""16435""
","
","181.30000019073486","","49","","","3000","1","","","images/tutgreenplanet.jpg","images/tutalien1","images/tutalien2","null","images/tutalien2","images/t.png","NA","practice","null","","","",""
"d3-animate-choice","41","168424","0.0-41.0","973","6112","23","Female","true","true","true","false","""event"",""trial"",""time""
""fullscreenenter"",""5"",""16435""
","
","
","""event"",""trial"",""time""
""fullscreenenter"",""5"",""16435""
","
","238.60000038146973","","49","","","3000","1","","","images/tutgreenplanet.jpg","images/tutalien1","images/tutalien2","null","images/tutalien2","images/t.png","NA","practice","null","","","",""
"d3-animate-choice","42","170696","0.0-42.0","973","6112","23","Female","true","true","true","false","""event"",""trial"",""time""
""fullscreenenter"",""5"",""16435""
","
","
","""event"",""trial"",""time""
""fullscreenenter"",""5"",""16435""
","
","263.5","","49","","","3000","1","","","images/tutgreenplanet.jpg","images/tutalien1","images/tutalien2","null","images/tutalien2","images/t.png","NA","practice","null","","","",""
"d3-animate-choice","43","172992","0.0-43.0","973","6112","23","Female","true","true","true","false","""event"",""trial"",""time""
""fullscreenenter"",""5"",""16435""
","
","
","""event"",""trial"",""time""
""fullscreenenter"",""5"",""16435""
","
","287","","49","","","3000","1","","","images/tutgreenplanet.jpg","images/tutalien1","images/tutalien2","null","images/tutalien2","images/t.png","NA","practice","null","","","",""
"d3-instructions","44","184713","0.0-44.0","973","6112","23","Female","true","true","true","false","""event"",""trial"",""time""
""fullscreenenter"",""5"",""16435""
","
","
","""event"",""trial"",""time""
""fullscreenenter"",""5"",""16435""
","
","","","","","","","","","","","","","","","","","","","","","",""
"d3-instructions","45","187281","0.0-45.0","973","6112","23","Female","true","true","true","false","""event"",""trial"",""time""
""fullscreenenter"",""5"",""16435""
","
","
","""event"",""trial"",""time""
""fullscreenenter"",""5"",""16435""
","
","","","","","","","","","","","","","","","","","","","","","",""
"d3-instructions","46","189704","0.0-46.0","973","6112","23","Female","true","true","true","false","""event"",""trial"",""time""
""fullscreenenter"",""5"",""16435""
","
","
","""event"",""trial"",""time""
""fullscreenenter"",""5"",""16435""
","
","","","","","","","","","","","","","","","","","","","","","",""
"d3-instructions","47","191912","0.0-47.0","973","6112","23","Female","true","true","true","false","""event"",""trial"",""time""
""fullscreenenter"",""5"",""16435""
","
","
","""event"",""trial"",""time""
""fullscreenenter"",""5"",""16435""
","
","","","","","","","","","","","","","","","","","","","","","",""
"d3-instructions","48","194088","0.0-48.0","973","6112","23","Female","true","true","true","false","""event"",""trial"",""time""
""fullscreenenter"",""5"",""16435""
","
","
","""event"",""trial"",""time""
""fullscreenenter"",""5"",""16435""
","
","","","","","","","","","","","","","","","","","","","","","",""
"d3-instructions","49","195176","0.0-49.0","973","6112","23","Female","true","true","true","false","""event"",""trial"",""time""
""fullscreenenter"",""5"",""16435""
","
","
","""event"",""trial"",""time""
""fullscreenenter"",""5"",""16435""
","
","","","","","","","","","","","","","","","","","","","","","",""
"d3-instructions","50","197433","0.0-50.0","973","6112","23","Female","true","true","true","false","""event"",""trial"",""time""
""fullscreenenter"",""5"",""16435""
","
","
","""event"",""trial"",""time""
""fullscreenenter"",""5"",""16435""
","
","","","","","","","","","","","","","","","","","","","","","",""
"d3-instructions","51","199177","0.0-51.0","973","6112","23","Female","true","true","true","false","""event"",""trial"",""time""
""fullscreenenter"",""5"",""16435""
","
","
","""event"",""trial"",""time""
""fullscreenenter"",""5"",""16435""
","
","","","","","","","","","","","","","","","","","","","","","",""
"d3-instructions","52","199960","0.0-52.0","973","6112","23","Female","true","true","true","false","""event"",""trial"",""time""
""fullscreenenter"",""5"",""16435""
","
","
","""event"",""trial"",""time""
""fullscreenenter"",""5"",""16435""
","
","","","","","","","","","","","","","","","","","","","","","",""
"d3-instructions","53","201713","0.0-53.0","973","6112","23","Female","true","true","true","false","""event"",""trial"",""time""
""fullscreenenter"",""5"",""16435""
","
","
","""event"",""trial"",""time""
""fullscreenenter"",""5"",""16435""
","
","","","","","","","","","","","","","","","","","","","","","",""
"d3-instructions","54","204008","0.0-54.0","973","6112","23","Female","true","true","true","false","""event"",""trial"",""time""
""fullscreenenter"",""5"",""16435""
","
","
","""event"",""trial"",""time""
""fullscreenenter"",""5"",""16435""
","
","","","","","","","","","","","","","","","","","","","","","",""
"d3-instructions","55","205928","0.0-55.0","973","6112","23","Female","true","true","true","false","""event"",""trial"",""time""
""fullscreenenter"",""5"",""16435""
","
","
","""event"",""trial"",""time""
""fullscreenenter"",""5"",""16435""
","
","","","","","","","","","","","","","","","","","","","","","",""
"d3-instructions","56","207472","0.0-56.0","973","6112","23","Female","true","true","true","false","""event"",""trial"",""time""
""fullscreenenter"",""5"",""16435""
","
","
","""event"",""trial"",""time""
""fullscreenenter"",""5"",""16435""
","
","","","","","","","","","","","","","","","","","","","","","",""
"d3-instructions","57","209809","0.0-57.0","973","6112","23","Female","true","true","true","false","""event"",""trial"",""time""
""fullscreenenter"",""5"",""16435""
","
","
","""event"",""trial"",""time""
""fullscreenenter"",""5"",""16435""
","
","","","","","","","","","","","","","","","","","","","","","",""
"d3-instructions","58","211312","0.0-58.0","973","6112","23","Female","true","true","true","false","""event"",""trial"",""time""
""fullscreenenter"",""5"",""16435""
","
","
","""event"",""trial"",""time""
""fullscreenenter"",""5"",""16435""
","
","","","","","","","","","","","","","","","","","","","","","",""
"d3-instructions","59","212992","0.0-59.0","973","6112","23","Female","true","true","true","false","""event"",""trial"",""time""
""fullscreenenter"",""5"",""16435""
","
","
","""event"",""trial"",""time""
""fullscreenenter"",""5"",""16435""
","
","","","","","","","","","","","","","","","","","","","","","",""
"d3-instructions","60","214448","0.0-60.0","973","6112","23","Female","true","true","true","false","""event"",""trial"",""time""
""fullscreenenter"",""5"",""16435""
","
","
","""event"",""trial"",""time""
""fullscreenenter"",""5"",""16435""
","
","","","","","","","","","","","","","","","","","","","","","",""
"d3-animate-choice","61","216961","0.0-61.0-0.0","973","6112","23","Female","true","true","true","false","""event"",""trial"",""time""
""fullscreenenter"",""5"",""16435""
","
","
","""event"",""trial"",""time""
""fullscreenenter"",""5"",""16435""
","
","502","","49","","","3000","1","","","images/earth.jpg","images/tutrocket1","images/tutrocket2","null","images/tutrocket2","","1","practice","null","1","","",""
"d3-animate-choice","62","219353","0.0-61.0-1.0","973","6112","23","Female","true","true","true","false","""event"",""trial"",""time""
""fullscreenenter"",""5"",""16435""
","
","
","""event"",""trial"",""time""
""fullscreenenter"",""5"",""16435""
","
","381.5","","49","","","3000","1","","","images/tutgreenplanet.jpg","images/tutalien2","images/tutalien1","images/tutrocket2","images/tutalien1","images/t.png","2","practice","false","1","rare","1","2023-01-29 18:54:41.624"
"two-step-fixation","63","220360","0.0-61.0-2.0","973","6112","23","Female","true","true","true","false","""event"",""trial"",""time""
""fullscreenenter"",""5"",""16435""
","
","
","""event"",""trial"",""time""
""fullscreenenter"",""5"",""16435""
","
","","images/earth.jpg","","","","","","","","","","","","","","fixation","","","","","",""
"d3-animate-choice","64","222673","0.0-61.0-0.1","973","6112","23","Female","true","true","true","false","""event"",""trial"",""time""
""fullscreenenter"",""5"",""16435""
","
","
","""event"",""trial"",""time""
""fullscreenenter"",""5"",""16435""
","
","302.30000019073486","","49","","","3000","1","","","images/earth.jpg","images/tutrocket1","images/tutrocket2","null","images/tutrocket2","","1","practice","null","1","","",""
"d3-animate-choice","65","225010","0.0-61.0-1.1","973","6112","23","Female","true","true","true","false","""event"",""trial"",""time""
""fullscreenenter"",""5"",""16435""
","
","
","""event"",""trial"",""time""
""fullscreenenter"",""5"",""16435""
","
","325.90000009536743","","49","","","3000","1","","","images/tutyellowplanet.jpg","images/tutalien4","images/tutalien3","images/tutrocket2","images/tutalien3","images/nothing.png","2","practice","true","1","common","0","2023-01-29 18:54:47.281"
"two-step-fixation","66","226016","0.0-61.0-2.1","973","6112","23","Female","true","true","true","false","""event"",""trial"",""time""
""fullscreenenter"",""5"",""16435""
","
","
","""event"",""trial"",""time""
""fullscreenenter"",""5"",""16435""
","
","","images/earth.jpg","","","","","","","","","","","","","","fixation","","","","","",""
"d3-animate-choice","67","228296","0.0-61.0-0.2","973","6112","23","Female","true","true","true","false","""event"",""trial"",""time""
""fullscreenenter"",""5"",""16435""
","
","
","""event"",""trial"",""time""
""fullscreenenter"",""5"",""16435""
","
","270.5","","49","","","3000","1","","","images/earth.jpg","images/tutrocket1","images/tutrocket2","null","images/tutrocket2","","1","practice","null","1","","",""
"d3-animate-choice","68","230841","0.0-61.0-1.2","973","6112","23","Female","true","true","true","false","""event"",""trial"",""time""
""fullscreenenter"",""5"",""16435""
","
","
","""event"",""trial"",""time""
""fullscreenenter"",""5"",""16435""
","
","535","","48","","","3000","1","","","images/tutyellowplanet.jpg","images/tutalien4","images/tutalien3","images/tutrocket2","images/tutalien4","images/t.png","2","practice","true","2","common","1","2023-01-29 18:54:53.112"
"two-step-fixation","69","231848","0.0-61.0-2.2","973","6112","23","Female","true","true","true","false","""event"",""trial"",""time""
""fullscreenenter"",""5"",""16435""
","
","
","""event"",""trial"",""time""
""fullscreenenter"",""5"",""16435""
","
","","images/earth.jpg","","","","","","","","","","","","","","fixation","","","","","",""
"d3-animate-choice","70","234137","0.0-61.0-0.3","973","6112","23","Female","true","true","true","false","""event"",""trial"",""time""
""fullscreenenter"",""5"",""16435""
","
","
","""event"",""trial"",""time""
""fullscreenenter"",""5"",""16435""
","
","278.69999980926514","","49","","","3000","1","","","images/earth.jpg","images/tutrocket1","images/tutrocket2","null","images/tutrocket2","","1","practice","null","1","","",""
"d3-animate-choice","71","236512","0.0-61.0-1.3","973","6112","23","Female","true","true","true","false","""event"",""trial"",""time""
""fullscreenenter"",""5"",""16435""
","
","
","""event"",""trial"",""time""
""fullscreenenter"",""5"",""16435""
","
","367","","48","","","3000","1","","","images/tutyellowplanet.jpg","images/tutalien4","images/tutalien3","images/tutrocket2","images/tutalien4","images/nothing.png","2","practice","true","2","common","0","2023-01-29 18:54:58.783"
"two-step-fixation","72","237521","0.0-61.0-2.3","973","6112","23","Female","true","true","true","false","""event"",""trial"",""time""
""fullscreenenter"",""5"",""16435""
","
","
","""event"",""trial"",""time""
""fullscreenenter"",""5"",""16435""
","
","","images/earth.jpg","","","","","","","","","","","","","","fixation","","","","","",""
"d3-animate-choice","73","239809","0.0-61.0-0.4","973","6112","23","Female","true","true","true","false","""event"",""trial"",""time""
""fullscreenenter"",""5"",""16435""
","
","
","""event"",""trial"",""time""
""fullscreenenter"",""5"",""16435""
","
","278.19999980926514","","49","","","3000","1","","","images/earth.jpg","images/tutrocket1","images/tutrocket2","null","images/tutrocket2","","1","practice","null","1","","",""
"d3-animate-choice","74","242144","0.0-61.0-1.4","973","6112","23","Female","true","true","true","false","""event"",""trial"",""time""
""fullscreenenter"",""5"",""16435""
","
","
","""event"",""trial"",""time""
""fullscreenenter"",""5"",""16435""
","
","323.30000019073486","","48","","","3000","1","","","images/tutyellowplanet.jpg","images/tutalien4","images/tutalien3","images/tutrocket2","images/tutalien4","images/t.png","2","practice","true","2","common","1","2023-01-29 18:55:04.415"
"two-step-fixation","75","243152","0.0-61.0-2.4","973","6112","23","Female","true","true","true","false","""event"",""trial"",""time""
""fullscreenenter"",""5"",""16435""
","
","
","""event"",""trial"",""time""
""fullscreenenter"",""5"",""16435""
","
","","images/earth.jpg","","","","","","","","","","","","","","fixation","","","","","",""
"d3-animate-choice","76","245483","0.0-61.0-0.5","973","6112","23","Female","true","true","true","false","""event"",""trial"",""time""
""fullscreenenter"",""5"",""16435""
","
","
","""event"",""trial"",""time""
""fullscreenenter"",""5"",""16435""
","
","326.40000009536743","","49","","","3000","1","","","images/earth.jpg","images/tutrocket1","images/tutrocket2","null","images/tutrocket2","","1","practice","null","1","","",""
"d3-animate-choice","77","247783","0.0-61.0-1.5","973","6112","23","Female","true","true","true","false","""event"",""trial"",""time""
""fullscreenenter"",""5"",""16435""
","
","
","""event"",""trial"",""time""
""fullscreenenter"",""5"",""16435""
","
","290.40000009536743","","48","","","3000","1","","","images/tutyellowplanet.jpg","images/tutalien4","images/tutalien3","images/tutrocket2","images/tutalien4","images/t.png","2","practice","true","2","common","1","2023-01-29 18:55:10.054"
"two-step-fixation","78","248785","0.0-61.0-2.5","973","6112","23","Female","true","true","true","false","""event"",""trial"",""time""
""fullscreenenter"",""5"",""16435""
","
","
","""event"",""trial"",""time""
""fullscreenenter"",""5"",""16435""
","
","","images/earth.jpg","","","","","","","","","","","","","","fixation","","","","","",""
"d3-animate-choice","79","250817","0.0-61.0-0.6","973","6112","23","Female","true","true","true","false","""event"",""trial"",""time""
""fullscreenenter"",""5"",""16435""
","
","
","""event"",""trial"",""time""
""fullscreenenter"",""5"",""16435""
","
","22.5","","49","","","3000","1","","","images/earth.jpg","images/tutrocket1","images/tutrocket2","null","images/tutrocket2","","1","practice","null","1","","",""
"d3-animate-choice","80","253040","0.0-61.0-1.6","973","6112","23","Female","true","true","true","false","""event"",""trial"",""time""
""fullscreenenter"",""5"",""16435""
","
","
","""event"",""trial"",""time""
""fullscreenenter"",""5"",""16435""
","
","214.2000002861023","","48","","","3000","1","","","images/tutyellowplanet.jpg","images/tutalien4","images/tutalien3","images/tutrocket2","images/tutalien4","images/nothing.png","2","practice","true","2","common","0","2023-01-29 18:55:15.311"
"two-step-fixation","81","254050","0.0-61.0-2.6","973","6112","23","Female","true","true","true","false","""event"",""trial"",""time""
""fullscreenenter"",""5"",""16435""
","
","
","""event"",""trial"",""time""
""fullscreenenter"",""5"",""16435""
","
","","images/earth.jpg","","","","","","","","","","","","","","fixation","","","","","",""
"d3-animate-choice","82","256102","0.0-61.0-0.7","973","6112","23","Female","true","true","true","false","""event"",""trial"",""time""
""fullscreenenter"",""5"",""16435""
","
","
","""event"",""trial"",""time""
""fullscreenenter"",""5"",""16435""
","
","45.09999990463257","","49","","","3000","1","","","images/earth.jpg","images/tutrocket1","images/tutrocket2","null","images/tutrocket2","","1","practice","null","1","","",""
"d3-animate-choice","83","258360","0.0-61.0-1.7","973","6112","23","Female","true","true","true","false","""event"",""trial"",""time""
""fullscreenenter"",""5"",""16435""
","
","
","""event"",""trial"",""time""
""fullscreenenter"",""5"",""16435""
","
","249.5","","48","","","3000","1","","","images/tutyellowplanet.jpg","images/tutalien4","images/tutalien3","images/tutrocket2","images/tutalien4","images/t.png","2","practice","true","2","common","1","2023-01-29 18:55:20.631"
"two-step-fixation","84","259370","0.0-61.0-2.7","973","6112","23","Female","true","true","true","false","""event"",""trial"",""time""
""fullscreenenter"",""5"",""16435""
","
","
","""event"",""trial"",""time""
""fullscreenenter"",""5"",""16435""
","
","","images/earth.jpg","","","","","","","","","","","","","","fixation","","","","","",""
"d3-animate-choice","85","261688","0.0-61.0-0.8","973","6112","23","Female","true","true","true","false","""event"",""trial"",""time""
""fullscreenenter"",""5"",""16435""
","
","
","""event"",""trial"",""time""
""fullscreenenter"",""5"",""16435""
","
","309.3999996185303","","49","","","3000","1","","","images/earth.jpg","images/tutrocket1","images/tutrocket2","null","images/tutrocket2","","1","practice","null","1","","",""
"d3-animate-choice","86","263984","0.0-61.0-1.8","973","6112","23","Female","true","true","true","false","""event"",""trial"",""time""
""fullscreenenter"",""5"",""16435""
","
","
","""event"",""trial"",""time""
""fullscreenenter"",""5"",""16435""
","
","286.5","","48","","","3000","1","","","images/tutgreenplanet.jpg","images/tutalien2","images/tutalien1","images/tutrocket2","images/tutalien2","images/nothing.png","2","practice","false","2","rare","0","2023-01-29 18:55:26.255"
"two-step-fixation","87","264993","0.0-61.0-2.8","973","6112","23","Female","true","true","true","false","""event"",""trial"",""time""
""fullscreenenter"",""5"",""16435""
","
","
","""event"",""trial"",""time""
""fullscreenenter"",""5"",""16435""
","
","","images/earth.jpg","","","","","","","","","","","","","","fixation","","","","","",""
"d3-animate-choice","88","267193","0.0-61.0-0.9","973","6112","23","Female","true","true","true","false","""event"",""trial"",""time""
""fullscreenenter"",""5"",""16435""
","
","
","""event"",""trial"",""time""
""fullscreenenter"",""5"",""16435""
","
","190","","49","","","3000","1","","","images/earth.jpg","images/tutrocket1","images/tutrocket2","null","images/tutrocket2","","1","practice","null","1","","",""
"d3-animate-choice","89","269648","0.0-61.0-1.9","973","6112","23","Female","true","true","true","false","""event"",""trial"",""time""
""fullscreenenter"",""5"",""16435""
","
","
","""event"",""trial"",""time""
""fullscreenenter"",""5"",""16435""
","
","446.69999980926514","","48","","","3000","1","","","images/tutyellowplanet.jpg","images/tutalien4","images/tutalien3","images/tutrocket2","images/tutalien4","images/nothing.png","2","practice","true","2","common","0","2023-01-29 18:55:31.919"
"two-step-fixation","90","270656","0.0-61.0-2.9","973","6112","23","Female","true","true","true","false","""event"",""trial"",""time""
""fullscreenenter"",""5"",""16435""
","
","
","""event"",""trial"",""time""
""fullscreenenter"",""5"",""16435""
","
","","images/earth.jpg","","","","","","","","","","","","","","fixation","","","","","",""
"d3-animate-choice","91","272760","0.0-61.0-0.10","973","6112","23","Female","true","true","true","false","""event"",""trial"",""time""
""fullscreenenter"",""5"",""16435""
","
","
","""event"",""trial"",""time""
""fullscreenenter"",""5"",""16435""
","
","94.90000009536743","","49","","","3000","1","","","images/earth.jpg","images/tutrocket1","images/tutrocket2","null","images/tutrocket2","","1","practice","null","1","","",""
"d3-animate-choice","92","275105","0.0-61.0-1.10","973","6112","23","Female","true","true","true","false","""event"",""trial"",""time""
""fullscreenenter"",""5"",""16435""
","
","
","""event"",""trial"",""time""
""fullscreenenter"",""5"",""16435""
","
","334.6000003814697","","48","","","3000","1","726.7000002861023","49","images/tutgreenplanet.jpg","images/tutalien2","images/tutalien1","images/tutrocket2","images/tutalien2","images/t.png","2","practice","false","2","rare","1","2023-01-29 18:55:37.376"
"two-step-fixation","93","276108","0.0-61.0-2.10","973","6112","23","Female","true","true","true","false","""event"",""trial"",""time""
""fullscreenenter"",""5"",""16435""
","
","
","""event"",""trial"",""time""
""fullscreenenter"",""5"",""16435""
","
","","images/earth.jpg","","","","","","","","","","","","","","fixation","","","","","",""
"d3-animate-choice","94","278393","0.0-61.0-0.11","973","6112","23","Female","true","true","true","false","""event"",""trial"",""time""
""fullscreenenter"",""5"",""16435""
","
","
","""event"",""trial"",""time""
""fullscreenenter"",""5"",""16435""
","
","275.30000019073486","","49","","","3000","1","","","images/earth.jpg","images/tutrocket1","images/tutrocket2","null","images/tutrocket2","","1","practice","null","1","","",""
"d3-animate-choice","95","281041","0.0-61.0-1.11","973","6112","23","Female","true","true","true","false","""event"",""trial"",""time""
""fullscreenenter"",""5"",""16435""
","
","
","""event"",""trial"",""time""
""fullscreenenter"",""5"",""16435""
","
","639.4000000953674","","49","","","3000","1","","","images/tutgreenplanet.jpg","images/tutalien2","images/tutalien1","images/tutrocket2","images/tutalien1","images/nothing.png","2","practice","false","1","rare","0","2023-01-29 18:55:43.312"
"two-step-fixation","96","282049","0.0-61.0-2.11","973","6112","23","Female","true","true","true","false","""event"",""trial"",""time""
""fullscreenenter"",""5"",""16435""
","
","
","""event"",""trial"",""time""
""fullscreenenter"",""5"",""16435""
","
","","images/earth.jpg","","","","","","","","","","","","","","fixation","","","","","",""
"d3-animate-choice","97","284329","0.0-61.0-0.12","973","6112","23","Female","true","true","true","false","""event"",""trial"",""time""
""fullscreenenter"",""5"",""16435""
","
","
","""event"",""trial"",""time""
""fullscreenenter"",""5"",""16435""
","
","270.40000009536743","","49","","","3000","1","","","images/earth.jpg","images/tutrocket1","images/tutrocket2","null","images/tutrocket2","","1","practice","null","1","","",""
"d3-animate-choice","98","286880","0.0-61.0-1.12","973","6112","23","Female","true","true","true","false","""event"",""trial"",""time""
""fullscreenenter"",""5"",""16435""
","
","
","""event"",""trial"",""time""
""fullscreenenter"",""5"",""16435""
","
","543.4000000953674","","48","","","3000","1","","","images/tutgreenplanet.jpg","images/tutalien2","images/tutalien1","images/tutrocket2","images/tutalien2","images/t.png","2","practice","false","2","rare","1","2023-01-29 18:55:49.151"
"two-step-fixation","99","287888","0.0-61.0-2.12","973","6112","23","Female","true","true","true","false","""event"",""trial"",""time""
""fullscreenenter"",""5"",""16435""
","
","
","""event"",""trial"",""time""
""fullscreenenter"",""5"",""16435""
","
","","images/earth.jpg","","","","","","","","","","","","","","fixation","","","","","",""
"d3-animate-choice","100","290345","0.0-61.0-0.13","973","6112","23","Female","true","true","true","false","""event"",""trial"",""time""
""fullscreenenter"",""5"",""16435""
","
","
","""event"",""trial"",""time""
""fullscreenenter"",""5"",""16435""
","
","446.7000002861023","","49","","","3000","1","","","images/earth.jpg","images/tutrocket1","images/tutrocket2","null","images/tutrocket2","","1","practice","null","1","","",""
"d3-animate-choice","101","293209","0.0-61.0-1.13","973","6112","23","Female","true","true","true","false","""event"",""trial"",""time""
""fullscreenenter"",""5"",""16435""
","
","
","""event"",""trial"",""time""
""fullscreenenter"",""5"",""16435""
","
","851.3000001907349","","49","","","3000","1","","","images/tutyellowplanet.jpg","images/tutalien4","images/tutalien3","images/tutrocket2","images/tutalien3","images/t.png","2","practice","true","1","common","1","2023-01-29 18:55:55.480"
"two-step-fixation","102","294216","0.0-61.0-2.13","973","6112","23","Female","true","true","true","false","""event"",""trial"",""time""
""fullscreenenter"",""5"",""16435""
","
","
","""event"",""trial"",""time""
""fullscreenenter"",""5"",""16435""
","
","","images/earth.jpg","","","","","","","","","","","","","","fixation","","","","","",""
"d3-animate-choice","103","296649","0.0-61.0-0.14","973","6112","23","Female","true","true","true","false","""event"",""trial"",""time""
""fullscreenenter"",""5"",""16435""
","
","
","""event"",""trial"",""time""
""fullscreenenter"",""5"",""16435""
","
","423","","49","","","3000","1","","","images/earth.jpg","images/tutrocket1","images/tutrocket2","null","images/tutrocket2","","1","practice","null","1","","",""
"d3-animate-choice","104","299065","0.0-61.0-1.14","973","6112","23","Female","true","true","true","false","""event"",""trial"",""time""
""fullscreenenter"",""5"",""16435""
","
","
","""event"",""trial"",""time""
""fullscreenenter"",""5"",""16435""
","
","411.90000009536743","","49","","","3000","1","","","images/tutgreenplanet.jpg","images/tutalien2","images/tutalien1","images/tutrocket2","images/tutalien1","images/nothing.png","2","practice","false","1","rare","0","2023-01-29 18:56:01.336"
"two-step-fixation","105","300072","0.0-61.0-2.14","973","6112","23","Female","true","true","true","false","""event"",""trial"",""time""
""fullscreenenter"",""5"",""16435""
","
","
","""event"",""trial"",""time""
""fullscreenenter"",""5"",""16435""
","
","","images/earth.jpg","","","","","","","","","","","","","","fixation","","","","","",""
"d3-animate-choice","106","302409","0.0-61.0-0.15","973","6112","23","Female","true","true","true","false","""event"",""trial"",""time""
""fullscreenenter"",""5"",""16435""
","
","
","""event"",""trial"",""time""
""fullscreenenter"",""5"",""16435""
","
","326.59999990463257","","49","","","3000","1","","","images/earth.jpg","images/tutrocket1","images/tutrocket2","null","images/tutrocket2","","1","practice","null","1","","",""
"d3-animate-choice","107","305392","0.0-61.0-1.15","973","6112","23","Female","true","true","true","false","""event"",""trial"",""time""
""fullscreenenter"",""5"",""16435""
","
","
","""event"",""trial"",""time""
""fullscreenenter"",""5"",""16435""
","
","973","","49","","","3000","1","","","images/tutyellowplanet.jpg","images/tutalien4","images/tutalien3","images/tutrocket2","images/tutalien3","images/nothing.png","2","practice","true","1","common","0","2023-01-29 18:56:07.663"
"two-step-fixation","108","306400","0.0-61.0-2.15","973","6112","23","Female","true","true","true","false","""event"",""trial"",""time""
""fullscreenenter"",""5"",""16435""
","
","
","""event"",""trial"",""time""
""fullscreenenter"",""5"",""16435""
","
","","images/earth.jpg","","","","","","","","","","","","","","fixation","","","","","",""
"d3-animate-choice","109","308688","0.0-61.0-0.16","973","6112","23","Female","true","true","true","false","""event"",""trial"",""time""
""fullscreenenter"",""5"",""16435""
","
","
","""event"",""trial"",""time""
""fullscreenenter"",""5"",""16435""
","
","278.7000002861023","","49","","","3000","1","","","images/earth.jpg","images/tutrocket1","images/tutrocket2","null","images/tutrocket2","","1","practice","null","1","","",""
"d3-animate-choice","110","311008","0.0-61.0-1.16","973","6112","23","Female","true","true","true","false","""event"",""trial"",""time""
""fullscreenenter"",""5"",""16435""
","
","
","""event"",""trial"",""time""
""fullscreenenter"",""5"",""16435""
","
","310.59999990463257","","49","","","3000","1","","","images/tutyellowplanet.jpg","images/tutalien4","images/tutalien3","images/tutrocket2","images/tutalien3","images/t.png","2","practice","true","1","common","1","2023-01-29 18:56:13.280"
"two-step-fixation","111","312017","0.0-61.0-2.16","973","6112","23","Female","true","true","true","false","""event"",""trial"",""time""
""fullscreenenter"",""5"",""16435""
","
","
","""event"",""trial"",""time""
""fullscreenenter"",""5"",""16435""
","
","","images/earth.jpg","","","","","","","","","","","","","","fixation","","","","","",""
"d3-animate-choice","112","314320","0.0-61.0-0.17","973","6112","23","Female","true","true","true","false","""event"",""trial"",""time""
""fullscreenenter"",""5"",""16435""
","
","
","""event"",""trial"",""time""
""fullscreenenter"",""5"",""16435""
","
","293.90000009536743","","49","","","3000","1","","","images/earth.jpg","images/tutrocket1","images/tutrocket2","null","images/tutrocket2","","1","practice","null","1","","",""
"d3-animate-choice","113","317433","0.0-61.0-1.17","973","6112","23","Female","true","true","true","false","""event"",""trial"",""time""
""fullscreenenter"",""5"",""16435""
","
","
","""event"",""trial"",""time""
""fullscreenenter"",""5"",""16435""
","
","1102.3999996185303","","48","","","3000","1","","","images/tutgreenplanet.jpg","images/tutalien2","images/tutalien1","images/tutrocket2","images/tutalien2","images/nothing.png","2","practice","false","2","rare","0","2023-01-29 18:56:19.704"
"two-step-fixation","114","318439","0.0-61.0-2.17","973","6112","23","Female","true","true","true","false","""event"",""trial"",""time""
""fullscreenenter"",""5"",""16435""
","
","
","""event"",""trial"",""time""
""fullscreenenter"",""5"",""16435""
","
","","images/earth.jpg","","","","","","","","","","","","","","fixation","","","","","",""
"d3-animate-choice","115","320752","0.0-61.0-0.18","973","6112","23","Female","true","true","true","false","""event"",""trial"",""time""
""fullscreenenter"",""5"",""16435""
","
","
","""event"",""trial"",""time""
""fullscreenenter"",""5"",""16435""
","
","303.90000009536743","","49","","","3000","1","","","images/earth.jpg","images/tutrocket1","images/tutrocket2","null","images/tutrocket2","","1","practice","null","1","","",""
"d3-animate-choice","116","323345","0.0-61.0-1.18","973","6112","23","Female","true","true","true","false","""event"",""trial"",""time""
""fullscreenenter"",""5"",""16435""
","
","
","""event"",""trial"",""time""
""fullscreenenter"",""5"",""16435""
","
","582.3000001907349","","49","","","3000","1","","","images/tutyellowplanet.jpg","images/tutalien4","images/tutalien3","images/tutrocket2","images/tutalien3","images/nothing.png","2","practice","true","1","common","0","2023-01-29 18:56:25.616"
"two-step-fixation","117","324352","0.0-61.0-2.18","973","6112","23","Female","true","true","true","false","""event"",""trial"",""time""
""fullscreenenter"",""5"",""16435""
","
","
","""event"",""trial"",""time""
""fullscreenenter"",""5"",""16435""
","
","","images/earth.jpg","","","","","","","","","","","","","","fixation","","","","","",""
"d3-animate-choice","118","326633","0.0-61.0-0.19","973","6112","23","Female","true","true","true","false","""event"",""trial"",""time""
""fullscreenenter"",""5"",""16435""
","
","
","""event"",""trial"",""time""
""fullscreenenter"",""5"",""16435""
","
","270.6000003814697","","49","","","3000","1","","","images/earth.jpg","images/tutrocket1","images/tutrocket2","null","images/tutrocket2","","1","practice","null","1","","",""
"d3-animate-choice","119","328993","0.0-61.0-1.19","973","6112","23","Female","true","true","true","false","""event"",""trial"",""time""
""fullscreenenter"",""5"",""16435""
","
","
","""event"",""trial"",""time""
""fullscreenenter"",""5"",""16435""
","
","349.59999990463257","","48","","","3000","1","","","images/tutgreenplanet.jpg","images/tutalien2","images/tutalien1","images/tutrocket2","images/tutalien2","images/t.png","2","practice","false","2","rare","1","2023-01-29 18:56:31.264"
"two-step-fixation","120","330000","0.0-61.0-2.19","973","6112","23","Female","true","true","true","false","""event"",""trial"",""time""
""fullscreenenter"",""5"",""16435""
","
","
","""event"",""trial"",""time""
""fullscreenenter"",""5"",""16435""
","
","","images/earth.jpg","","","","","","","","","","","","","","fixation","","","","","",""
"d3-instructions","121","333512","0.0-62.0","973","6112","23","Female","true","true","true","false","""event"",""trial"",""time""
""fullscreenenter"",""5"",""16435""
","
","
","""event"",""trial"",""time""
""fullscreenenter"",""5"",""16435""
","
","","","","","","","","","","","","","","","","","","","","","",""
"audio-keyboard-response","122","338592","0.0-63.0","973","6112","23","Female","true","true","true","false","""event"",""trial"",""time""
""fullscreenenter"",""5"",""16435""
","
","
","""event"",""trial"",""time""
""fullscreenenter"",""5"",""16435""
","
","5080","audio/instructions/treasure_feedback.wav","32","","","","","","","","","","","","","","","","","","",""
"d3-instructions","123","372320","0.0-64.0","973","6112","23","Female","true","true","true","false","""event"",""trial"",""time""
""fullscreenenter"",""5"",""16435""
","
","
","""event"",""trial"",""time""
""fullscreenenter"",""5"",""16435""
","
","","","","","","","","","","","","","","","","","","","","","",""
"d3-instructions","124","378728","0.0-65.0","973","6112","23","Female","true","true","true","false","""event"",""trial"",""time""
""fullscreenenter"",""5"",""16435""
","
","
","""event"",""trial"",""time""
""fullscreenenter"",""5"",""16435""
","
","","","","","","","","","","","","","","","","","","","","","",""
"d3-instructions","125","380752","0.0-66.0","973","6112","23","Female","true","true","true","false","""event"",""trial"",""time""
""fullscreenenter"",""5"",""16435""
","
","
","""event"",""trial"",""time""
""fullscreenenter"",""5"",""16435""
","
","","","","","","","","","","","","","","","","","","","","","",""
"d3-instructions","126","382160","0.0-67.0","973","6112","23","Female","true","true","true","false","""event"",""trial"",""time""
""fullscreenenter"",""5"",""16435""
","
","
","""event"",""trial"",""time""
""fullscreenenter"",""5"",""16435""
","
","","","","","","","","","","","","","","","","","","","","","",""
"d3-instructions","127","383672","0.0-68.0","973","6112","23","Female","true","true","true","false","""event"",""trial"",""time""
""fullscreenenter"",""5"",""16435""
","
","
","""event"",""trial"",""time""
""fullscreenenter"",""5"",""16435""
","
","","","","","","","","","","","","","","","","","","","","","",""
"instructions-quiz","128","387525","0.0-69.0","973","6112","23","Female","true","true","true","false","""event"",""trial"",""time""
""fullscreenenter"",""5"",""16435""
","
","
","""event"",""trial"",""time""
""fullscreenenter"",""5"",""16435""
","
","3850.7999997138977","audio/quiz/Q1_Prompt.wav","","1","","","","","","","","","","","","","","","","","",""
"audio-keyboard-response","129","389032","0.0-70.0","973","6112","23","Female","true","true","true","false","""event"",""trial"",""time""
""fullscreenenter"",""5"",""16435""
","
","
","""event"",""trial"",""time""
""fullscreenenter"",""5"",""16435""
","
","1499","audio/quiz/Q1_Correct.wav","32","","","","","","","","","","","","","","","","","","",""
"instructions-quiz","130","392132","0.0-71.0","973","6112","23","Female","true","true","true","false","""event"",""trial"",""time""
""fullscreenenter"",""5"",""16435""
","
","
","""event"",""trial"",""time""
""fullscreenenter"",""5"",""16435""
","
","3098.800000190735","audio/quiz/Q2_Prompt.wav","","0","","","","","","","","","","","","","","","","","",""
"audio-keyboard-response","131","392712","0.0-72.0","973","6112","23","Female","true","true","true","false","""event"",""trial"",""time""
""fullscreenenter"",""5"",""16435""
","
","
","""event"",""trial"",""time""
""fullscreenenter"",""5"",""16435""
","
","579","audio/quiz/Q2_Correct.wav","32","","","","","","","","","","","","","","","","","","",""
"instructions-quiz","132","394997","0.0-73.0","973","6112","23","Female","true","true","true","false","""event"",""trial"",""time""
""fullscreenenter"",""5"",""16435""
","
","
","""event"",""trial"",""time""
""fullscreenenter"",""5"",""16435""
","
","2283","audio/quiz/Q3_Prompt.wav","","1","","","","","","","","","","","","","","","","","",""
"audio-keyboard-response","133","395344","0.0-74.0","973","6112","23","Female","true","true","true","false","""event"",""trial"",""time""
""fullscreenenter"",""5"",""16435""
","
","
","""event"",""trial"",""time""
""fullscreenenter"",""5"",""16435""
","
","339","audio/quiz/Q3_Correct.wav","32","","","","","","","","","","","","","","","","","","",""
"d3-instructions","134","399464","0.0-75.0","973","6112","23","Female","true","true","true","false","""event"",""trial"",""time""
""fullscreenenter"",""5"",""16435""
","
","
","""event"",""trial"",""time""
""fullscreenenter"",""5"",""16435""
","
","","","","","","","","","","","","","","","","","","","","","",""
"pavlovia","135","399465","0.0-76.0","973","6112","23","Female","true","true","true","false","""event"",""trial"",""time""
""fullscreenenter"",""5"",""16435""
","
","
","""event"",""trial"",""time""
""fullscreenenter"",""5"",""16435""
","
","","","","","","","","","","","","","","","","","","","","","",""
"d3-animate-choice","136","402897","0.0-77.0-0.0","973","6112","23","Female","true","true","true","false","""event"",""trial"",""time""
""fullscreenenter"",""5"",""16435""
","
","
","""event"",""trial"",""time""
""fullscreenenter"",""5"",""16435""
","
","1420.7000002861023","","49","","","3000","1","","","images/earth.jpg","images/rocket2","images/rocket1","null","images/rocket1","","1","real","null","1","","",""
"d3-animate-choice","137","405345","0.0-77.0-1.0","973","6112","23","Female","true","true","true","false","""event"",""trial"",""time""
""fullscreenenter"",""5"",""16435""
","
","
","""event"",""trial"",""time""
""fullscreenenter"",""5"",""16435""
","
","437.2000002861023","","49","","","3000","1","","","images/redplanet1.jpg","images/alien2","images/alien1","images/rocket1","images/alien1","images/nothing.png","2","real","true","1","common","0","2023-01-29 18:57:47.616"
"two-step-fixation","138","406348","0.0-77.0-2.0","973","6112","23","Female","true","true","true","false","""event"",""trial"",""time""
""fullscreenenter"",""5"",""16435""
","
","
","""event"",""trial"",""time""
""fullscreenenter"",""5"",""16435""
","
","","images/earth.jpg","","","","","","","","","","","","","","fixation","","","","","",""
"d3-animate-choice","139","408656","0.0-77.0-0.1","973","6112","23","Female","true","true","true","false","""event"",""trial"",""time""
""fullscreenenter"",""5"",""16435""
","
","
","""event"",""trial"",""time""
""fullscreenenter"",""5"",""16435""
","
","299","","49","","","3000","1","","","images/earth.jpg","images/rocket2","images/rocket1","null","images/rocket1","","1","real","null","1","","",""
"d3-animate-choice","140","411297","0.0-77.0-1.1","973","6112","23","Female","true","true","true","false","""event"",""trial"",""time""
""fullscreenenter"",""5"",""16435""
","
","
","""event"",""trial"",""time""
""fullscreenenter"",""5"",""16435""
","
","629.5","","48","","","3000","1","","","images/redplanet1.jpg","images/alien2","images/alien1","images/rocket1","images/alien2","images/t.png","2","real","true","2","common","1","2023-01-29 18:57:53.568"
"two-step-fixation","141","412305","0.0-77.0-2.1","973","6112","23","Female","true","true","true","false","""event"",""trial"",""time""
""fullscreenenter"",""5"",""16435""
","
","
","""event"",""trial"",""time""
""fullscreenenter"",""5"",""16435""
","
","","images/earth.jpg","","","","","","","","","","","","","","fixation","","","","","",""
"d3-animate-choice","142","414592","0.0-77.0-0.2","973","6112","23","Female","true","true","true","false","""event"",""trial"",""time""
""fullscreenenter"",""5"",""16435""
","
","
","""event"",""trial"",""time""
""fullscreenenter"",""5"",""16435""
","
","277.40000009536743","","49","","","3000","1","","","images/earth.jpg","images/rocket2","images/rocket1","null","images/rocket1","","1","real","null","1","","",""
"d3-animate-choice","143","417685","0.0-77.0-1.2","973","6112","23","Female","true","true","true","false","""event"",""trial"",""time""
""fullscreenenter"",""5"",""16435""
","
","
","""event"",""trial"",""time""
""fullscreenenter"",""5"",""16435""
","
","1086.4000000953674","","49","","","3000","1","","","images/purpleplanet.jpg","images/alien4","images/alien3","images/rocket1","images/alien3","images/t.png","2","real","false","1","rare","1","2023-01-29 18:57:59.956"
"two-step-fixation","144","418689","0.0-77.0-2.2","973","6112","23","Female","true","true","true","false","""event"",""trial"",""time""
""fullscreenenter"",""5"",""16435""
","
","
","""event"",""trial"",""time""
""fullscreenenter"",""5"",""16435""
","
","","images/earth.jpg","","","","","","","","","","","","","","fixation","","","","","",""
"d3-animate-choice","145","421009","0.0-77.0-0.3","973","6112","23","Female","true","true","true","false","""event"",""trial"",""time""
""fullscreenenter"",""5"",""16435""
","
","
","""event"",""trial"",""time""
""fullscreenenter"",""5"",""16435""
","
","309.80000019073486","","49","","","3000","1","","","images/earth.jpg","images/rocket2","images/rocket1","null","images/rocket1","","1","real","null","1","","",""
"d3-animate-choice","146","423832","0.0-77.0-1.3","973","6112","23","Female","true","true","true","false","""event"",""trial"",""time""
""fullscreenenter"",""5"",""16435""
","
","
","""event"",""trial"",""time""
""fullscreenenter"",""5"",""16435""
","
","813.3000001907349","","48","","","3000","1","","","images/redplanet1.jpg","images/alien2","images/alien1","images/rocket1","images/alien2","images/t.png","2","real","true","2","common","1","2023-01-29 18:58:06.103"
"two-step-fixation","147","424841","0.0-77.0-2.3","973","6112","23","Female","true","true","true","false","""event"",""trial"",""time""
""fullscreenenter"",""5"",""16435""
","
","
","""event"",""trial"",""time""
""fullscreenenter"",""5"",""16435""
","
","","images/earth.jpg","","","","","","","","","","","","","","fixation","","","","","",""
"d3-animate-choice","148","427152","0.0-77.0-0.4","973","6112","23","Female","true","true","true","false","""event"",""trial"",""time""
""fullscreenenter"",""5"",""16435""
","
","
","""event"",""trial"",""time""
""fullscreenenter"",""5"",""16435""
","
","300.40000009536743","","49","","","3000","1","","","images/earth.jpg","images/rocket2","images/rocket1","null","images/rocket1","","1","real","null","1","","",""
"d3-animate-choice","149","429705","0.0-77.0-1.4","973","6112","23","Female","true","true","true","false","""event"",""trial"",""time""
""fullscreenenter"",""5"",""16435""
","
","
","""event"",""trial"",""time""
""fullscreenenter"",""5"",""16435""
","
","542","","49","","","3000","1","","","images/purpleplanet.jpg","images/alien4","images/alien3","images/rocket1","images/alien3","images/nothing.png","2","real","false","1","rare","0","2023-01-29 18:58:11.976"
"two-step-fixation","150","430713","0.0-77.0-2.4","973","6112","23","Female","true","true","true","false","""event"",""trial"",""time""
""fullscreenenter"",""5"",""16435""
","
","
","""event"",""trial"",""time""
""fullscreenenter"",""5"",""16435""
","
","","images/earth.jpg","","","","","","","","","","","","","","fixation","","","","","",""
"d3-animate-choice","151","432984","0.0-77.0-0.5","973","6112","23","Female","true","true","true","false","""event"",""trial"",""time""
""fullscreenenter"",""5"",""16435""
","
","
","""event"",""trial"",""time""
""fullscreenenter"",""5"",""16435""
","
","262.19999980926514","","49","","","3000","1","","","images/earth.jpg","images/rocket2","images/rocket1","null","images/rocket1","","1","real","null","1","","",""
"d3-animate-choice","152","435424","0.0-77.0-1.5","973","6112","23","Female","true","true","true","false","""event"",""trial"",""time""
""fullscreenenter"",""5"",""16435""
","
","
","""event"",""trial"",""time""
""fullscreenenter"",""5"",""16435""
","
","429.69999980926514","","48","","","3000","1","","","images/redplanet1.jpg","images/alien2","images/alien1","images/rocket1","images/alien2","images/t.png","2","real","true","2","common","1","2023-01-29 18:58:17.695"
"two-step-fixation","153","436433","0.0-77.0-2.5","973","6112","23","Female","true","true","true","false","""event"",""trial"",""time""
""fullscreenenter"",""5"",""16435""
","
","
","""event"",""trial"",""time""
""fullscreenenter"",""5"",""16435""
","
","","images/earth.jpg","","","","","","","","","","","","","","fixation","","","","","",""
"d3-animate-choice","154","438724","0.0-77.0-0.6","973","6112","23","Female","true","true","true","false","""event"",""trial"",""time""
""fullscreenenter"",""5"",""16435""
","
","
","""event"",""trial"",""time""
""fullscreenenter"",""5"",""16435""
","
","285.19999980926514","","49","","","3000","1","","","images/earth.jpg","images/rocket2","images/rocket1","null","images/rocket1","","1","real","null","1","","",""
"d3-animate-choice","155","441330","0.0-77.0-1.6","973","6112","23","Female","true","true","true","false","""event"",""trial"",""time""
""fullscreenenter"",""5"",""16435""
","
","
","""event"",""trial"",""time""
""fullscreenenter"",""5"",""16435""
","
","594.3000001907349","","48","","","3000","1","","","images/redplanet1.jpg","images/alien2","images/alien1","images/rocket1","images/alien2","images/t.png","2","real","true","2","common","1","2023-01-29 18:58:23.601"
"two-step-fixation","156","442336","0.0-77.0-2.6","973","6112","23","Female","true","true","true","false","""event"",""trial"",""time""
""fullscreenenter"",""5"",""16435""
","
","
","""event"",""trial"",""time""
""fullscreenenter"",""5"",""16435""
","
","","images/earth.jpg","","","","","","","","","","","","","","fixation","","","","","",""
"d3-animate-choice","157","444626","0.0-77.0-0.7","973","6112","23","Female","true","true","true","false","""event"",""trial"",""time""
""fullscreenenter"",""5"",""16435""
","
","
","""event"",""trial"",""time""
""fullscreenenter"",""5"",""16435""
","
","278.19999980926514","","49","","","3000","1","","","images/earth.jpg","images/rocket2","images/rocket1","null","images/rocket1","","1","real","null","1","","",""
"d3-animate-choice","158","447488","0.0-77.0-1.7","973","6112","23","Female","true","true","true","false","""event"",""trial"",""time""
""fullscreenenter"",""5"",""16435""
","
","
","""event"",""trial"",""time""
""fullscreenenter"",""5"",""16435""
","
","852.1999998092651","","49","","","3000","1","","","images/purpleplanet.jpg","images/alien4","images/alien3","images/rocket1","images/alien3","images/nothing.png","2","real","false","1","rare","0","2023-01-29 18:58:29.759"
"two-step-fixation","159","448494","0.0-77.0-2.7","973","6112","23","Female","true","true","true","false","""event"",""trial"",""time""
""fullscreenenter"",""5"",""16435""
","
","
","""event"",""trial"",""time""
""fullscreenenter"",""5"",""16435""
","
","","images/earth.jpg","","","","","","","","","","","","","","fixation","","","","","",""
"d3-animate-choice","160","450778","0.0-77.0-0.8","973","6112","23","Female","true","true","true","false","""event"",""trial"",""time""
""fullscreenenter"",""5"",""16435""
","
","
","""event"",""trial"",""time""
""fullscreenenter"",""5"",""16435""
","
","279.80000019073486","","49","","","3000","1","","","images/earth.jpg","images/rocket2","images/rocket1","null","images/rocket1","","1","real","null","1","","",""
"d3-animate-choice","161","453412","0.0-77.0-1.8","973","6112","23","Female","true","true","true","false","""event"",""trial"",""time""
""fullscreenenter"",""5"",""16435""
","
","
","""event"",""trial"",""time""
""fullscreenenter"",""5"",""16435""
","
","628.3000001907349","","48","","","3000","1","","","images/purpleplanet.jpg","images/alien4","images/alien3","images/rocket1","images/alien4","images/nothing.png","2","real","false","2","rare","0","2023-01-29 18:58:35.683"
"two-step-fixation","162","454414","0.0-77.0-2.8","973","6112","23","Female","true","true","true","false","""event"",""trial"",""time""
""fullscreenenter"",""5"",""16435""
","
","
","""event"",""trial"",""time""
""fullscreenenter"",""5"",""16435""
","
","","images/earth.jpg","","","","","","","","","","","","","","fixation","","","","","",""
"d3-animate-choice","163","456714","0.0-77.0-0.9","973","6112","23","Female","true","true","true","false","""event"",""trial"",""time""
""fullscreenenter"",""5"",""16435""
","
","
","""event"",""trial"",""time""
""fullscreenenter"",""5"",""16435""
","
","296.40000009536743","","49","","","3000","1","","","images/earth.jpg","images/rocket2","images/rocket1","null","images/rocket1","","1","real","null","1","","",""
"d3-animate-choice","164","459225","0.0-77.0-1.9","973","6112","23","Female","true","true","true","false","""event"",""trial"",""time""
""fullscreenenter"",""5"",""16435""
","
","
","""event"",""trial"",""time""
""fullscreenenter"",""5"",""16435""
","
","508.40000009536743","","48","","","3000","1","","","images/redplanet1.jpg","images/alien2","images/alien1","images/rocket1","images/alien2","images/t.png","2","real","true","2","common","1","2023-01-29 18:58:41.496"
"two-step-fixation","165","460231","0.0-77.0-2.9","973","6112","23","Female","true","true","true","false","""event"",""trial"",""time""
""fullscreenenter"",""5"",""16435""
","
","
","""event"",""trial"",""time""
""fullscreenenter"",""5"",""16435""
","
","","images/earth.jpg","","","","","","","","","","","","","","fixation","","","","","",""
"d3-animate-choice","166","462545","0.0-77.0-0.10","973","6112","23","Female","true","true","true","false","""event"",""trial"",""time""
""fullscreenenter"",""5"",""16435""
","
","
","""event"",""trial"",""time""
""fullscreenenter"",""5"",""16435""
","
","311.19999980926514","","49","","","3000","1","","","images/earth.jpg","images/rocket2","images/rocket1","null","images/rocket1","","1","real","null","1","","",""
"d3-animate-choice","167","464936","0.0-77.0-1.10","973","6112","23","Female","true","true","true","false","""event"",""trial"",""time""
""fullscreenenter"",""5"",""16435""
","
","
","""event"",""trial"",""time""
""fullscreenenter"",""5"",""16435""
","
","389.59999990463257","","48","","","3000","1","","","images/purpleplanet.jpg","images/alien4","images/alien3","images/rocket1","images/alien4","images/t.png","2","real","false","2","rare","1","2023-01-29 18:58:47.207"
"two-step-fixation","168","465945","0.0-77.0-2.10","973","6112","23","Female","true","true","true","false","""event"",""trial"",""time""
""fullscreenenter"",""5"",""16435""
","
","
","""event"",""trial"",""time""
""fullscreenenter"",""5"",""16435""
","
","","images/earth.jpg","","","","","","","","","","","","","","fixation","","","","","",""
"d3-animate-choice","169","468257","0.0-77.0-0.11","973","6112","23","Female","true","true","true","false","""event"",""trial"",""time""
""fullscreenenter"",""5"",""16435""
","
","
","""event"",""trial"",""time""
""fullscreenenter"",""5"",""16435""
","
","301.2000002861023","","49","","","3000","1","","","images/earth.jpg","images/rocket2","images/rocket1","null","images/rocket1","","1","real","null","1","","",""
"d3-animate-choice","170","470801","0.0-77.0-1.11","973","6112","23","Female","true","true","true","false","""event"",""trial"",""time""
""fullscreenenter"",""5"",""16435""
","
","
","""event"",""trial"",""time""
""fullscreenenter"",""5"",""16435""
","
","533.8999996185303","","48","","","3000","1","","","images/redplanet1.jpg","images/alien2","images/alien1","images/rocket1","images/alien2","images/nothing.png","2","real","true","2","common","0","2023-01-29 18:58:53.072"
"two-step-fixation","171","471810","0.0-77.0-2.11","973","6112","23","Female","true","true","true","false","""event"",""trial"",""time""
""fullscreenenter"",""5"",""16435""
","
","
","""event"",""trial"",""time""
""fullscreenenter"",""5"",""16435""
","
","","images/earth.jpg","","","","","","","","","","","","","","fixation","","","","","",""
"d3-animate-choice","172","473968","0.0-77.0-0.12","973","6112","23","Female","true","true","true","false","""event"",""trial"",""time""
""fullscreenenter"",""5"",""16435""
","
","
","""event"",""trial"",""time""
""fullscreenenter"",""5"",""16435""
","
","147.90000009536743","","49","","","3000","1","","","images/earth.jpg","images/rocket2","images/rocket1","null","images/rocket1","","1","real","null","1","","",""
"d3-animate-choice","173","476416","0.0-77.0-1.12","973","6112","23","Female","true","true","true","false","""event"",""trial"",""time""
""fullscreenenter"",""5"",""16435""
","
","
","""event"",""trial"",""time""
""fullscreenenter"",""5"",""16435""
","
","445.5","","48","","","3000","1","","","images/purpleplanet.jpg","images/alien4","images/alien3","images/rocket1","images/alien4","images/t.png","2","real","false","2","rare","1","2023-01-29 18:58:58.687"
"two-step-fixation","174","477420","0.0-77.0-2.12","973","6112","23","Female","true","true","true","false","""event"",""trial"",""time""
""fullscreenenter"",""5"",""16435""
","
","
","""event"",""trial"",""time""
""fullscreenenter"",""5"",""16435""
","
","","images/earth.jpg","","","","","","","","","","","","","","fixation","","","","","",""
"d3-animate-choice","175","479738","0.0-77.0-0.13","973","6112","23","Female","true","true","true","false","""event"",""trial"",""time""
""fullscreenenter"",""5"",""16435""
","
","
","""event"",""trial"",""time""
""fullscreenenter"",""5"",""16435""
","
","314.3999996185303","","49","","","3000","1","","","images/earth.jpg","images/rocket2","images/rocket1","null","images/rocket1","","1","real","null","1","","",""
"d3-animate-choice","176","482136","0.0-77.0-1.13","973","6112","23","Female","true","true","true","false","""event"",""trial"",""time""
""fullscreenenter"",""5"",""16435""
","
","
","""event"",""trial"",""time""
""fullscreenenter"",""5"",""16435""
","
","396.2999997138977","","48","","","3000","1","","","images/redplanet1.jpg","images/alien2","images/alien1","images/rocket1","images/alien2","images/t.png","2","real","true","2","common","1","2023-01-29 18:59:04.407"
"two-step-fixation","177","483144","0.0-77.0-2.13","973","6112","23","Female","true","true","true","false","""event"",""trial"",""time""
""fullscreenenter"",""5"",""16435""
","
","
","""event"",""trial"",""time""
""fullscreenenter"",""5"",""16435""
","
","","images/earth.jpg","","","","","","","","","","","","","","fixation","","","","","",""
"d3-animate-choice","178","485456","0.0-77.0-0.14","973","6112","23","Female","true","true","true","false","""event"",""trial"",""time""
""fullscreenenter"",""5"",""16435""
","
","
","""event"",""trial"",""time""
""fullscreenenter"",""5"",""16435""
","
","309.69999980926514","","49","","","3000","1","","","images/earth.jpg","images/rocket2","images/rocket1","null","images/rocket1","","1","real","null","1","","",""
"d3-animate-choice","179","487841","0.0-77.0-1.14","973","6112","23","Female","true","true","true","false","""event"",""trial"",""time""
""fullscreenenter"",""5"",""16435""
","
","
","""event"",""trial"",""time""
""fullscreenenter"",""5"",""16435""
","
","375.30000019073486","","48","","","3000","1","","","images/purpleplanet.jpg","images/alien4","images/alien3","images/rocket1","images/alien4","images/t.png","2","real","false","2","rare","1","2023-01-29 18:59:10.112"
"two-step-fixation","180","488850","0.0-77.0-2.14","973","6112","23","Female","true","true","true","false","""event"",""trial"",""time""
""fullscreenenter"",""5"",""16435""
","
","
","""event"",""trial"",""time""
""fullscreenenter"",""5"",""16435""
","
","","images/earth.jpg","","","","","","","","","","","","","","fixation","","","","","",""
"d3-animate-choice","181","491144","0.0-77.0-0.15","973","6112","23","Female","true","true","true","false","""event"",""trial"",""time""
""fullscreenenter"",""5"",""16435""
","
","
","""event"",""trial"",""time""
""fullscreenenter"",""5"",""16435""
","
","284.40000009536743","","49","","","3000","1","","","images/earth.jpg","images/rocket2","images/rocket1","null","images/rocket1","","1","real","null","1","","",""
"d3-animate-choice","182","493472","0.0-77.0-1.15","973","6112","23","Female","true","true","true","false","""event"",""trial"",""time""
""fullscreenenter"",""5"",""16435""
","
","
","""event"",""trial"",""time""
""fullscreenenter"",""5"",""16435""
","
","325.30000019073486","","48","","","3000","1","","","images/redplanet1.jpg","images/alien2","images/alien1","images/rocket1","images/alien2","images/t.png","2","real","true","2","common","1","2023-01-29 18:59:15.743"
"two-step-fixation","183","494475","0.0-77.0-2.15","973","6112","23","Female","true","true","true","false","""event"",""trial"",""time""
""fullscreenenter"",""5"",""16435""
","
","
","""event"",""trial"",""time""
""fullscreenenter"",""5"",""16435""
","
","","images/earth.jpg","","","","","","","","","","","","","","fixation","","","","","",""
"d3-animate-choice","184","496801","0.0-77.0-0.16","973","6112","23","Female","true","true","true","false","""event"",""trial"",""time""
""fullscreenenter"",""5"",""16435""
","
","
","""event"",""trial"",""time""
""fullscreenenter"",""5"",""16435""
","
","322.5","","49","","","3000","1","","","images/earth.jpg","images/rocket2","images/rocket1","null","images/rocket1","","1","real","null","1","","",""
"d3-animate-choice","185","499121","0.0-77.0-1.16","973","6112","23","Female","true","true","true","false","""event"",""trial"",""time""
""fullscreenenter"",""5"",""16435""
","
","
","""event"",""trial"",""time""
""fullscreenenter"",""5"",""16435""
","
","317.19999980926514","","48","","","3000","1","","","images/purpleplanet.jpg","images/alien4","images/alien3","images/rocket1","images/alien4","images/t.png","2","real","false","2","rare","1","2023-01-29 18:59:21.393"
"two-step-fixation","186","500128","0.0-77.0-2.16","973","6112","23","Female","true","true","true","false","""event"",""trial"",""time""
""fullscreenenter"",""5"",""16435""
","
","
","""event"",""trial"",""time""
""fullscreenenter"",""5"",""16435""
","
","","images/earth.jpg","","","","","","","","","","","","","","fixation","","","","","",""
"d3-animate-choice","187","502393","0.0-77.0-0.17","973","6112","23","Female","true","true","true","false","""event"",""trial"",""time""
""fullscreenenter"",""5"",""16435""
","
","
","""event"",""trial"",""time""
""fullscreenenter"",""5"",""16435""
","
","253.39999961853027","","49","","","3000","1","","","images/earth.jpg","images/rocket2","images/rocket1","null","images/rocket1","","1","real","null","1","","",""
"d3-animate-choice","188","504705","0.0-77.0-1.17","973","6112","23","Female","true","true","true","false","""event"",""trial"",""time""
""fullscreenenter"",""5"",""16435""
","
","
","""event"",""trial"",""time""
""fullscreenenter"",""5"",""16435""
","
","307.5","","48","","","3000","1","","","images/purpleplanet.jpg","images/alien4","images/alien3","images/rocket1","images/alien4","images/nothing.png","2","real","false","2","rare","0","2023-01-29 18:59:26.976"
"two-step-fixation","189","505712","0.0-77.0-2.17","973","6112","23","Female","true","true","true","false","""event"",""trial"",""time""
""fullscreenenter"",""5"",""16435""
","
","
","""event"",""trial"",""time""
""fullscreenenter"",""5"",""16435""
","
","","images/earth.jpg","","","","","","","","","","","","","","fixation","","","","","",""
"d3-animate-choice","190","507984","0.0-77.0-0.18","973","6112","23","Female","true","true","true","false","""event"",""trial"",""time""
""fullscreenenter"",""5"",""16435""
","
","
","""event"",""trial"",""time""
""fullscreenenter"",""5"",""16435""
","
","262.09999990463257","","49","","","3000","1","","","images/earth.jpg","images/rocket2","images/rocket1","null","images/rocket1","","1","real","null","1","","",""
"d3-animate-choice","191","510208","0.0-77.0-1.18","973","6112","23","Female","true","true","true","false","""event"",""trial"",""time""
""fullscreenenter"",""5"",""16435""
","
","
","""event"",""trial"",""time""
""fullscreenenter"",""5"",""16435""
","
","215.09999990463257","","48","","","3000","1","","","images/purpleplanet.jpg","images/alien4","images/alien3","images/rocket1","images/alien4","images/t.png","2","real","false","2","rare","1","2023-01-29 18:59:32.479"
"two-step-fixation","192","511215","0.0-77.0-2.18","973","6112","23","Female","true","true","true","false","""event"",""trial"",""time""
""fullscreenenter"",""5"",""16435""
","
","
","""event"",""trial"",""time""
""fullscreenenter"",""5"",""16435""
","
","","images/earth.jpg","","","","","","","","","","","","","","fixation","","","","","",""
"d3-animate-choice","193","513345","0.0-77.0-0.19","973","6112","23","Female","true","true","true","false","""event"",""trial"",""time""
""fullscreenenter"",""5"",""16435""
","
","
","""event"",""trial"",""time""
""fullscreenenter"",""5"",""16435""
","
","118.89999961853027","","49","","","3000","1","","","images/earth.jpg","images/rocket2","images/rocket1","null","images/rocket1","","1","real","null","1","","",""
"d3-animate-choice","194","515585","0.0-77.0-1.19","973","6112","23","Female","true","true","true","false","""event"",""trial"",""time""
""fullscreenenter"",""5"",""16435""
","
","
","""event"",""trial"",""time""
""fullscreenenter"",""5"",""16435""
","
","236.2000002861023","","48","","","3000","1","","","images/redplanet1.jpg","images/alien2","images/alien1","images/rocket1","images/alien2","images/nothing.png","2","real","true","2","common","0","2023-01-29 18:59:37.856"
"two-step-fixation","195","516593","0.0-77.0-2.19","973","6112","23","Female","true","true","true","false","""event"",""trial"",""time""
""fullscreenenter"",""5"",""16435""
","
","
","""event"",""trial"",""time""
""fullscreenenter"",""5"",""16435""
","
","","images/earth.jpg","","","","","","","","","","","","","","fixation","","","","","",""
"d3-animate-choice","196","518866","0.0-77.0-0.20","973","6112","23","Female","true","true","true","false","""event"",""trial"",""time""
""fullscreenenter"",""5"",""16435""
","
","
","""event"",""trial"",""time""
""fullscreenenter"",""5"",""16435""
","
","269","","49","","","3000","1","","","images/earth.jpg","images/rocket2","images/rocket1","null","images/rocket1","","1","real","null","1","","",""
"d3-animate-choice","197","521184","0.0-77.0-1.20","973","6112","23","Female","true","true","true","false","""event"",""trial"",""time""
""fullscreenenter"",""5"",""16435""
","
","
","""event"",""trial"",""time""
""fullscreenenter"",""5"",""16435""
","
","316.2000002861023","","48","","","3000","1","","","images/purpleplanet.jpg","images/alien4","images/alien3","images/rocket1","images/alien4","images/nothing.png","2","real","false","2","rare","0","2023-01-29 18:59:43.455"
"two-step-fixation","198","522193","0.0-77.0-2.20","973","6112","23","Female","true","true","true","false","""event"",""trial"",""time""
""fullscreenenter"",""5"",""16435""
","
","
","""event"",""trial"",""time""
""fullscreenenter"",""5"",""16435""
","
","","images/earth.jpg","","","","","","","","","","","","","","fixation","","","","","",""
"d3-animate-choice","199","524361","0.0-77.0-0.21","973","6112","23","Female","true","true","true","false","""event"",""trial"",""time""
""fullscreenenter"",""5"",""16435""
","
","
","""event"",""trial"",""time""
""fullscreenenter"",""5"",""16435""
","
","157","","49","","","3000","1","","","images/earth.jpg","images/rocket2","images/rocket1","null","images/rocket1","","1","real","null","1","","",""
"d3-animate-choice","200","527113","0.0-77.0-1.21","973","6112","23","Female","true","true","true","false","""event"",""trial"",""time""
""fullscreenenter"",""5"",""16435""
","
","
","""event"",""trial"",""time""
""fullscreenenter"",""5"",""16435""
","
","748.3000001907349","","48","","","3000","1","","","images/purpleplanet.jpg","images/alien4","images/alien3","images/rocket1","images/alien4","images/t.png","2","real","false","2","rare","1","2023-01-29 18:59:49.384"
"two-step-fixation","201","528119","0.0-77.0-2.21","973","6112","23","Female","true","true","true","false","""event"",""trial"",""time""
""fullscreenenter"",""5"",""16435""
","
","
","""event"",""trial"",""time""
""fullscreenenter"",""5"",""16435""
","
","","images/earth.jpg","","","","","","","","","","","","","","fixation","","","","","",""
"d3-animate-choice","202","530537","0.0-77.0-0.22","973","6112","23","Female","true","true","true","false","""event"",""trial"",""time""
""fullscreenenter"",""5"",""16435""
","
","
","""event"",""trial"",""time""
""fullscreenenter"",""5"",""16435""
","
","414.7000002861023","","49","","","3000","1","","","images/earth.jpg","images/rocket2","images/rocket1","null","images/rocket1","","1","real","null","1","","",""
"d3-animate-choice","203","533064","0.0-77.0-1.22","973","6112","23","Female","true","true","true","false","""event"",""trial"",""time""
""fullscreenenter"",""5"",""16435""
","
","
","""event"",""trial"",""time""
""fullscreenenter"",""5"",""16435""
","
","525.3000001907349","","49","","","3000","1","","","images/redplanet1.jpg","images/alien2","images/alien1","images/rocket1","images/alien1","images/nothing.png","2","real","true","1","common","0","2023-01-29 18:59:55.335"
"two-step-fixation","204","534071","0.0-77.0-2.22","973","6112","23","Female","true","true","true","false","""event"",""trial"",""time""
""fullscreenenter"",""5"",""16435""
","
","
","""event"",""trial"",""time""
""fullscreenenter"",""5"",""16435""
","
","","images/earth.jpg","","","","","","","","","","","","","","fixation","","","","","",""
"d3-animate-choice","205","536449","0.0-77.0-0.23","973","6112","23","Female","true","true","true","false","""event"",""trial"",""time""
""fullscreenenter"",""5"",""16435""
","
","
","""event"",""trial"",""time""
""fullscreenenter"",""5"",""16435""
","
","374.90000009536743","","49","","","3000","1","","","images/earth.jpg","images/rocket2","images/rocket1","null","images/rocket1","","1","real","null","1","","",""
"d3-animate-choice","206","538833","0.0-77.0-1.23","973","6112","23","Female","true","true","true","false","""event"",""trial"",""time""
""fullscreenenter"",""5"",""16435""
","
","
","""event"",""trial"",""time""
""fullscreenenter"",""5"",""16435""
","
","380.7000002861023","","48","","","3000","1","","","images/purpleplanet.jpg","images/alien4","images/alien3","images/rocket1","images/alien4","images/t.png","2","real","false","2","rare","1","2023-01-29 19:00:01.104"
"two-step-fixation","207","539840","0.0-77.0-2.23","973","6112","23","Female","true","true","true","false","""event"",""trial"",""time""
""fullscreenenter"",""5"",""16435""
","
","
","""event"",""trial"",""time""
""fullscreenenter"",""5"",""16435""
","
","","images/earth.jpg","","","","","","","","","","","","","","fixation","","","","","",""
"d3-animate-choice","208","542113","0.0-77.0-0.24","973","6112","23","Female","true","true","true","false","""event"",""trial"",""time""
""fullscreenenter"",""5"",""16435""
","
","
","""event"",""trial"",""time""
""fullscreenenter"",""5"",""16435""
","
","270.2000002861023","","49","","","3000","1","","","images/earth.jpg","images/rocket2","images/rocket1","null","images/rocket1","","1","real","null","1","","",""
"d3-animate-choice","209","544513","0.0-77.0-1.24","973","6112","23","Female","true","true","true","false","""event"",""trial"",""time""
""fullscreenenter"",""5"",""16435""
","
","
","""event"",""trial"",""time""
""fullscreenenter"",""5"",""16435""
","
","396.40000009536743","","48","","","3000","1","","","images/redplanet1.jpg","images/alien2","images/alien1","images/rocket1","images/alien2","images/nothing.png","2","real","true","2","common","0","2023-01-29 19:00:06.784"
"two-step-fixation","210","545520","0.0-77.0-2.24","973","6112","23","Female","true","true","true","false","""event"",""trial"",""time""
""fullscreenenter"",""5"",""16435""
","
","
","""event"",""trial"",""time""
""fullscreenenter"",""5"",""16435""
","
","","images/earth.jpg","","","","","","","","","","","","","","fixation","","","","","",""
"d3-animate-choice","211","547568","0.0-77.0-0.25","973","6112","23","Female","true","true","true","false","""event"",""trial"",""time""
""fullscreenenter"",""5"",""16435""
","
","
","""event"",""trial"",""time""
""fullscreenenter"",""5"",""16435""
","
","45.69999980926514","","49","","","3000","1","","","images/earth.jpg","images/rocket2","images/rocket1","null","images/rocket1","","1","real","null","1","","",""
"d3-animate-choice","212","549865","0.0-77.0-1.25","973","6112","23","Female","true","true","true","false","""event"",""trial"",""time""
""fullscreenenter"",""5"",""16435""
","
","
","""event"",""trial"",""time""
""fullscreenenter"",""5"",""16435""
","
","293.2999997138977","","48","","","3000","1","","","images/redplanet1.jpg","images/alien2","images/alien1","images/rocket1","images/alien2","images/t.png","2","real","true","2","common","1","2023-01-29 19:00:12.136"
"two-step-fixation","213","550873","0.0-77.0-2.25","973","6112","23","Female","true","true","true","false","""event"",""trial"",""time""
""fullscreenenter"",""5"",""16435""
","
","
","""event"",""trial"",""time""
""fullscreenenter"",""5"",""16435""
","
","","images/earth.jpg","","","","","","","","","","","","","","fixation","","","","","",""
"d3-animate-choice","214","553112","0.0-77.0-0.26","973","6112","23","Female","true","true","true","false","""event"",""trial"",""time""
""fullscreenenter"",""5"",""16435""
","
","
","""event"",""trial"",""time""
""fullscreenenter"",""5"",""16435""
","
","236.89999961853027","","49","","","3000","1","","","images/earth.jpg","images/rocket2","images/rocket1","null","images/rocket1","","1","real","null","1","","",""
"d3-animate-choice","215","555289","0.0-77.0-1.26","973","6112","23","Female","true","true","true","false","""event"",""trial"",""time""
""fullscreenenter"",""5"",""16435""
","
","
","""event"",""trial"",""time""
""fullscreenenter"",""5"",""16435""
","
","173.5","","48","","","3000","1","","","images/purpleplanet.jpg","images/alien4","images/alien3","images/rocket1","images/alien4","images/t.png","2","real","false","2","rare","1","2023-01-29 19:00:17.560"
"two-step-fixation","216","556297","0.0-77.0-2.26","973","6112","23","Female","true","true","true","false","""event"",""trial"",""time""
""fullscreenenter"",""5"",""16435""
","
","
","""event"",""trial"",""time""
""fullscreenenter"",""5"",""16435""
","
","","images/earth.jpg","","","","","","","","","","","","","","fixation","","","","","",""
"d3-animate-choice","217","558529","0.0-77.0-0.27","973","6112","23","Female","true","true","true","false","""event"",""trial"",""time""
""fullscreenenter"",""5"",""16435""
","
","
","""event"",""trial"",""time""
""fullscreenenter"",""5"",""16435""
","
","228.80000019073486","","49","","","3000","1","","","images/earth.jpg","images/rocket2","images/rocket1","null","images/rocket1","","1","real","null","1","","",""
"d3-animate-choice","218","560712","0.0-77.0-1.27","973","6112","23","Female","true","true","true","false","""event"",""trial"",""time""
""fullscreenenter"",""5"",""16435""
","
","
","""event"",""trial"",""time""
""fullscreenenter"",""5"",""16435""
","
","171.89999961853027","","48","","","3000","1","","","images/redplanet1.jpg","images/alien2","images/alien1","images/rocket1","images/alien2","images/nothing.png","2","real","true","2","common","0","2023-01-29 19:00:22.983"
"two-step-fixation","219","561721","0.0-77.0-2.27","973","6112","23","Female","true","true","true","false","""event"",""trial"",""time""
""fullscreenenter"",""5"",""16435""
","
","
","""event"",""trial"",""time""
""fullscreenenter"",""5"",""16435""
","
","","images/earth.jpg","","","","","","","","","","","","","","fixation","","","","","",""
"d3-animate-choice","220","563753","0.0-77.0-0.28","973","6112","23","Female","true","true","true","false","""event"",""trial"",""time""
""fullscreenenter"",""5"",""16435""
","
","
","""event"",""trial"",""time""
""fullscreenenter"",""5"",""16435""
","
","29.09999990463257","","49","","","3000","1","","","images/earth.jpg","images/rocket2","images/rocket1","null","images/rocket1","","1","real","null","1","","",""
"d3-animate-choice","221","566064","0.0-77.0-1.28","973","6112","23","Female","true","true","true","false","""event"",""trial"",""time""
""fullscreenenter"",""5"",""16435""
","
","
","""event"",""trial"",""time""
""fullscreenenter"",""5"",""16435""
","
","301.80000019073486","","48","","","3000","1","","","images/purpleplanet.jpg","images/alien4","images/alien3","images/rocket1","images/alien4","images/nothing.png","2","real","false","2","rare","0","2023-01-29 19:00:28.336"
"two-step-fixation","222","567072","0.0-77.0-2.28","973","6112","23","Female","true","true","true","false","""event"",""trial"",""time""
""fullscreenenter"",""5"",""16435""
","
","
","""event"",""trial"",""time""
""fullscreenenter"",""5"",""16435""
","
","","images/earth.jpg","","","","","","","","","","","","","","fixation","","","","","",""
"d3-animate-choice","223","569273","0.0-77.0-0.29","973","6112","23","Female","true","true","true","false","""event"",""trial"",""time""
""fullscreenenter"",""5"",""16435""
","
","
","""event"",""trial"",""time""
""fullscreenenter"",""5"",""16435""
","
","197.59999990463257","","49","","","3000","1","","","images/earth.jpg","images/rocket2","images/rocket1","null","images/rocket1","","1","real","null","1","","",""
"d3-animate-choice","224","571977","0.0-77.0-1.29","973","6112","23","Female","true","true","true","false","""event"",""trial"",""time""
""fullscreenenter"",""5"",""16435""
","
","
","""event"",""trial"",""time""
""fullscreenenter"",""5"",""16435""
","
","700.6999998092651","","49","","","3000","1","","","images/purpleplanet.jpg","images/alien4","images/alien3","images/rocket1","images/alien3","images/nothing.png","2","real","false","1","rare","0","2023-01-29 19:00:34.248"
"two-step-fixation","225","572985","0.0-77.0-2.29","973","6112","23","Female","true","true","true","false","""event"",""trial"",""time""
""fullscreenenter"",""5"",""16435""
","
","
","""event"",""trial"",""time""
""fullscreenenter"",""5"",""16435""
","
","","images/earth.jpg","","","","","","","","","","","","","","fixation","","","","","",""
"d3-animate-choice","226","575505","0.0-77.0-0.30","973","6112","23","Female","true","true","true","false","""event"",""trial"",""time""
""fullscreenenter"",""5"",""16435""
","
","
","""event"",""trial"",""time""
""fullscreenenter"",""5"",""16435""
","
","516.7999997138977","","49","","","3000","1","","","images/earth.jpg","images/rocket2","images/rocket1","null","images/rocket1","","1","real","null","1","","",""
"d3-animate-choice","227","578018","0.0-77.0-1.30","973","6112","23","Female","true","true","true","false","""event"",""trial"",""time""
""fullscreenenter"",""5"",""16435""
","
","
","""event"",""trial"",""time""
""fullscreenenter"",""5"",""16435""
","
","506.59999990463257","","48","","","3000","1","","","images/redplanet1.jpg","images/alien2","images/alien1","images/rocket1","images/alien2","images/t.png","2","real","true","2","common","1","2023-01-29 19:00:40.289"
"two-step-fixation","228","579025","0.0-77.0-2.30","973","6112","23","Female","true","true","true","false","""event"",""trial"",""time""
""fullscreenenter"",""5"",""16435""
","
","
","""event"",""trial"",""time""
""fullscreenenter"",""5"",""16435""
","
","","images/earth.jpg","","","","","","","","","","","","","","fixation","","","","","",""
"d3-animate-choice","229","581328","0.0-77.0-0.31","973","6112","23","Female","true","true","true","false","""event"",""trial"",""time""
""fullscreenenter"",""5"",""16435""
","
","
","""event"",""trial"",""time""
""fullscreenenter"",""5"",""16435""
","
","301.19999980926514","","49","","","3000","1","","","images/earth.jpg","images/rocket2","images/rocket1","null","images/rocket1","","1","real","null","1","","",""
"d3-animate-choice","230","583529","0.0-77.0-1.31","973","6112","23","Female","true","true","true","false","""event"",""trial"",""time""
""fullscreenenter"",""5"",""16435""
","
","
","""event"",""trial"",""time""
""fullscreenenter"",""5"",""16435""
","
","197.2999997138977","","48","","","3000","1","","","images/redplanet1.jpg","images/alien2","images/alien1","images/rocket1","images/alien2","images/t.png","2","real","true","2","common","1","2023-01-29 19:00:45.800"
"two-step-fixation","231","584537","0.0-77.0-2.31","973","6112","23","Female","true","true","true","false","""event"",""trial"",""time""
""fullscreenenter"",""5"",""16435""
","
","
","""event"",""trial"",""time""
""fullscreenenter"",""5"",""16435""
","
","","images/earth.jpg","","","","","","","","","","","","","","fixation","","","","","",""
"d3-animate-choice","232","586792","0.0-77.0-0.32","973","6112","23","Female","true","true","true","false","""event"",""trial"",""time""
""fullscreenenter"",""5"",""16435""
","
","
","""event"",""trial"",""time""
""fullscreenenter"",""5"",""16435""
","
","252.89999961853027","","49","","","3000","1","","","images/earth.jpg","images/rocket2","images/rocket1","null","images/rocket1","","1","real","null","1","","",""
"d3-animate-choice","233","589041","0.0-77.0-1.32","973","6112","23","Female","true","true","true","false","""event"",""trial"",""time""
""fullscreenenter"",""5"",""16435""
","
","
","""event"",""trial"",""time""
""fullscreenenter"",""5"",""16435""
","
","244.7999997138977","","48","","","3000","1","","","images/redplanet1.jpg","images/alien2","images/alien1","images/rocket1","images/alien2","images/t.png","2","real","true","2","common","1","2023-01-29 19:00:51.312"
"two-step-fixation","234","590048","0.0-77.0-2.32","973","6112","23","Female","true","true","true","false","""event"",""trial"",""time""
""fullscreenenter"",""5"",""16435""
","
","
","""event"",""trial"",""time""
""fullscreenenter"",""5"",""16435""
","
","","images/earth.jpg","","","","","","","","","","","","","","fixation","","","","","",""
"d3-animate-choice","235","592313","0.0-77.0-0.33","973","6112","23","Female","true","true","true","false","""event"",""trial"",""time""
""fullscreenenter"",""5"",""16435""
","
","
","""event"",""trial"",""time""
""fullscreenenter"",""5"",""16435""
","
","261.30000019073486","","49","","","3000","1","","","images/earth.jpg","images/rocket2","images/rocket1","null","images/rocket1","","1","real","null","1","","",""
"d3-animate-choice","236","594753","0.0-77.0-1.33","973","6112","23","Female","true","true","true","false","""event"",""trial"",""time""
""fullscreenenter"",""5"",""16435""
","
","
","""event"",""trial"",""time""
""fullscreenenter"",""5"",""16435""
","
","434.40000009536743","","48","","","3000","1","","","images/redplanet1.jpg","images/alien2","images/alien1","images/rocket1","images/alien2","images/t.png","2","real","true","2","common","1","2023-01-29 19:00:57.025"
"two-step-fixation","237","595757","0.0-77.0-2.33","973","6112","23","Female","true","true","true","false","""event"",""trial"",""time""
""fullscreenenter"",""5"",""16435""
","
","
","""event"",""trial"",""time""
""fullscreenenter"",""5"",""16435""
","
","","images/earth.jpg","","","","","","","","","","","","","","fixation","","","","","",""
"d3-animate-choice","238","597952","0.0-77.0-0.34","973","6112","23","Female","true","true","true","false","""event"",""trial"",""time""
""fullscreenenter"",""5"",""16435""
","
","
","""event"",""trial"",""time""
""fullscreenenter"",""5"",""16435""
","
","192.90000009536743","","49","","","3000","1","","","images/earth.jpg","images/rocket2","images/rocket1","null","images/rocket1","","1","real","null","1","","",""
"d3-animate-choice","239","600200","0.0-77.0-1.34","973","6112","23","Female","true","true","true","false","""event"",""trial"",""time""
""fullscreenenter"",""5"",""16435""
","
","
","""event"",""trial"",""time""
""fullscreenenter"",""5"",""16435""
","
","245.7999997138977","","48","","","3000","1","","","images/redplanet1.jpg","images/alien2","images/alien1","images/rocket1","images/alien2","images/nothing.png","2","real","true","2","common","0","2023-01-29 19:01:02.471"
"two-step-fixation","240","601208","0.0-77.0-2.34","973","6112","23","Female","true","true","true","false","""event"",""trial"",""time""
""fullscreenenter"",""5"",""16435""
","
","
","""event"",""trial"",""time""
""fullscreenenter"",""5"",""16435""
","
","","images/earth.jpg","","","","","","","","","","","","","","fixation","","","","","",""
"d3-animate-choice","241","603241","0.0-77.0-0.35","973","6112","23","Female","true","true","true","false","""event"",""trial"",""time""
""fullscreenenter"",""5"",""16435""
","
","
","""event"",""trial"",""time""
""fullscreenenter"",""5"",""16435""
","
","29.700000286102295","","49","","","3000","1","","","images/earth.jpg","images/rocket2","images/rocket1","null","images/rocket1","","1","real","null","1","","",""
"d3-animate-choice","242","605568","0.0-77.0-1.35","973","6112","23","Female","true","true","true","false","""event"",""trial"",""time""
""fullscreenenter"",""5"",""16435""
","
","
","""event"",""trial"",""time""
""fullscreenenter"",""5"",""16435""
","
","315.80000019073486","","49","","","3000","1","","","images/purpleplanet.jpg","images/alien4","images/alien3","images/rocket1","images/alien3","images/nothing.png","2","real","false","1","rare","0","2023-01-29 19:01:07.839"
"two-step-fixation","243","606576","0.0-77.0-2.35","973","6112","23","Female","true","true","true","false","""event"",""trial"",""time""
""fullscreenenter"",""5"",""16435""
","
","
","""event"",""trial"",""time""
""fullscreenenter"",""5"",""16435""
","
","","images/earth.jpg","","","","","","","","","","","","","","fixation","","","","","",""
"d3-animate-choice","244","608721","0.0-77.0-0.36","973","6112","23","Female","true","true","true","false","""event"",""trial"",""time""
""fullscreenenter"",""5"",""16435""
","
","
","""event"",""trial"",""time""
""fullscreenenter"",""5"",""16435""
","
","140.80000019073486","","49","","","3000","1","","","images/earth.jpg","images/rocket2","images/rocket1","null","images/rocket1","","1","real","null","1","","",""
"d3-animate-choice","245","611033","0.0-77.0-1.36","973","6112","23","Female","true","true","true","false","""event"",""trial"",""time""
""fullscreenenter"",""5"",""16435""
","
","
","""event"",""trial"",""time""
""fullscreenenter"",""5"",""16435""
","
","299.5","","48","","","3000","1","","","images/purpleplanet.jpg","images/alien4","images/alien3","images/rocket1","images/alien4","images/nothing.png","2","real","false","2","rare","0","2023-01-29 19:01:13.304"
"two-step-fixation","246","612040","0.0-77.0-2.36","973","6112","23","Female","true","true","true","false","""event"",""trial"",""time""
""fullscreenenter"",""5"",""16435""
","
","
","""event"",""trial"",""time""
""fullscreenenter"",""5"",""16435""
","
","","images/earth.jpg","","","","","","","","","","","","","","fixation","","","","","",""
