"trial_type","trial_index","time_elapsed","internal_node_id","participant_id","subject_id","age","gender","rocket_sides","red_planet_first_rocket","red_display_order","purple_display_order","interactions","blur_events","focus_events","fullscreenenter_events","fullscreenexit_events","rt","stimulus","key_press","button_pressed","success","duration","valid_pressed","rts","keys","planet_text","right_text","left_text","center_text","chosen_text","reward_text","trial_stage","practice_trial","transition_type","choice","transition","reward","timestamp"
"pavlovia","0","2","0.0-0.0","978","4986","22","Male","false","true","true","false","
","
","
","
","
","","","","","","","","","","","","","","","","","","","","","",""
"html-keyboard-response","1","989","0.0-1.0","978","4986","22","Male","false","true","true","false","
","
","
","
","
","986.8000000119209","Welcome! Press the space bar to begin.","32","","","","","","","","","","","","","","","","","","",""
"audio-keyboard-response","2","1514","0.0-2.0","978","4986","22","Male","false","true","true","false","
","
","
","
","
","440","audio/beep_loop.wav","32","","","","","","","","","","","","","","","","","","",""
"audio-button-response","3","3620","0.0-3.0","978","4986","22","Male","false","true","true","false","
","
","
","
","
","NaN","audio/fish.mp3","","1","","","","","","","","","","","","","","","","","",""
"audio-button-response","4","8781","0.0-4.0","978","4986","22","Male","false","true","true","false","""event"",""trial"",""time""
""fullscreenenter"",""5"",""11307""
","
","
","""event"",""trial"",""time""
""fullscreenenter"",""5"",""11307""
","
","NaN","audio/tiger.mp3","","4","","","","","","","","","","","","","","","","","",""
"fullscreen","5","12311","0.0-5.0","978","4986","22","Male","false","true","true","false","""event"",""trial"",""time""
""fullscreenenter"",""5"",""11307""
","
","
","""event"",""trial"",""time""
""fullscreenenter"",""5"",""11307""
","
","","","","","true","","","","","","","","","","","","","","","","",""
"d3-instructions","6","15986","0.0-6.0","978","4986","22","Male","false","true","true","false","""event"",""trial"",""time""
""fullscreenenter"",""5"",""11307""
","
","
","""event"",""trial"",""time""
""fullscreenenter"",""5"",""11307""
","
","","","","","","","","","","","","","","","","","","","","","",""
"d3-instructions","7","22909","0.0-7.0","978","4986","22","Male","false","true","true","false","""event"",""trial"",""time""
""fullscreenenter"",""5"",""11307""
","
","
","""event"",""trial"",""time""
""fullscreenenter"",""5"",""11307""
","
","","","","","","","","","","","","","","","","","","","","","",""
"d3-instructions","8","24030","0.0-8.0","978","4986","22","Male","false","true","true","false","""event"",""trial"",""time""
""fullscreenenter"",""5"",""11307""
","
","
","""event"",""trial"",""time""
""fullscreenenter"",""5"",""11307""
","
","","","","","","","","","","","","","","","","","","","","","",""
"d3-instructions","9","24647","0.0-9.0","978","4986","22","Male","false","true","true","false","""event"",""trial"",""time""
""fullscreenenter"",""5"",""11307""
","
","
","""event"",""trial"",""time""
""fullscreenenter"",""5"",""11307""
","
","","","","","","","","","","","","","","","","","","","","","",""
"d3-instructions","10","25298","0.0-10.0","978","4986","22","Male","false","true","true","false","""event"",""trial"",""time""
""fullscreenenter"",""5"",""11307""
","
","
","""event"",""trial"",""time""
""fullscreenenter"",""5"",""11307""
","
","","","","","","","","","","","","","","","","","","","","","",""
"d3-animate-choice","11","28803","0.0-11.0","978","4986","22","Male","false","true","true","false","""event"",""trial"",""time""
""fullscreenenter"",""5"",""11307""
","
","
","""event"",""trial"",""time""
""fullscreenenter"",""5"",""11307""
","
","1492.800000011921","","49","","","3000","1","","","images/tutgreenplanet.jpg","images/tutalien1","images/tutalien2","null","images/tutalien2","","NA","practice","null","","","",""
"d3-animate-choice","12","31926","0.0-12.0","978","4986","22","Male","false","true","true","false","""event"",""trial"",""time""
""fullscreenenter"",""5"",""11307""
","
","
","""event"",""trial"",""time""
""fullscreenenter"",""5"",""11307""
","
","1117.199999988079","","48","","","3000","1","","","images/tutgreenplanet.jpg","images/tutalien1","images/tutalien2","null","images/tutalien1","","NA","practice","null","","","",""
"d3-animate-choice","13","35141","0.0-13.0","978","4986","22","Male","false","true","true","false","""event"",""trial"",""time""
""fullscreenenter"",""5"",""11307""
","
","
","""event"",""trial"",""time""
""fullscreenenter"",""5"",""11307""
","
","1194.0999999940395","","49","","","3000","1","","","images/tutgreenplanet.jpg","images/tutalien1","images/tutalien2","null","images/tutalien2","","NA","practice","null","","","",""
"d3-animate-choice","14","38031","0.0-14.0","978","4986","22","Male","false","true","true","false","""event"",""trial"",""time""
""fullscreenenter"",""5"",""11307""
","
","
","""event"",""trial"",""time""
""fullscreenenter"",""5"",""11307""
","
","877.0999999940395","","49","","","3000","1","","","images/tutgreenplanet.jpg","images/tutalien1","images/tutalien2","null","images/tutalien2","","NA","practice","null","","","",""
"d3-instructions","15","39759","0.0-15.0","978","4986","22","Male","false","true","true","false","""event"",""trial"",""time""
""fullscreenenter"",""5"",""11307""
","
","
","""event"",""trial"",""time""
""fullscreenenter"",""5"",""11307""
","
","","","","","","","","","","","","","","","","","","","","","",""
"d3-instructions","16","40400","0.0-16.0","978","4986","22","Male","false","true","true","false","""event"",""trial"",""time""
""fullscreenenter"",""5"",""11307""
","
","
","""event"",""trial"",""time""
""fullscreenenter"",""5"",""11307""
","
","","","","","","","","","","","","","","","","","","","","","",""
"d3-instructions","17","42397","0.0-17.0","978","4986","22","Male","false","true","true","false","""event"",""trial"",""time""
""fullscreenenter"",""5"",""11307""
","
","
","""event"",""trial"",""time""
""fullscreenenter"",""5"",""11307""
","
","","","","","","","","","","","","","","","","","","","","","",""
"d3-instructions","18","43768","0.0-18.0","978","4986","22","Male","false","true","true","false","""event"",""trial"",""time""
""fullscreenenter"",""5"",""11307""
","
","
","""event"",""trial"",""time""
""fullscreenenter"",""5"",""11307""
","
","","","","","","","","","","","","","","","","","","","","","",""
"d3-instructions","19","44795","0.0-19.0","978","4986","22","Male","false","true","true","false","""event"",""trial"",""time""
""fullscreenenter"",""5"",""11307""
","
","
","""event"",""trial"",""time""
""fullscreenenter"",""5"",""11307""
","
","","","","","","","","","","","","","","","","","","","","","",""
"d3-animate-choice","20","47821","0.0-20.0","978","4986","22","Male","false","true","true","false","""event"",""trial"",""time""
""fullscreenenter"",""5"",""11307""
","
","
","""event"",""trial"",""time""
""fullscreenenter"",""5"",""11307""
","
","1013.8000000119209","","49","","","3000","1","","","images/tutyellowplanet.jpg","null","images/tutalien3","null","images/tutalien3","images/nothing.png","NA","practice","null","","","",""
"d3-animate-choice","21","50371","0.0-21.0","978","4986","22","Male","false","true","true","false","""event"",""trial"",""time""
""fullscreenenter"",""5"",""11307""
","
","
","""event"",""trial"",""time""
""fullscreenenter"",""5"",""11307""
","
","526.9000000059605","","49","","","3000","1","2518.800000011921","49","images/tutyellowplanet.jpg","null","images/tutalien3","null","images/tutalien3","images/nothing.png","NA","practice","null","","","",""
"d3-animate-choice","22","52864","0.0-22.0","978","4986","22","Male","false","true","true","false","""event"",""trial"",""time""
""fullscreenenter"",""5"",""11307""
","
","
","""event"",""trial"",""time""
""fullscreenenter"",""5"",""11307""
","
","484.7000000178814","","49","","","3000","1","","","images/tutyellowplanet.jpg","null","images/tutalien3","null","images/tutalien3","images/t.png","NA","practice","null","","","",""
"d3-animate-choice","23","55234","0.0-23.0","978","4986","22","Male","false","true","true","false","""event"",""trial"",""time""
""fullscreenenter"",""5"",""11307""
","
","
","""event"",""trial"",""time""
""fullscreenenter"",""5"",""11307""
","
","352.19999998807907","","49","","","3000","1","1804.7999999821186","49","images/tutyellowplanet.jpg","null","images/tutalien3","null","images/tutalien3","images/t.png","NA","practice","null","","","",""
"d3-animate-choice","24","57255","0.0-24.0","978","4986","22","Male","false","true","true","false","""event"",""trial"",""time""
""fullscreenenter"",""5"",""11307""
","
","
","""event"",""trial"",""time""
""fullscreenenter"",""5"",""11307""
","
","0.5","","49","","","3000","1","195.2000000178814,424.2000000178814,1841.300000011921","49,49,49","images/tutyellowplanet.jpg","null","images/tutalien3","null","images/tutalien3","images/t.png","NA","practice","null","","","",""
"d3-animate-choice","25","59735","0.0-25.0","978","4986","22","Male","false","true","true","false","""event"",""trial"",""time""
""fullscreenenter"",""5"",""11307""
","
","
","""event"",""trial"",""time""
""fullscreenenter"",""5"",""11307""
","
","462","","49","","","3000","1","1814.699999988079","49","images/tutyellowplanet.jpg","null","images/tutalien3","null","images/tutalien3","images/t.png","NA","practice","null","","","",""
"d3-animate-choice","26","61825","0.0-26.0","978","4986","22","Male","false","true","true","false","""event"",""trial"",""time""
""fullscreenenter"",""5"",""11307""
","
","
","""event"",""trial"",""time""
""fullscreenenter"",""5"",""11307""
","
","69.89999997615814","","49","","","3000","1","290.39999997615814,1757.5999999940395","49,49","images/tutyellowplanet.jpg","null","images/tutalien3","null","images/tutalien3","images/t.png","NA","practice","null","","","",""
"d3-animate-choice","27","64045","0.0-27.0","978","4986","22","Male","false","true","true","false","""event"",""trial"",""time""
""fullscreenenter"",""5"",""11307""
","
","
","""event"",""trial"",""time""
""fullscreenenter"",""5"",""11307""
","
","203.2999999821186","","49","","","3000","1","1699.7999999821186,2155.699999988079","49,49","images/tutyellowplanet.jpg","null","images/tutalien3","null","images/tutalien3","images/t.png","NA","practice","null","","","",""
"d3-animate-choice","28","66385","0.0-28.0","978","4986","22","Male","false","true","true","false","""event"",""trial"",""time""
""fullscreenenter"",""5"",""11307""
","
","
","""event"",""trial"",""time""
""fullscreenenter"",""5"",""11307""
","
","326","","49","","","3000","1","","","images/tutyellowplanet.jpg","null","images/tutalien3","null","images/tutalien3","images/t.png","NA","practice","null","","","",""
"d3-animate-choice","29","68814","0.0-29.0","978","4986","22","Male","false","true","true","false","""event"",""trial"",""time""
""fullscreenenter"",""5"",""11307""
","
","
","""event"",""trial"",""time""
""fullscreenenter"",""5"",""11307""
","
","409.40000000596046","","49","","","3000","1","1925.9000000059605","49","images/tutyellowplanet.jpg","null","images/tutalien3","null","images/tutalien3","images/t.png","NA","practice","null","","","",""
"d3-instructions","30","70043","0.0-30.0","978","4986","22","Male","false","true","true","false","""event"",""trial"",""time""
""fullscreenenter"",""5"",""11307""
","
","
","""event"",""trial"",""time""
""fullscreenenter"",""5"",""11307""
","
","","","","","","","","","","","","","","","","","","","","","",""
"d3-instructions","31","71145","0.0-31.0","978","4986","22","Male","false","true","true","false","""event"",""trial"",""time""
""fullscreenenter"",""5"",""11307""
","
","
","""event"",""trial"",""time""
""fullscreenenter"",""5"",""11307""
","
","","","","","","","","","","","","","","","","","","","","","",""
"d3-instructions","32","72492","0.0-32.0","978","4986","22","Male","false","true","true","false","""event"",""trial"",""time""
""fullscreenenter"",""5"",""11307""
","
","
","""event"",""trial"",""time""
""fullscreenenter"",""5"",""11307""
","
","","","","","","","","","","","","","","","","","","","","","",""
"d3-instructions","33","73563","0.0-33.0","978","4986","22","Male","false","true","true","false","""event"",""trial"",""time""
""fullscreenenter"",""5"",""11307""
","
","
","""event"",""trial"",""time""
""fullscreenenter"",""5"",""11307""
","
","","","","","","","","","","","","","","","","","","","","","",""
"d3-animate-choice","34","76597","0.0-34.0","978","4986","22","Male","false","true","true","false","""event"",""trial"",""time""
""fullscreenenter"",""5"",""11307""
","
","
","""event"",""trial"",""time""
""fullscreenenter"",""5"",""11307""
","
","1023.9000000059605","","49","","","3000","1","2546,2866.5999999940395,3031.2999999821186","48,48,48","images/tutgreenplanet.jpg","images/tutalien1","images/tutalien2","null","images/tutalien2","images/t.png","NA","practice","null","","","",""
"d3-animate-choice","35","78785","0.0-35.0","978","4986","22","Male","false","true","true","false","""event"",""trial"",""time""
""fullscreenenter"",""5"",""11307""
","
","
","""event"",""trial"",""time""
""fullscreenenter"",""5"",""11307""
","
","168.80000001192093","","48","","","3000","1","328.19999998807907","48","images/tutgreenplanet.jpg","images/tutalien1","images/tutalien2","null","images/tutalien1","images/t.png","NA","practice","null","","","",""
"d3-animate-choice","36","81195","0.0-36.0","978","4986","22","Male","false","true","true","false","""event"",""trial"",""time""
""fullscreenenter"",""5"",""11307""
","
","
","""event"",""trial"",""time""
""fullscreenenter"",""5"",""11307""
","
","388.09999999403954","","48","","","3000","1","1810,2009.7999999821186,2170.199999988079,2340.5","48,48,48,48","images/tutgreenplanet.jpg","images/tutalien1","images/tutalien2","null","images/tutalien1","images/nothing.png","NA","practice","null","","","",""
"d3-animate-choice","37","83312","0.0-37.0","978","4986","22","Male","false","true","true","false","""event"",""trial"",""time""
""fullscreenenter"",""5"",""11307""
","
","
","""event"",""trial"",""time""
""fullscreenenter"",""5"",""11307""
","
","110.5","","48","","","3000","1","390.80000001192093,801","49,48","images/tutgreenplanet.jpg","images/tutalien1","images/tutalien2","null","images/tutalien1","images/nothing.png","NA","practice","null","","","",""
"d3-animate-choice","38","85327","0.0-38.0","978","4986","22","Male","false","true","true","false","""event"",""trial"",""time""
""fullscreenenter"",""5"",""11307""
","
","
","""event"",""trial"",""time""
""fullscreenenter"",""5"",""11307""
","
","9.400000005960464","","48","","","3000","1","246.40000000596046,2013.199999988079","48,48","images/tutgreenplanet.jpg","images/tutalien1","images/tutalien2","null","images/tutalien1","images/nothing.png","NA","practice","null","","","",""
"d3-animate-choice","39","87705","0.0-39.0","978","4986","22","Male","false","true","true","false","""event"",""trial"",""time""
""fullscreenenter"",""5"",""11307""
","
","
","""event"",""trial"",""time""
""fullscreenenter"",""5"",""11307""
","
","368.40000000596046","","48","","","3000","1","2086.9000000059605,2246.4000000059605","49,49","images/tutgreenplanet.jpg","images/tutalien1","images/tutalien2","null","images/tutalien1","images/nothing.png","NA","practice","null","","","",""
"d3-animate-choice","40","89745","0.0-40.0","978","4986","22","Male","false","true","true","false","""event"",""trial"",""time""
""fullscreenenter"",""5"",""11307""
","
","
","""event"",""trial"",""time""
""fullscreenenter"",""5"",""11307""
","
","22.900000005960464","","49","","","3000","1","198.59999999403954,399.7999999821186,1014.6999999880791,1204.5999999940395,1369.699999988079,1540.0999999940395,1790.7999999821186,1926","49,49,49,49,49,49,49,49","images/tutgreenplanet.jpg","images/tutalien1","images/tutalien2","null","images/tutalien2","images/t.png","NA","practice","null","","","",""
"d3-animate-choice","41","91804","0.0-41.0","978","4986","22","Male","false","true","true","false","""event"",""trial"",""time""
""fullscreenenter"",""5"",""11307""
","
","
","""event"",""trial"",""time""
""fullscreenenter"",""5"",""11307""
","
","40.30000001192093","","49","","","3000","1","236.5,416.5,586.9000000059605,761.8000000119209,942.1000000238419,1122,1292.300000011921,1457.4000000059605,1648.2000000178814,1827.800000011921,2018.6000000238419","49,49,49,49,49,49,49,49,49,49,49","images/tutgreenplanet.jpg","images/tutalien1","images/tutalien2","null","images/tutalien2","images/t.png","NA","practice","null","","","",""
"d3-animate-choice","42","94104","0.0-42.0","978","4986","22","Male","false","true","true","false","""event"",""trial"",""time""
""fullscreenenter"",""5"",""11307""
","
","
","""event"",""trial"",""time""
""fullscreenenter"",""5"",""11307""
","
","289.2999999821186","","49","","","3000","1","471,915.0999999940395,1090.199999988079,1270.0999999940395,1445.9000000059605,1615.5,1780.9000000059605,1951,2116.4000000059605,2287","49,49,49,49,49,49,49,49,49,49","images/tutgreenplanet.jpg","images/tutalien1","images/tutalien2","null","images/tutalien2","images/t.png","NA","practice","null","","","",""
"d3-animate-choice","43","96285","0.0-43.0","978","4986","22","Male","false","true","true","false","""event"",""trial"",""time""
""fullscreenenter"",""5"",""11307""
","
","
","""event"",""trial"",""time""
""fullscreenenter"",""5"",""11307""
","
","161.59999999403954","","49","","","3000","1","336.90000000596046,622.4000000059605,772.5999999940395,928.1999999880791,1132.0999999940395,1319,1488.7999999821186,1663.699999988079,2039.5","49,49,49,49,49,49,49,49,49","images/tutgreenplanet.jpg","images/tutalien1","images/tutalien2","null","images/tutalien2","images/t.png","NA","practice","null","","","",""
"d3-instructions","44","97832","0.0-44.0","978","4986","22","Male","false","true","true","false","""event"",""trial"",""time""
""fullscreenenter"",""5"",""11307""
","
","
","""event"",""trial"",""time""
""fullscreenenter"",""5"",""11307""
","
","","","","","","","","","","","","","","","","","","","","","",""
"d3-instructions","45","98743","0.0-45.0","978","4986","22","Male","false","true","true","false","""event"",""trial"",""time""
""fullscreenenter"",""5"",""11307""
","
","
","""event"",""trial"",""time""
""fullscreenenter"",""5"",""11307""
","
","","","","","","","","","","","","","","","","","","","","","",""
"d3-instructions","46","100861","0.0-46.0","978","4986","22","Male","false","true","true","false","""event"",""trial"",""time""
""fullscreenenter"",""5"",""11307""
","
","
","""event"",""trial"",""time""
""fullscreenenter"",""5"",""11307""
","
","","","","","","","","","","","","","","","","","","","","","",""
"d3-instructions","47","102032","0.0-47.0","978","4986","22","Male","false","true","true","false","""event"",""trial"",""time""
""fullscreenenter"",""5"",""11307""
","
","
","""event"",""trial"",""time""
""fullscreenenter"",""5"",""11307""
","
","","","","","","","","","","","","","","","","","","","","","",""
"d3-instructions","48","103579","0.0-48.0","978","4986","22","Male","false","true","true","false","""event"",""trial"",""time""
""fullscreenenter"",""5"",""11307""
","
","
","""event"",""trial"",""time""
""fullscreenenter"",""5"",""11307""
","
","","","","","","","","","","","","","","","","","","","","","",""
"d3-instructions","49","104545","0.0-49.0","978","4986","22","Male","false","true","true","false","""event"",""trial"",""time""
""fullscreenenter"",""5"",""11307""
","
","
","""event"",""trial"",""time""
""fullscreenenter"",""5"",""11307""
","
","","","","","","","","","","","","","","","","","","","","","",""
"d3-instructions","50","105426","0.0-50.0","978","4986","22","Male","false","true","true","false","""event"",""trial"",""time""
""fullscreenenter"",""5"",""11307""
","
","
","""event"",""trial"",""time""
""fullscreenenter"",""5"",""11307""
","
","","","","","","","","","","","","","","","","","","","","","",""
"d3-instructions","51","106242","0.0-51.0","978","4986","22","Male","false","true","true","false","""event"",""trial"",""time""
""fullscreenenter"",""5"",""11307""
","
","
","""event"",""trial"",""time""
""fullscreenenter"",""5"",""11307""
","
","","","","","","","","","","","","","","","","","","","","","",""
"d3-instructions","52","107003","0.0-52.0","978","4986","22","Male","false","true","true","false","""event"",""trial"",""time""
""fullscreenenter"",""5"",""11307""
","
","
","""event"",""trial"",""time""
""fullscreenenter"",""5"",""11307""
","
","","","","","","","","","","","","","","","","","","","","","",""
"d3-instructions","53","107759","0.0-53.0","978","4986","22","Male","false","true","true","false","""event"",""trial"",""time""
""fullscreenenter"",""5"",""11307""
","
","
","""event"",""trial"",""time""
""fullscreenenter"",""5"",""11307""
","
","","","","","","","","","","","","","","","","","","","","","",""
"d3-instructions","54","108525","0.0-54.0","978","4986","22","Male","false","true","true","false","""event"",""trial"",""time""
""fullscreenenter"",""5"",""11307""
","
","
","""event"",""trial"",""time""
""fullscreenenter"",""5"",""11307""
","
","","","","","","","","","","","","","","","","","","","","","",""
"d3-instructions","55","110231","0.0-55.0","978","4986","22","Male","false","true","true","false","""event"",""trial"",""time""
""fullscreenenter"",""5"",""11307""
","
","
","""event"",""trial"",""time""
""fullscreenenter"",""5"",""11307""
","
","","","","","","","","","","","","","","","","","","","","","",""
"d3-instructions","56","111510","0.0-56.0","978","4986","22","Male","false","true","true","false","""event"",""trial"",""time""
""fullscreenenter"",""5"",""11307""
","
","
","""event"",""trial"",""time""
""fullscreenenter"",""5"",""11307""
","
","","","","","","","","","","","","","","","","","","","","","",""
"d3-instructions","57","112361","0.0-57.0","978","4986","22","Male","false","true","true","false","""event"",""trial"",""time""
""fullscreenenter"",""5"",""11307""
","
","
","""event"",""trial"",""time""
""fullscreenenter"",""5"",""11307""
","
","","","","","","","","","","","","","","","","","","","","","",""
"d3-instructions","58","113252","0.0-58.0","978","4986","22","Male","false","true","true","false","""event"",""trial"",""time""
""fullscreenenter"",""5"",""11307""
","
","
","""event"",""trial"",""time""
""fullscreenenter"",""5"",""11307""
","
","","","","","","","","","","","","","","","","","","","","","",""
"d3-instructions","59","114983","0.0-59.0","978","4986","22","Male","false","true","true","false","""event"",""trial"",""time""
""fullscreenenter"",""5"",""11307""
","
","
","""event"",""trial"",""time""
""fullscreenenter"",""5"",""11307""
","
","","","","","","","","","","","","","","","","","","","","","",""
"d3-instructions","60","115884","0.0-60.0","978","4986","22","Male","false","true","true","false","""event"",""trial"",""time""
""fullscreenenter"",""5"",""11307""
","
","
","""event"",""trial"",""time""
""fullscreenenter"",""5"",""11307""
","
","","","","","","","","","","","","","","","","","","","","","",""
"d3-animate-choice","61","118830","0.0-61.0-0.0","978","4986","22","Male","false","true","true","false","""event"",""trial"",""time""
""fullscreenenter"",""5"",""11307""
","
","
","""event"",""trial"",""time""
""fullscreenenter"",""5"",""11307""
","
","940.4000000059605","","49","","","3000","1","","","images/earth.jpg","images/tutrocket1","images/tutrocket2","null","images/tutrocket2","","1","practice","null","1","","",""
"d3-animate-choice","62","121681","0.0-61.0-1.0","978","4986","22","Male","false","true","true","false","""event"",""trial"",""time""
""fullscreenenter"",""5"",""11307""
","
","
","""event"",""trial"",""time""
""fullscreenenter"",""5"",""11307""
","
","371.2000000178814","","50","","","3000","1","841","49","images/tutyellowplanet.jpg","images/tutalien4","images/tutalien3","images/tutrocket2","images/tutalien3","images/nothing.png","2","practice","true","","common","0","2022-12-13 04:34:16.218"
"two-step-fixation","63","122701","0.0-61.0-2.0","978","4986","22","Male","false","true","true","false","""event"",""trial"",""time""
""fullscreenenter"",""5"",""11307""
","
","
","""event"",""trial"",""time""
""fullscreenenter"",""5"",""11307""
","
","","images/earth.jpg","","","","","","","","","","","","","","fixation","","","","","",""
"d3-animate-choice","64","124886","0.0-61.0-0.1","978","4986","22","Male","false","true","true","false","""event"",""trial"",""time""
""fullscreenenter"",""5"",""11307""
","
","
","""event"",""trial"",""time""
""fullscreenenter"",""5"",""11307""
","
","179.80000001192093","","49","","","3000","1","389.80000001192093,610.0999999940395,795.7000000178814,1000.7000000178814,1396.5999999940395,1627.0999999940395,1797,1972.300000011921,2147.300000011921","49,49,49,49,49,49,49,49,49","images/earth.jpg","images/tutrocket1","images/tutrocket2","null","images/tutrocket2","","1","practice","null","1","","",""
"d3-animate-choice","65","127121","0.0-61.0-1.1","978","4986","22","Male","false","true","true","false","""event"",""trial"",""time""
""fullscreenenter"",""5"",""11307""
","
","
","""event"",""trial"",""time""
""fullscreenenter"",""5"",""11307""
","
","223.10000002384186","","49","","","3000","1","412.60000002384186,598.8000000119209,868.1000000238419,1203.5,1439.5,1654,1836.1000000238419,1994.5","49,49,49,49,49,49,49,49","images/tutgreenplanet.jpg","images/tutalien2","images/tutalien1","images/tutrocket2","images/tutalien1","images/nothing.png","2","practice","false","1","rare","0","2022-12-13 04:34:21.658"
"two-step-fixation","66","128141","0.0-61.0-2.1","978","4986","22","Male","false","true","true","false","""event"",""trial"",""time""
""fullscreenenter"",""5"",""11307""
","
","
","""event"",""trial"",""time""
""fullscreenenter"",""5"",""11307""
","
","","images/earth.jpg","","","","","","","","","","","","","","fixation","","","","","",""
"d3-animate-choice","67","130231","0.0-61.0-0.2","978","4986","22","Male","false","true","true","false","""event"",""trial"",""time""
""fullscreenenter"",""5"",""11307""
","
","
","""event"",""trial"",""time""
""fullscreenenter"",""5"",""11307""
","
","70.40000000596046","","49","","","3000","1","301.19999998807907,496.2999999821186,684.5,851.6999999880791,1502.7999999821186,1685.7999999821186,1893.0999999940395","49,49,49,49,49,49,49","images/earth.jpg","images/tutrocket1","images/tutrocket2","null","images/tutrocket2","","1","practice","null","1","","",""
"d3-animate-choice","68","132251","0.0-61.0-1.2","978","4986","22","Male","false","true","true","false","""event"",""trial"",""time""
""fullscreenenter"",""5"",""11307""
","
","
","""event"",""trial"",""time""
""fullscreenenter"",""5"",""11307""
","
","4.5999999940395355","","49","","","3000","1","178.59999999403954,344,533.5999999940395,954.4000000059605,1119.800000011921,1435.5999999940395,1640.2000000178814","49,49,49,49,49,49,49","images/tutgreenplanet.jpg","images/tutalien2","images/tutalien1","images/tutrocket2","images/tutalien1","images/nothing.png","2","practice","false","1","rare","0","2022-12-13 04:34:26.788"
"two-step-fixation","69","133277","0.0-61.0-2.2","978","4986","22","Male","false","true","true","false","""event"",""trial"",""time""
""fullscreenenter"",""5"",""11307""
","
","
","""event"",""trial"",""time""
""fullscreenenter"",""5"",""11307""
","
","","images/earth.jpg","","","","","","","","","","","","","","fixation","","","","","",""
"d3-animate-choice","70","135336","0.0-61.0-0.3","978","4986","22","Male","false","true","true","false","""event"",""trial"",""time""
""fullscreenenter"",""5"",""11307""
","
","
","""event"",""trial"",""time""
""fullscreenenter"",""5"",""11307""
","
","55.400000005960464","","49","","","3000","1","401.69999998807907,647,1047.5999999940395,1342.5","49,49,49,49","images/earth.jpg","images/tutrocket1","images/tutrocket2","null","images/tutrocket2","","1","practice","null","1","","",""
"d3-animate-choice","71","137591","0.0-61.0-1.3","978","4986","22","Male","false","true","true","false","""event"",""trial"",""time""
""fullscreenenter"",""5"",""11307""
","
","
","""event"",""trial"",""time""
""fullscreenenter"",""5"",""11307""
","
","240.09999999403954","","49","","","3000","1","1351.5","49","images/tutyellowplanet.jpg","images/tutalien4","images/tutalien3","images/tutrocket2","images/tutalien3","images/nothing.png","2","practice","true","1","common","0","2022-12-13 04:34:32.128"
"two-step-fixation","72","138611","0.0-61.0-2.3","978","4986","22","Male","false","true","true","false","""event"",""trial"",""time""
""fullscreenenter"",""5"",""11307""
","
","
","""event"",""trial"",""time""
""fullscreenenter"",""5"",""11307""
","
","","images/earth.jpg","","","","","","","","","","","","","","fixation","","","","","",""
"d3-animate-choice","73","141121","0.0-61.0-0.4","978","4986","22","Male","false","true","true","false","""event"",""trial"",""time""
""fullscreenenter"",""5"",""11307""
","
","
","""event"",""trial"",""time""
""fullscreenenter"",""5"",""11307""
","
","489.59999999403954","","49","","","3000","1","","","images/earth.jpg","images/tutrocket1","images/tutrocket2","null","images/tutrocket2","","1","practice","null","1","","",""
"d3-animate-choice","74","143551","0.0-61.0-1.4","978","4986","22","Male","false","true","true","false","""event"",""trial"",""time""
""fullscreenenter"",""5"",""11307""
","
","
","""event"",""trial"",""time""
""fullscreenenter"",""5"",""11307""
","
","412.19999998807907","","49","","","3000","1","1383.4000000059605,1608.699999988079,1858.5999999940395,2220.4000000059605","49,49,49,49","images/tutyellowplanet.jpg","images/tutalien4","images/tutalien3","images/tutrocket2","images/tutalien3","images/nothing.png","2","practice","true","1","common","0","2022-12-13 04:34:38.088"
"two-step-fixation","75","144571","0.0-61.0-2.4","978","4986","22","Male","false","true","true","false","""event"",""trial"",""time""
""fullscreenenter"",""5"",""11307""
","
","
","""event"",""trial"",""time""
""fullscreenenter"",""5"",""11307""
","
","","images/earth.jpg","","","","","","","","","","","","","","fixation","","","","","",""
"d3-animate-choice","76","146903","0.0-61.0-0.5","978","4986","22","Male","false","true","true","false","""event"",""trial"",""time""
""fullscreenenter"",""5"",""11307""
","
","
","""event"",""trial"",""time""
""fullscreenenter"",""5"",""11307""
","
","325.90000000596046","","49","","","3000","1","801.1999999880791,1136.2999999821186,1407.199999988079,1847.5","49,49,49,49","images/earth.jpg","images/tutrocket1","images/tutrocket2","null","images/tutrocket2","","1","practice","null","1","","",""
"d3-animate-choice","77","149043","0.0-61.0-1.5","978","4986","22","Male","false","true","true","false","""event"",""trial"",""time""
""fullscreenenter"",""5"",""11307""
","
","
","""event"",""trial"",""time""
""fullscreenenter"",""5"",""11307""
","
","137","","49","","","3000","1","412.80000001192093,806.9000000059605,1018,1238.6000000238419,1473.9000000059605,2089.600000023842","49,49,49,49,49,49","images/tutyellowplanet.jpg","images/tutalien4","images/tutalien3","images/tutrocket2","images/tutalien3","images/nothing.png","2","practice","true","1","common","0","2022-12-13 04:34:43.580"
"two-step-fixation","78","150048","0.0-61.0-2.5","978","4986","22","Male","false","true","true","false","""event"",""trial"",""time""
""fullscreenenter"",""5"",""11307""
","
","
","""event"",""trial"",""time""
""fullscreenenter"",""5"",""11307""
","
","","images/earth.jpg","","","","","","","","","","","","","","fixation","","","","","",""
"d3-animate-choice","79","152439","0.0-61.0-0.6","978","4986","22","Male","false","true","true","false","""event"",""trial"",""time""
""fullscreenenter"",""5"",""11307""
","
","
","""event"",""trial"",""time""
""fullscreenenter"",""5"",""11307""
","
","384.90000000596046","","49","","","3000","1","605.7000000178814,1286.4000000059605,1672.4000000059605,1882.5,2082.0999999940395,2277.800000011921","49,49,49,49,49,49","images/earth.jpg","images/tutrocket1","images/tutrocket2","null","images/tutrocket2","","1","practice","null","1","","",""
"d3-animate-choice","80","154542","0.0-61.0-1.6","978","4986","22","Male","false","true","true","false","""event"",""trial"",""time""
""fullscreenenter"",""5"",""11307""
","
","
","""event"",""trial"",""time""
""fullscreenenter"",""5"",""11307""
","
","98.19999998807907","","49","","","3000","1","303.30000001192093,438.19999998807907,693.0999999940395,1188.9000000059605","49,49,49,49","images/tutyellowplanet.jpg","images/tutalien4","images/tutalien3","images/tutrocket2","images/tutalien3","images/nothing.png","2","practice","true","1","common","0","2022-12-13 04:34:49.079"
"two-step-fixation","81","155551","0.0-61.0-2.6","978","4986","22","Male","false","true","true","false","""event"",""trial"",""time""
""fullscreenenter"",""5"",""11307""
","
","
","""event"",""trial"",""time""
""fullscreenenter"",""5"",""11307""
","
","","images/earth.jpg","","","","","","","","","","","","","","fixation","","","","","",""
"d3-animate-choice","82","158314","0.0-61.0-0.7","978","4986","22","Male","false","true","true","false","""event"",""trial"",""time""
""fullscreenenter"",""5"",""11307""
","
","
","""event"",""trial"",""time""
""fullscreenenter"",""5"",""11307""
","
","754.2000000178814","","49","","","3000","1","969,1184.800000011921","49,49","images/earth.jpg","images/tutrocket1","images/tutrocket2","null","images/tutrocket2","","1","practice","null","1","","",""
"d3-animate-choice","83","160510","0.0-61.0-1.7","978","4986","22","Male","false","true","true","false","""event"",""trial"",""time""
""fullscreenenter"",""5"",""11307""
","
","
","""event"",""trial"",""time""
""fullscreenenter"",""5"",""11307""
","
","189.19999998807907","","49","","","3000","1","359.2999999821186,523.9000000059605,1029.9000000059605,1205.199999988079,1390.199999988079,1580.9000000059605,1785.4000000059605,1975.699999988079,2155.7999999821186","49,49,49,49,49,49,49,49,49","images/tutyellowplanet.jpg","images/tutalien4","images/tutalien3","images/tutrocket2","images/tutalien3","images/nothing.png","2","practice","true","1","common","0","2022-12-13 04:34:55.047"
"two-step-fixation","84","161515","0.0-61.0-2.7","978","4986","22","Male","false","true","true","false","""event"",""trial"",""time""
""fullscreenenter"",""5"",""11307""
","
","
","""event"",""trial"",""time""
""fullscreenenter"",""5"",""11307""
","
","","images/earth.jpg","","","","","","","","","","","","","","fixation","","","","","",""
"d3-animate-choice","85","163638","0.0-61.0-0.8","978","4986","22","Male","false","true","true","false","""event"",""trial"",""time""
""fullscreenenter"",""5"",""11307""
","
","
","""event"",""trial"",""time""
""fullscreenenter"",""5"",""11307""
","
","116.30000001192093","","49","","","3000","1","302.40000000596046,472.10000002384186,677.6000000238419,867.7000000178814,1057.800000011921,1253,1568.300000011921,1753.7000000178814,1959.4000000059605","49,49,49,49,49,49,49,49,49","images/earth.jpg","images/tutrocket1","images/tutrocket2","null","images/tutrocket2","","1","practice","null","1","","",""
"d3-animate-choice","86","165662","0.0-61.0-1.8","978","4986","22","Male","false","true","true","false","""event"",""trial"",""time""
""fullscreenenter"",""5"",""11307""
","
","
","""event"",""trial"",""time""
""fullscreenenter"",""5"",""11307""
","
","20.5","","49","","","3000","1","411.7999999821186,653.0999999940395,852.2999999821186,1041.7999999821186,1267.699999988079,1467.4000000059605,1668.699999988079,1877.4000000059605","49,49,49,49,49,49,49,49","images/tutyellowplanet.jpg","images/tutalien4","images/tutalien3","images/tutrocket2","images/tutalien3","images/nothing.png","2","practice","true","1","common","0","2022-12-13 04:35:00.199"
"two-step-fixation","87","166682","0.0-61.0-2.8","978","4986","22","Male","false","true","true","false","""event"",""trial"",""time""
""fullscreenenter"",""5"",""11307""
","
","
","""event"",""trial"",""time""
""fullscreenenter"",""5"",""11307""
","
","","images/earth.jpg","","","","","","","","","","","","","","fixation","","","","","",""
"d3-animate-choice","88","169374","0.0-61.0-0.9","978","4986","22","Male","false","true","true","false","""event"",""trial"",""time""
""fullscreenenter"",""5"",""11307""
","
","
","""event"",""trial"",""time""
""fullscreenenter"",""5"",""11307""
","
","680.8000000119209","","49","","","3000","1","907,1127,1366.9000000059605,1622.199999988079,1882.4000000059605","49,49,49,49,49","images/earth.jpg","images/tutrocket1","images/tutrocket2","null","images/tutrocket2","","1","practice","null","1","","",""
"d3-animate-choice","89","171445","0.0-61.0-1.9","978","4986","22","Male","false","true","true","false","""event"",""trial"",""time""
""fullscreenenter"",""5"",""11307""
","
","
","""event"",""trial"",""time""
""fullscreenenter"",""5"",""11307""
","
","67.7000000178814","","49","","","3000","1","507.80000001192093,693.8000000119209,948.4000000059605,1199.2000000178814,1434,1593.9000000059605,1779.7000000178814","49,49,49,49,49,49,49","images/tutgreenplanet.jpg","images/tutalien2","images/tutalien1","images/tutrocket2","images/tutalien1","images/t.png","2","practice","false","1","rare","1","2022-12-13 04:35:05.983"
"two-step-fixation","90","172454","0.0-61.0-2.9","978","4986","22","Male","false","true","true","false","""event"",""trial"",""time""
""fullscreenenter"",""5"",""11307""
","
","
","""event"",""trial"",""time""
""fullscreenenter"",""5"",""11307""
","
","","images/earth.jpg","","","","","","","","","","","","","","fixation","","","","","",""
"d3-animate-choice","91","175542","0.0-61.0-0.10","978","4986","22","Male","false","true","true","false","""event"",""trial"",""time""
""fullscreenenter"",""5"",""11307""
","
","
","""event"",""trial"",""time""
""fullscreenenter"",""5"",""11307""
","
","1077.199999988079","","49","","","3000","1","2118.2999999821186,2548.7999999821186,2838.4000000059605,3074.9000000059605","49,49,49,49","images/earth.jpg","images/tutrocket1","images/tutrocket2","null","images/tutrocket2","","1","practice","null","1","","",""
"d3-animate-choice","92","177711","0.0-61.0-1.10","978","4986","22","Male","false","true","true","false","""event"",""trial"",""time""
""fullscreenenter"",""5"",""11307""
","
","
","""event"",""trial"",""time""
""fullscreenenter"",""5"",""11307""
","
","160.90000000596046","","49","","","3000","1","320.69999998807907,851.9000000059605,1873.2999999821186,2133.7999999821186","49,49,49,49","images/tutyellowplanet.jpg","images/tutalien4","images/tutalien3","images/tutrocket2","images/tutalien3","images/t.png","2","practice","true","1","common","1","2022-12-13 04:35:12.248"
"two-step-fixation","93","178718","0.0-61.0-2.10","978","4986","22","Male","false","true","true","false","""event"",""trial"",""time""
""fullscreenenter"",""5"",""11307""
","
","
","""event"",""trial"",""time""
""fullscreenenter"",""5"",""11307""
","
","","images/earth.jpg","","","","","","","","","","","","","","fixation","","","","","",""
"d3-animate-choice","94","180870","0.0-61.0-0.11","978","4986","22","Male","false","true","true","false","""event"",""trial"",""time""
""fullscreenenter"",""5"",""11307""
","
","
","""event"",""trial"",""time""
""fullscreenenter"",""5"",""11307""
","
","143.60000002384186","","49","","","3000","1","374.10000002384186,624.2000000178814,940.2000000178814,1175.1000000238419,1415.5,1625.2000000178814,1851.5,2141.4000000059605","49,49,49,49,49,49,49,49","images/earth.jpg","images/tutrocket1","images/tutrocket2","null","images/tutrocket2","","1","practice","null","1","","",""
"d3-animate-choice","95","183128","0.0-61.0-1.11","978","4986","22","Male","false","true","true","false","""event"",""trial"",""time""
""fullscreenenter"",""5"",""11307""
","
","
","""event"",""trial"",""time""
""fullscreenenter"",""5"",""11307""
","
","249.59999999403954","","49","","","3000","1","470.7999999821186,701,1361.3999999761581,1701.7999999821186","49,49,49,49","images/tutgreenplanet.jpg","images/tutalien2","images/tutalien1","images/tutrocket2","images/tutalien1","images/nothing.png","2","practice","false","1","rare","0","2022-12-13 04:35:17.665"
"two-step-fixation","96","184134","0.0-61.0-2.11","978","4986","22","Male","false","true","true","false","""event"",""trial"",""time""
""fullscreenenter"",""5"",""11307""
","
","
","""event"",""trial"",""time""
""fullscreenenter"",""5"",""11307""
","
","","images/earth.jpg","","","","","","","","","","","","","","fixation","","","","","",""
"d3-animate-choice","97","186510","0.0-61.0-0.12","978","4986","22","Male","false","true","true","false","""event"",""trial"",""time""
""fullscreenenter"",""5"",""11307""
","
","
","""event"",""trial"",""time""
""fullscreenenter"",""5"",""11307""
","
","369.39999997615814","","49","","","3000","1","2026.3999999761581,2216.2999999821186","49,49","images/earth.jpg","images/tutrocket1","images/tutrocket2","null","images/tutrocket2","","1","practice","null","1","","",""
"d3-animate-choice","98","189414","0.0-61.0-1.12","978","4986","22","Male","false","true","true","false","""event"",""trial"",""time""
""fullscreenenter"",""5"",""11307""
","
","
","""event"",""trial"",""time""
""fullscreenenter"",""5"",""11307""
","
","898.0999999940395","","49","","","3000","1","2679.5999999940395","49","images/tutyellowplanet.jpg","images/tutalien4","images/tutalien3","images/tutrocket2","images/tutalien3","images/nothing.png","2","practice","true","1","common","0","2022-12-13 04:35:23.951"
"two-step-fixation","99","190422","0.0-61.0-2.12","978","4986","22","Male","false","true","true","false","""event"",""trial"",""time""
""fullscreenenter"",""5"",""11307""
","
","
","""event"",""trial"",""time""
""fullscreenenter"",""5"",""11307""
","
","","images/earth.jpg","","","","","","","","","","","","","","fixation","","","","","",""
"d3-animate-choice","100","192663","0.0-61.0-0.13","978","4986","22","Male","false","true","true","false","""event"",""trial"",""time""
""fullscreenenter"",""5"",""11307""
","
","
","""event"",""trial"",""time""
""fullscreenenter"",""5"",""11307""
","
","229.10000002384186","","49","","","3000","1","409.10000002384186,1836,2091","49,49,49","images/earth.jpg","images/tutrocket1","images/tutrocket2","null","images/tutrocket2","","1","practice","null","1","","",""
"d3-animate-choice","101","194736","0.0-61.0-1.13","978","4986","22","Male","false","true","true","false","""event"",""trial"",""time""
""fullscreenenter"",""5"",""11307""
","
","
","""event"",""trial"",""time""
""fullscreenenter"",""5"",""11307""
","
","60.900000005960464","","49","","","3000","1","284.69999998807907,621.1999999880791,1323,1640.199999988079,1978.0999999940395","49,49,49,49,49","images/tutyellowplanet.jpg","images/tutalien4","images/tutalien3","images/tutrocket2","images/tutalien3","images/nothing.png","2","practice","true","1","common","0","2022-12-13 04:35:29.273"
"two-step-fixation","102","195742","0.0-61.0-2.13","978","4986","22","Male","false","true","true","false","""event"",""trial"",""time""
""fullscreenenter"",""5"",""11307""
","
","
","""event"",""trial"",""time""
""fullscreenenter"",""5"",""11307""
","
","","images/earth.jpg","","","","","","","","","","","","","","fixation","","","","","",""
"d3-animate-choice","103","197919","0.0-61.0-0.14","978","4986","22","Male","false","true","true","false","""event"",""trial"",""time""
""fullscreenenter"",""5"",""11307""
","
","
","""event"",""trial"",""time""
""fullscreenenter"",""5"",""11307""
","
","164.59999999403954","","49","","","3000","1","395.5,1476.7000000178814,1797,2027.7000000178814","49,49,49,49","images/earth.jpg","images/tutrocket1","images/tutrocket2","null","images/tutrocket2","","1","practice","null","1","","",""
"d3-animate-choice","104","199978","0.0-61.0-1.14","978","4986","22","Male","false","true","true","false","""event"",""trial"",""time""
""fullscreenenter"",""5"",""11307""
","
","
","""event"",""trial"",""time""
""fullscreenenter"",""5"",""11307""
","
","40.80000001192093","","49","","","3000","1","351.5,646.5999999940395,1468.800000011921","49,49,49","images/tutyellowplanet.jpg","images/tutalien4","images/tutalien3","images/tutrocket2","images/tutalien3","images/nothing.png","2","practice","true","1","common","0","2022-12-13 04:35:34.515"
"two-step-fixation","105","200982","0.0-61.0-2.14","978","4986","22","Male","false","true","true","false","""event"",""trial"",""time""
""fullscreenenter"",""5"",""11307""
","
","
","""event"",""trial"",""time""
""fullscreenenter"",""5"",""11307""
","
","","images/earth.jpg","","","","","","","","","","","","","","fixation","","","","","",""
"d3-animate-choice","106","203158","0.0-61.0-0.15","978","4986","22","Male","false","true","true","false","""event"",""trial"",""time""
""fullscreenenter"",""5"",""11307""
","
","
","""event"",""trial"",""time""
""fullscreenenter"",""5"",""11307""
","
","167.19999998807907","","49","","","3000","1","663,897.4000000059605,1107.199999988079,1323.4000000059605,2119","49,49,49,49,49","images/earth.jpg","images/tutrocket1","images/tutrocket2","null","images/tutrocket2","","1","practice","null","1","","",""
"d3-animate-choice","107","205391","0.0-61.0-1.15","978","4986","22","Male","false","true","true","false","""event"",""trial"",""time""
""fullscreenenter"",""5"",""11307""
","
","
","""event"",""trial"",""time""
""fullscreenenter"",""5"",""11307""
","
","224.80000001192093","","49","","","3000","1","524.8000000119209,757.2000000178814,1030.0999999940395,1290.7000000178814,2190.9000000059605","49,49,49,49,49","images/tutyellowplanet.jpg","images/tutalien4","images/tutalien3","images/tutrocket2","images/tutalien3","images/t.png","2","practice","true","1","common","1","2022-12-13 04:35:39.928"
"two-step-fixation","108","206398","0.0-61.0-2.15","978","4986","22","Male","false","true","true","false","""event"",""trial"",""time""
""fullscreenenter"",""5"",""11307""
","
","
","""event"",""trial"",""time""
""fullscreenenter"",""5"",""11307""
","
","","images/earth.jpg","","","","","","","","","","","","","","fixation","","","","","",""
"d3-animate-choice","109","209006","0.0-61.0-0.16","978","4986","22","Male","false","true","true","false","""event"",""trial"",""time""
""fullscreenenter"",""5"",""11307""
","
","
","""event"",""trial"",""time""
""fullscreenenter"",""5"",""11307""
","
","598","","49","","","3000","1","2230.0999999940395,2473.9000000059605","49,49","images/earth.jpg","images/tutrocket1","images/tutrocket2","null","images/tutrocket2","","1","practice","null","1","","",""
"d3-animate-choice","110","211254","0.0-61.0-1.16","978","4986","22","Male","false","true","true","false","""event"",""trial"",""time""
""fullscreenenter"",""5"",""11307""
","
","
","""event"",""trial"",""time""
""fullscreenenter"",""5"",""11307""
","
","242.59999999403954","","49","","","3000","1","607.7999999821186,888.2999999821186,1139.4000000059605,1364.2999999821186,1584.4000000059605","49,49,49,49,49","images/tutgreenplanet.jpg","images/tutalien2","images/tutalien1","images/tutrocket2","images/tutalien1","images/t.png","2","practice","false","1","rare","1","2022-12-13 04:35:45.791"
"two-step-fixation","111","212262","0.0-61.0-2.16","978","4986","22","Male","false","true","true","false","""event"",""trial"",""time""
""fullscreenenter"",""5"",""11307""
","
","
","""event"",""trial"",""time""
""fullscreenenter"",""5"",""11307""
","
","","images/earth.jpg","","","","","","","","","","","","","","fixation","","","","","",""
"d3-animate-choice","112","214502","0.0-61.0-0.17","978","4986","22","Male","false","true","true","false","""event"",""trial"",""time""
""fullscreenenter"",""5"",""11307""
","
","
","""event"",""trial"",""time""
""fullscreenenter"",""5"",""11307""
","
","234.90000000596046","","49","","","3000","1","655.9000000059605,950.7000000178814,1236.5,1712,2192.4000000059605","49,49,49,49,49","images/earth.jpg","images/tutrocket1","images/tutrocket2","null","images/tutrocket2","","1","practice","null","1","","",""
"d3-animate-choice","113","217251","0.0-61.0-1.17","978","4986","22","Male","false","true","true","false","""event"",""trial"",""time""
""fullscreenenter"",""5"",""11307""
","
","
","""event"",""trial"",""time""
""fullscreenenter"",""5"",""11307""
","
","738.8999999761581","","49","","","3000","1","1239","49","images/tutyellowplanet.jpg","images/tutalien4","images/tutalien3","images/tutrocket2","images/tutalien3","images/t.png","2","practice","true","1","common","1","2022-12-13 04:35:51.788"
"two-step-fixation","114","218263","0.0-61.0-2.17","978","4986","22","Male","false","true","true","false","""event"",""trial"",""time""
""fullscreenenter"",""5"",""11307""
","
","
","""event"",""trial"",""time""
""fullscreenenter"",""5"",""11307""
","
","","images/earth.jpg","","","","","","","","","","","","","","fixation","","","","","",""
"d3-animate-choice","115","221651","0.0-61.0-0.18","978","4986","22","Male","false","true","true","false","""event"",""trial"",""time""
""fullscreenenter"",""5"",""11307""
","
","
","""event"",""trial"",""time""
""fullscreenenter"",""5"",""11307""
","
","1382.4000000059605","","49","","","3000","1","1682.7999999821186,1887.9000000059605,2088.699999988079,2472.7999999821186,2693.699999988079,3010,3285.0999999940395","49,49,49,49,49,49,49","images/earth.jpg","images/tutrocket1","images/tutrocket2","null","images/tutrocket2","","1","practice","null","1","","",""
"d3-animate-choice","116","223773","0.0-61.0-1.18","978","4986","22","Male","false","true","true","false","""event"",""trial"",""time""
""fullscreenenter"",""5"",""11307""
","
","
","""event"",""trial"",""time""
""fullscreenenter"",""5"",""11307""
","
","107.5","","49","","","3000","1","308.5,738.8000000119209,938.9000000059605,1134.4000000059605,1494.7000000178814,1714.4000000059605,1965.7000000178814","49,49,49,49,49,49,49","images/tutgreenplanet.jpg","images/tutalien2","images/tutalien1","images/tutrocket2","images/tutalien1","images/nothing.png","2","practice","false","1","rare","0","2022-12-13 04:35:58.310"
"two-step-fixation","117","224781","0.0-61.0-2.18","978","4986","22","Male","false","true","true","false","""event"",""trial"",""time""
""fullscreenenter"",""5"",""11307""
","
","
","""event"",""trial"",""time""
""fullscreenenter"",""5"",""11307""
","
","","images/earth.jpg","","","","","","","","","","","","","","fixation","","","","","",""
"d3-animate-choice","118","226950","0.0-61.0-0.19","978","4986","22","Male","false","true","true","false","""event"",""trial"",""time""
""fullscreenenter"",""5"",""11307""
","
","
","""event"",""trial"",""time""
""fullscreenenter"",""5"",""11307""
","
","161.2000000178814","","49","","","3000","1","326.30000001192093,510.90000000596046,704.9000000059605,847.1000000238419,1001.1000000238419,1182,1376.7000000178814,1571.800000011921","49,49,49,49,49,49,49,49","images/earth.jpg","images/tutrocket1","images/tutrocket2","null","images/tutrocket2","","1","practice","null","1","","",""
"d3-animate-choice","119","229047","0.0-61.0-1.19","978","4986","22","Male","false","true","true","false","""event"",""trial"",""time""
""fullscreenenter"",""5"",""11307""
","
","
","""event"",""trial"",""time""
""fullscreenenter"",""5"",""11307""
","
","84.5","","49","","","3000","1","424.90000000596046,581","49,49","images/tutgreenplanet.jpg","images/tutalien2","images/tutalien1","images/tutrocket2","images/tutalien1","images/t.png","2","practice","false","1","rare","1","2022-12-13 04:36:03.584"
"two-step-fixation","120","230053","0.0-61.0-2.19","978","4986","22","Male","false","true","true","false","""event"",""trial"",""time""
""fullscreenenter"",""5"",""11307""
","
","
","""event"",""trial"",""time""
""fullscreenenter"",""5"",""11307""
","
","","images/earth.jpg","","","","","","","","","","","","","","fixation","","","","","",""
"d3-instructions","121","232293","0.0-62.0","978","4986","22","Male","false","true","true","false","""event"",""trial"",""time""
""fullscreenenter"",""5"",""11307""
","
","
","""event"",""trial"",""time""
""fullscreenenter"",""5"",""11307""
","
","","","","","","","","","","","","","","","","","","","","","",""
"audio-keyboard-response","122","234030","0.0-63.0","978","4986","22","Male","false","true","true","false","""event"",""trial"",""time""
""fullscreenenter"",""5"",""11307""
","
","
","""event"",""trial"",""time""
""fullscreenenter"",""5"",""11307""
","
","1728","audio/instructions/treasure_feedback.wav","32","","","","","","","","","","","","","","","","","","",""
"d3-instructions","123","235747","0.0-64.0","978","4986","22","Male","false","true","true","false","""event"",""trial"",""time""
""fullscreenenter"",""5"",""11307""
","
","
","""event"",""trial"",""time""
""fullscreenenter"",""5"",""11307""
","
","","","","","","","","","","","","","","","","","","","","","",""
"d3-instructions","124","236744","0.0-65.0","978","4986","22","Male","false","true","true","false","""event"",""trial"",""time""
""fullscreenenter"",""5"",""11307""
","
","
","""event"",""trial"",""time""
""fullscreenenter"",""5"",""11307""
","
","","","","","","","","","","","","","","","","","","","","","",""
"d3-instructions","125","237595","0.0-66.0","978","4986","22","Male","false","true","true","false","""event"",""trial"",""time""
""fullscreenenter"",""5"",""11307""
","
","
","""event"",""trial"",""time""
""fullscreenenter"",""5"",""11307""
","
","","","","","","","","","","","","","","","","","","","","","",""
"d3-instructions","126","238441","0.0-67.0","978","4986","22","Male","false","true","true","false","""event"",""trial"",""time""
""fullscreenenter"",""5"",""11307""
","
","
","""event"",""trial"",""time""
""fullscreenenter"",""5"",""11307""
","
","","","","","","","","","","","","","","","","","","","","","",""
"d3-instructions","127","239257","0.0-68.0","978","4986","22","Male","false","true","true","false","""event"",""trial"",""time""
""fullscreenenter"",""5"",""11307""
","
","
","""event"",""trial"",""time""
""fullscreenenter"",""5"",""11307""
","
","","","","","","","","","","","","","","","","","","","","","",""
"instructions-quiz","128","241904","0.0-69.0","978","4986","22","Male","false","true","true","false","""event"",""trial"",""time""
""fullscreenenter"",""5"",""11307""
","
","
","""event"",""trial"",""time""
""fullscreenenter"",""5"",""11307""
","
","2645.2999999821186","audio/quiz/Q1_Prompt.wav","","1","","","","","","","","","","","","","","","","","",""
"audio-keyboard-response","129","242631","0.0-70.0","978","4986","22","Male","false","true","true","false","""event"",""trial"",""time""
""fullscreenenter"",""5"",""11307""
","
","
","""event"",""trial"",""time""
""fullscreenenter"",""5"",""11307""
","
","720","audio/quiz/Q1_Correct.wav","32","","","","","","","","","","","","","","","","","","",""
"instructions-quiz","130","244995","0.0-71.0","978","4986","22","Male","false","true","true","false","""event"",""trial"",""time""
""fullscreenenter"",""5"",""11307""
","
","
","""event"",""trial"",""time""
""fullscreenenter"",""5"",""11307""
","
","2363","audio/quiz/Q2_Prompt.wav","","0","","","","","","","","","","","","","","","","","",""
"audio-keyboard-response","131","245284","0.0-72.0","978","4986","22","Male","false","true","true","false","""event"",""trial"",""time""
""fullscreenenter"",""5"",""11307""
","
","
","""event"",""trial"",""time""
""fullscreenenter"",""5"",""11307""
","
","291","audio/quiz/Q2_Correct.wav","32","","","","","","","","","","","","","","","","","","",""
"instructions-quiz","132","247099","0.0-73.0","978","4986","22","Male","false","true","true","false","""event"",""trial"",""time""
""fullscreenenter"",""5"",""11307""
","
","
","""event"",""trial"",""time""
""fullscreenenter"",""5"",""11307""
","
","1813.7000000178814","audio/quiz/Q3_Prompt.wav","","1","","","","","","","","","","","","","","","","","",""
"audio-keyboard-response","133","248398","0.0-74.0","978","4986","22","Male","false","true","true","false","""event"",""trial"",""time""
""fullscreenenter"",""5"",""11307""
","
","
","""event"",""trial"",""time""
""fullscreenenter"",""5"",""11307""
","
","1299","audio/quiz/Q3_Correct.wav","32","","","","","","","","","","","","","","","","","","",""
"d3-instructions","134","305095","0.0-75.0","978","4986","22","Male","false","true","true","false","""event"",""trial"",""time""
""fullscreenenter"",""5"",""11307""
","
","
","""event"",""trial"",""time""
""fullscreenenter"",""5"",""11307""
","
","","","","","","","","","","","","","","","","","","","","","",""
"d3-animate-choice","135","308191","0.0-76.0-0.0","978","4986","22","Male","false","true","true","false","""event"",""trial"",""time""
""fullscreenenter"",""5"",""11307""
","
","
","""event"",""trial"",""time""
""fullscreenenter"",""5"",""11307""
","
","1087.5","","49","","","3000","1","","","images/earth.jpg","images/rocket1","images/rocket2","null","images/rocket2","","1","real","null","1","","",""
"d3-animate-choice","136","310677","0.0-76.0-1.0","978","4986","22","Male","false","true","true","false","""event"",""trial"",""time""
""fullscreenenter"",""5"",""11307""
","
","
","""event"",""trial"",""time""
""fullscreenenter"",""5"",""11307""
","
","460.2000000178814","","49","","","3000","1","","","images/redplanet1.jpg","images/alien2","images/alien1","images/rocket2","images/alien1","images/nothing.png","2","real","false","1","rare","0","2022-12-13 04:37:25.214"
"two-step-fixation","137","311686","0.0-76.0-2.0","978","4986","22","Male","false","true","true","false","""event"",""trial"",""time""
""fullscreenenter"",""5"",""11307""
","
","
","""event"",""trial"",""time""
""fullscreenenter"",""5"",""11307""
","
","","images/earth.jpg","","","","","","","","","","","","","","fixation","","","","","",""
"d3-animate-choice","138","313855","0.0-76.0-0.1","978","4986","22","Male","false","true","true","false","""event"",""trial"",""time""
""fullscreenenter"",""5"",""11307""
","
","
","""event"",""trial"",""time""
""fullscreenenter"",""5"",""11307""
","
","163","","49","","","3000","1","","","images/earth.jpg","images/rocket1","images/rocket2","null","images/rocket2","","1","real","null","1","","",""
"d3-animate-choice","139","317552","0.0-76.0-1.1","978","4986","22","Male","false","true","true","false","""event"",""trial"",""time""
""fullscreenenter"",""5"",""11307""
","
","
","""event"",""trial"",""time""
""fullscreenenter"",""5"",""11307""
","
","257.5","","50","","","3000","1","732.3000000119209,1683.5999999940395","50,48","images/purpleplanet.jpg","images/alien4","images/alien3","images/rocket2","images/alien4","images/t.png","2","real","true","","common","1","2022-12-13 04:37:32.089"
"two-step-fixation","140","318557","0.0-76.0-2.1","978","4986","22","Male","false","true","true","false","""event"",""trial"",""time""
""fullscreenenter"",""5"",""11307""
","
","
","""event"",""trial"",""time""
""fullscreenenter"",""5"",""11307""
","
","","images/earth.jpg","","","","","","","","","","","","","","fixation","","","","","",""
"d3-animate-choice","141","320695","0.0-76.0-0.2","978","4986","22","Male","false","true","true","false","""event"",""trial"",""time""
""fullscreenenter"",""5"",""11307""
","
","
","""event"",""trial"",""time""
""fullscreenenter"",""5"",""11307""
","
","125.7000000178814","","49","","","3000","1","","","images/earth.jpg","images/rocket1","images/rocket2","null","images/rocket2","","1","real","null","1","","",""
"d3-animate-choice","142","323047","0.0-76.0-1.2","978","4986","22","Male","false","true","true","false","""event"",""trial"",""time""
""fullscreenenter"",""5"",""11307""
","
","
","""event"",""trial"",""time""
""fullscreenenter"",""5"",""11307""
","
","340.30000001192093","","48","","","3000","1","","","images/purpleplanet.jpg","images/alien4","images/alien3","images/rocket2","images/alien4","images/t.png","2","real","true","2","common","1","2022-12-13 04:37:37.584"
"two-step-fixation","143","324053","0.0-76.0-2.2","978","4986","22","Male","false","true","true","false","""event"",""trial"",""time""
""fullscreenenter"",""5"",""11307""
","
","
","""event"",""trial"",""time""
""fullscreenenter"",""5"",""11307""
","
","","images/earth.jpg","","","","","","","","","","","","","","fixation","","","","","",""
"d3-animate-choice","144","326166","0.0-76.0-0.3","978","4986","22","Male","false","true","true","false","""event"",""trial"",""time""
""fullscreenenter"",""5"",""11307""
","
","
","""event"",""trial"",""time""
""fullscreenenter"",""5"",""11307""
","
","104.60000002384186","","49","","","3000","1","","","images/earth.jpg","images/rocket1","images/rocket2","null","images/rocket2","","1","real","null","1","","",""
"d3-animate-choice","145","328453","0.0-76.0-1.3","978","4986","22","Male","false","true","true","false","""event"",""trial"",""time""
""fullscreenenter"",""5"",""11307""
","
","
","""event"",""trial"",""time""
""fullscreenenter"",""5"",""11307""
","
","280.09999999403954","","48","","","3000","1","2142","49","images/purpleplanet.jpg","images/alien4","images/alien3","images/rocket2","images/alien4","images/t.png","2","real","true","2","common","1","2022-12-13 04:37:42.990"
"two-step-fixation","146","329462","0.0-76.0-2.3","978","4986","22","Male","false","true","true","false","""event"",""trial"",""time""
""fullscreenenter"",""5"",""11307""
","
","
","""event"",""trial"",""time""
""fullscreenenter"",""5"",""11307""
","
","","images/earth.jpg","","","","","","","","","","","","","","fixation","","","","","",""
"d3-animate-choice","147","331670","0.0-76.0-0.4","978","4986","22","Male","false","true","true","false","""event"",""trial"",""time""
""fullscreenenter"",""5"",""11307""
","
","
","""event"",""trial"",""time""
""fullscreenenter"",""5"",""11307""
","
","197.69999998807907","","49","","","3000","1","","","images/earth.jpg","images/rocket1","images/rocket2","null","images/rocket2","","1","real","null","1","","",""
"d3-animate-choice","148","333678","0.0-76.0-1.4","978","4986","22","Male","false","true","true","false","""event"",""trial"",""time""
""fullscreenenter"",""5"",""11307""
","
","
","""event"",""trial"",""time""
""fullscreenenter"",""5"",""11307""
","
","3.4000000059604645","","48","","","3000","1","447.7000000178814","48","images/purpleplanet.jpg","images/alien4","images/alien3","images/rocket2","images/alien4","images/t.png","2","real","true","2","common","1","2022-12-13 04:37:48.215"
"two-step-fixation","149","334686","0.0-76.0-2.4","978","4986","22","Male","false","true","true","false","""event"",""trial"",""time""
""fullscreenenter"",""5"",""11307""
","
","
","""event"",""trial"",""time""
""fullscreenenter"",""5"",""11307""
","
","","images/earth.jpg","","","","","","","","","","","","","","fixation","","","","","",""
"d3-animate-choice","150","337054","0.0-76.0-0.5","978","4986","22","Male","false","true","true","false","""event"",""trial"",""time""
""fullscreenenter"",""5"",""11307""
","
","
","""event"",""trial"",""time""
""fullscreenenter"",""5"",""11307""
","
","359.59999999403954","","49","","","3000","1","","","images/earth.jpg","images/rocket1","images/rocket2","null","images/rocket2","","1","real","null","1","","",""
"d3-animate-choice","151","339435","0.0-76.0-1.5","978","4986","22","Male","false","true","true","false","""event"",""trial"",""time""
""fullscreenenter"",""5"",""11307""
","
","
","""event"",""trial"",""time""
""fullscreenenter"",""5"",""11307""
","
","375.10000002384186","","48","","","3000","1","","","images/purpleplanet.jpg","images/alien4","images/alien3","images/rocket2","images/alien4","images/t.png","2","real","true","2","common","1","2022-12-13 04:37:53.972"
"two-step-fixation","152","340446","0.0-76.0-2.5","978","4986","22","Male","false","true","true","false","""event"",""trial"",""time""
""fullscreenenter"",""5"",""11307""
","
","
","""event"",""trial"",""time""
""fullscreenenter"",""5"",""11307""
","
","","images/earth.jpg","","","","","","","","","","","","","","fixation","","","","","",""
"d3-animate-choice","153","342654","0.0-76.0-0.6","978","4986","22","Male","false","true","true","false","""event"",""trial"",""time""
""fullscreenenter"",""5"",""11307""
","
","
","""event"",""trial"",""time""
""fullscreenenter"",""5"",""11307""
","
","196.90000000596046","","49","","","3000","1","","","images/earth.jpg","images/rocket1","images/rocket2","null","images/rocket2","","1","real","null","1","","",""
"d3-animate-choice","154","344686","0.0-76.0-1.6","978","4986","22","Male","false","true","true","false","""event"",""trial"",""time""
""fullscreenenter"",""5"",""11307""
","
","
","""event"",""trial"",""time""
""fullscreenenter"",""5"",""11307""
","
","24.799999982118607","","48","","","3000","1","380.40000000596046","48","images/purpleplanet.jpg","images/alien4","images/alien3","images/rocket2","images/alien4","images/t.png","2","real","true","2","common","1","2022-12-13 04:37:59.223"
"two-step-fixation","155","345694","0.0-76.0-2.6","978","4986","22","Male","false","true","true","false","""event"",""trial"",""time""
""fullscreenenter"",""5"",""11307""
","
","
","""event"",""trial"",""time""
""fullscreenenter"",""5"",""11307""
","
","","images/earth.jpg","","","","","","","","","","","","","","fixation","","","","","",""
"d3-animate-choice","156","348022","0.0-76.0-0.7","978","4986","22","Male","false","true","true","false","""event"",""trial"",""time""
""fullscreenenter"",""5"",""11307""
","
","
","""event"",""trial"",""time""
""fullscreenenter"",""5"",""11307""
","
","324.09999999403954","","49","","","3000","1","","","images/earth.jpg","images/rocket1","images/rocket2","null","images/rocket2","","1","real","null","1","","",""
"d3-animate-choice","157","350054","0.0-76.0-1.7","978","4986","22","Male","false","true","true","false","""event"",""trial"",""time""
""fullscreenenter"",""5"",""11307""
","
","
","""event"",""trial"",""time""
""fullscreenenter"",""5"",""11307""
","
","28.30000001192093","","48","","","3000","1","","","images/purpleplanet.jpg","images/alien4","images/alien3","images/rocket2","images/alien4","images/t.png","2","real","true","2","common","1","2022-12-13 04:38:04.591"
"two-step-fixation","158","351063","0.0-76.0-2.7","978","4986","22","Male","false","true","true","false","""event"",""trial"",""time""
""fullscreenenter"",""5"",""11307""
","
","
","""event"",""trial"",""time""
""fullscreenenter"",""5"",""11307""
","
","","images/earth.jpg","","","","","","","","","","","","","","fixation","","","","","",""
"d3-animate-choice","159","353102","0.0-76.0-0.8","978","4986","22","Male","false","true","true","false","""event"",""trial"",""time""
""fullscreenenter"",""5"",""11307""
","
","
","""event"",""trial"",""time""
""fullscreenenter"",""5"",""11307""
","
","30.799999982118607","","49","","","3000","1","1983.9000000059605","48","images/earth.jpg","images/rocket1","images/rocket2","null","images/rocket2","","1","real","null","1","","",""
"d3-animate-choice","160","355416","0.0-76.0-1.8","978","4986","22","Male","false","true","true","false","""event"",""trial"",""time""
""fullscreenenter"",""5"",""11307""
","
","
","""event"",""trial"",""time""
""fullscreenenter"",""5"",""11307""
","
","309.90000000596046","","48","","","3000","1","","","images/purpleplanet.jpg","images/alien4","images/alien3","images/rocket2","images/alien4","images/t.png","2","real","true","2","common","1","2022-12-13 04:38:09.953"
"two-step-fixation","161","356422","0.0-76.0-2.8","978","4986","22","Male","false","true","true","false","""event"",""trial"",""time""
""fullscreenenter"",""5"",""11307""
","
","
","""event"",""trial"",""time""
""fullscreenenter"",""5"",""11307""
","
","","images/earth.jpg","","","","","","","","","","","","","","fixation","","","","","",""
"d3-animate-choice","162","358662","0.0-76.0-0.9","978","4986","22","Male","false","true","true","false","""event"",""trial"",""time""
""fullscreenenter"",""5"",""11307""
","
","
","""event"",""trial"",""time""
""fullscreenenter"",""5"",""11307""
","
","223.90000000596046","","49","","","3000","1","","","images/earth.jpg","images/rocket1","images/rocket2","null","images/rocket2","","1","real","null","1","","",""
"d3-animate-choice","163","360679","0.0-76.0-1.9","978","4986","22","Male","false","true","true","false","""event"",""trial"",""time""
""fullscreenenter"",""5"",""11307""
","
","
","""event"",""trial"",""time""
""fullscreenenter"",""5"",""11307""
","
","9.900000005960464","","48","","","3000","1","421.69999998807907","48","images/purpleplanet.jpg","images/alien4","images/alien3","images/rocket2","images/alien4","images/nothing.png","2","real","true","2","common","0","2022-12-13 04:38:15.216"
"two-step-fixation","164","361686","0.0-76.0-2.9","978","4986","22","Male","false","true","true","false","""event"",""trial"",""time""
""fullscreenenter"",""5"",""11307""
","
","
","""event"",""trial"",""time""
""fullscreenenter"",""5"",""11307""
","
","","images/earth.jpg","","","","","","","","","","","","","","fixation","","","","","",""
"d3-animate-choice","165","363894","0.0-76.0-0.10","978","4986","22","Male","false","true","true","false","""event"",""trial"",""time""
""fullscreenenter"",""5"",""11307""
","
","
","""event"",""trial"",""time""
""fullscreenenter"",""5"",""11307""
","
","200.40000000596046","","49","","","3000","1","","","images/earth.jpg","images/rocket1","images/rocket2","null","images/rocket2","","1","real","null","1","","",""
"d3-animate-choice","166","366159","0.0-76.0-1.10","978","4986","22","Male","false","true","true","false","""event"",""trial"",""time""
""fullscreenenter"",""5"",""11307""
","
","
","""event"",""trial"",""time""
""fullscreenenter"",""5"",""11307""
","
","260.2999999821186","","48","","","3000","1","","","images/purpleplanet.jpg","images/alien4","images/alien3","images/rocket2","images/alien4","images/nothing.png","2","real","true","2","common","0","2022-12-13 04:38:20.696"
"two-step-fixation","167","367164","0.0-76.0-2.10","978","4986","22","Male","false","true","true","false","""event"",""trial"",""time""
""fullscreenenter"",""5"",""11307""
","
","
","""event"",""trial"",""time""
""fullscreenenter"",""5"",""11307""
","
","","images/earth.jpg","","","","","","","","","","","","","","fixation","","","","","",""
"d3-animate-choice","168","369222","0.0-76.0-0.11","978","4986","22","Male","false","true","true","false","""event"",""trial"",""time""
""fullscreenenter"",""5"",""11307""
","
","
","""event"",""trial"",""time""
""fullscreenenter"",""5"",""11307""
","
","53.400000005960464","","49","","","3000","1","2026","48","images/earth.jpg","images/rocket1","images/rocket2","null","images/rocket2","","1","real","null","1","","",""
"d3-animate-choice","169","371646","0.0-76.0-1.11","978","4986","22","Male","false","true","true","false","""event"",""trial"",""time""
""fullscreenenter"",""5"",""11307""
","
","
","""event"",""trial"",""time""
""fullscreenenter"",""5"",""11307""
","
","413.19999998807907","","48","","","3000","1","","","images/purpleplanet.jpg","images/alien4","images/alien3","images/rocket2","images/alien4","images/nothing.png","2","real","true","2","common","0","2022-12-13 04:38:26.183"
"two-step-fixation","170","372669","0.0-76.0-2.11","978","4986","22","Male","false","true","true","false","""event"",""trial"",""time""
""fullscreenenter"",""5"",""11307""
","
","
","""event"",""trial"",""time""
""fullscreenenter"",""5"",""11307""
","
","","images/earth.jpg","","","","","","","","","","","","","","fixation","","","","","",""
"d3-animate-choice","171","374963","0.0-76.0-0.12","978","4986","22","Male","false","true","true","false","""event"",""trial"",""time""
""fullscreenenter"",""5"",""11307""
","
","
","""event"",""trial"",""time""
""fullscreenenter"",""5"",""11307""
","
","285.59999999403954","","49","","","3000","1","","","images/earth.jpg","images/rocket1","images/rocket2","null","images/rocket2","","1","real","null","1","","",""
"d3-animate-choice","172","376974","0.0-76.0-1.12","978","4986","22","Male","false","true","true","false","""event"",""trial"",""time""
""fullscreenenter"",""5"",""11307""
","
","
","""event"",""trial"",""time""
""fullscreenenter"",""5"",""11307""
","
","4.199999988079071","","48","","","3000","1","","","images/purpleplanet.jpg","images/alien4","images/alien3","images/rocket2","images/alien4","images/t.png","2","real","true","2","common","1","2022-12-13 04:38:31.511"
"two-step-fixation","173","377983","0.0-76.0-2.12","978","4986","22","Male","false","true","true","false","""event"",""trial"",""time""
""fullscreenenter"",""5"",""11307""
","
","
","""event"",""trial"",""time""
""fullscreenenter"",""5"",""11307""
","
","","images/earth.jpg","","","","","","","","","","","","","","fixation","","","","","",""
"d3-animate-choice","174","380311","0.0-76.0-0.13","978","4986","22","Male","false","true","true","false","""event"",""trial"",""time""
""fullscreenenter"",""5"",""11307""
","
","
","""event"",""trial"",""time""
""fullscreenenter"",""5"",""11307""
","
","323.2000000178814","","49","","","3000","1","","","images/earth.jpg","images/rocket1","images/rocket2","null","images/rocket2","","1","real","null","1","","",""
"d3-animate-choice","175","382382","0.0-76.0-1.13","978","4986","22","Male","false","true","true","false","""event"",""trial"",""time""
""fullscreenenter"",""5"",""11307""
","
","
","""event"",""trial"",""time""
""fullscreenenter"",""5"",""11307""
","
","67.10000002384186","","48","","","3000","1","","","images/purpleplanet.jpg","images/alien4","images/alien3","images/rocket2","images/alien4","images/t.png","2","real","true","2","common","1","2022-12-13 04:38:36.919"
"two-step-fixation","176","383391","0.0-76.0-2.13","978","4986","22","Male","false","true","true","false","""event"",""trial"",""time""
""fullscreenenter"",""5"",""11307""
","
","
","""event"",""trial"",""time""
""fullscreenenter"",""5"",""11307""
","
","","images/earth.jpg","","","","","","","","","","","","","","fixation","","","","","",""
"d3-animate-choice","177","385766","0.0-76.0-0.14","978","4986","22","Male","false","true","true","false","""event"",""trial"",""time""
""fullscreenenter"",""5"",""11307""
","
","
","""event"",""trial"",""time""
""fullscreenenter"",""5"",""11307""
","
","351.19999998807907","","48","","","3000","1","359.7999999821186","49","images/earth.jpg","images/rocket1","images/rocket2","null","images/rocket1","","1","real","null","2","","",""
"d3-animate-choice","178","388191","0.0-76.0-1.14","978","4986","22","Male","false","true","true","false","""event"",""trial"",""time""
""fullscreenenter"",""5"",""11307""
","
","
","""event"",""trial"",""time""
""fullscreenenter"",""5"",""11307""
","
","414.09999999403954","","48","","","3000","1","","","images/redplanet1.jpg","images/alien2","images/alien1","images/rocket1","images/alien2","images/t.png","2","real","true","2","common","1","2022-12-13 04:38:42.728"
"two-step-fixation","179","389199","0.0-76.0-2.14","978","4986","22","Male","false","true","true","false","""event"",""trial"",""time""
""fullscreenenter"",""5"",""11307""
","
","
","""event"",""trial"",""time""
""fullscreenenter"",""5"",""11307""
","
","","images/earth.jpg","","","","","","","","","","","","","","fixation","","","","","",""
"d3-animate-choice","180","391590","0.0-76.0-0.15","978","4986","22","Male","false","true","true","false","""event"",""trial"",""time""
""fullscreenenter"",""5"",""11307""
","
","
","""event"",""trial"",""time""
""fullscreenenter"",""5"",""11307""
","
","380.10000002384186","","49","","","3000","1","","","images/earth.jpg","images/rocket1","images/rocket2","null","images/rocket2","","1","real","null","1","","",""
"d3-animate-choice","181","393871","0.0-76.0-1.15","978","4986","22","Male","false","true","true","false","""event"",""trial"",""time""
""fullscreenenter"",""5"",""11307""
","
","
","""event"",""trial"",""time""
""fullscreenenter"",""5"",""11307""
","
","276.10000002384186","","48","","","3000","1","","","images/purpleplanet.jpg","images/alien4","images/alien3","images/rocket2","images/alien4","images/t.png","2","real","true","2","common","1","2022-12-13 04:38:48.408"
"two-step-fixation","182","394876","0.0-76.0-2.15","978","4986","22","Male","false","true","true","false","""event"",""trial"",""time""
""fullscreenenter"",""5"",""11307""
","
","
","""event"",""trial"",""time""
""fullscreenenter"",""5"",""11307""
","
","","images/earth.jpg","","","","","","","","","","","","","","fixation","","","","","",""
"d3-animate-choice","183","397044","0.0-76.0-0.16","978","4986","22","Male","false","true","true","false","""event"",""trial"",""time""
""fullscreenenter"",""5"",""11307""
","
","
","""event"",""trial"",""time""
""fullscreenenter"",""5"",""11307""
","
","163.39999997615814","","49","","","3000","1","","","images/earth.jpg","images/rocket1","images/rocket2","null","images/rocket2","","1","real","null","1","","",""
"d3-animate-choice","184","399054","0.0-76.0-1.16","978","4986","22","Male","false","true","true","false","""event"",""trial"",""time""
""fullscreenenter"",""5"",""11307""
","
","
","""event"",""trial"",""time""
""fullscreenenter"",""5"",""11307""
","
","3.7000000178813934","","48","","","3000","1","329.5","48","images/redplanet1.jpg","images/alien2","images/alien1","images/rocket2","images/alien2","images/nothing.png","2","real","false","2","rare","0","2022-12-13 04:38:53.591"
"two-step-fixation","185","400059","0.0-76.0-2.16","978","4986","22","Male","false","true","true","false","""event"",""trial"",""time""
""fullscreenenter"",""5"",""11307""
","
","
","""event"",""trial"",""time""
""fullscreenenter"",""5"",""11307""
","
","","images/earth.jpg","","","","","","","","","","","","","","fixation","","","","","",""
"d3-animate-choice","186","402070","0.0-76.0-0.17","978","4986","22","Male","false","true","true","false","""event"",""trial"",""time""
""fullscreenenter"",""5"",""11307""
","
","
","""event"",""trial"",""time""
""fullscreenenter"",""5"",""11307""
","
","1.5","","49","","","3000","1","","","images/earth.jpg","images/rocket1","images/rocket2","null","images/rocket2","","1","real","null","1","","",""
"d3-animate-choice","187","404319","0.0-76.0-1.17","978","4986","22","Male","false","true","true","false","""event"",""trial"",""time""
""fullscreenenter"",""5"",""11307""
","
","
","""event"",""trial"",""time""
""fullscreenenter"",""5"",""11307""
","
","238.19999998807907","","48","","","3000","1","","","images/purpleplanet.jpg","images/alien4","images/alien3","images/rocket2","images/alien4","images/nothing.png","2","real","true","2","common","0","2022-12-13 04:38:58.856"
"two-step-fixation","188","405326","0.0-76.0-2.17","978","4986","22","Male","false","true","true","false","""event"",""trial"",""time""
""fullscreenenter"",""5"",""11307""
","
","
","""event"",""trial"",""time""
""fullscreenenter"",""5"",""11307""
","
","","images/earth.jpg","","","","","","","","","","","","","","fixation","","","","","",""
"d3-animate-choice","189","407438","0.0-76.0-0.18","978","4986","22","Male","false","true","true","false","""event"",""trial"",""time""
""fullscreenenter"",""5"",""11307""
","
","
","""event"",""trial"",""time""
""fullscreenenter"",""5"",""11307""
","
","105.40000000596046","","49","","","3000","1","","","images/earth.jpg","images/rocket1","images/rocket2","null","images/rocket2","","1","real","null","1","","",""
"d3-animate-choice","190","409670","0.0-76.0-1.18","978","4986","22","Male","false","true","true","false","""event"",""trial"",""time""
""fullscreenenter"",""5"",""11307""
","
","
","""event"",""trial"",""time""
""fullscreenenter"",""5"",""11307""
","
","221.80000001192093","","48","","","3000","1","","","images/redplanet1.jpg","images/alien2","images/alien1","images/rocket2","images/alien2","images/t.png","2","real","false","2","rare","1","2022-12-13 04:39:04.207"
"two-step-fixation","191","410678","0.0-76.0-2.18","978","4986","22","Male","false","true","true","false","""event"",""trial"",""time""
""fullscreenenter"",""5"",""11307""
","
","
","""event"",""trial"",""time""
""fullscreenenter"",""5"",""11307""
","
","","images/earth.jpg","","","","","","","","","","","","","","fixation","","","","","",""
"d3-animate-choice","192","412846","0.0-76.0-0.19","978","4986","22","Male","false","true","true","false","""event"",""trial"",""time""
""fullscreenenter"",""5"",""11307""
","
","
","""event"",""trial"",""time""
""fullscreenenter"",""5"",""11307""
","
","159.90000000596046","","49","","","3000","1","","","images/earth.jpg","images/rocket1","images/rocket2","null","images/rocket2","","1","real","null","1","","",""
"d3-animate-choice","193","415174","0.0-76.0-1.19","978","4986","22","Male","false","true","true","false","""event"",""trial"",""time""
""fullscreenenter"",""5"",""11307""
","
","
","""event"",""trial"",""time""
""fullscreenenter"",""5"",""11307""
","
","318.19999998807907","","48","","","3000","1","","","images/purpleplanet.jpg","images/alien4","images/alien3","images/rocket2","images/alien4","images/t.png","2","real","true","2","common","1","2022-12-13 04:39:09.711"
"two-step-fixation","194","416181","0.0-76.0-2.19","978","4986","22","Male","false","true","true","false","""event"",""trial"",""time""
""fullscreenenter"",""5"",""11307""
","
","
","""event"",""trial"",""time""
""fullscreenenter"",""5"",""11307""
","
","","images/earth.jpg","","","","","","","","","","","","","","fixation","","","","","",""
"d3-animate-choice","195","418478","0.0-76.0-0.20","978","4986","22","Male","false","true","true","false","""event"",""trial"",""time""
""fullscreenenter"",""5"",""11307""
","
","
","""event"",""trial"",""time""
""fullscreenenter"",""5"",""11307""
","
","292","","49","","","3000","1","","","images/earth.jpg","images/rocket1","images/rocket2","null","images/rocket2","","1","real","null","1","","",""
"d3-animate-choice","196","420821","0.0-76.0-1.20","978","4986","22","Male","false","true","true","false","""event"",""trial"",""time""
""fullscreenenter"",""5"",""11307""
","
","
","""event"",""trial"",""time""
""fullscreenenter"",""5"",""11307""
","
","338.19999998807907","","48","","","3000","1","","","images/purpleplanet.jpg","images/alien4","images/alien3","images/rocket2","images/alien4","images/t.png","2","real","true","2","common","1","2022-12-13 04:39:15.359"
"two-step-fixation","197","421830","0.0-76.0-2.20","978","4986","22","Male","false","true","true","false","""event"",""trial"",""time""
""fullscreenenter"",""5"",""11307""
","
","
","""event"",""trial"",""time""
""fullscreenenter"",""5"",""11307""
","
","","images/earth.jpg","","","","","","","","","","","","","","fixation","","","","","",""
"d3-animate-choice","198","424102","0.0-76.0-0.21","978","4986","22","Male","false","true","true","false","""event"",""trial"",""time""
""fullscreenenter"",""5"",""11307""
","
","
","""event"",""trial"",""time""
""fullscreenenter"",""5"",""11307""
","
","264.2000000178814","","49","","","3000","1","","","images/earth.jpg","images/rocket1","images/rocket2","null","images/rocket2","","1","real","null","1","","",""
"d3-animate-choice","199","426309","0.0-76.0-1.21","978","4986","22","Male","false","true","true","false","""event"",""trial"",""time""
""fullscreenenter"",""5"",""11307""
","
","
","""event"",""trial"",""time""
""fullscreenenter"",""5"",""11307""
","
","201.5","","48","","","3000","1","","","images/purpleplanet.jpg","images/alien4","images/alien3","images/rocket2","images/alien4","images/t.png","2","real","true","2","common","1","2022-12-13 04:39:20.847"
"two-step-fixation","200","427318","0.0-76.0-2.21","978","4986","22","Male","false","true","true","false","""event"",""trial"",""time""
""fullscreenenter"",""5"",""11307""
","
","
","""event"",""trial"",""time""
""fullscreenenter"",""5"",""11307""
","
","","images/earth.jpg","","","","","","","","","","","","","","fixation","","","","","",""
"d3-animate-choice","201","429406","0.0-76.0-0.22","978","4986","22","Male","false","true","true","false","""event"",""trial"",""time""
""fullscreenenter"",""5"",""11307""
","
","
","""event"",""trial"",""time""
""fullscreenenter"",""5"",""11307""
","
","83.09999999403954","","49","","","3000","1","","","images/earth.jpg","images/rocket1","images/rocket2","null","images/rocket2","","1","real","null","1","","",""
"d3-animate-choice","202","431734","0.0-76.0-1.22","978","4986","22","Male","false","true","true","false","""event"",""trial"",""time""
""fullscreenenter"",""5"",""11307""
","
","
","""event"",""trial"",""time""
""fullscreenenter"",""5"",""11307""
","
","324.09999999403954","","48","","","3000","1","","","images/purpleplanet.jpg","images/alien4","images/alien3","images/rocket2","images/alien4","images/nothing.png","2","real","true","2","common","0","2022-12-13 04:39:26.271"
"two-step-fixation","203","432742","0.0-76.0-2.22","978","4986","22","Male","false","true","true","false","""event"",""trial"",""time""
""fullscreenenter"",""5"",""11307""
","
","
","""event"",""trial"",""time""
""fullscreenenter"",""5"",""11307""
","
","","images/earth.jpg","","","","","","","","","","","","","","fixation","","","","","",""
"d3-animate-choice","204","434879","0.0-76.0-0.23","978","4986","22","Male","false","true","true","false","""event"",""trial"",""time""
""fullscreenenter"",""5"",""11307""
","
","
","""event"",""trial"",""time""
""fullscreenenter"",""5"",""11307""
","
","130","","49","","","3000","1","","","images/earth.jpg","images/rocket1","images/rocket2","null","images/rocket2","","1","real","null","1","","",""
"d3-animate-choice","205","437144","0.0-76.0-1.23","978","4986","22","Male","false","true","true","false","""event"",""trial"",""time""
""fullscreenenter"",""5"",""11307""
","
","
","""event"",""trial"",""time""
""fullscreenenter"",""5"",""11307""
","
","256.7000000178814","","48","","","3000","1","","","images/redplanet1.jpg","images/alien2","images/alien1","images/rocket2","images/alien2","images/t.png","2","real","false","2","rare","1","2022-12-13 04:39:31.681"
"two-step-fixation","206","438149","0.0-76.0-2.23","978","4986","22","Male","false","true","true","false","""event"",""trial"",""time""
""fullscreenenter"",""5"",""11307""
","
","
","""event"",""trial"",""time""
""fullscreenenter"",""5"",""11307""
","
","","images/earth.jpg","","","","","","","","","","","","","","fixation","","","","","",""
"d3-animate-choice","207","440382","0.0-76.0-0.24","978","4986","22","Male","false","true","true","false","""event"",""trial"",""time""
""fullscreenenter"",""5"",""11307""
","
","
","""event"",""trial"",""time""
""fullscreenenter"",""5"",""11307""
","
","224","","49","","","3000","1","","","images/earth.jpg","images/rocket1","images/rocket2","null","images/rocket2","","1","real","null","1","","",""
"d3-animate-choice","208","442878","0.0-76.0-1.24","978","4986","22","Male","false","true","true","false","""event"",""trial"",""time""
""fullscreenenter"",""5"",""11307""
","
","
","""event"",""trial"",""time""
""fullscreenenter"",""5"",""11307""
","
","490.09999999403954","","48","","","3000","1","","","images/purpleplanet.jpg","images/alien4","images/alien3","images/rocket2","images/alien4","images/t.png","2","real","true","2","common","1","2022-12-13 04:39:37.415"
"two-step-fixation","209","443886","0.0-76.0-2.24","978","4986","22","Male","false","true","true","false","""event"",""trial"",""time""
""fullscreenenter"",""5"",""11307""
","
","
","""event"",""trial"",""time""
""fullscreenenter"",""5"",""11307""
","
","","images/earth.jpg","","","","","","","","","","","","","","fixation","","","","","",""
"d3-animate-choice","210","446165","0.0-76.0-0.25","978","4986","22","Male","false","true","true","false","""event"",""trial"",""time""
""fullscreenenter"",""5"",""11307""
","
","
","""event"",""trial"",""time""
""fullscreenenter"",""5"",""11307""
","
","273.7999999821186","","49","","","3000","1","","","images/earth.jpg","images/rocket1","images/rocket2","null","images/rocket2","","1","real","null","1","","",""
"d3-animate-choice","211","448558","0.0-76.0-1.25","978","4986","22","Male","false","true","true","false","""event"",""trial"",""time""
""fullscreenenter"",""5"",""11307""
","
","
","""event"",""trial"",""time""
""fullscreenenter"",""5"",""11307""
","
","388.5","","48","","","3000","1","","","images/purpleplanet.jpg","images/alien4","images/alien3","images/rocket2","images/alien4","images/t.png","2","real","true","2","common","1","2022-12-13 04:39:43.095"
"two-step-fixation","212","449566","0.0-76.0-2.25","978","4986","22","Male","false","true","true","false","""event"",""trial"",""time""
""fullscreenenter"",""5"",""11307""
","
","
","""event"",""trial"",""time""
""fullscreenenter"",""5"",""11307""
","
","","images/earth.jpg","","","","","","","","","","","","","","fixation","","","","","",""
"d3-animate-choice","213","451758","0.0-76.0-0.26","978","4986","22","Male","false","true","true","false","""event"",""trial"",""time""
""fullscreenenter"",""5"",""11307""
","
","
","""event"",""trial"",""time""
""fullscreenenter"",""5"",""11307""
","
","185","","49","","","3000","1","","","images/earth.jpg","images/rocket1","images/rocket2","null","images/rocket2","","1","real","null","1","","",""
"d3-animate-choice","214","454191","0.0-76.0-1.26","978","4986","22","Male","false","true","true","false","""event"",""trial"",""time""
""fullscreenenter"",""5"",""11307""
","
","
","""event"",""trial"",""time""
""fullscreenenter"",""5"",""11307""
","
","422.10000002384186","","48","","","3000","1","","","images/redplanet1.jpg","images/alien2","images/alien1","images/rocket2","images/alien2","images/t.png","2","real","false","2","rare","1","2022-12-13 04:39:48.728"
"two-step-fixation","215","455198","0.0-76.0-2.26","978","4986","22","Male","false","true","true","false","""event"",""trial"",""time""
""fullscreenenter"",""5"",""11307""
","
","
","""event"",""trial"",""time""
""fullscreenenter"",""5"",""11307""
","
","","images/earth.jpg","","","","","","","","","","","","","","fixation","","","","","",""
"d3-animate-choice","216","457365","0.0-76.0-0.27","978","4986","22","Male","false","true","true","false","""event"",""trial"",""time""
""fullscreenenter"",""5"",""11307""
","
","
","""event"",""trial"",""time""
""fullscreenenter"",""5"",""11307""
","
","160.2000000178814","","49","","","3000","1","","","images/earth.jpg","images/rocket1","images/rocket2","null","images/rocket2","","1","real","null","1","","",""
"d3-animate-choice","217","459606","0.0-76.0-1.27","978","4986","22","Male","false","true","true","false","""event"",""trial"",""time""
""fullscreenenter"",""5"",""11307""
","
","
","""event"",""trial"",""time""
""fullscreenenter"",""5"",""11307""
","
","231.19999998807907","","48","","","3000","1","","","images/purpleplanet.jpg","images/alien4","images/alien3","images/rocket2","images/alien4","images/nothing.png","2","real","true","2","common","0","2022-12-13 04:39:54.143"
"two-step-fixation","218","460614","0.0-76.0-2.27","978","4986","22","Male","false","true","true","false","""event"",""trial"",""time""
""fullscreenenter"",""5"",""11307""
","
","
","""event"",""trial"",""time""
""fullscreenenter"",""5"",""11307""
","
","","images/earth.jpg","","","","","","","","","","","","","","fixation","","","","","",""
"d3-animate-choice","219","462670","0.0-76.0-0.28","978","4986","22","Male","false","true","true","false","""event"",""trial"",""time""
""fullscreenenter"",""5"",""11307""
","
","
","""event"",""trial"",""time""
""fullscreenenter"",""5"",""11307""
","
","49.5","","49","","","3000","1","","","images/earth.jpg","images/rocket1","images/rocket2","null","images/rocket2","","1","real","null","1","","",""
"d3-animate-choice","220","465029","0.0-76.0-1.28","978","4986","22","Male","false","true","true","false","""event"",""trial"",""time""
""fullscreenenter"",""5"",""11307""
","
","
","""event"",""trial"",""time""
""fullscreenenter"",""5"",""11307""
","
","351.90000000596046","","48","","","3000","1","","","images/purpleplanet.jpg","images/alien4","images/alien3","images/rocket2","images/alien4","images/t.png","2","real","true","2","common","1","2022-12-13 04:39:59.566"
"two-step-fixation","221","466038","0.0-76.0-2.28","978","4986","22","Male","false","true","true","false","""event"",""trial"",""time""
""fullscreenenter"",""5"",""11307""
","
","
","""event"",""trial"",""time""
""fullscreenenter"",""5"",""11307""
","
","","images/earth.jpg","","","","","","","","","","","","","","fixation","","","","","",""
"d3-animate-choice","222","468063","0.0-76.0-0.29","978","4986","22","Male","false","true","true","false","""event"",""trial"",""time""
""fullscreenenter"",""5"",""11307""
","
","
","""event"",""trial"",""time""
""fullscreenenter"",""5"",""11307""
","
","21","","49","","","3000","1","","","images/earth.jpg","images/rocket1","images/rocket2","null","images/rocket2","","1","real","null","1","","",""
"d3-animate-choice","223","470382","0.0-76.0-1.29","978","4986","22","Male","false","true","true","false","""event"",""trial"",""time""
""fullscreenenter"",""5"",""11307""
","
","
","""event"",""trial"",""time""
""fullscreenenter"",""5"",""11307""
","
","310.5","","48","","","3000","1","","","images/redplanet1.jpg","images/alien2","images/alien1","images/rocket2","images/alien2","images/t.png","2","real","false","2","rare","1","2022-12-13 04:40:04.919"
"two-step-fixation","224","471390","0.0-76.0-2.29","978","4986","22","Male","false","true","true","false","""event"",""trial"",""time""
""fullscreenenter"",""5"",""11307""
","
","
","""event"",""trial"",""time""
""fullscreenenter"",""5"",""11307""
","
","","images/earth.jpg","","","","","","","","","","","","","","fixation","","","","","",""
"d3-animate-choice","225","473779","0.0-76.0-0.30","978","4986","22","Male","false","true","true","false","""event"",""trial"",""time""
""fullscreenenter"",""5"",""11307""
","
","
","""event"",""trial"",""time""
""fullscreenenter"",""5"",""11307""
","
","381.89999997615814","","49","","","3000","1","","","images/earth.jpg","images/rocket1","images/rocket2","null","images/rocket2","","1","real","null","1","","",""
"d3-animate-choice","226","476671","0.0-76.0-1.30","978","4986","22","Male","false","true","true","false","""event"",""trial"",""time""
""fullscreenenter"",""5"",""11307""
","
","
","""event"",""trial"",""time""
""fullscreenenter"",""5"",""11307""
","
","881.5","","48","","","3000","1","2212.0999999940395","49","images/redplanet1.jpg","images/alien2","images/alien1","images/rocket2","images/alien2","images/nothing.png","2","real","false","2","rare","0","2022-12-13 04:40:11.208"
"two-step-fixation","227","477678","0.0-76.0-2.30","978","4986","22","Male","false","true","true","false","""event"",""trial"",""time""
""fullscreenenter"",""5"",""11307""
","
","
","""event"",""trial"",""time""
""fullscreenenter"",""5"",""11307""
","
","","images/earth.jpg","","","","","","","","","","","","","","fixation","","","","","",""
"d3-animate-choice","228","479702","0.0-76.0-0.31","978","4986","22","Male","false","true","true","false","""event"",""trial"",""time""
""fullscreenenter"",""5"",""11307""
","
","
","""event"",""trial"",""time""
""fullscreenenter"",""5"",""11307""
","
","13.5","","49","","","3000","1","","","images/earth.jpg","images/rocket1","images/rocket2","null","images/rocket2","","1","real","null","1","","",""
"d3-animate-choice","229","481957","0.0-76.0-1.31","978","4986","22","Male","false","true","true","false","""event"",""trial"",""time""
""fullscreenenter"",""5"",""11307""
","
","
","""event"",""trial"",""time""
""fullscreenenter"",""5"",""11307""
","
","250.2000000178814","","48","","","3000","1","","","images/redplanet1.jpg","images/alien2","images/alien1","images/rocket2","images/alien2","images/t.png","2","real","false","2","rare","1","2022-12-13 04:40:16.494"
"two-step-fixation","230","482966","0.0-76.0-2.31","978","4986","22","Male","false","true","true","false","""event"",""trial"",""time""
""fullscreenenter"",""5"",""11307""
","
","
","""event"",""trial"",""time""
""fullscreenenter"",""5"",""11307""
","
","","images/earth.jpg","","","","","","","","","","","","","","fixation","","","","","",""
"d3-animate-choice","231","485206","0.0-76.0-0.32","978","4986","22","Male","false","true","true","false","""event"",""trial"",""time""
""fullscreenenter"",""5"",""11307""
","
","
","""event"",""trial"",""time""
""fullscreenenter"",""5"",""11307""
","
","234.10000002384186","","49","","","3000","1","2156.300000011921","48","images/earth.jpg","images/rocket1","images/rocket2","null","images/rocket2","","1","real","null","1","","",""
"d3-animate-choice","232","487518","0.0-76.0-1.32","978","4986","22","Male","false","true","true","false","""event"",""trial"",""time""
""fullscreenenter"",""5"",""11307""
","
","
","""event"",""trial"",""time""
""fullscreenenter"",""5"",""11307""
","
","301.69999998807907","","48","","","3000","1","","","images/purpleplanet.jpg","images/alien4","images/alien3","images/rocket2","images/alien4","images/t.png","2","real","true","2","common","1","2022-12-13 04:40:22.055"
"two-step-fixation","233","488526","0.0-76.0-2.32","978","4986","22","Male","false","true","true","false","""event"",""trial"",""time""
""fullscreenenter"",""5"",""11307""
","
","
","""event"",""trial"",""time""
""fullscreenenter"",""5"",""11307""
","
","","images/earth.jpg","","","","","","","","","","","","","","fixation","","","","","",""
"d3-animate-choice","234","490837","0.0-76.0-0.33","978","4986","22","Male","false","true","true","false","""event"",""trial"",""time""
""fullscreenenter"",""5"",""11307""
","
","
","""event"",""trial"",""time""
""fullscreenenter"",""5"",""11307""
","
","304.5","","49","","","3000","1","","","images/earth.jpg","images/rocket1","images/rocket2","null","images/rocket2","","1","real","null","1","","",""
"d3-animate-choice","235","493133","0.0-76.0-1.33","978","4986","22","Male","false","true","true","false","""event"",""trial"",""time""
""fullscreenenter"",""5"",""11307""
","
","
","""event"",""trial"",""time""
""fullscreenenter"",""5"",""11307""
","
