"trial_type","trial_index","time_elapsed","internal_node_id","participant_id","subject_id","age","gender","rocket_sides","red_planet_first_rocket","red_display_order","purple_display_order","interactions","blur_events","focus_events","fullscreenenter_events","fullscreenexit_events","rt","stimulus","key_press","button_pressed","success","duration","valid_pressed","rts","keys","planet_text","right_text","left_text","center_text","chosen_text","reward_text","trial_stage","practice_trial","transition_type","choice","transition","reward","timestamp"
"pavlovia","0","4","0.0-0.0","1708","1665","20","Male","true","true","false","false","
","
","
","
","
","","","","","","","","","","","","","","","","","","","","","",""
"html-keyboard-response","1","3013","0.0-1.0","1708","1665","20","Male","true","true","false","false","
","
","
","
","
","3008.199999988079","Welcome! Press the space bar to begin.","32","","","","","","","","","","","","","","","","","","",""
"audio-keyboard-response","2","5449","0.0-2.0","1708","1665","20","Male","true","true","false","false","
","
","
","
","
","2395","audio/beep_loop.wav","32","","","","","","","","","","","","","","","","","","",""
"audio-button-response","3","8861","0.0-3.0","1708","1665","20","Male","true","true","false","false","
","
","
","
","
","NaN","audio/fish.mp3","","1","","","","","","","","","","","","","","","","","",""
"audio-button-response","4","11311","0.0-4.0","1708","1665","20","Male","true","true","false","false","""event"",""trial"",""time""
""fullscreenenter"",""5"",""13729""
","
","
","""event"",""trial"",""time""
""fullscreenenter"",""5"",""13729""
","
","NaN","audio/tiger.mp3","","4","","","","","","","","","","","","","","","","","",""
"fullscreen","5","14722","0.0-5.0","1708","1665","20","Male","true","true","false","false","""event"",""trial"",""time""
""fullscreenenter"",""5"",""13729""
","
","
","""event"",""trial"",""time""
""fullscreenenter"",""5"",""13729""
","
","","","","","true","","","","","","","","","","","","","","","","",""
"d3-instructions","6","27314","0.0-6.0","1708","1665","20","Male","true","true","false","false","""event"",""trial"",""time""
""fullscreenenter"",""5"",""13729""
","
","
","""event"",""trial"",""time""
""fullscreenenter"",""5"",""13729""
","
","","","","","","","","","","","","","","","","","","","","","",""
"d3-instructions","7","36092","0.0-7.0","1708","1665","20","Male","true","true","false","false","""event"",""trial"",""time""
""fullscreenenter"",""5"",""13729""
","
","
","""event"",""trial"",""time""
""fullscreenenter"",""5"",""13729""
","
","","","","","","","","","","","","","","","","","","","","","",""
"d3-instructions","8","39862","0.0-8.0","1708","1665","20","Male","true","true","false","false","""event"",""trial"",""time""
""fullscreenenter"",""5"",""13729""
","
","
","""event"",""trial"",""time""
""fullscreenenter"",""5"",""13729""
","
","","","","","","","","","","","","","","","","","","","","","",""
"d3-instructions","9","43549","0.0-9.0","1708","1665","20","Male","true","true","false","false","""event"",""trial"",""time""
""fullscreenenter"",""5"",""13729""
","
","
","""event"",""trial"",""time""
""fullscreenenter"",""5"",""13729""
","
","","","","","","","","","","","","","","","","","","","","","",""
"d3-instructions","10","51318","0.0-10.0","1708","1665","20","Male","true","true","false","false","""event"",""trial"",""time""
""fullscreenenter"",""5"",""13729""
","
","
","""event"",""trial"",""time""
""fullscreenenter"",""5"",""13729""
","
","","","","","","","","","","","","","","","","","","","","","",""
"d3-animate-choice","11","53990","0.0-11.0","1708","1665","20","Male","true","true","false","false","""event"",""trial"",""time""
""fullscreenenter"",""5"",""13729""
","
","
","""event"",""trial"",""time""
""fullscreenenter"",""5"",""13729""
","
","661.5","","49","","","3000","1","","","images/tutgreenplanet.jpg","images/tutalien1","images/tutalien2","null","images/tutalien2","","NA","practice","null","","","",""
"d3-animate-choice","12","56123","0.0-12.0","1708","1665","20","Male","true","true","false","false","""event"",""trial"",""time""
""fullscreenenter"",""5"",""13729""
","
","
","""event"",""trial"",""time""
""fullscreenenter"",""5"",""13729""
","
","127.80000001192093","","49","","","3000","1","","","images/tutgreenplanet.jpg","images/tutalien1","images/tutalien2","null","images/tutalien2","","NA","practice","null","","","",""
"d3-animate-choice","13","58437","0.0-13.0","1708","1665","20","Male","true","true","false","false","""event"",""trial"",""time""
""fullscreenenter"",""5"",""13729""
","
","
","""event"",""trial"",""time""
""fullscreenenter"",""5"",""13729""
","
","308.9000000357628","","48","","","3000","1","","","images/tutgreenplanet.jpg","images/tutalien1","images/tutalien2","null","images/tutalien1","","NA","practice","null","","","",""
"d3-animate-choice","14","61126","0.0-14.0","1708","1665","20","Male","true","true","false","false","""event"",""trial"",""time""
""fullscreenenter"",""5"",""13729""
","
","
","""event"",""trial"",""time""
""fullscreenenter"",""5"",""13729""
","
","682","","49","","","3000","1","","","images/tutgreenplanet.jpg","images/tutalien1","images/tutalien2","null","images/tutalien2","","NA","practice","null","","","",""
"d3-instructions","15","66894","0.0-15.0","1708","1665","20","Male","true","true","false","false","""event"",""trial"",""time""
""fullscreenenter"",""5"",""13729""
","
","
","""event"",""trial"",""time""
""fullscreenenter"",""5"",""13729""
","
","","","","","","","","","","","","","","","","","","","","","",""
"d3-instructions","16","68254","0.0-16.0","1708","1665","20","Male","true","true","false","false","""event"",""trial"",""time""
""fullscreenenter"",""5"",""13729""
","
","
","""event"",""trial"",""time""
""fullscreenenter"",""5"",""13729""
","
","","","","","","","","","","","","","","","","","","","","","",""
"d3-instructions","17","70460","0.0-17.0","1708","1665","20","Male","true","true","false","false","""event"",""trial"",""time""
""fullscreenenter"",""5"",""13729""
","
","
","""event"",""trial"",""time""
""fullscreenenter"",""5"",""13729""
","
","","","","","","","","","","","","","","","","","","","","","",""
"d3-instructions","18","75597","0.0-18.0","1708","1665","20","Male","true","true","false","false","""event"",""trial"",""time""
""fullscreenenter"",""5"",""13729""
","
","
","""event"",""trial"",""time""
""fullscreenenter"",""5"",""13729""
","
","","","","","","","","","","","","","","","","","","","","","",""
"d3-instructions","19","80740","0.0-19.0","1708","1665","20","Male","true","true","false","false","""event"",""trial"",""time""
""fullscreenenter"",""5"",""13729""
","
","
","""event"",""trial"",""time""
""fullscreenenter"",""5"",""13729""
","
","","","","","","","","","","","","","","","","","","","","","",""
"d3-animate-choice","20","83144","0.0-20.0","1708","1665","20","Male","true","true","false","false","""event"",""trial"",""time""
""fullscreenenter"",""5"",""13729""
","
","
","""event"",""trial"",""time""
""fullscreenenter"",""5"",""13729""
","
","397.30000001192093","","49","","","3000","1","786.8000000119209","49","images/tutyellowplanet.jpg","null","images/tutalien3","null","images/tutalien3","images/t.png","NA","practice","null","","","",""
"d3-animate-choice","21","85441","0.0-21.0","1708","1665","20","Male","true","true","false","false","""event"",""trial"",""time""
""fullscreenenter"",""5"",""13729""
","
","
","""event"",""trial"",""time""
""fullscreenenter"",""5"",""13729""
","
","290.60000002384186","","49","","","3000","1","","","images/tutyellowplanet.jpg","null","images/tutalien3","null","images/tutalien3","images/t.png","NA","practice","null","","","",""
"d3-animate-choice","22","87562","0.0-22.0","1708","1665","20","Male","true","true","false","false","""event"",""trial"",""time""
""fullscreenenter"",""5"",""13729""
","
","
","""event"",""trial"",""time""
""fullscreenenter"",""5"",""13729""
","
","118","","49","","","3000","1","","","images/tutyellowplanet.jpg","null","images/tutalien3","null","images/tutalien3","images/t.png","NA","practice","null","","","",""
"d3-animate-choice","23","89841","0.0-23.0","1708","1665","20","Male","true","true","false","false","""event"",""trial"",""time""
""fullscreenenter"",""5"",""13729""
","
","
","""event"",""trial"",""time""
""fullscreenenter"",""5"",""13729""
","
","270.19999998807907","","49","","","3000","1","","","images/tutyellowplanet.jpg","null","images/tutalien3","null","images/tutalien3","images/t.png","NA","practice","null","","","",""
"d3-animate-choice","24","92207","0.0-24.0","1708","1665","20","Male","true","true","false","false","""event"",""trial"",""time""
""fullscreenenter"",""5"",""13729""
","
","
","""event"",""trial"",""time""
""fullscreenenter"",""5"",""13729""
","
","358.7999999523163","","49","","","3000","1","","","images/tutyellowplanet.jpg","null","images/tutalien3","null","images/tutalien3","images/t.png","NA","practice","null","","","",""
"d3-animate-choice","25","94513","0.0-25.0","1708","1665","20","Male","true","true","false","false","""event"",""trial"",""time""
""fullscreenenter"",""5"",""13729""
","
","
","""event"",""trial"",""time""
""fullscreenenter"",""5"",""13729""
","
","301.80000001192093","","49","","","3000","1","","","images/tutyellowplanet.jpg","null","images/tutalien3","null","images/tutalien3","images/t.png","NA","practice","null","","","",""
"d3-animate-choice","26","96721","0.0-26.0","1708","1665","20","Male","true","true","false","false","""event"",""trial"",""time""
""fullscreenenter"",""5"",""13729""
","
","
","""event"",""trial"",""time""
""fullscreenenter"",""5"",""13729""
","
","203.29999995231628","","49","","","3000","1","","","images/tutyellowplanet.jpg","null","images/tutalien3","null","images/tutalien3","images/t.png","NA","practice","null","","","",""
"d3-animate-choice","27","99110","0.0-27.0","1708","1665","20","Male","true","true","false","false","""event"",""trial"",""time""
""fullscreenenter"",""5"",""13729""
","
","
","""event"",""trial"",""time""
""fullscreenenter"",""5"",""13729""
","
","384","","49","","","3000","1","","","images/tutyellowplanet.jpg","null","images/tutalien3","null","images/tutalien3","images/t.png","NA","practice","null","","","",""
"d3-animate-choice","28","101350","0.0-28.0","1708","1665","20","Male","true","true","false","false","""event"",""trial"",""time""
""fullscreenenter"",""5"",""13729""
","
","
","""event"",""trial"",""time""
""fullscreenenter"",""5"",""13729""
","
","236.30000001192093","","49","","","3000","1","","","images/tutyellowplanet.jpg","null","images/tutalien3","null","images/tutalien3","images/t.png","NA","practice","null","","","",""
"d3-animate-choice","29","103737","0.0-29.0","1708","1665","20","Male","true","true","false","false","""event"",""trial"",""time""
""fullscreenenter"",""5"",""13729""
","
","
","""event"",""trial"",""time""
""fullscreenenter"",""5"",""13729""
","
","379.9000000357628","","49","","","3000","1","","","images/tutyellowplanet.jpg","null","images/tutalien3","null","images/tutalien3","images/t.png","NA","practice","null","","","",""
"d3-instructions","30","105985","0.0-30.0","1708","1665","20","Male","true","true","false","false","""event"",""trial"",""time""
""fullscreenenter"",""5"",""13729""
","
","
","""event"",""trial"",""time""
""fullscreenenter"",""5"",""13729""
","
","","","","","","","","","","","","","","","","","","","","","",""
"d3-instructions","31","123187","0.0-31.0","1708","1665","20","Male","true","true","false","false","""event"",""trial"",""time""
""fullscreenenter"",""5"",""13729""
","
","
","""event"",""trial"",""time""
""fullscreenenter"",""5"",""13729""
","
","","","","","","","","","","","","","","","","","","","","","",""
"d3-instructions","32","126557","0.0-32.0","1708","1665","20","Male","true","true","false","false","""event"",""trial"",""time""
""fullscreenenter"",""5"",""13729""
","
","
","""event"",""trial"",""time""
""fullscreenenter"",""5"",""13729""
","
","","","","","","","","","","","","","","","","","","","","","",""
"d3-instructions","33","128985","0.0-33.0","1708","1665","20","Male","true","true","false","false","""event"",""trial"",""time""
""fullscreenenter"",""5"",""13729""
","
","
","""event"",""trial"",""time""
""fullscreenenter"",""5"",""13729""
","
","","","","","","","","","","","","","","","","","","","","","",""
"d3-animate-choice","34","131468","0.0-34.0","1708","1665","20","Male","true","true","false","false","""event"",""trial"",""time""
""fullscreenenter"",""5"",""13729""
","
","
","""event"",""trial"",""time""
""fullscreenenter"",""5"",""13729""
","
","477.69999998807907","","49","","","3000","1","","","images/tutgreenplanet.jpg","images/tutalien1","images/tutalien2","null","images/tutalien2","images/t.png","NA","practice","null","","","",""
"d3-animate-choice","35","133857","0.0-35.0","1708","1665","20","Male","true","true","false","false","""event"",""trial"",""time""
""fullscreenenter"",""5"",""13729""
","
","
","""event"",""trial"",""time""
""fullscreenenter"",""5"",""13729""
","
","381.5999999642372","","49","","","3000","1","","","images/tutgreenplanet.jpg","images/tutalien1","images/tutalien2","null","images/tutalien2","images/t.png","NA","practice","null","","","",""
"d3-animate-choice","36","136156","0.0-36.0","1708","1665","20","Male","true","true","false","false","""event"",""trial"",""time""
""fullscreenenter"",""5"",""13729""
","
","
","""event"",""trial"",""time""
""fullscreenenter"",""5"",""13729""
","
","291.4000000357628","","49","","","3000","1","","","images/tutgreenplanet.jpg","images/tutalien1","images/tutalien2","null","images/tutalien2","images/t.png","NA","practice","null","","","",""
"d3-animate-choice","37","138396","0.0-37.0","1708","1665","20","Male","true","true","false","false","""event"",""trial"",""time""
""fullscreenenter"",""5"",""13729""
","
","
","""event"",""trial"",""time""
""fullscreenenter"",""5"",""13729""
","
","235.80000001192093","","49","","","3000","1","","","images/tutgreenplanet.jpg","images/tutalien1","images/tutalien2","null","images/tutalien2","images/t.png","NA","practice","null","","","",""
"d3-animate-choice","38","140545","0.0-38.0","1708","1665","20","Male","true","true","false","false","""event"",""trial"",""time""
""fullscreenenter"",""5"",""13729""
","
","
","""event"",""trial"",""time""
""fullscreenenter"",""5"",""13729""
","
","145.60000002384186","","49","","","3000","1","","","images/tutgreenplanet.jpg","images/tutalien1","images/tutalien2","null","images/tutalien2","images/t.png","NA","practice","null","","","",""
"d3-animate-choice","39","142796","0.0-39.0","1708","1665","20","Male","true","true","false","false","""event"",""trial"",""time""
""fullscreenenter"",""5"",""13729""
","
","
","""event"",""trial"",""time""
""fullscreenenter"",""5"",""13729""
","
","242.60000002384186","","49","","","3000","1","","","images/tutgreenplanet.jpg","images/tutalien1","images/tutalien2","null","images/tutalien2","images/t.png","NA","practice","null","","","",""
"d3-animate-choice","40","145076","0.0-40.0","1708","1665","20","Male","true","true","false","false","""event"",""trial"",""time""
""fullscreenenter"",""5"",""13729""
","
","
","""event"",""trial"",""time""
""fullscreenenter"",""5"",""13729""
","
","272.60000002384186","","49","","","3000","1","","","images/tutgreenplanet.jpg","images/tutalien1","images/tutalien2","null","images/tutalien2","images/t.png","NA","practice","null","","","",""
"d3-animate-choice","41","147394","0.0-41.0","1708","1665","20","Male","true","true","false","false","""event"",""trial"",""time""
""fullscreenenter"",""5"",""13729""
","
","
","""event"",""trial"",""time""
""fullscreenenter"",""5"",""13729""
","
","311.30000001192093","","49","","","3000","1","","","images/tutgreenplanet.jpg","images/tutalien1","images/tutalien2","null","images/tutalien2","images/nothing.png","NA","practice","null","","","",""
"d3-animate-choice","42","150583","0.0-42.0","1708","1665","20","Male","true","true","false","false","""event"",""trial"",""time""
""fullscreenenter"",""5"",""13729""
","
","
","""event"",""trial"",""time""
""fullscreenenter"",""5"",""13729""
","
","1185.1000000238419","","49","","","3000","1","","","images/tutgreenplanet.jpg","images/tutalien1","images/tutalien2","null","images/tutalien2","images/t.png","NA","practice","null","","","",""
"d3-animate-choice","43","153812","0.0-43.0","1708","1665","20","Male","true","true","false","false","""event"",""trial"",""time""
""fullscreenenter"",""5"",""13729""
","
","
","""event"",""trial"",""time""
""fullscreenenter"",""5"",""13729""
","
","1221.4000000357628","","49","","","3000","1","","","images/tutgreenplanet.jpg","images/tutalien1","images/tutalien2","null","images/tutalien2","images/t.png","NA","practice","null","","","",""
"d3-instructions","44","166640","0.0-44.0","1708","1665","20","Male","true","true","false","false","""event"",""trial"",""time""
""fullscreenenter"",""5"",""13729""
","
","
","""event"",""trial"",""time""
""fullscreenenter"",""5"",""13729""
","
","","","","","","","","","","","","","","","","","","","","","",""
"d3-instructions","45","167876","0.0-45.0","1708","1665","20","Male","true","true","false","false","""event"",""trial"",""time""
""fullscreenenter"",""5"",""13729""
","
","
","""event"",""trial"",""time""
""fullscreenenter"",""5"",""13729""
","
","","","","","","","","","","","","","","","","","","","","","",""
"d3-instructions","46","170696","0.0-46.0","1708","1665","20","Male","true","true","false","false","""event"",""trial"",""time""
""fullscreenenter"",""5"",""13729""
","
","
","""event"",""trial"",""time""
""fullscreenenter"",""5"",""13729""
","
","","","","","","","","","","","","","","","","","","","","","",""
"d3-instructions","47","177522","0.0-47.0","1708","1665","20","Male","true","true","false","false","""event"",""trial"",""time""
""fullscreenenter"",""5"",""13729""
","
","
","""event"",""trial"",""time""
""fullscreenenter"",""5"",""13729""
","
","","","","","","","","","","","","","","","","","","","","","",""
"d3-instructions","48","179680","0.0-48.0","1708","1665","20","Male","true","true","false","false","""event"",""trial"",""time""
""fullscreenenter"",""5"",""13729""
","
","
","""event"",""trial"",""time""
""fullscreenenter"",""5"",""13729""
","
","","","","","","","","","","","","","","","","","","","","","",""
"d3-instructions","49","181537","0.0-49.0","1708","1665","20","Male","true","true","false","false","""event"",""trial"",""time""
""fullscreenenter"",""5"",""13729""
","
","
","""event"",""trial"",""time""
""fullscreenenter"",""5"",""13729""
","
","","","","","","","","","","","","","","","","","","","","","",""
"d3-instructions","50","192055","0.0-50.0","1708","1665","20","Male","true","true","false","false","""event"",""trial"",""time""
""fullscreenenter"",""5"",""13729""
","
","
","""event"",""trial"",""time""
""fullscreenenter"",""5"",""13729""
","
","","","","","","","","","","","","","","","","","","","","","",""
"d3-instructions","51","193086","0.0-51.0","1708","1665","20","Male","true","true","false","false","""event"",""trial"",""time""
""fullscreenenter"",""5"",""13729""
","
","
","""event"",""trial"",""time""
""fullscreenenter"",""5"",""13729""
","
","","","","","","","","","","","","","","","","","","","","","",""
"d3-instructions","52","193797","0.0-52.0","1708","1665","20","Male","true","true","false","false","""event"",""trial"",""time""
""fullscreenenter"",""5"",""13729""
","
","
","""event"",""trial"",""time""
""fullscreenenter"",""5"",""13729""
","
","","","","","","","","","","","","","","","","","","","","","",""
"d3-instructions","53","198600","0.0-53.0","1708","1665","20","Male","true","true","false","false","""event"",""trial"",""time""
""fullscreenenter"",""5"",""13729""
","
","
","""event"",""trial"",""time""
""fullscreenenter"",""5"",""13729""
","
","","","","","","","","","","","","","","","","","","","","","",""
"d3-instructions","54","205066","0.0-54.0","1708","1665","20","Male","true","true","false","false","""event"",""trial"",""time""
""fullscreenenter"",""5"",""13729""
","
","
","""event"",""trial"",""time""
""fullscreenenter"",""5"",""13729""
","
","","","","","","","","","","","","","","","","","","","","","",""
"d3-instructions","55","218254","0.0-55.0","1708","1665","20","Male","true","true","false","false","""event"",""trial"",""time""
""fullscreenenter"",""5"",""13729""
","
","
","""event"",""trial"",""time""
""fullscreenenter"",""5"",""13729""
","
","","","","","","","","","","","","","","","","","","","","","",""
"d3-instructions","56","232049","0.0-56.0","1708","1665","20","Male","true","true","false","false","""event"",""trial"",""time""
""fullscreenenter"",""5"",""13729""
","
","
","""event"",""trial"",""time""
""fullscreenenter"",""5"",""13729""
","
","","","","","","","","","","","","","","","","","","","","","",""
"d3-instructions","57","235690","0.0-57.0","1708","1665","20","Male","true","true","false","false","""event"",""trial"",""time""
""fullscreenenter"",""5"",""13729""
","
","
","""event"",""trial"",""time""
""fullscreenenter"",""5"",""13729""
","
","","","","","","","","","","","","","","","","","","","","","",""
"d3-instructions","58","247872","0.0-58.0","1708","1665","20","Male","true","true","false","false","""event"",""trial"",""time""
""fullscreenenter"",""5"",""13729""
","
","
","""event"",""trial"",""time""
""fullscreenenter"",""5"",""13729""
","
","","","","","","","","","","","","","","","","","","","","","",""
"d3-instructions","59","256578","0.0-59.0","1708","1665","20","Male","true","true","false","false","""event"",""trial"",""time""
""fullscreenenter"",""5"",""13729""
","
","
","""event"",""trial"",""time""
""fullscreenenter"",""5"",""13729""
","
","","","","","","","","","","","","","","","","","","","","","",""
"d3-instructions","60","257951","0.0-60.0","1708","1665","20","Male","true","true","false","false","""event"",""trial"",""time""
""fullscreenenter"",""5"",""13729""
","
","
","""event"",""trial"",""time""
""fullscreenenter"",""5"",""13729""
","
","","","","","","","","","","","","","","","","","","","","","",""
"d3-animate-choice","61","260473","0.0-61.0-0.0","1708","1665","20","Male","true","true","false","false","""event"",""trial"",""time""
""fullscreenenter"",""5"",""13729""
","
","
","""event"",""trial"",""time""
""fullscreenenter"",""5"",""13729""
","
","515","","49","","","3000","1","","","images/earth.jpg","images/tutrocket1","images/tutrocket2","null","images/tutrocket2","","1","practice","null","1","","",""
"d3-animate-choice","62","263540","0.0-61.0-1.0","1708","1665","20","Male","true","true","false","false","""event"",""trial"",""time""
""fullscreenenter"",""5"",""13729""
","
","
","""event"",""trial"",""time""
""fullscreenenter"",""5"",""13729""
","
","1056","","49","","","3000","1","","","images/tutyellowplanet.jpg","images/tutalien4","images/tutalien3","images/tutrocket2","images/tutalien3","images/t.png","2","practice","true","1","common","1","2022-05-12 03:49:42.712"
"two-step-fixation","63","264544","0.0-61.0-2.0","1708","1665","20","Male","true","true","false","false","""event"",""trial"",""time""
""fullscreenenter"",""5"",""13729""
","
","
","""event"",""trial"",""time""
""fullscreenenter"",""5"",""13729""
","
","","images/earth.jpg","","","","","","","","","","","","","","fixation","","","","","",""
"d3-animate-choice","64","266957","0.0-61.0-0.1","1708","1665","20","Male","true","true","false","false","""event"",""trial"",""time""
""fullscreenenter"",""5"",""13729""
","
","
","""event"",""trial"",""time""
""fullscreenenter"",""5"",""13729""
","
","409.7999999523163","","49","","","3000","1","","","images/earth.jpg","images/tutrocket1","images/tutrocket2","null","images/tutrocket2","","1","practice","null","1","","",""
"d3-animate-choice","65","269358","0.0-61.0-1.1","1708","1665","20","Male","true","true","false","false","""event"",""trial"",""time""
""fullscreenenter"",""5"",""13729""
","
","
","""event"",""trial"",""time""
""fullscreenenter"",""5"",""13729""
","
","392.30000001192093","","49","","","3000","1","","","images/tutyellowplanet.jpg","images/tutalien4","images/tutalien3","images/tutrocket2","images/tutalien3","images/nothing.png","2","practice","true","1","common","0","2022-05-12 03:49:48.531"
"two-step-fixation","66","270367","0.0-61.0-2.1","1708","1665","20","Male","true","true","false","false","""event"",""trial"",""time""
""fullscreenenter"",""5"",""13729""
","
","
","""event"",""trial"",""time""
""fullscreenenter"",""5"",""13729""
","
","","images/earth.jpg","","","","","","","","","","","","","","fixation","","","","","",""
"d3-animate-choice","67","272722","0.0-61.0-0.2","1708","1665","20","Male","true","true","false","false","""event"",""trial"",""time""
""fullscreenenter"",""5"",""13729""
","
","
","""event"",""trial"",""time""
""fullscreenenter"",""5"",""13729""
","
","347.39999997615814","","49","","","3000","1","","","images/earth.jpg","images/tutrocket1","images/tutrocket2","null","images/tutrocket2","","1","practice","null","1","","",""
"d3-animate-choice","68","275134","0.0-61.0-1.2","1708","1665","20","Male","true","true","false","false","""event"",""trial"",""time""
""fullscreenenter"",""5"",""13729""
","
","
","""event"",""trial"",""time""
""fullscreenenter"",""5"",""13729""
","
","403.89999997615814","","49","","","3000","1","","","images/tutyellowplanet.jpg","images/tutalien4","images/tutalien3","images/tutrocket2","images/tutalien3","images/nothing.png","2","practice","true","1","common","0","2022-05-12 03:49:54.307"
"two-step-fixation","69","276141","0.0-61.0-2.2","1708","1665","20","Male","true","true","false","false","""event"",""trial"",""time""
""fullscreenenter"",""5"",""13729""
","
","
","""event"",""trial"",""time""
""fullscreenenter"",""5"",""13729""
","
","","images/earth.jpg","","","","","","","","","","","","","","fixation","","","","","",""
"d3-animate-choice","70","278460","0.0-61.0-0.3","1708","1665","20","Male","true","true","false","false","""event"",""trial"",""time""
""fullscreenenter"",""5"",""13729""
","
","
","""event"",""trial"",""time""
""fullscreenenter"",""5"",""13729""
","
","314.7999999523163","","49","","","3000","1","","","images/earth.jpg","images/tutrocket1","images/tutrocket2","null","images/tutrocket2","","1","practice","null","1","","",""
"d3-animate-choice","71","280958","0.0-61.0-1.3","1708","1665","20","Male","true","true","false","false","""event"",""trial"",""time""
""fullscreenenter"",""5"",""13729""
","
","
","""event"",""trial"",""time""
""fullscreenenter"",""5"",""13729""
","
","491","","48","","","3000","1","","","images/tutgreenplanet.jpg","images/tutalien2","images/tutalien1","images/tutrocket2","images/tutalien2","images/nothing.png","2","practice","false","2","rare","0","2022-05-12 03:50:00.130"
"two-step-fixation","72","281963","0.0-61.0-2.3","1708","1665","20","Male","true","true","false","false","""event"",""trial"",""time""
""fullscreenenter"",""5"",""13729""
","
","
","""event"",""trial"",""time""
""fullscreenenter"",""5"",""13729""
","
","","images/earth.jpg","","","","","","","","","","","","","","fixation","","","","","",""
"d3-animate-choice","73","285282","0.0-61.0-0.4","1708","1665","20","Male","true","true","false","false","""event"",""trial"",""time""
""fullscreenenter"",""5"",""13729""
","
","
","""event"",""trial"",""time""
""fullscreenenter"",""5"",""13729""
","
","1311.800000011921","","49","","","3000","1","","","images/earth.jpg","images/tutrocket1","images/tutrocket2","null","images/tutrocket2","","1","practice","null","1","","",""
"d3-animate-choice","74","288016","0.0-61.0-1.4","1708","1665","20","Male","true","true","false","false","""event"",""trial"",""time""
""fullscreenenter"",""5"",""13729""
","
","
","""event"",""trial"",""time""
""fullscreenenter"",""5"",""13729""
","
","726.6999999880791","","48","","","3000","1","","","images/tutyellowplanet.jpg","images/tutalien4","images/tutalien3","images/tutrocket2","images/tutalien4","images/nothing.png","2","practice","true","2","common","0","2022-05-12 03:50:07.188"
"two-step-fixation","75","289024","0.0-61.0-2.4","1708","1665","20","Male","true","true","false","false","""event"",""trial"",""time""
""fullscreenenter"",""5"",""13729""
","
","
","""event"",""trial"",""time""
""fullscreenenter"",""5"",""13729""
","
","","images/earth.jpg","","","","","","","","","","","","","","fixation","","","","","",""
"d3-animate-choice","76","291605","0.0-61.0-0.5","1708","1665","20","Male","true","true","false","false","""event"",""trial"",""time""
""fullscreenenter"",""5"",""13729""
","
","
","""event"",""trial"",""time""
""fullscreenenter"",""5"",""13729""
","
","571.5999999642372","","49","","","3000","1","","","images/earth.jpg","images/tutrocket1","images/tutrocket2","null","images/tutrocket2","","1","practice","null","1","","",""
"d3-animate-choice","77","294496","0.0-61.0-1.5","1708","1665","20","Male","true","true","false","false","""event"",""trial"",""time""
""fullscreenenter"",""5"",""13729""
","
","
","""event"",""trial"",""time""
""fullscreenenter"",""5"",""13729""
","
","887.1999999880791","","49","","","3000","1","","","images/tutgreenplanet.jpg","images/tutalien2","images/tutalien1","images/tutrocket2","images/tutalien1","images/t.png","2","practice","false","1","rare","1","2022-05-12 03:50:13.668"
"two-step-fixation","78","295501","0.0-61.0-2.5","1708","1665","20","Male","true","true","false","false","""event"",""trial"",""time""
""fullscreenenter"",""5"",""13729""
","
","
","""event"",""trial"",""time""
""fullscreenenter"",""5"",""13729""
","
","","images/earth.jpg","","","","","","","","","","","","","","fixation","","","","","",""
"d3-animate-choice","79","297861","0.0-61.0-0.6","1708","1665","20","Male","true","true","false","false","""event"",""trial"",""time""
""fullscreenenter"",""5"",""13729""
","
","
","""event"",""trial"",""time""
""fullscreenenter"",""5"",""13729""
","
","352.10000002384186","","49","","","3000","1","","","images/earth.jpg","images/tutrocket1","images/tutrocket2","null","images/tutrocket2","","1","practice","null","1","","",""
"d3-animate-choice","80","300963","0.0-61.0-1.6","1708","1665","20","Male","true","true","false","false","""event"",""trial"",""time""
""fullscreenenter"",""5"",""13729""
","
","
","""event"",""trial"",""time""
""fullscreenenter"",""5"",""13729""
","
","1096.9000000357628","","49","","","3000","1","","","images/tutyellowplanet.jpg","images/tutalien4","images/tutalien3","images/tutrocket2","images/tutalien3","images/t.png","2","practice","true","1","common","1","2022-05-12 03:50:20.135"
"two-step-fixation","81","301968","0.0-61.0-2.6","1708","1665","20","Male","true","true","false","false","""event"",""trial"",""time""
""fullscreenenter"",""5"",""13729""
","
","
","""event"",""trial"",""time""
""fullscreenenter"",""5"",""13729""
","
","","images/earth.jpg","","","","","","","","","","","","","","fixation","","","","","",""
"d3-animate-choice","82","304314","0.0-61.0-0.7","1708","1665","20","Male","true","true","false","false","""event"",""trial"",""time""
""fullscreenenter"",""5"",""13729""
","
","
","""event"",""trial"",""time""
""fullscreenenter"",""5"",""13729""
","
","340.80000001192093","","49","","","3000","1","","","images/earth.jpg","images/tutrocket1","images/tutrocket2","null","images/tutrocket2","","1","practice","null","1","","",""
"d3-animate-choice","83","307093","0.0-61.0-1.7","1708","1665","20","Male","true","true","false","false","""event"",""trial"",""time""
""fullscreenenter"",""5"",""13729""
","
","
","""event"",""trial"",""time""
""fullscreenenter"",""5"",""13729""
","
","773.5","","49","","","3000","1","","","images/tutyellowplanet.jpg","images/tutalien4","images/tutalien3","images/tutrocket2","images/tutalien3","images/t.png","2","practice","true","1","common","1","2022-05-12 03:50:26.265"
"two-step-fixation","84","308102","0.0-61.0-2.7","1708","1665","20","Male","true","true","false","false","""event"",""trial"",""time""
""fullscreenenter"",""5"",""13729""
","
","
","""event"",""trial"",""time""
""fullscreenenter"",""5"",""13729""
","
","","images/earth.jpg","","","","","","","","","","","","","","fixation","","","","","",""
"d3-animate-choice","85","310566","0.0-61.0-0.8","1708","1665","20","Male","true","true","false","false","""event"",""trial"",""time""
""fullscreenenter"",""5"",""13729""
","
","
","""event"",""trial"",""time""
""fullscreenenter"",""5"",""13729""
","
","454.60000002384186","","49","","","3000","1","","","images/earth.jpg","images/tutrocket1","images/tutrocket2","null","images/tutrocket2","","1","practice","null","1","","",""
"d3-animate-choice","86","313084","0.0-61.0-1.8","1708","1665","20","Male","true","true","false","false","""event"",""trial"",""time""
""fullscreenenter"",""5"",""13729""
","
","
","""event"",""trial"",""time""
""fullscreenenter"",""5"",""13729""
","
","511.69999998807907","","49","","","3000","1","","","images/tutyellowplanet.jpg","images/tutalien4","images/tutalien3","images/tutrocket2","images/tutalien3","images/nothing.png","2","practice","true","1","common","0","2022-05-12 03:50:32.256"
"two-step-fixation","87","314091","0.0-61.0-2.8","1708","1665","20","Male","true","true","false","false","""event"",""trial"",""time""
""fullscreenenter"",""5"",""13729""
","
","
","""event"",""trial"",""time""
""fullscreenenter"",""5"",""13729""
","
","","images/earth.jpg","","","","","","","","","","","","","","fixation","","","","","",""
"d3-animate-choice","88","316475","0.0-61.0-0.9","1708","1665","20","Male","true","true","false","false","""event"",""trial"",""time""
""fullscreenenter"",""5"",""13729""
","
","
","""event"",""trial"",""time""
""fullscreenenter"",""5"",""13729""
","
","377.30000001192093","","49","","","3000","1","","","images/earth.jpg","images/tutrocket1","images/tutrocket2","null","images/tutrocket2","","1","practice","null","1","","",""
"d3-animate-choice","89","319126","0.0-61.0-1.9","1708","1665","20","Male","true","true","false","false","""event"",""trial"",""time""
""fullscreenenter"",""5"",""13729""
","
","
","""event"",""trial"",""time""
""fullscreenenter"",""5"",""13729""
","
","643.7000000476837","","49","","","3000","1","","","images/tutyellowplanet.jpg","images/tutalien4","images/tutalien3","images/tutrocket2","images/tutalien3","images/nothing.png","2","practice","true","1","common","0","2022-05-12 03:50:38.298"
"two-step-fixation","90","320134","0.0-61.0-2.9","1708","1665","20","Male","true","true","false","false","""event"",""trial"",""time""
""fullscreenenter"",""5"",""13729""
","
","
","""event"",""trial"",""time""
""fullscreenenter"",""5"",""13729""
","
","","images/earth.jpg","","","","","","","","","","","","","","fixation","","","","","",""
"d3-animate-choice","91","322652","0.0-61.0-0.10","1708","1665","20","Male","true","true","false","false","""event"",""trial"",""time""
""fullscreenenter"",""5"",""13729""
","
","
","""event"",""trial"",""time""
""fullscreenenter"",""5"",""13729""
","
","512.9000000357628","","49","","","3000","1","","","images/earth.jpg","images/tutrocket1","images/tutrocket2","null","images/tutrocket2","","1","practice","null","1","","",""
"d3-animate-choice","92","325574","0.0-61.0-1.10","1708","1665","20","Male","true","true","false","false","""event"",""trial"",""time""
""fullscreenenter"",""5"",""13729""
","
","
","""event"",""trial"",""time""
""fullscreenenter"",""5"",""13729""
","
","918.6000000238419","","49","","","3000","1","","","images/tutyellowplanet.jpg","images/tutalien4","images/tutalien3","images/tutrocket2","images/tutalien3","images/nothing.png","2","practice","true","1","common","0","2022-05-12 03:50:44.746"
"two-step-fixation","93","326580","0.0-61.0-2.10","1708","1665","20","Male","true","true","false","false","""event"",""trial"",""time""
""fullscreenenter"",""5"",""13729""
","
","
","""event"",""trial"",""time""
""fullscreenenter"",""5"",""13729""
","
","","images/earth.jpg","","","","","","","","","","","","","","fixation","","","","","",""
"d3-animate-choice","94","329594","0.0-61.0-0.11","1708","1665","20","Male","true","true","false","false","""event"",""trial"",""time""
""fullscreenenter"",""5"",""13729""
","
","
","""event"",""trial"",""time""
""fullscreenenter"",""5"",""13729""
","
","1008.1000000238419","","49","","","3000","1","","","images/earth.jpg","images/tutrocket1","images/tutrocket2","null","images/tutrocket2","","1","practice","null","1","","",""
"d3-animate-choice","95","332012","0.0-61.0-1.11","1708","1665","20","Male","true","true","false","false","""event"",""trial"",""time""
""fullscreenenter"",""5"",""13729""
","
","
","""event"",""trial"",""time""
""fullscreenenter"",""5"",""13729""
","
","411.60000002384186","","49","","","3000","1","","","images/tutyellowplanet.jpg","images/tutalien4","images/tutalien3","images/tutrocket2","images/tutalien3","images/t.png","2","practice","true","1","common","1","2022-05-12 03:50:51.184"
"two-step-fixation","96","333020","0.0-61.0-2.11","1708","1665","20","Male","true","true","false","false","""event"",""trial"",""time""
""fullscreenenter"",""5"",""13729""
","
","
","""event"",""trial"",""time""
""fullscreenenter"",""5"",""13729""
","
","","images/earth.jpg","","","","","","","","","","","","","","fixation","","","","","",""
"d3-animate-choice","97","335446","0.0-61.0-0.12","1708","1665","20","Male","true","true","false","false","""event"",""trial"",""time""
""fullscreenenter"",""5"",""13729""
","
","
","""event"",""trial"",""time""
""fullscreenenter"",""5"",""13729""
","
","421.60000002384186","","49","","","3000","1","","","images/earth.jpg","images/tutrocket1","images/tutrocket2","null","images/tutrocket2","","1","practice","null","1","","",""
"d3-animate-choice","98","337903","0.0-61.0-1.12","1708","1665","20","Male","true","true","false","false","""event"",""trial"",""time""
""fullscreenenter"",""5"",""13729""
","
","
","""event"",""trial"",""time""
""fullscreenenter"",""5"",""13729""
","
","451.5","","49","","","3000","1","","","images/tutgreenplanet.jpg","images/tutalien2","images/tutalien1","images/tutrocket2","images/tutalien1","images/nothing.png","2","practice","false","1","rare","0","2022-05-12 03:50:57.075"
"two-step-fixation","99","338908","0.0-61.0-2.12","1708","1665","20","Male","true","true","false","false","""event"",""trial"",""time""
""fullscreenenter"",""5"",""13729""
","
","
","""event"",""trial"",""time""
""fullscreenenter"",""5"",""13729""
","
","","images/earth.jpg","","","","","","","","","","","","","","fixation","","","","","",""
"d3-animate-choice","100","341279","0.0-61.0-0.13","1708","1665","20","Male","true","true","false","false","""event"",""trial"",""time""
""fullscreenenter"",""5"",""13729""
","
","
","""event"",""trial"",""time""
""fullscreenenter"",""5"",""13729""
","
","363.7000000476837","","49","","","3000","1","","","images/earth.jpg","images/tutrocket1","images/tutrocket2","null","images/tutrocket2","","1","practice","null","1","","",""
"d3-animate-choice","101","343329","0.0-61.0-1.13","1708","1665","20","Male","true","true","false","false","""event"",""trial"",""time""
""fullscreenenter"",""5"",""13729""
","
","
","""event"",""trial"",""time""
""fullscreenenter"",""5"",""13729""
","
","45.59999996423721","","49","","","3000","1","","","images/tutyellowplanet.jpg","images/tutalien4","images/tutalien3","images/tutrocket2","images/tutalien3","images/nothing.png","2","practice","true","1","common","0","2022-05-12 03:51:02.501"
"two-step-fixation","102","344335","0.0-61.0-2.13","1708","1665","20","Male","true","true","false","false","""event"",""trial"",""time""
""fullscreenenter"",""5"",""13729""
","
","
","""event"",""trial"",""time""
""fullscreenenter"",""5"",""13729""
","
","","images/earth.jpg","","","","","","","","","","","","","","fixation","","","","","",""
"d3-animate-choice","103","346796","0.0-61.0-0.14","1708","1665","20","Male","true","true","false","false","""event"",""trial"",""time""
""fullscreenenter"",""5"",""13729""
","
","
","""event"",""trial"",""time""
""fullscreenenter"",""5"",""13729""
","
","452","","49","","","3000","1","","","images/earth.jpg","images/tutrocket1","images/tutrocket2","null","images/tutrocket2","","1","practice","null","1","","",""
"d3-animate-choice","104","349193","0.0-61.0-1.14","1708","1665","20","Male","true","true","false","false","""event"",""trial"",""time""
""fullscreenenter"",""5"",""13729""
","
","
","""event"",""trial"",""time""
""fullscreenenter"",""5"",""13729""
","
","390.19999998807907","","49","","","3000","1","","","images/tutyellowplanet.jpg","images/tutalien4","images/tutalien3","images/tutrocket2","images/tutalien3","images/nothing.png","2","practice","true","1","common","0","2022-05-12 03:51:08.365"
"two-step-fixation","105","350199","0.0-61.0-2.14","1708","1665","20","Male","true","true","false","false","""event"",""trial"",""time""
""fullscreenenter"",""5"",""13729""
","
","
","""event"",""trial"",""time""
""fullscreenenter"",""5"",""13729""
","
","","images/earth.jpg","","","","","","","","","","","","","","fixation","","","","","",""
"d3-animate-choice","106","352554","0.0-61.0-0.15","1708","1665","20","Male","true","true","false","false","""event"",""trial"",""time""
""fullscreenenter"",""5"",""13729""
","
","
","""event"",""trial"",""time""
""fullscreenenter"",""5"",""13729""
","
","349.5999999642372","","49","","","3000","1","","","images/earth.jpg","images/tutrocket1","images/tutrocket2","null","images/tutrocket2","","1","practice","null","1","","",""
"d3-animate-choice","107","355303","0.0-61.0-1.15","1708","1665","20","Male","true","true","false","false","""event"",""trial"",""time""
""fullscreenenter"",""5"",""13729""
","
","
","""event"",""trial"",""time""
""fullscreenenter"",""5"",""13729""
","
","743.1999999880791","","49","","","3000","1","","","images/tutyellowplanet.jpg","images/tutalien4","images/tutalien3","images/tutrocket2","images/tutalien3","images/t.png","2","practice","true","1","common","1","2022-05-12 03:51:14.475"
"two-step-fixation","108","356307","0.0-61.0-2.15","1708","1665","20","Male","true","true","false","false","""event"",""trial"",""time""
""fullscreenenter"",""5"",""13729""
","
","
","""event"",""trial"",""time""
""fullscreenenter"",""5"",""13729""
","
","","images/earth.jpg","","","","","","","","","","","","","","fixation","","","","","",""
"d3-animate-choice","109","358567","0.0-61.0-0.16","1708","1665","20","Male","true","true","false","false","""event"",""trial"",""time""
""fullscreenenter"",""5"",""13729""
","
","
","""event"",""trial"",""time""
""fullscreenenter"",""5"",""13729""
","
","255","","49","","","3000","1","","","images/earth.jpg","images/tutrocket1","images/tutrocket2","null","images/tutrocket2","","1","practice","null","1","","",""
"d3-animate-choice","110","361405","0.0-61.0-1.16","1708","1665","20","Male","true","true","false","false","""event"",""trial"",""time""
""fullscreenenter"",""5"",""13729""
","
","
","""event"",""trial"",""time""
""fullscreenenter"",""5"",""13729""
","
","831.6000000238419","","49","","","3000","1","","","images/tutyellowplanet.jpg","images/tutalien4","images/tutalien3","images/tutrocket2","images/tutalien3","images/t.png","2","practice","true","1","common","1","2022-05-12 03:51:20.577"
"two-step-fixation","111","362412","0.0-61.0-2.16","1708","1665","20","Male","true","true","false","false","""event"",""trial"",""time""
""fullscreenenter"",""5"",""13729""
","
","
","""event"",""trial"",""time""
""fullscreenenter"",""5"",""13729""
","
","","images/earth.jpg","","","","","","","","","","","","","","fixation","","","","","",""
"d3-animate-choice","112","365143","0.0-61.0-0.17","1708","1665","20","Male","true","true","false","false","""event"",""trial"",""time""
""fullscreenenter"",""5"",""13729""
","
","
","""event"",""trial"",""time""
""fullscreenenter"",""5"",""13729""
","
","724.3999999761581","","49","","","3000","1","","","images/earth.jpg","images/tutrocket1","images/tutrocket2","null","images/tutrocket2","","1","practice","null","1","","",""
"d3-animate-choice","113","367458","0.0-61.0-1.17","1708","1665","20","Male","true","true","false","false","""event"",""trial"",""time""
""fullscreenenter"",""5"",""13729""
","
","
","""event"",""trial"",""time""
""fullscreenenter"",""5"",""13729""
","
","309.2999999523163","","49","","","3000","1","","","images/tutgreenplanet.jpg","images/tutalien2","images/tutalien1","images/tutrocket2","images/tutalien1","images/nothing.png","2","practice","false","1","rare","0","2022-05-12 03:51:26.630"
"two-step-fixation","114","368462","0.0-61.0-2.17","1708","1665","20","Male","true","true","false","false","""event"",""trial"",""time""
""fullscreenenter"",""5"",""13729""
","
","
","""event"",""trial"",""time""
""fullscreenenter"",""5"",""13729""
","
","","images/earth.jpg","","","","","","","","","","","","","","fixation","","","","","",""
"d3-animate-choice","115","370786","0.0-61.0-0.18","1708","1665","20","Male","true","true","false","false","""event"",""trial"",""time""
""fullscreenenter"",""5"",""13729""
","
","
","""event"",""trial"",""time""
""fullscreenenter"",""5"",""13729""
","
","320.89999997615814","","49","","","3000","1","","","images/earth.jpg","images/tutrocket1","images/tutrocket2","null","images/tutrocket2","","1","practice","null","1","","",""
"d3-animate-choice","116","373495","0.0-61.0-1.18","1708","1665","20","Male","true","true","false","false","""event"",""trial"",""time""
""fullscreenenter"",""5"",""13729""
","
","
","""event"",""trial"",""time""
""fullscreenenter"",""5"",""13729""
","
","705.3000000119209","","49","","","3000","1","","","images/tutgreenplanet.jpg","images/tutalien2","images/tutalien1","images/tutrocket2","images/tutalien1","images/nothing.png","2","practice","false","1","rare","0","2022-05-12 03:51:32.667"
"two-step-fixation","117","374499","0.0-61.0-2.18","1708","1665","20","Male","true","true","false","false","""event"",""trial"",""time""
""fullscreenenter"",""5"",""13729""
","
","
","""event"",""trial"",""time""
""fullscreenenter"",""5"",""13729""
","
","","images/earth.jpg","","","","","","","","","","","","","","fixation","","","","","",""
"d3-animate-choice","118","376802","0.0-61.0-0.19","1708","1665","20","Male","true","true","false","false","""event"",""trial"",""time""
""fullscreenenter"",""5"",""13729""
","
","
","""event"",""trial"",""time""
""fullscreenenter"",""5"",""13729""
","
","297.9000000357628","","49","","","3000","1","","","images/earth.jpg","images/tutrocket1","images/tutrocket2","null","images/tutrocket2","","1","practice","null","1","","",""
"d3-animate-choice","119","380727","0.0-61.0-1.19","1708","1665","20","Male","true","true","false","false","""event"",""trial"",""time""
""fullscreenenter"",""5"",""13729""
","
","
","""event"",""trial"",""time""
""fullscreenenter"",""5"",""13729""
","
","431.19999998807907","","50","","","3000","1","1918.199999988079","48","images/tutgreenplanet.jpg","images/tutalien2","images/tutalien1","images/tutrocket2","images/tutalien2","images/nothing.png","2","practice","false","","rare","0","2022-05-12 03:51:39.900"
"two-step-fixation","120","381733","0.0-61.0-2.19","1708","1665","20","Male","true","true","false","false","""event"",""trial"",""time""
""fullscreenenter"",""5"",""13729""
""blur"",""121"",""1002164""
""focus"",""121"",""1086882""
","""event"",""trial"",""time""
""blur"",""121"",""1002164""
","""event"",""trial"",""time""
""focus"",""121"",""1086882""
","""event"",""trial"",""time""
""fullscreenenter"",""5"",""13729""
","
","","images/earth.jpg","","","","","","","","","","","","","","fixation","","","","","",""
"d3-instructions","121","1088606","0.0-62.0","1708","1665","20","Male","true","true","false","false","""event"",""trial"",""time""
""fullscreenenter"",""5"",""13729""
""blur"",""121"",""1002164""
""focus"",""121"",""1086882""
","""event"",""trial"",""time""
""blur"",""121"",""1002164""
","""event"",""trial"",""time""
""focus"",""121"",""1086882""
","""event"",""trial"",""time""
""fullscreenenter"",""5"",""13729""
","
","","","","","","","","","","","","","","","","","","","","","",""
"audio-keyboard-response","122","1090415","0.0-63.0","1708","1665","20","Male","true","true","false","false","""event"",""trial"",""time""
""fullscreenenter"",""5"",""13729""
""blur"",""121"",""1002164""
""focus"",""121"",""1086882""
","""event"",""trial"",""time""
""blur"",""121"",""1002164""
","""event"",""trial"",""time""
""focus"",""121"",""1086882""
","""event"",""trial"",""time""
""fullscreenenter"",""5"",""13729""
","
","11","audio/instructions/treasure_feedback.wav","32","","","","","","","","","","","","","","","","","","",""
"d3-instructions","123","1110831","0.0-64.0","1708","1665","20","Male","true","true","false","false","""event"",""trial"",""time""
""fullscreenenter"",""5"",""13729""
""blur"",""121"",""1002164""
""focus"",""121"",""1086882""
","""event"",""trial"",""time""
""blur"",""121"",""1002164""
","""event"",""trial"",""time""
""focus"",""121"",""1086882""
","""event"",""trial"",""time""
""fullscreenenter"",""5"",""13729""
","
","","","","","","","","","","","","","","","","","","","","","",""
"d3-instructions","124","1122932","0.0-65.0","1708","1665","20","Male","true","true","false","false","""event"",""trial"",""time""
""fullscreenenter"",""5"",""13729""
""blur"",""121"",""1002164""
""focus"",""121"",""1086882""
","""event"",""trial"",""time""
""blur"",""121"",""1002164""
","""event"",""trial"",""time""
""focus"",""121"",""1086882""
","""event"",""trial"",""time""
""fullscreenenter"",""5"",""13729""
","
","","","","","","","","","","","","","","","","","","","","","",""
"d3-instructions","125","1149512","0.0-66.0","1708","1665","20","Male","true","true","false","false","""event"",""trial"",""time""
""fullscreenenter"",""5"",""13729""
""blur"",""121"",""1002164""
""focus"",""121"",""1086882""
","""event"",""trial"",""time""
""blur"",""121"",""1002164""
","""event"",""trial"",""time""
""focus"",""121"",""1086882""
","""event"",""trial"",""time""
""fullscreenenter"",""5"",""13729""
","
","","","","","","","","","","","","","","","","","","","","","",""
"d3-instructions","126","1165516","0.0-67.0","1708","1665","20","Male","true","true","false","false","""event"",""trial"",""time""
""fullscreenenter"",""5"",""13729""
""blur"",""121"",""1002164""
""focus"",""121"",""1086882""
","""event"",""trial"",""time""
""blur"",""121"",""1002164""
","""event"",""trial"",""time""
""focus"",""121"",""1086882""
","""event"",""trial"",""time""
""fullscreenenter"",""5"",""13729""
","
","","","","","","","","","","","","","","","","","","","","","",""
"d3-instructions","127","1176447","0.0-68.0","1708","1665","20","Male","true","true","false","false","""event"",""trial"",""time""
""fullscreenenter"",""5"",""13729""
""blur"",""121"",""1002164""
""focus"",""121"",""1086882""
","""event"",""trial"",""time""
""blur"",""121"",""1002164""
","""event"",""trial"",""time""
""focus"",""121"",""1086882""
","""event"",""trial"",""time""
""fullscreenenter"",""5"",""13729""
","
","","","","","","","","","","","","","","","","","","","","","",""
"instructions-quiz","128","1178037","0.0-69.0","1708","1665","20","Male","true","true","false","false","""event"",""trial"",""time""
""fullscreenenter"",""5"",""13729""
""blur"",""121"",""1002164""
""focus"",""121"",""1086882""
","""event"",""trial"",""time""
""blur"",""121"",""1002164""
","""event"",""trial"",""time""
""focus"",""121"",""1086882""
","""event"",""trial"",""time""
""fullscreenenter"",""5"",""13729""
","
","1586.199999988079","audio/quiz/Q1_Prompt.wav","","1","","","","","","","","","","","","","","","","","",""
"audio-keyboard-response","129","1186741","0.0-70.0","1708","1665","20","Male","true","true","false","false","""event"",""trial"",""time""
""fullscreenenter"",""5"",""13729""
""blur"",""121"",""1002164""
""focus"",""121"",""1086882""
","""event"",""trial"",""time""
""blur"",""121"",""1002164""
","""event"",""trial"",""time""
""focus"",""121"",""1086882""
","""event"",""trial"",""time""
""fullscreenenter"",""5"",""13729""
","
","8699","audio/quiz/Q1_Correct.wav","32","","","","","","","","","","","","","","","","","","",""
"instructions-quiz","130","1189421","0.0-71.0","1708","1665","20","Male","true","true","false","false","""event"",""trial"",""time""
""fullscreenenter"",""5"",""13729""
""blur"",""121"",""1002164""
""focus"",""121"",""1086882""
","""event"",""trial"",""time""
""blur"",""121"",""1002164""
","""event"",""trial"",""time""
""focus"",""121"",""1086882""
","""event"",""trial"",""time""
""fullscreenenter"",""5"",""13729""
","
","2677.599999964237","audio/quiz/Q2_Prompt.wav","","1","","","","","","","","","","","","","","","","","",""
"audio-keyboard-response","131","1203503","0.0-72.0","1708","1665","20","Male","true","true","false","false","""event"",""trial"",""time""
""fullscreenenter"",""5"",""13729""
""blur"",""121"",""1002164""
""focus"",""121"",""1086882""
","""event"",""trial"",""time""
""blur"",""121"",""1002164""
","""event"",""trial"",""time""
""focus"",""121"",""1086882""
","""event"",""trial"",""time""
""fullscreenenter"",""5"",""13729""
","
","null","audio/quiz/Q2_Incorrect.wav","null","","","","","","","","","","","","","","","","","","",""
"instructions-quiz","132","1205322","0.0-73.0","1708","1665","20","Male","true","true","false","false","""event"",""trial"",""time""
""fullscreenenter"",""5"",""13729""
""blur"",""121"",""1002164""
""focus"",""121"",""1086882""
","""event"",""trial"",""time""
""blur"",""121"",""1002164""
","""event"",""trial"",""time""
""focus"",""121"",""1086882""
","""event"",""trial"",""time""
""fullscreenenter"",""5"",""13729""
","
","1815.1000000238419","audio/quiz/Q3_Prompt.wav","","1","","","","","","","","","","","","","","","","","",""
"audio-keyboard-response","133","1211125","0.0-74.0","1708","1665","20","Male","true","true","false","false","""event"",""trial"",""time""
""fullscreenenter"",""5"",""13729""
""blur"",""121"",""1002164""
""focus"",""121"",""1086882""
","""event"",""trial"",""time""
""blur"",""121"",""1002164""
","""event"",""trial"",""time""
""focus"",""121"",""1086882""
","""event"",""trial"",""time""
""fullscreenenter"",""5"",""13729""
","
","null","audio/quiz/Q3_Correct.wav","null","","","","","","","","","","","","","","","","","","",""
"d3-instructions","134","1227208","0.0-75.0","1708","1665","20","Male","true","true","false","false","""event"",""trial"",""time""
""fullscreenenter"",""5"",""13729""
""blur"",""121"",""1002164""
""focus"",""121"",""1086882""
","""event"",""trial"",""time""
""blur"",""121"",""1002164""
","""event"",""trial"",""time""
""focus"",""121"",""1086882""
","""event"",""trial"",""time""
""fullscreenenter"",""5"",""13729""
","
","","","","","","","","","","","","","","","","","","","","","",""
"d3-animate-choice","135","1230002","0.0-76.0-0.0","1708","1665","20","Male","true","true","false","false","""event"",""trial"",""time""
""fullscreenenter"",""5"",""13729""
""blur"",""121"",""1002164""
""focus"",""121"",""1086882""
","""event"",""trial"",""time""
""blur"",""121"",""1002164""
","""event"",""trial"",""time""
""focus"",""121"",""1086882""
","""event"",""trial"",""time""
""fullscreenenter"",""5"",""13729""
","
","788.8999999761581","","49","","","3000","1","","","images/earth.jpg","images/rocket2","images/rocket1","null","images/rocket1","","1","real","null","1","","",""
"d3-animate-choice","136","1232628","0.0-76.0-1.0","1708","1665","20","Male","true","true","false","false","""event"",""trial"",""time""
""fullscreenenter"",""5"",""13729""
""blur"",""121"",""1002164""
""focus"",""121"",""1086882""
","""event"",""trial"",""time""
""blur"",""121"",""1002164""
","""event"",""trial"",""time""
""focus"",""121"",""1086882""
","""event"",""trial"",""time""
""fullscreenenter"",""5"",""13729""
","
","620.3999999761581","","49","","","3000","1","","","images/redplanet1.jpg","images/alien2","images/alien1","images/rocket1","images/alien1","images/t.png","2","real","true","1","common","1","2022-05-12 04:05:51.800"
"two-step-fixation","137","1233638","0.0-76.0-2.0","1708","1665","20","Male","true","true","false","false","""event"",""trial"",""time""
""fullscreenenter"",""5"",""13729""
""blur"",""121"",""1002164""
""focus"",""121"",""1086882""
","""event"",""trial"",""time""
""blur"",""121"",""1002164""
","""event"",""trial"",""time""
""focus"",""121"",""1086882""
","""event"",""trial"",""time""
""fullscreenenter"",""5"",""13729""
","
","","images/earth.jpg","","","","","","","","","","","","","","fixation","","","","","",""
"d3-animate-choice","138","1235957","0.0-76.0-0.1","1708","1665","20","Male","true","true","false","false","""event"",""trial"",""time""
""fullscreenenter"",""5"",""13729""
""blur"",""121"",""1002164""
""focus"",""121"",""1086882""
","""event"",""trial"",""time""
""blur"",""121"",""1002164""
","""event"",""trial"",""time""
""focus"",""121"",""1086882""
","""event"",""trial"",""time""
""fullscreenenter"",""5"",""13729""
","
","314","","49","","","3000","1","","","images/earth.jpg","images/rocket2","images/rocket1","null","images/rocket1","","1","real","null","1","","",""
"d3-animate-choice","139","1238424","0.0-76.0-1.1","1708","1665","20","Male","true","true","false","false","""event"",""trial"",""time""
""fullscreenenter"",""5"",""13729""
""blur"",""121"",""1002164""
""focus"",""121"",""1086882""
","""event"",""trial"",""time""
""blur"",""121"",""1002164""
","""event"",""trial"",""time""
""focus"",""121"",""1086882""
","""event"",""trial"",""time""
""fullscreenenter"",""5"",""13729""
","
","462.30000001192093","","49","","","3000","1","","","images/redplanet1.jpg","images/alien2","images/alien1","images/rocket1","images/alien1","images/nothing.png","2","real","true","1","common","0","2022-05-12 04:05:57.596"
"two-step-fixation","140","1239429","0.0-76.0-2.1","1708","1665","20","Male","true","true","false","false","""event"",""trial"",""time""
""fullscreenenter"",""5"",""13729""
""blur"",""121"",""1002164""
""focus"",""121"",""1086882""
","""event"",""trial"",""time""
""blur"",""121"",""1002164""
","""event"",""trial"",""time""
""focus"",""121"",""1086882""
","""event"",""trial"",""time""
""fullscreenenter"",""5"",""13729""
","
","","images/earth.jpg","","","","","","","","","","","","","","fixation","","","","","",""
"d3-animate-choice","141","1241917","0.0-76.0-0.2","1708","1665","20","Male","true","true","false","false","""event"",""trial"",""time""
""fullscreenenter"",""5"",""13729""
""blur"",""121"",""1002164""
""focus"",""121"",""1086882""
","""event"",""trial"",""time""
""blur"",""121"",""1002164""
","""event"",""trial"",""time""
""focus"",""121"",""1086882""
","""event"",""trial"",""time""
""fullscreenenter"",""5"",""13729""
","
","481.7000000476837","","49","","","3000","1","2047.9000000357628","49","images/earth.jpg","images/rocket2","images/rocket1","null","images/rocket1","","1","real","null","1","","",""
"d3-animate-choice","142","1244640","0.0-76.0-1.2","1708","1665","20","Male","true","true","false","false","""event"",""trial"",""time""
""fullscreenenter"",""5"",""13729""
""blur"",""121"",""1002164""
""focus"",""121"",""1086882""
","""event"",""trial"",""time""
""blur"",""121"",""1002164""
","""event"",""trial"",""time""
""focus"",""121"",""1086882""
","""event"",""trial"",""time""
""fullscreenenter"",""5"",""13729""
","
","713.6999999880791","","49","","","3000","1","","","images/purpleplanet.jpg","images/alien4","images/alien3","images/rocket1","images/alien3","images/nothing.png","2","real","false","1","rare","0","2022-05-12 04:06:03.812"
"two-step-fixation","143","1245645","0.0-76.0-2.2","1708","1665","20","Male","true","true","false","false","""event"",""trial"",""time""
""fullscreenenter"",""5"",""13729""
""blur"",""121"",""1002164""
""focus"",""121"",""1086882""
","""event"",""trial"",""time""
""blur"",""121"",""1002164""
","""event"",""trial"",""time""
""focus"",""121"",""1086882""
","""event"",""trial"",""time""
""fullscreenenter"",""5"",""13729""
","
","","images/earth.jpg","","","","","","","","","","","","","","fixation","","","","","",""
"d3-animate-choice","144","1248753","0.0-76.0-0.3","1708","1665","20","Male","true","true","false","false","""event"",""trial"",""time""
""fullscreenenter"",""5"",""13729""
""blur"",""121"",""1002164""
""focus"",""121"",""1086882""
","""event"",""trial"",""time""
""blur"",""121"",""1002164""
","""event"",""trial"",""time""
""focus"",""121"",""1086882""
","""event"",""trial"",""time""
""fullscreenenter"",""5"",""13729""
","
","1102.199999988079","","49","","","3000","1","","","images/earth.jpg","images/rocket2","images/rocket1","null","images/rocket1","","1","real","null","1","","",""
"d3-animate-choice","145","1251476","0.0-76.0-1.3","1708","1665","20","Male","true","true","false","false","""event"",""trial"",""time""
""fullscreenenter"",""5"",""13729""
""blur"",""121"",""1002164""
""focus"",""121"",""1086882""
","""event"",""trial"",""time""
""blur"",""121"",""1002164""
","""event"",""trial"",""time""
""focus"",""121"",""1086882""
","""event"",""trial"",""time""
""fullscreenenter"",""5"",""13729""
","
","718","","49","","","3000","1","","","images/redplanet1.jpg","images/alien2","images/alien1","images/rocket1","images/alien1","images/t.png","2","real","true","1","common","1","2022-05-12 04:06:10.648"
"two-step-fixation","146","1252485","0.0-76.0-2.3","1708","1665","20","Male","true","true","false","false","""event"",""trial"",""time""
""fullscreenenter"",""5"",""13729""
""blur"",""121"",""1002164""
""focus"",""121"",""1086882""
","""event"",""trial"",""time""
""blur"",""121"",""1002164""
","""event"",""trial"",""time""
""focus"",""121"",""1086882""
","""event"",""trial"",""time""
""fullscreenenter"",""5"",""13729""
","
","","images/earth.jpg","","","","","","","","","","","","","","fixation","","","","","",""
"d3-animate-choice","147","1255871","0.0-76.0-0.4","1708","1665","20","Male","true","true","false","false","""event"",""trial"",""time""
""fullscreenenter"",""5"",""13729""
""blur"",""121"",""1002164""
""focus"",""121"",""1086882""
","""event"",""trial"",""time""
""blur"",""121"",""1002164""
","""event"",""trial"",""time""
""focus"",""121"",""1086882""
","""event"",""trial"",""time""
""fullscreenenter"",""5"",""13729""
","
","1380.300000011921","","49","","","3000","1","","","images/earth.jpg","images/rocket2","images/rocket1","null","images/rocket1","","1","real","null","1","","",""
"d3-animate-choice","148","1258257","0.0-76.0-1.4","1708","1665","20","Male","true","true","false","false","""event"",""trial"",""time""
""fullscreenenter"",""5"",""13729""
""blur"",""121"",""1002164""
""focus"",""121"",""1086882""
","""event"",""trial"",""time""
""blur"",""121"",""1002164""
","""event"",""trial"",""time""
""focus"",""121"",""1086882""
","""event"",""trial"",""time""
""fullscreenenter"",""5"",""13729""
","
","381.39999997615814","","49","","","3000","1","","","images/purpleplanet.jpg","images/alien4","images/alien3","images/rocket1","images/alien3","images/t.png","2","real","false","1","rare","1","2022-05-12 04:06:17.429"
"two-step-fixation","149","1259265","0.0-76.0-2.4","1708","1665","20","Male","true","true","false","false","""event"",""trial"",""time""
""fullscreenenter"",""5"",""13729""
""blur"",""121"",""1002164""
""focus"",""121"",""1086882""
","""event"",""trial"",""time""
""blur"",""121"",""1002164""
","""event"",""trial"",""time""
""focus"",""121"",""1086882""
","""event"",""trial"",""time""
""fullscreenenter"",""5"",""13729""
","
","","images/earth.jpg","","","","","","","","","","","","","","fixation","","","","","",""
"d3-animate-choice","150","1261585","0.0-76.0-0.5","1708","1665","20","Male","true","true","false","false","""event"",""trial"",""time""
""fullscreenenter"",""5"",""13729""
""blur"",""121"",""1002164""
""focus"",""121"",""1086882""
","""event"",""trial"",""time""
""blur"",""121"",""1002164""
","""event"",""trial"",""time""
""focus"",""121"",""1086882""
","""event"",""trial"",""time""
""fullscreenenter"",""5"",""13729""
","
","312.4000000357628","","49","","","3000","1","","","images/earth.jpg","images/rocket2","images/rocket1","null","images/rocket1","","1","real","null","1","","",""
"d3-animate-choice","151","1264015","0.0-76.0-1.5","1708","1665","20","Male","true","true","false","false","""event"",""trial"",""time""
""fullscreenenter"",""5"",""13729""
""blur"",""121"",""1002164""
""focus"",""121"",""1086882""
","""event"",""trial"",""time""
""blur"",""121"",""1002164""
","""event"",""trial"",""time""
""focus"",""121"",""1086882""
","""event"",""trial"",""time""
""fullscreenenter"",""5"",""13729""
","
","425.5999999642372","","49","","","3000","1","","","images/purpleplanet.jpg","images/alien4","images/alien3","images/rocket1","images/alien3","images/t.png","2","real","false","1","rare","1","2022-05-12 04:06:23.188"
"two-step-fixation","152","1265019","0.0-76.0-2.5","1708","1665","20","Male","true","true","false","false","""event"",""trial"",""time""
""fullscreenenter"",""5"",""13729""
""blur"",""121"",""1002164""
""focus"",""121"",""1086882""
","""event"",""trial"",""time""
""blur"",""121"",""1002164""
","""event"",""trial"",""time""
""focus"",""121"",""1086882""
","""event"",""trial"",""time""
""fullscreenenter"",""5"",""13729""
","
","","images/earth.jpg","","","","","","","","","","","","","","fixation","","","","","",""
"d3-animate-choice","153","1267328","0.0-76.0-0.6","1708","1665","20","Male","true","true","false","false","""event"",""trial"",""time""
""fullscreenenter"",""5"",""13729""
""blur"",""121"",""1002164""
""focus"",""121"",""1086882""
","""event"",""trial"",""time""
""blur"",""121"",""1002164""
","""event"",""trial"",""time""
""focus"",""121"",""1086882""
","""event"",""trial"",""time""
""fullscreenenter"",""5"",""13729""
","
","301.10000002384186","","49","","","3000","1","","","images/earth.jpg","images/rocket2","images/rocket1","null","images/rocket1","","1","real","null","1","","",""
"d3-animate-choice","154","1269771","0.0-76.0-1.6","1708","1665","20","Male","true","true","false","false","""event"",""trial"",""time""
""fullscreenenter"",""5"",""13729""
""blur"",""121"",""1002164""
""focus"",""121"",""1086882""
","""event"",""trial"",""time""
""blur"",""121"",""1002164""
","""event"",""trial"",""time""
""focus"",""121"",""1086882""
","""event"",""trial"",""time""
""fullscreenenter"",""5"",""13729""
","
","439.5","","49","","","3000","1","","","images/purpleplanet.jpg","images/alien4","images/alien3","images/rocket1","images/alien3","images/nothing.png","2","real","false","1","rare","0","2022-05-12 04:06:28.944"
"two-step-fixation","155","1270775","0.0-76.0-2.6","1708","1665","20","Male","true","true","false","false","""event"",""trial"",""time""
""fullscreenenter"",""5"",""13729""
""blur"",""121"",""1002164""
""focus"",""121"",""1086882""
","""event"",""trial"",""time""
""blur"",""121"",""1002164""
","""event"",""trial"",""time""
""focus"",""121"",""1086882""
","""event"",""trial"",""time""
""fullscreenenter"",""5"",""13729""
","
","","images/earth.jpg","","","","","","","","","","","","","","fixation","","","","","",""
"d3-animate-choice","156","1273294","0.0-76.0-0.7","1708","1665","20","Male","true","true","false","false","""event"",""trial"",""time""
""fullscreenenter"",""5"",""13729""
""blur"",""121"",""1002164""
""focus"",""121"",""1086882""
","""event"",""trial"",""time""
""blur"",""121"",""1002164""
","""event"",""trial"",""time""
""focus"",""121"",""1086882""
","""event"",""trial"",""time""
""fullscreenenter"",""5"",""13729""
","
","514.5","","49","","","3000","1","","","images/earth.jpg","images/rocket2","images/rocket1","null","images/rocket1","","1","real","null","1","","",""
"d3-animate-choice","157","1275740","0.0-76.0-1.7","1708","1665","20","Male","true","true","false","false","""event"",""trial"",""time""
""fullscreenenter"",""5"",""13729""
""blur"",""121"",""1002164""
""focus"",""121"",""1086882""
","""event"",""trial"",""time""
""blur"",""121"",""1002164""
","""event"",""trial"",""time""
""focus"",""121"",""1086882""
","""event"",""trial"",""time""
""fullscreenenter"",""5"",""13729""
","
","437.39999997615814","","49","","","3000","1","","","images/purpleplanet.jpg","images/alien4","images/alien3","images/rocket1","images/alien3","images/t.png","2","real","false","1","rare","1","2022-05-12 04:06:34.912"
"two-step-fixation","158","1276747","0.0-76.0-2.7","1708","1665","20","Male","true","true","false","false","""event"",""trial"",""time""
""fullscreenenter"",""5"",""13729""
""blur"",""121"",""1002164""
""focus"",""121"",""1086882""
","""event"",""trial"",""time""
""blur"",""121"",""1002164""
","""event"",""trial"",""time""
""focus"",""121"",""1086882""
","""event"",""trial"",""time""
""fullscreenenter"",""5"",""13729""
","
","","images/earth.jpg","","","","","","","","","","","","","","fixation","","","","","",""
"d3-animate-choice","159","1279238","0.0-76.0-0.8","1708","1665","20","Male","true","true","false","false","""event"",""trial"",""time""
""fullscreenenter"",""5"",""13729""
""blur"",""121"",""1002164""
""focus"",""121"",""1086882""
","""event"",""trial"",""time""
""blur"",""121"",""1002164""
","""event"",""trial"",""time""
""focus"",""121"",""1086882""
","""event"",""trial"",""time""
""fullscreenenter"",""5"",""13729""
","
","486.7000000476837","","49","","","3000","1","","","images/earth.jpg","images/rocket2","images/rocket1","null","images/rocket1","","1","real","null","1","","",""
"d3-animate-choice","160","1281740","0.0-76.0-1.8","1708","1665","20","Male","true","true","false","false","""event"",""trial"",""time""
""fullscreenenter"",""5"",""13729""
""blur"",""121"",""1002164""
""focus"",""121"",""1086882""
","""event"",""trial"",""time""
""blur"",""121"",""1002164""
","""event"",""trial"",""time""
""focus"",""121"",""1086882""
","""event"",""trial"",""time""
""fullscreenenter"",""5"",""13729""
","
","495.89999997615814","","49","","","3000","1","","","images/redplanet1.jpg","images/alien2","images/alien1","images/rocket1","images/alien1","images/t.png","2","real","true","1","common","1","2022-05-12 04:06:40.912"
"two-step-fixation","161","1282747","0.0-76.0-2.8","1708","1665","20","Male","true","true","false","false","""event"",""trial"",""time""
""fullscreenenter"",""5"",""13729""
""blur"",""121"",""1002164""
""focus"",""121"",""1086882""
","""event"",""trial"",""time""
""blur"",""121"",""1002164""
","""event"",""trial"",""time""
""focus"",""121"",""1086882""
","""event"",""trial"",""time""
""fullscreenenter"",""5"",""13729""
","
","","images/earth.jpg","","","","","","","","","","","","","","fixation","","","","","",""
"d3-animate-choice","162","1285144","0.0-76.0-0.9","1708","1665","20","Male","true","true","false","false","""event"",""trial"",""time""
""fullscreenenter"",""5"",""13729""
""blur"",""121"",""1002164""
""focus"",""121"",""1086882""
","""event"",""trial"",""time""
""blur"",""121"",""1002164""
","""event"",""trial"",""time""
""focus"",""121"",""1086882""
","""event"",""trial"",""time""
""fullscreenenter"",""5"",""13729""
","
","392.2999999523163","","49","","","3000","1","","","images/earth.jpg","images/rocket2","images/rocket1","null","images/rocket1","","1","real","null","1","","",""
"d3-animate-choice","163","1287614","0.0-76.0-1.9","1708","1665","20","Male","true","true","false","false","""event"",""trial"",""time""
""fullscreenenter"",""5"",""13729""
""blur"",""121"",""1002164""
""focus"",""121"",""1086882""
","""event"",""trial"",""time""
""blur"",""121"",""1002164""
","""event"",""trial"",""time""
""focus"",""121"",""1086882""
","""event"",""trial"",""time""
""fullscreenenter"",""5"",""13729""
","
","461.89999997615814","","49","","","3000","1","","","images/redplanet1.jpg","images/alien2","images/alien1","images/rocket1","images/alien1","images/t.png","2","real","true","1","common","1","2022-05-12 04:06:46.786"
"two-step-fixation","164","1288618","0.0-76.0-2.9","1708","1665","20","Male","true","true","false","false","""event"",""trial"",""time""
""fullscreenenter"",""5"",""13729""
""blur"",""121"",""1002164""
""focus"",""121"",""1086882""
","""event"",""trial"",""time""
""blur"",""121"",""1002164""
","""event"",""trial"",""time""
""focus"",""121"",""1086882""
","""event"",""trial"",""time""
""fullscreenenter"",""5"",""13729""
","
","","images/earth.jpg","","","","","","","","","","","","","","fixation","","","","","",""
"d3-animate-choice","165","1291132","0.0-76.0-0.10","1708","1665","20","Male","true","true","false","false","""event"",""trial"",""time""
""fullscreenenter"",""5"",""13729""
""blur"",""121"",""1002164""
""focus"",""121"",""1086882""
","""event"",""trial"",""time""
""blur"",""121"",""1002164""
","""event"",""trial"",""time""
""focus"",""121"",""1086882""
","""event"",""trial"",""time""
""fullscreenenter"",""5"",""13729""
","
","509.5","","49","","","3000","1","","","images/earth.jpg","images/rocket2","images/rocket1","null","images/rocket1","","1","real","null","1","","",""
"d3-animate-choice","166","1293516","0.0-76.0-1.10","1708","1665","20","Male","true","true","false","false","""event"",""trial"",""time""
""fullscreenenter"",""5"",""13729""
""blur"",""121"",""1002164""
""focus"",""121"",""1086882""
","""event"",""trial"",""time""
""blur"",""121"",""1002164""
","""event"",""trial"",""time""
""focus"",""121"",""1086882""
","""event"",""trial"",""time""
""fullscreenenter"",""5"",""13729""
","
","379.2000000476837","","49","","","3000","1","","","images/purpleplanet.jpg","images/alien4","images/alien3","images/rocket1","images/alien3","images/nothing.png","2","real","false","1","rare","0","2022-05-12 04:06:52.688"
"two-step-fixation","167","1294520","0.0-76.0-2.10","1708","1665","20","Male","true","true","false","false","""event"",""trial"",""time""
""fullscreenenter"",""5"",""13729""
""blur"",""121"",""1002164""
""focus"",""121"",""1086882""
","""event"",""trial"",""time""
""blur"",""121"",""1002164""
","""event"",""trial"",""time""
""focus"",""121"",""1086882""
","""event"",""trial"",""time""
""fullscreenenter"",""5"",""13729""
","
","","images/earth.jpg","","","","","","","","","","","","","","fixation","","","","","",""
"d3-animate-choice","168","1297117","0.0-76.0-0.11","1708","1665","20","Male","true","true","false","false","""event"",""trial"",""time""
""fullscreenenter"",""5"",""13729""
""blur"",""121"",""1002164""
""focus"",""121"",""1086882""
","""event"",""trial"",""time""
""blur"",""121"",""1002164""
","""event"",""trial"",""time""
""focus"",""121"",""1086882""
","""event"",""trial"",""time""
""fullscreenenter"",""5"",""13729""
","
","593","","49","","","3000","1","","","images/earth.jpg","images/rocket2","images/rocket1","null","images/rocket1","","1","real","null","1","","",""
"d3-animate-choice","169","1299580","0.0-76.0-1.11","1708","1665","20","Male","true","true","false","false","""event"",""trial"",""time""
""fullscreenenter"",""5"",""13729""
""blur"",""121"",""1002164""
""focus"",""121"",""1086882""
","""event"",""trial"",""time""
""blur"",""121"",""1002164""
","""event"",""trial"",""time""
""focus"",""121"",""1086882""
","""event"",""trial"",""time""
""fullscreenenter"",""5"",""13729""
","
","455.4000000357628","","49","","","3000","1","","","images/redplanet1.jpg","images/alien2","images/alien1","images/rocket1","images/alien1","images/nothing.png","2","real","true","1","common","0","2022-05-12 04:06:58.752"
"two-step-fixation","170","1300588","0.0-76.0-2.11","1708","1665","20","Male","true","true","false","false","""event"",""trial"",""time""
""fullscreenenter"",""5"",""13729""
""blur"",""121"",""1002164""
""focus"",""121"",""1086882""
","""event"",""trial"",""time""
""blur"",""121"",""1002164""
","""event"",""trial"",""time""
""focus"",""121"",""1086882""
","""event"",""trial"",""time""
""fullscreenenter"",""5"",""13729""
","
","","images/earth.jpg","","","","","","","","","","","","","","fixation","","","","","",""
"d3-animate-choice","171","1302902","0.0-76.0-0.12","1708","1665","20","Male","true","true","false","false","""event"",""trial"",""time""
""fullscreenenter"",""5"",""13729""
""blur"",""121"",""1002164""
""focus"",""121"",""1086882""
","""event"",""trial"",""time""
""blur"",""121"",""1002164""
","""event"",""trial"",""time""
""focus"",""121"",""1086882""
","""event"",""trial"",""time""
""fullscreenenter"",""5"",""13729""
","
","309.69999998807907","","49","","","3000","1","","","images/earth.jpg","images/rocket2","images/rocket1","null","images/rocket1","","1","real","null","1","","",""
"d3-animate-choice","172","1305527","0.0-76.0-1.12","1708","1665","20","Male","true","true","false","false","""event"",""trial"",""time""
""fullscreenenter"",""5"",""13729""
""blur"",""121"",""1002164""
""focus"",""121"",""1086882""
","""event"",""trial"",""time""
""blur"",""121"",""1002164""
","""event"",""trial"",""time""
""focus"",""121"",""1086882""
","""event"",""trial"",""time""
""fullscreenenter"",""5"",""13729""
","
","621.5","","49","","","3000","1","","","images/purpleplanet.jpg","images/alien4","images/alien3","images/rocket1","images/alien3","images/t.png","2","real","false","1","rare","1","2022-05-12 04:07:04.699"
"two-step-fixation","173","1306535","0.0-76.0-2.12","1708","1665","20","Male","true","true","false","false","""event"",""trial"",""time""
""fullscreenenter"",""5"",""13729""
""blur"",""121"",""1002164""
""focus"",""121"",""1086882""
","""event"",""trial"",""time""
""blur"",""121"",""1002164""
","""event"",""trial"",""time""
""focus"",""121"",""1086882""
","""event"",""trial"",""time""
""fullscreenenter"",""5"",""13729""
","
","","images/earth.jpg","","","","","","","","","","","","","","fixation","","","","","",""
"d3-animate-choice","174","1309042","0.0-76.0-0.13","1708","1665","20","Male","true","true","false","false","""event"",""trial"",""time""
""fullscreenenter"",""5"",""13729""
""blur"",""121"",""1002164""
""focus"",""121"",""1086882""
","""event"",""trial"",""time""
""blur"",""121"",""1002164""
","""event"",""trial"",""time""
""focus"",""121"",""1086882""
","""event"",""trial"",""time""
""fullscreenenter"",""5"",""13729""
","
","499.9000000357628","","49","","","3000","1","2036.9000000357628","49","images/earth.jpg","images/rocket2","images/rocket1","null","images/rocket1","","1","real","null","1","","",""
"d3-animate-choice","175","1311415","0.0-76.0-1.13","1708","1665","20","Male","true","true","false","false","""event"",""trial"",""time""
""fullscreenenter"",""5"",""13729""
""blur"",""121"",""1002164""
""focus"",""121"",""1086882""
","""event"",""trial"",""time""
""blur"",""121"",""1002164""
","""event"",""trial"",""time""
""focus"",""121"",""1086882""
","""event"",""trial"",""time""
""fullscreenenter"",""5"",""13729""
","
","369.9000000357628","","49","","","3000","1","","","images/redplanet1.jpg","images/alien2","images/alien1","images/rocket1","images/alien1","images/nothing.png","2","real","true","1","common","0","2022-05-12 04:07:10.588"
"two-step-fixation","176","1312421","0.0-76.0-2.13","1708","1665","20","Male","true","true","false","false","""event"",""trial"",""time""
""fullscreenenter"",""5"",""13729""
""blur"",""121"",""1002164""
""focus"",""121"",""1086882""
","""event"",""trial"",""time""
""blur"",""121"",""1002164""
","""event"",""trial"",""time""
""focus"",""121"",""1086882""
","""event"",""trial"",""time""
""fullscreenenter"",""5"",""13729""
","
","","images/earth.jpg","","","","","","","","","","","","","","fixation","","","","","",""
"d3-animate-choice","177","1314843","0.0-76.0-0.14","1708","1665","20","Male","true","true","false","false","""event"",""trial"",""time""
""fullscreenenter"",""5"",""13729""
""blur"",""121"",""1002164""
""focus"",""121"",""1086882""
","""event"",""trial"",""time""
""blur"",""121"",""1002164""
","""event"",""trial"",""time""
""focus"",""121"",""1086882""
","""event"",""trial"",""time""
""fullscreenenter"",""5"",""13729""
","
","414.69999998807907","","49","","","3000","1","","","images/earth.jpg","images/rocket2","images/rocket1","null","images/rocket1","","1","real","null","1","","",""
"d3-animate-choice","178","1317281","0.0-76.0-1.14","1708","1665","20","Male","true","true","false","false","""event"",""trial"",""time""
""fullscreenenter"",""5"",""13729""
""blur"",""121"",""1002164""
""focus"",""121"",""1086882""
","""event"",""trial"",""time""
""blur"",""121"",""1002164""
","""event"",""trial"",""time""
""focus"",""121"",""1086882""
","""event"",""trial"",""time""
""fullscreenenter"",""5"",""13729""
","
","433.5","","49","","","3000","1","","","images/purpleplanet.jpg","images/alien4","images/alien3","images/rocket1","images/alien3","images/nothing.png","2","real","false","1","rare","0","2022-05-12 04:07:16.453"
"two-step-fixation","179","1318285","0.0-76.0-2.14","1708","1665","20","Male","true","true","false","false","""event"",""trial"",""time""
""fullscreenenter"",""5"",""13729""
""blur"",""121"",""1002164""
""focus"",""121"",""1086882""
","""event"",""trial"",""time""
""blur"",""121"",""1002164""
","""event"",""trial"",""time""
""focus"",""121"",""1086882""
","""event"",""trial"",""time""
""fullscreenenter"",""5"",""13729""
","
","","images/earth.jpg","","","","","","","","","","","","","","fixation","","","","","",""
"d3-animate-choice","180","1320615","0.0-76.0-0.15","1708","1665","20","Male","true","true","false","false","""event"",""trial"",""time""
""fullscreenenter"",""5"",""13729""
""blur"",""121"",""1002164""
""focus"",""121"",""1086882""
","""event"",""trial"",""time""
""blur"",""121"",""1002164""
","""event"",""trial"",""time""
""focus"",""121"",""1086882""
","""event"",""trial"",""time""
""fullscreenenter"",""5"",""13729""
","
","325.30000001192093","","49","","","3000","1","","","images/earth.jpg","images/rocket2","images/rocket1","null","images/rocket1","","1","real","null","1","","",""
"d3-animate-choice","181","1323415","0.0-76.0-1.15","1708","1665","20","Male","true","true","false","false","""event"",""trial"",""time""
""fullscreenenter"",""5"",""13729""
""blur"",""121"",""1002164""
""focus"",""121"",""1086882""
","""event"",""trial"",""time""
""blur"",""121"",""1002164""
","""event"",""trial"",""time""
""focus"",""121"",""1086882""
","""event"",""trial"",""time""
""fullscreenenter"",""5"",""13729""
","
","793.7999999523163","","48","","","3000","1","","","images/redplanet1.jpg","images/alien2","images/alien1","images/rocket1","images/alien2","images/t.png","2","real","true","2","common","1","2022-05-12 04:07:22.587"
"two-step-fixation","182","1324420","0.0-76.0-2.15","1708","1665","20","Male","true","true","false","false","""event"",""trial"",""time""
""fullscreenenter"",""5"",""13729""
""blur"",""121"",""1002164""
""focus"",""121"",""1086882""
","""event"",""trial"",""time""
""blur"",""121"",""1002164""
","""event"",""trial"",""time""
""focus"",""121"",""1086882""
","""event"",""trial"",""time""
""fullscreenenter"",""5"",""13729""
","
","","images/earth.jpg","","","","","","","","","","","","","","fixation","","","","","",""
"d3-animate-choice","183","1326733","0.0-76.0-0.16","1708","1665","20","Male","true","true","false","false","""event"",""trial"",""time""
""fullscreenenter"",""5"",""13729""
""blur"",""121"",""1002164""
""focus"",""121"",""1086882""
","""event"",""trial"",""time""
""blur"",""121"",""1002164""
","""event"",""trial"",""time""
""focus"",""121"",""1086882""
","""event"",""trial"",""time""
""fullscreenenter"",""5"",""13729""
","
","305.89999997615814","","49","","","3000","1","","","images/earth.jpg","images/rocket2","images/rocket1","null","images/rocket1","","1","real","null","1","","",""
"d3-animate-choice","184","1329325","0.0-76.0-1.16","1708","1665","20","Male","true","true","false","false","""event"",""trial"",""time""
""fullscreenenter"",""5"",""13729""
""blur"",""121"",""1002164""
""focus"",""121"",""1086882""
","""event"",""trial"",""time""
""blur"",""121"",""1002164""
","""event"",""trial"",""time""
""focus"",""121"",""1086882""
","""event"",""trial"",""time""
""fullscreenenter"",""5"",""13729""
","
","587.5","","49","","","3000","1","","","images/purpleplanet.jpg","images/alien4","images/alien3","images/rocket1","images/alien3","images/nothing.png","2","real","false","1","rare","0","2022-05-12 04:07:28.497"
"two-step-fixation","185","1330333","0.0-76.0-2.16","1708","1665","20","Male","true","true","false","false","""event"",""trial"",""time""
""fullscreenenter"",""5"",""13729""
""blur"",""121"",""1002164""
""focus"",""121"",""1086882""
","""event"",""trial"",""time""
""blur"",""121"",""1002164""
","""event"",""trial"",""time""
""focus"",""121"",""1086882""
","""event"",""trial"",""time""
""fullscreenenter"",""5"",""13729""
","
","","images/earth.jpg","","","","","","","","","","","","","","fixation","","","","","",""
"d3-animate-choice","186","1332636","0.0-76.0-0.17","1708","1665","20","Male","true","true","false","false","""event"",""trial"",""time""
""fullscreenenter"",""5"",""13729""
""blur"",""121"",""1002164""
""focus"",""121"",""1086882""
","""event"",""trial"",""time""
""blur"",""121"",""1002164""
","""event"",""trial"",""time""
""focus"",""121"",""1086882""
","""event"",""trial"",""time""
""fullscreenenter"",""5"",""13729""
","
","296.2999999523163","","49","","","3000","1","","","images/earth.jpg","images/rocket2","images/rocket1","null","images/rocket1","","1","real","null","1","","",""
"d3-animate-choice","187","1335003","0.0-76.0-1.17","1708","1665","20","Male","true","true","false","false","""event"",""trial"",""time""
""fullscreenenter"",""5"",""13729""
""blur"",""121"",""1002164""
""focus"",""121"",""1086882""
","""event"",""trial"",""time""
""blur"",""121"",""1002164""
","""event"",""trial"",""time""
""focus"",""121"",""1086882""
","""event"",""trial"",""time""
""fullscreenenter"",""5"",""13729""
","
","361.9000000357628","","48","","","3000","1","","","images/redplanet1.jpg","images/alien2","images/alien1","images/rocket1","images/alien2","images/nothing.png","2","real","true","2","common","0","2022-05-12 04:07:34.175"
"two-step-fixation","188","1336008","0.0-76.0-2.17","1708","1665","20","Male","true","true","false","false","""event"",""trial"",""time""
""fullscreenenter"",""5"",""13729""
""blur"",""121"",""1002164""
""focus"",""121"",""1086882""
","""event"",""trial"",""time""
""blur"",""121"",""1002164""
","""event"",""trial"",""time""
""focus"",""121"",""1086882""
","""event"",""trial"",""time""
""fullscreenenter"",""5"",""13729""
","
","","images/earth.jpg","","","","","","","","","","","","","","fixation","","","","","",""
"d3-animate-choice","189","1338269","0.0-76.0-0.18","1708","1665","20","Male","true","true","false","false","""event"",""trial"",""time""
""fullscreenenter"",""5"",""13729""
""blur"",""121"",""1002164""
""focus"",""121"",""1086882""
","""event"",""trial"",""time""
""blur"",""121"",""1002164""
","""event"",""trial"",""time""
""focus"",""121"",""1086882""
","""event"",""trial"",""time""
""fullscreenenter"",""5"",""13729""
","
","254.19999998807907","","49","","","3000","1","","","images/earth.jpg","images/rocket2","images/rocket1","null","images/rocket1","","1","real","null","1","","",""
"d3-animate-choice","190","1340744","0.0-76.0-1.18","1708","1665","20","Male","true","true","false","false","""event"",""trial"",""time""
""fullscreenenter"",""5"",""13729""
""blur"",""121"",""1002164""
""focus"",""121"",""1086882""
","""event"",""trial"",""time""
""blur"",""121"",""1002164""
","""event"",""trial"",""time""
""focus"",""121"",""1086882""
","""event"",""trial"",""time""
""fullscreenenter"",""5"",""13729""
","
","468.69999998807907","","48","","","3000","1","","","images/redplanet1.jpg","images/alien2","images/alien1","images/rocket1","images/alien2","images/t.png","2","real","true","2","common","1","2022-05-12 04:07:39.916"
"two-step-fixation","191","1341752","0.0-76.0-2.18","1708","1665","20","Male","true","true","false","false","""event"",""trial"",""time""
""fullscreenenter"",""5"",""13729""
""blur"",""121"",""1002164""
""focus"",""121"",""1086882""
","""event"",""trial"",""time""
""blur"",""121"",""1002164""
","""event"",""trial"",""time""
""focus"",""121"",""1086882""
","""event"",""trial"",""time""
""fullscreenenter"",""5"",""13729""
","
","","images/earth.jpg","","","","","","","","","","","","","","fixation","","","","","",""
"d3-animate-choice","192","1344306","0.0-76.0-0.19","1708","1665","20","Male","true","true","false","false","""event"",""trial"",""time""
""fullscreenenter"",""5"",""13729""
""blur"",""121"",""1002164""
""focus"",""121"",""1086882""
","""event"",""trial"",""time""
""blur"",""121"",""1002164""
","""event"",""trial"",""time""
""focus"",""121"",""1086882""
","""event"",""trial"",""time""
""fullscreenenter"",""5"",""13729""
","
","547.5","","49","","","3000","1","","","images/earth.jpg","images/rocket2","images/rocket1","null","images/rocket1","","1","real","null","1","","",""
"d3-animate-choice","193","1346687","0.0-76.0-1.19","1708","1665","20","Male","true","true","false","false","""event"",""trial"",""time""
""fullscreenenter"",""5"",""13729""
""blur"",""121"",""1002164""
""focus"",""121"",""1086882""
","""event"",""trial"",""time""
""blur"",""121"",""1002164""
","""event"",""trial"",""time""
""focus"",""121"",""1086882""
","""event"",""trial"",""time""
""fullscreenenter"",""5"",""13729""
","
","376.39999997615814","","48","","","3000","1","","","images/redplanet1.jpg","images/alien2","images/alien1","images/rocket1","images/alien2","images/nothing.png","2","real","true","2","common","0","2022-05-12 04:07:45.859"
"two-step-fixation","194","1347693","0.0-76.0-2.19","1708","1665","20","Male","true","true","false","false","""event"",""trial"",""time""
""fullscreenenter"",""5"",""13729""
""blur"",""121"",""1002164""
""focus"",""121"",""1086882""
","""event"",""trial"",""time""
""blur"",""121"",""1002164""
","""event"",""trial"",""time""
""focus"",""121"",""1086882""
","""event"",""trial"",""time""
""fullscreenenter"",""5"",""13729""
","
","","images/earth.jpg","","","","","","","","","","","","","","fixation","","","","","",""
"d3-animate-choice","195","1349991","0.0-76.0-0.20","1708","1665","20","Male","true","true","false","false","""event"",""trial"",""time""
""fullscreenenter"",""5"",""13729""
""blur"",""121"",""1002164""
""focus"",""121"",""1086882""
","""event"",""trial"",""time""
""blur"",""121"",""1002164""
","""event"",""trial"",""time""
""focus"",""121"",""1086882""
","""event"",""trial"",""time""
""fullscreenenter"",""5"",""13729""
","
","291.69999998807907","","49","","","3000","1","","","images/earth.jpg","images/rocket2","images/rocket1","null","images/rocket1","","1","real","null","1","","",""
"d3-animate-choice","196","1352339","0.0-76.0-1.20","1708","1665","20","Male","true","true","false","false","""event"",""trial"",""time""
""fullscreenenter"",""5"",""13729""
""blur"",""121"",""1002164""
""focus"",""121"",""1086882""
","""event"",""trial"",""time""
""blur"",""121"",""1002164""
","""event"",""trial"",""time""
""focus"",""121"",""1086882""
","""event"",""trial"",""time""
""fullscreenenter"",""5"",""13729""
","
","341.19999998807907","","48","","","3000","1","","","images/redplanet1.jpg","images/alien2","images/alien1","images/rocket1","images/alien2","images/t.png","2","real","true","2","common","1","2022-05-12 04:07:51.511"
"two-step-fixation","197","1353346","0.0-76.0-2.20","1708","1665","20","Male","true","true","false","false","""event"",""trial"",""time""
""fullscreenenter"",""5"",""13729""
""blur"",""121"",""1002164""
""focus"",""121"",""1086882""
","""event"",""trial"",""time""
""blur"",""121"",""1002164""
","""event"",""trial"",""time""
""focus"",""121"",""1086882""
","""event"",""trial"",""time""
""fullscreenenter"",""5"",""13729""
","
","","images/earth.jpg","","","","","","","","","","","","","","fixation","","","","","",""
"d3-animate-choice","198","1355710","0.0-76.0-0.21","1708","1665","20","Male","true","true","false","false","""event"",""trial"",""time""
""fullscreenenter"",""5"",""13729""
""blur"",""121"",""1002164""
""focus"",""121"",""1086882""
","""event"",""trial"",""time""
""blur"",""121"",""1002164""
","""event"",""trial"",""time""
""focus"",""121"",""1086882""
","""event"",""trial"",""time""
""fullscreenenter"",""5"",""13729""
","
","359.5","","49","","","3000","1","","","images/earth.jpg","images/rocket2","images/rocket1","null","images/rocket1","","1","real","null","1","","",""
"d3-animate-choice","199","1358121","0.0-76.0-1.21","1708","1665","20","Male","true","true","false","false","""event"",""trial"",""time""
""fullscreenenter"",""5"",""13729""
""blur"",""121"",""1002164""
""focus"",""121"",""1086882""
","""event"",""trial"",""time""
""blur"",""121"",""1002164""
","""event"",""trial"",""time""
""focus"",""121"",""1086882""
","""event"",""trial"",""time""
""fullscreenenter"",""5"",""13729""
","
","406.89999997615814","","48","","","3000","1","","","images/redplanet1.jpg","images/alien2","images/alien1","images/rocket1","images/alien2","images/t.png","2","real","true","2","common","1","2022-05-12 04:07:57.293"
"two-step-fixation","200","1359128","0.0-76.0-2.21","1708","1665","20","Male","true","true","false","false","""event"",""trial"",""time""
""fullscreenenter"",""5"",""13729""
""blur"",""121"",""1002164""
""focus"",""121"",""1086882""
","""event"",""trial"",""time""
""blur"",""121"",""1002164""
","""event"",""trial"",""time""
""focus"",""121"",""1086882""
","""event"",""trial"",""time""
""fullscreenenter"",""5"",""13729""
","
","","images/earth.jpg","","","","","","","","","","","","","","fixation","","","","","",""
"d3-animate-choice","201","1362030","0.0-76.0-0.22","1708","1665","20","Male","true","true","false","false","""event"",""trial"",""time""
""fullscreenenter"",""5"",""13729""
""blur"",""121"",""1002164""
""focus"",""121"",""1086882""
","""event"",""trial"",""time""
""blur"",""121"",""1002164""
","""event"",""trial"",""time""
""focus"",""121"",""1086882""
","""event"",""trial"",""time""
""fullscreenenter"",""5"",""13729""
","
","897.8000000119209","","49","","","3000","1","","","images/earth.jpg","images/rocket2","images/rocket1","null","images/rocket1","","1","real","null","1","","",""
"d3-animate-choice","202","1364499","0.0-76.0-1.22","1708","1665","20","Male","true","true","false","false","""event"",""trial"",""time""
""fullscreenenter"",""5"",""13729""
""blur"",""121"",""1002164""
""focus"",""121"",""1086882""
","""event"",""trial"",""time""
""blur"",""121"",""1002164""
","""event"",""trial"",""time""
""focus"",""121"",""1086882""
","""event"",""trial"",""time""
""fullscreenenter"",""5"",""13729""
","
","465.39999997615814","","48","","","3000","1","","","images/purpleplanet.jpg","images/alien4","images/alien3","images/rocket1","images/alien4","images/t.png","2","real","false","2","rare","1","2022-05-12 04:08:03.671"
"two-step-fixation","203","1365504","0.0-76.0-2.22","1708","1665","20","Male","true","true","false","false","""event"",""trial"",""time""
""fullscreenenter"",""5"",""13729""
""blur"",""121"",""1002164""
""focus"",""121"",""1086882""
","""event"",""trial"",""time""
""blur"",""121"",""1002164""
","""event"",""trial"",""time""
""focus"",""121"",""1086882""
","""event"",""trial"",""time""
""fullscreenenter"",""5"",""13729""
","
","","images/earth.jpg","","","","","","","","","","","","","","fixation","","","","","",""
"d3-animate-choice","204","1368015","0.0-76.0-0.23","1708","1665","20","Male","true","true","false","false","""event"",""trial"",""time""
""fullscreenenter"",""5"",""13729""
""blur"",""121"",""1002164""
""focus"",""121"",""1086882""
","""event"",""trial"",""time""
""blur"",""121"",""1002164""
","""event"",""trial"",""time""
""focus"",""121"",""1086882""
","""event"",""trial"",""time""
""fullscreenenter"",""5"",""13729""
","
","506.5","","49","","","3000","1","","","images/earth.jpg","images/rocket2","images/rocket1","null","images/rocket1","","1","real","null","1","","",""
"d3-animate-choice","205","1370414","0.0-76.0-1.23","1708","1665","20","Male","true","true","false","false","""event"",""trial"",""time""
""fullscreenenter"",""5"",""13729""
""blur"",""121"",""1002164""
""focus"",""121"",""1086882""
","""event"",""trial"",""time""
""blur"",""121"",""1002164""
","""event"",""trial"",""time""
""focus"",""121"",""1086882""
","""event"",""trial"",""time""
""fullscreenenter"",""5"",""13729""
","
","393.80000001192093","","48","","","3000","1","","","images/redplanet1.jpg","images/alien2","images/alien1","images/rocket1","images/alien2","images/t.png","2","real","true","2","common","1","2022-05-12 04:08:09.586"
"two-step-fixation","206","1371419","0.0-76.0-2.23","1708","1665","20","Male","true","true","false","false","""event"",""trial"",""time""
""fullscreenenter"",""5"",""13729""
""blur"",""121"",""1002164""
""focus"",""121"",""1086882""
","""event"",""trial"",""time""
""blur"",""121"",""1002164""
","""event"",""trial"",""time""
""focus"",""121"",""1086882""
","""event"",""trial"",""time""
""fullscreenenter"",""5"",""13729""
","
","","images/earth.jpg","","","","","","","","","","","","","","fixation","","","","","",""
"d3-animate-choice","207","1373756","0.0-76.0-0.24","1708","1665","20","Male","true","true","false","false","""event"",""trial"",""time""
""fullscreenenter"",""5"",""13729""
""blur"",""121"",""1002164""
""focus"",""121"",""1086882""
","""event"",""trial"",""time""
""blur"",""121"",""1002164""
","""event"",""trial"",""time""
""focus"",""121"",""1086882""
","""event"",""trial"",""time""
""fullscreenenter"",""5"",""13729""
","
","330.80000001192093","","49","","","3000","1","","","images/earth.jpg","images/rocket2","images/rocket1","null","images/rocket1","","1","real","null","1","","",""
"d3-animate-choice","208","1376142","0.0-76.0-1.24","1708","1665","20","Male","true","true","false","false","""event"",""trial"",""time""
""fullscreenenter"",""5"",""13729""
""blur"",""121"",""1002164""
""focus"",""121"",""1086882""
","""event"",""trial"",""time""
""blur"",""121"",""1002164""
","""event"",""trial"",""time""
""focus"",""121"",""1086882""
","""event"",""trial"",""time""
""fullscreenenter"",""5"",""13729""
","
