"trial_type","trial_index","time_elapsed","internal_node_id","participant_id","subject_id","age","gender","rocket_sides","red_planet_first_rocket","red_display_order","purple_display_order","interactions","blur_events","focus_events","fullscreenenter_events","fullscreenexit_events","rt","stimulus","key_press","button_pressed","success","duration","valid_pressed","rts","keys","planet_text","right_text","left_text","center_text","chosen_text","reward_text","trial_stage","practice_trial","transition_type","choice","transition","reward","timestamp"
"pavlovia","0","4","0.0-0.0","1403","1658","8","Female","false","false","false","false","
","
","
","
","
","","","","","","","","","","","","","","","","","","","","","",""
"html-keyboard-response","1","94170","0.0-1.0","1403","1658","8","Female","false","false","false","false","
","
","
","
","
","94163.20000000001","Welcome! Press the space bar to begin.","32","","","","","","","","","","","","","","","","","","",""
"audio-keyboard-response","2","99805","0.0-2.0","1403","1658","8","Female","false","false","false","false","
","
","
","
","
","5560","audio/beep_loop.wav","32","","","","","","","","","","","","","","","","","","",""
"audio-button-response","3","109920","0.0-3.0","1403","1658","8","Female","false","false","false","false","
","
","
","
","
","NaN","audio/fish.mp3","","1","","","","","","","","","","","","","","","","","",""
"audio-button-response","4","113062","0.0-4.0","1403","1658","8","Female","false","false","false","false","""event"",""trial"",""time""
""fullscreenenter"",""5"",""119313""
","
","
","""event"",""trial"",""time""
""fullscreenenter"",""5"",""119313""
","
","NaN","audio/tiger.mp3","","4","","","","","","","","","","","","","","","","","",""
"fullscreen","5","120294","0.0-5.0","1403","1658","8","Female","false","false","false","false","""event"",""trial"",""time""
""fullscreenenter"",""5"",""119313""
","
","
","""event"",""trial"",""time""
""fullscreenenter"",""5"",""119313""
","
","","","","","true","","","","","","","","","","","","","","","","",""
"d3-instructions","6","135312","0.0-6.0","1403","1658","8","Female","false","false","false","false","""event"",""trial"",""time""
""fullscreenenter"",""5"",""119313""
","
","
","""event"",""trial"",""time""
""fullscreenenter"",""5"",""119313""
","
","","","","","","","","","","","","","","","","","","","","","",""
"d3-instructions","7","148302","0.0-7.0","1403","1658","8","Female","false","false","false","false","""event"",""trial"",""time""
""fullscreenenter"",""5"",""119313""
","
","
","""event"",""trial"",""time""
""fullscreenenter"",""5"",""119313""
","
","","","","","","","","","","","","","","","","","","","","","",""
"d3-instructions","8","157950","0.0-8.0","1403","1658","8","Female","false","false","false","false","""event"",""trial"",""time""
""fullscreenenter"",""5"",""119313""
","
","
","""event"",""trial"",""time""
""fullscreenenter"",""5"",""119313""
","
","","","","","","","","","","","","","","","","","","","","","",""
"d3-instructions","9","170446","0.0-9.0","1403","1658","8","Female","false","false","false","false","""event"",""trial"",""time""
""fullscreenenter"",""5"",""119313""
","
","
","""event"",""trial"",""time""
""fullscreenenter"",""5"",""119313""
","
","","","","","","","","","","","","","","","","","","","","","",""
"d3-instructions","10","185342","0.0-10.0","1403","1658","8","Female","false","false","false","false","""event"",""trial"",""time""
""fullscreenenter"",""5"",""119313""
","
","
","""event"",""trial"",""time""
""fullscreenenter"",""5"",""119313""
","
","","","","","","","","","","","","","","","","","","","","","",""
"d3-animate-choice","11","192412","0.0-11.0","1403","1658","8","Female","false","false","false","false","""event"",""trial"",""time""
""fullscreenenter"",""5"",""119313""
","
","
","""event"",""trial"",""time""
""fullscreenenter"",""5"",""119313""
","
","5054.100000000093","","49","","","3000","1","","","images/tutgreenplanet.jpg","images/tutalien1","images/tutalien2","null","images/tutalien2","","NA","practice","null","","","",""
"d3-animate-choice","12","196755","0.0-12.0","1403","1658","8","Female","false","false","false","false","""event"",""trial"",""time""
""fullscreenenter"",""5"",""119313""
","
","
","""event"",""trial"",""time""
""fullscreenenter"",""5"",""119313""
","
","2334.0999999999767","","48","","","3000","1","","","images/tutgreenplanet.jpg","images/tutalien1","images/tutalien2","null","images/tutalien1","","NA","practice","null","","","",""
"d3-animate-choice","13","200705","0.0-13.0","1403","1658","8","Female","false","false","false","false","""event"",""trial"",""time""
""fullscreenenter"",""5"",""119313""
","
","
","""event"",""trial"",""time""
""fullscreenenter"",""5"",""119313""
","
","1928.4000000000233","","48","","","3000","1","","","images/tutgreenplanet.jpg","images/tutalien1","images/tutalien2","null","images/tutalien1","","NA","practice","null","","","",""
"d3-animate-choice","14","203704","0.0-14.0","1403","1658","8","Female","false","false","false","false","""event"",""trial"",""time""
""fullscreenenter"",""5"",""119313""
","
","
","""event"",""trial"",""time""
""fullscreenenter"",""5"",""119313""
","
","987.0999999999767","","49","","","3000","1","","","images/tutgreenplanet.jpg","images/tutalien1","images/tutalien2","null","images/tutalien2","","NA","practice","null","","","",""
"d3-instructions","15","212086","0.0-15.0","1403","1658","8","Female","false","false","false","false","""event"",""trial"",""time""
""fullscreenenter"",""5"",""119313""
","
","
","""event"",""trial"",""time""
""fullscreenenter"",""5"",""119313""
","
","","","","","","","","","","","","","","","","","","","","","",""
"d3-instructions","16","218154","0.0-16.0","1403","1658","8","Female","false","false","false","false","""event"",""trial"",""time""
""fullscreenenter"",""5"",""119313""
","
","
","""event"",""trial"",""time""
""fullscreenenter"",""5"",""119313""
","
","","","","","","","","","","","","","","","","","","","","","",""
"d3-instructions","17","229158","0.0-17.0","1403","1658","8","Female","false","false","false","false","""event"",""trial"",""time""
""fullscreenenter"",""5"",""119313""
","
","
","""event"",""trial"",""time""
""fullscreenenter"",""5"",""119313""
","
","","","","","","","","","","","","","","","","","","","","","",""
"d3-instructions","18","242489","0.0-18.0","1403","1658","8","Female","false","false","false","false","""event"",""trial"",""time""
""fullscreenenter"",""5"",""119313""
","
","
","""event"",""trial"",""time""
""fullscreenenter"",""5"",""119313""
","
","","","","","","","","","","","","","","","","","","","","","",""
"d3-instructions","19","250397","0.0-19.0","1403","1658","8","Female","false","false","false","false","""event"",""trial"",""time""
""fullscreenenter"",""5"",""119313""
","
","
","""event"",""trial"",""time""
""fullscreenenter"",""5"",""119313""
","
","","","","","","","","","","","","","","","","","","","","","",""
"d3-animate-choice","20","259665","0.0-20.0","1403","1658","8","Female","false","false","false","false","""event"",""trial"",""time""
""fullscreenenter"",""5"",""119313""
","
","
","""event"",""trial"",""time""
""fullscreenenter"",""5"",""119313""
","
","7240.599999999977","","49","","","3000","1","","","images/tutyellowplanet.jpg","null","images/tutalien3","null","images/tutalien3","images/t.png","NA","practice","null","","","",""
"d3-animate-choice","21","262674","0.0-21.0","1403","1658","8","Female","false","false","false","false","""event"",""trial"",""time""
""fullscreenenter"",""5"",""119313""
","
","
","""event"",""trial"",""time""
""fullscreenenter"",""5"",""119313""
","
","995.5","","49","","","3000","1","","","images/tutyellowplanet.jpg","null","images/tutalien3","null","images/tutalien3","images/nothing.png","NA","practice","null","","","",""
"d3-animate-choice","22","265285","0.0-22.0","1403","1658","8","Female","false","false","false","false","""event"",""trial"",""time""
""fullscreenenter"",""5"",""119313""
","
","
","""event"",""trial"",""time""
""fullscreenenter"",""5"",""119313""
","
","599.5999999999767","","49","","","3000","1","","","images/tutyellowplanet.jpg","null","images/tutalien3","null","images/tutalien3","images/nothing.png","NA","practice","null","","","",""
"d3-animate-choice","23","267944","0.0-23.0","1403","1658","8","Female","false","false","false","false","""event"",""trial"",""time""
""fullscreenenter"",""5"",""119313""
","
","
","""event"",""trial"",""time""
""fullscreenenter"",""5"",""119313""
","
","638.3000000000466","","49","","","3000","1","","","images/tutyellowplanet.jpg","null","images/tutalien3","null","images/tutalien3","images/t.png","NA","practice","null","","","",""
"d3-animate-choice","24","271535","0.0-24.0","1403","1658","8","Female","false","false","false","false","""event"",""trial"",""time""
""fullscreenenter"",""5"",""119313""
","
","
","""event"",""trial"",""time""
""fullscreenenter"",""5"",""119313""
","
","1571.7000000000698","","49","","","3000","1","2802","17","images/tutyellowplanet.jpg","null","images/tutalien3","null","images/tutalien3","images/t.png","NA","practice","null","","","",""
"d3-animate-choice","25","277545","0.0-25.0","1403","1658","8","Female","false","false","false","false","""event"",""trial"",""time""
""fullscreenenter"",""5"",""119313""
","
","
","""event"",""trial"",""time""
""fullscreenenter"",""5"",""119313""
","
","3998","","49","","","3000","1","","","images/tutyellowplanet.jpg","null","images/tutalien3","null","images/tutalien3","images/t.png","NA","practice","null","","","",""
"d3-animate-choice","26","280447","0.0-26.0","1403","1658","8","Female","false","false","false","false","""event"",""trial"",""time""
""fullscreenenter"",""5"",""119313""
","
","
","""event"",""trial"",""time""
""fullscreenenter"",""5"",""119313""
","
","896.9000000000233","","49","","","3000","1","","","images/tutyellowplanet.jpg","null","images/tutalien3","null","images/tutalien3","images/t.png","NA","practice","null","","","",""
"d3-animate-choice","27","284546","0.0-27.0","1403","1658","8","Female","false","false","false","false","""event"",""trial"",""time""
""fullscreenenter"",""5"",""119313""
","
","
","""event"",""trial"",""time""
""fullscreenenter"",""5"",""119313""
","
","2095.399999999907","","49","","","3000","1","","","images/tutyellowplanet.jpg","null","images/tutalien3","null","images/tutalien3","images/t.png","NA","practice","null","","","",""
"d3-animate-choice","28","287514","0.0-28.0","1403","1658","8","Female","false","false","false","false","""event"",""trial"",""time""
""fullscreenenter"",""5"",""119313""
","
","
","""event"",""trial"",""time""
""fullscreenenter"",""5"",""119313""
","
","964.3999999999069","","49","","","3000","1","","","images/tutyellowplanet.jpg","null","images/tutalien3","null","images/tutalien3","images/t.png","NA","practice","null","","","",""
"d3-animate-choice","29","290308","0.0-29.0","1403","1658","8","Female","false","false","false","false","""event"",""trial"",""time""
""fullscreenenter"",""5"",""119313""
","
","
","""event"",""trial"",""time""
""fullscreenenter"",""5"",""119313""
","
","788.7000000000698","","49","","","3000","1","","","images/tutyellowplanet.jpg","null","images/tutalien3","null","images/tutalien3","images/t.png","NA","practice","null","","","",""
"d3-instructions","30","298430","0.0-30.0","1403","1658","8","Female","false","false","false","false","""event"",""trial"",""time""
""fullscreenenter"",""5"",""119313""
","
","
","""event"",""trial"",""time""
""fullscreenenter"",""5"",""119313""
","
","","","","","","","","","","","","","","","","","","","","","",""
"d3-instructions","31","309016","0.0-31.0","1403","1658","8","Female","false","false","false","false","""event"",""trial"",""time""
""fullscreenenter"",""5"",""119313""
","
","
","""event"",""trial"",""time""
""fullscreenenter"",""5"",""119313""
","
","","","","","","","","","","","","","","","","","","","","","",""
"d3-instructions","32","313232","0.0-32.0","1403","1658","8","Female","false","false","false","false","""event"",""trial"",""time""
""fullscreenenter"",""5"",""119313""
","
","
","""event"",""trial"",""time""
""fullscreenenter"",""5"",""119313""
","
","","","","","","","","","","","","","","","","","","","","","",""
"d3-instructions","33","315853","0.0-33.0","1403","1658","8","Female","false","false","false","false","""event"",""trial"",""time""
""fullscreenenter"",""5"",""119313""
","
","
","""event"",""trial"",""time""
""fullscreenenter"",""5"",""119313""
","
","","","","","","","","","","","","","","","","","","","","","",""
"d3-animate-choice","34","323811","0.0-34.0","1403","1658","8","Female","false","false","false","false","""event"",""trial"",""time""
""fullscreenenter"",""5"",""119313""
","
","
","""event"",""trial"",""time""
""fullscreenenter"",""5"",""119313""
","
","5951.399999999907","","48","","","3000","1","","","images/tutgreenplanet.jpg","images/tutalien1","images/tutalien2","null","images/tutalien1","images/nothing.png","NA","practice","null","","","",""
"d3-animate-choice","35","328841","0.0-35.0","1403","1658","8","Female","false","false","false","false","""event"",""trial"",""time""
""fullscreenenter"",""5"",""119313""
","
","
","""event"",""trial"",""time""
""fullscreenenter"",""5"",""119313""
","
","728","","9","","","3000","1","1671.4000000000233,3016.4000000000233","9,49","images/tutgreenplanet.jpg","images/tutalien1","images/tutalien2","null","images/tutalien2","images/nothing.png","NA","practice","null","","","",""
"d3-animate-choice","36","332402","0.0-36.0","1403","1658","8","Female","false","false","false","false","""event"",""trial"",""time""
""fullscreenenter"",""5"",""119313""
","
","
","""event"",""trial"",""time""
""fullscreenenter"",""5"",""119313""
","
","1548.1000000000931","","49","","","3000","1","","","images/tutgreenplanet.jpg","images/tutalien1","images/tutalien2","null","images/tutalien2","images/t.png","NA","practice","null","","","",""
"d3-animate-choice","37","335161","0.0-37.0","1403","1658","8","Female","false","false","false","false","""event"",""trial"",""time""
""fullscreenenter"",""5"",""119313""
","
","
","""event"",""trial"",""time""
""fullscreenenter"",""5"",""119313""
","
","744.8000000000466","","49","","","3000","1","","","images/tutgreenplanet.jpg","images/tutalien1","images/tutalien2","null","images/tutalien2","images/t.png","NA","practice","null","","","",""
"d3-animate-choice","38","337842","0.0-38.0","1403","1658","8","Female","false","false","false","false","""event"",""trial"",""time""
""fullscreenenter"",""5"",""119313""
","
","
","""event"",""trial"",""time""
""fullscreenenter"",""5"",""119313""
","
","672.3000000000466","","49","","","3000","1","","","images/tutgreenplanet.jpg","images/tutalien1","images/tutalien2","null","images/tutalien2","images/t.png","NA","practice","null","","","",""
"d3-animate-choice","39","340451","0.0-39.0","1403","1658","8","Female","false","false","false","false","""event"",""trial"",""time""
""fullscreenenter"",""5"",""119313""
","
","
","""event"",""trial"",""time""
""fullscreenenter"",""5"",""119313""
","
","599.2000000000698","","49","","","3000","1","","","images/tutgreenplanet.jpg","images/tutalien1","images/tutalien2","null","images/tutalien2","images/t.png","NA","practice","null","","","",""
"d3-animate-choice","40","343162","0.0-40.0","1403","1658","8","Female","false","false","false","false","""event"",""trial"",""time""
""fullscreenenter"",""5"",""119313""
","
","
","""event"",""trial"",""time""
""fullscreenenter"",""5"",""119313""
","
","690.1999999999534","","49","","","3000","1","","","images/tutgreenplanet.jpg","images/tutalien1","images/tutalien2","null","images/tutalien2","images/t.png","NA","practice","null","","","",""
"d3-animate-choice","41","345972","0.0-41.0","1403","1658","8","Female","false","false","false","false","""event"",""trial"",""time""
""fullscreenenter"",""5"",""119313""
","
","
","""event"",""trial"",""time""
""fullscreenenter"",""5"",""119313""
","
","802.2999999999302","","49","","","3000","1","","","images/tutgreenplanet.jpg","images/tutalien1","images/tutalien2","null","images/tutalien2","images/t.png","NA","practice","null","","","",""
"d3-animate-choice","42","348666","0.0-42.0","1403","1658","8","Female","false","false","false","false","""event"",""trial"",""time""
""fullscreenenter"",""5"",""119313""
","
","
","""event"",""trial"",""time""
""fullscreenenter"",""5"",""119313""
","
","687.1000000000931","","49","","","3000","1","","","images/tutgreenplanet.jpg","images/tutalien1","images/tutalien2","null","images/tutalien2","images/t.png","NA","practice","null","","","",""
"d3-animate-choice","43","351259","0.0-43.0","1403","1658","8","Female","false","false","false","false","""event"",""trial"",""time""
""fullscreenenter"",""5"",""119313""
","
","
","""event"",""trial"",""time""
""fullscreenenter"",""5"",""119313""
","
","589.1999999999534","","49","","","3000","1","","","images/tutgreenplanet.jpg","images/tutalien1","images/tutalien2","null","images/tutalien2","images/t.png","NA","practice","null","","","",""
"d3-instructions","44","365919","0.0-44.0","1403","1658","8","Female","false","false","false","false","""event"",""trial"",""time""
""fullscreenenter"",""5"",""119313""
","
","
","""event"",""trial"",""time""
""fullscreenenter"",""5"",""119313""
","
","","","","","","","","","","","","","","","","","","","","","",""
"d3-instructions","45","376344","0.0-45.0","1403","1658","8","Female","false","false","false","false","""event"",""trial"",""time""
""fullscreenenter"",""5"",""119313""
","
","
","""event"",""trial"",""time""
""fullscreenenter"",""5"",""119313""
","
","","","","","","","","","","","","","","","","","","","","","",""
"d3-instructions","46","463394","0.0-46.0","1403","1658","8","Female","false","false","false","false","""event"",""trial"",""time""
""fullscreenenter"",""5"",""119313""
","
","
","""event"",""trial"",""time""
""fullscreenenter"",""5"",""119313""
","
","","","","","","","","","","","","","","","","","","","","","",""
"d3-instructions","47","499471","0.0-47.0","1403","1658","8","Female","false","false","false","false","""event"",""trial"",""time""
""fullscreenenter"",""5"",""119313""
","
","
","""event"",""trial"",""time""
""fullscreenenter"",""5"",""119313""
","
","","","","","","","","","","","","","","","","","","","","","",""
"d3-instructions","48","508445","0.0-48.0","1403","1658","8","Female","false","false","false","false","""event"",""trial"",""time""
""fullscreenenter"",""5"",""119313""
","
","
","""event"",""trial"",""time""
""fullscreenenter"",""5"",""119313""
","
","","","","","","","","","","","","","","","","","","","","","",""
"d3-instructions","49","520966","0.0-49.0","1403","1658","8","Female","false","false","false","false","""event"",""trial"",""time""
""fullscreenenter"",""5"",""119313""
","
","
","""event"",""trial"",""time""
""fullscreenenter"",""5"",""119313""
","
","","","","","","","","","","","","","","","","","","","","","",""
"d3-instructions","50","531477","0.0-50.0","1403","1658","8","Female","false","false","false","false","""event"",""trial"",""time""
""fullscreenenter"",""5"",""119313""
","
","
","""event"",""trial"",""time""
""fullscreenenter"",""5"",""119313""
","
","","","","","","","","","","","","","","","","","","","","","",""
"d3-instructions","51","538069","0.0-51.0","1403","1658","8","Female","false","false","false","false","""event"",""trial"",""time""
""fullscreenenter"",""5"",""119313""
","
","
","""event"",""trial"",""time""
""fullscreenenter"",""5"",""119313""
","
","","","","","","","","","","","","","","","","","","","","","",""
"d3-instructions","52","542605","0.0-52.0","1403","1658","8","Female","false","false","false","false","""event"",""trial"",""time""
""fullscreenenter"",""5"",""119313""
","
","
","""event"",""trial"",""time""
""fullscreenenter"",""5"",""119313""
","
","","","","","","","","","","","","","","","","","","","","","",""
"d3-instructions","53","565918","0.0-53.0","1403","1658","8","Female","false","false","false","false","""event"",""trial"",""time""
""fullscreenenter"",""5"",""119313""
","
","
","""event"",""trial"",""time""
""fullscreenenter"",""5"",""119313""
","
","","","","","","","","","","","","","","","","","","","","","",""
"d3-instructions","54","578933","0.0-54.0","1403","1658","8","Female","false","false","false","false","""event"",""trial"",""time""
""fullscreenenter"",""5"",""119313""
","
","
","""event"",""trial"",""time""
""fullscreenenter"",""5"",""119313""
","
","","","","","","","","","","","","","","","","","","","","","",""
"d3-instructions","55","592511","0.0-55.0","1403","1658","8","Female","false","false","false","false","""event"",""trial"",""time""
""fullscreenenter"",""5"",""119313""
","
","
","""event"",""trial"",""time""
""fullscreenenter"",""5"",""119313""
","
","","","","","","","","","","","","","","","","","","","","","",""
"d3-instructions","56","603782","0.0-56.0","1403","1658","8","Female","false","false","false","false","""event"",""trial"",""time""
""fullscreenenter"",""5"",""119313""
","
","
","""event"",""trial"",""time""
""fullscreenenter"",""5"",""119313""
","
","","","","","","","","","","","","","","","","","","","","","",""
"d3-instructions","57","616589","0.0-57.0","1403","1658","8","Female","false","false","false","false","""event"",""trial"",""time""
""fullscreenenter"",""5"",""119313""
","
","
","""event"",""trial"",""time""
""fullscreenenter"",""5"",""119313""
","
","","","","","","","","","","","","","","","","","","","","","",""
"d3-instructions","58","627191","0.0-58.0","1403","1658","8","Female","false","false","false","false","""event"",""trial"",""time""
""fullscreenenter"",""5"",""119313""
","
","
","""event"",""trial"",""time""
""fullscreenenter"",""5"",""119313""
","
","","","","","","","","","","","","","","","","","","","","","",""
"d3-instructions","59","631143","0.0-59.0","1403","1658","8","Female","false","false","false","false","""event"",""trial"",""time""
""fullscreenenter"",""5"",""119313""
","
","
","""event"",""trial"",""time""
""fullscreenenter"",""5"",""119313""
","
","","","","","","","","","","","","","","","","","","","","","",""
"d3-instructions","60","637968","0.0-60.0","1403","1658","8","Female","false","false","false","false","""event"",""trial"",""time""
""fullscreenenter"",""5"",""119313""
","
","
","""event"",""trial"",""time""
""fullscreenenter"",""5"",""119313""
","
","","","","","","","","","","","","","","","","","","","","","",""
"d3-animate-choice","61","641624","0.0-61.0-0.0","1403","1658","8","Female","false","false","false","false","""event"",""trial"",""time""
""fullscreenenter"",""5"",""119313""
","
","
","""event"",""trial"",""time""
""fullscreenenter"",""5"",""119313""
","
","1642.8000000000466","","48","","","3000","1","","","images/earth.jpg","images/tutrocket1","images/tutrocket2","null","images/tutrocket1","","1","practice","null","2","","",""
"d3-animate-choice","62","645631","0.0-61.0-1.0","1403","1658","8","Female","false","false","false","false","""event"",""trial"",""time""
""fullscreenenter"",""5"",""119313""
","
","
","""event"",""trial"",""time""
""fullscreenenter"",""5"",""119313""
","
","2105.4000000000233","","48","","","3000","1","","","images/tutyellowplanet.jpg","images/tutalien4","images/tutalien3","images/tutrocket1","images/tutalien4","images/nothing.png","2","practice","true","2","common","0","2022-05-05 22:25:57.001"
"two-step-fixation","63","646634","0.0-61.0-2.0","1403","1658","8","Female","false","false","false","false","""event"",""trial"",""time""
""fullscreenenter"",""5"",""119313""
","
","
","""event"",""trial"",""time""
""fullscreenenter"",""5"",""119313""
","
","","images/earth.jpg","","","","","","","","","","","","","","fixation","","","","","",""
"d3-animate-choice","64","650637","0.0-61.0-0.1","1403","1658","8","Female","false","false","false","false","""event"",""trial"",""time""
""fullscreenenter"",""5"",""119313""
","
","
","""event"",""trial"",""time""
""fullscreenenter"",""5"",""119313""
","
","2017.8999999999069","","49","","","3000","1","","","images/earth.jpg","images/tutrocket1","images/tutrocket2","null","images/tutrocket2","","1","practice","null","1","","",""
"d3-animate-choice","65","654091","0.0-61.0-1.1","1403","1658","8","Female","false","false","false","false","""event"",""trial"",""time""
""fullscreenenter"",""5"",""119313""
","
","
","""event"",""trial"",""time""
""fullscreenenter"",""5"",""119313""
","
","1435.5","","49","","","3000","1","","","images/tutyellowplanet.jpg","images/tutalien4","images/tutalien3","images/tutrocket2","images/tutalien3","images/nothing.png","2","practice","false","1","rare","0","2022-05-05 22:26:05.462"
"two-step-fixation","66","655103","0.0-61.0-2.1","1403","1658","8","Female","false","false","false","false","""event"",""trial"",""time""
""fullscreenenter"",""5"",""119313""
","
","
","""event"",""trial"",""time""
""fullscreenenter"",""5"",""119313""
","
","","images/earth.jpg","","","","","","","","","","","","","","fixation","","","","","",""
"d3-animate-choice","67","657845","0.0-61.0-0.2","1403","1658","8","Female","false","false","false","false","""event"",""trial"",""time""
""fullscreenenter"",""5"",""119313""
","
","
","""event"",""trial"",""time""
""fullscreenenter"",""5"",""119313""
","
","731","","48","","","3000","1","","","images/earth.jpg","images/tutrocket1","images/tutrocket2","null","images/tutrocket1","","1","practice","null","2","","",""
"d3-animate-choice","68","661378","0.0-61.0-1.2","1403","1658","8","Female","false","false","false","false","""event"",""trial"",""time""
""fullscreenenter"",""5"",""119313""
","
","
","""event"",""trial"",""time""
""fullscreenenter"",""5"",""119313""
","
","1526.1999999999534","","48","","","3000","1","","","images/tutyellowplanet.jpg","images/tutalien4","images/tutalien3","images/tutrocket1","images/tutalien4","images/t.png","2","practice","true","2","common","1","2022-05-05 22:26:12.748"
"two-step-fixation","69","662382","0.0-61.0-2.2","1403","1658","8","Female","false","false","false","false","""event"",""trial"",""time""
""fullscreenenter"",""5"",""119313""
","
","
","""event"",""trial"",""time""
""fullscreenenter"",""5"",""119313""
","
","","images/earth.jpg","","","","","","","","","","","","","","fixation","","","","","",""
"d3-animate-choice","70","666134","0.0-61.0-0.3","1403","1658","8","Female","false","false","false","false","""event"",""trial"",""time""
""fullscreenenter"",""5"",""119313""
","
","
","""event"",""trial"",""time""
""fullscreenenter"",""5"",""119313""
","
","1729.6999999999534","","49","","","3000","1","","","images/earth.jpg","images/tutrocket1","images/tutrocket2","null","images/tutrocket2","","1","practice","null","1","","",""
"d3-animate-choice","71","670141","0.0-61.0-1.3","1403","1658","8","Female","false","false","false","false","""event"",""trial"",""time""
""fullscreenenter"",""5"",""119313""
","
","
","""event"",""trial"",""time""
""fullscreenenter"",""5"",""119313""
","
","2212.8000000000466","","48","","","3000","1","","","images/tutgreenplanet.jpg","images/tutalien2","images/tutalien1","images/tutrocket2","images/tutalien2","images/nothing.png","2","practice","true","2","common","0","2022-05-05 22:26:21.511"
"two-step-fixation","72","671150","0.0-61.0-2.3","1403","1658","8","Female","false","false","false","false","""event"",""trial"",""time""
""fullscreenenter"",""5"",""119313""
","
","
","""event"",""trial"",""time""
""fullscreenenter"",""5"",""119313""
","
","","images/earth.jpg","","","","","","","","","","","","","","fixation","","","","","",""
"d3-animate-choice","73","674423","0.0-61.0-0.4","1403","1658","8","Female","false","false","false","false","""event"",""trial"",""time""
""fullscreenenter"",""5"",""119313""
","
","
","""event"",""trial"",""time""
""fullscreenenter"",""5"",""119313""
","
","1268.5","","48","","","3000","1","","","images/earth.jpg","images/tutrocket1","images/tutrocket2","null","images/tutrocket1","","1","practice","null","2","","",""
"d3-animate-choice","74","678074","0.0-61.0-1.4","1403","1658","8","Female","false","false","false","false","""event"",""trial"",""time""
""fullscreenenter"",""5"",""119313""
","
","
","""event"",""trial"",""time""
""fullscreenenter"",""5"",""119313""
","
","1644.5","","48","","","3000","1","","","images/tutyellowplanet.jpg","images/tutalien4","images/tutalien3","images/tutrocket1","images/tutalien4","images/nothing.png","2","practice","true","2","common","0","2022-05-05 22:26:29.444"
"two-step-fixation","75","679085","0.0-61.0-2.4","1403","1658","8","Female","false","false","false","false","""event"",""trial"",""time""
""fullscreenenter"",""5"",""119313""
","
","
","""event"",""trial"",""time""
""fullscreenenter"",""5"",""119313""
","
","","images/earth.jpg","","","","","","","","","","","","","","fixation","","","","","",""
"d3-animate-choice","76","683091","0.0-61.0-0.5","1403","1658","8","Female","false","false","false","false","""event"",""trial"",""time""
""fullscreenenter"",""5"",""119313""
","
","
","""event"",""trial"",""time""
""fullscreenenter"",""5"",""119313""
","
","2141.3000000000466","","48","","","3000","1","","","images/earth.jpg","images/tutrocket1","images/tutrocket2","null","images/tutrocket1","","1","practice","null","2","","",""
"d3-animate-choice","77","686026","0.0-61.0-1.5","1403","1658","8","Female","false","false","false","false","""event"",""trial"",""time""
""fullscreenenter"",""5"",""119313""
","
","
","""event"",""trial"",""time""
""fullscreenenter"",""5"",""119313""
","
","928.1000000000931","","49","","","3000","1","","","images/tutyellowplanet.jpg","images/tutalien4","images/tutalien3","images/tutrocket1","images/tutalien3","images/nothing.png","2","practice","true","1","common","0","2022-05-05 22:26:37.396"
"two-step-fixation","78","687034","0.0-61.0-2.5","1403","1658","8","Female","false","false","false","false","""event"",""trial"",""time""
""fullscreenenter"",""5"",""119313""
","
","
","""event"",""trial"",""time""
""fullscreenenter"",""5"",""119313""
","
","","images/earth.jpg","","","","","","","","","","","","","","fixation","","","","","",""
"d3-animate-choice","79","689418","0.0-61.0-0.6","1403","1658","8","Female","false","false","false","false","""event"",""trial"",""time""
""fullscreenenter"",""5"",""119313""
","
","
","""event"",""trial"",""time""
""fullscreenenter"",""5"",""119313""
","
","379.69999999995343","","48","","","3000","1","","","images/earth.jpg","images/tutrocket1","images/tutrocket2","null","images/tutrocket1","","1","practice","null","2","","",""
"d3-animate-choice","80","693425","0.0-61.0-1.6","1403","1658","8","Female","false","false","false","false","""event"",""trial"",""time""
""fullscreenenter"",""5"",""119313""
","
","
","""event"",""trial"",""time""
""fullscreenenter"",""5"",""119313""
","
","2080.399999999907","","49","","","3000","1","","","images/tutgreenplanet.jpg","images/tutalien2","images/tutalien1","images/tutrocket1","images/tutalien1","images/nothing.png","2","practice","false","1","rare","0","2022-05-05 22:26:44.795"
"two-step-fixation","81","694429","0.0-61.0-2.6","1403","1658","8","Female","false","false","false","false","""event"",""trial"",""time""
""fullscreenenter"",""5"",""119313""
","
","
","""event"",""trial"",""time""
""fullscreenenter"",""5"",""119313""
","
","","images/earth.jpg","","","","","","","","","","","","","","fixation","","","","","",""
"d3-animate-choice","82","697788","0.0-61.0-0.7","1403","1658","8","Female","false","false","false","false","""event"",""trial"",""time""
""fullscreenenter"",""5"",""119313""
","
","
","""event"",""trial"",""time""
""fullscreenenter"",""5"",""119313""
","
","1348.6000000000931","","48","","","3000","1","","","images/earth.jpg","images/tutrocket1","images/tutrocket2","null","images/tutrocket1","","1","practice","null","2","","",""
"d3-animate-choice","83","700641","0.0-61.0-1.7","1403","1658","8","Female","false","false","false","false","""event"",""trial"",""time""
""fullscreenenter"",""5"",""119313""
","
","
","""event"",""trial"",""time""
""fullscreenenter"",""5"",""119313""
","
","845.0999999998603","","48","","","3000","1","","","images/tutyellowplanet.jpg","images/tutalien4","images/tutalien3","images/tutrocket1","images/tutalien4","images/t.png","2","practice","true","2","common","1","2022-05-05 22:26:52.011"
"two-step-fixation","84","701645","0.0-61.0-2.7","1403","1658","8","Female","false","false","false","false","""event"",""trial"",""time""
""fullscreenenter"",""5"",""119313""
","
","
","""event"",""trial"",""time""
""fullscreenenter"",""5"",""119313""
","
","","images/earth.jpg","","","","","","","","","","","","","","fixation","","","","","",""
"d3-animate-choice","85","705179","0.0-61.0-0.8","1403","1658","8","Female","false","false","false","false","""event"",""trial"",""time""
""fullscreenenter"",""5"",""119313""
","
","
","""event"",""trial"",""time""
""fullscreenenter"",""5"",""119313""
","
","1524.5","","48","","","3000","1","","","images/earth.jpg","images/tutrocket1","images/tutrocket2","null","images/tutrocket1","","1","practice","null","2","","",""
"d3-animate-choice","86","709189","0.0-61.0-1.8","1403","1658","8","Female","false","false","false","false","""event"",""trial"",""time""
""fullscreenenter"",""5"",""119313""
","
","
","""event"",""trial"",""time""
""fullscreenenter"",""5"",""119313""
","
","2311.1999999999534","","48","","","3000","1","","","images/tutgreenplanet.jpg","images/tutalien2","images/tutalien1","images/tutrocket1","images/tutalien2","images/nothing.png","2","practice","false","2","rare","0","2022-05-05 22:27:00.559"
"two-step-fixation","87","710194","0.0-61.0-2.8","1403","1658","8","Female","false","false","false","false","""event"",""trial"",""time""
""fullscreenenter"",""5"",""119313""
","
","
","""event"",""trial"",""time""
""fullscreenenter"",""5"",""119313""
","
","","images/earth.jpg","","","","","","","","","","","","","","fixation","","","","","",""
"d3-animate-choice","88","713946","0.0-61.0-0.9","1403","1658","8","Female","false","false","false","false","""event"",""trial"",""time""
""fullscreenenter"",""5"",""119313""
","
","
","""event"",""trial"",""time""
""fullscreenenter"",""5"",""119313""
","
","1741.5","","49","","","3000","1","","","images/earth.jpg","images/tutrocket1","images/tutrocket2","null","images/tutrocket2","","1","practice","null","1","","",""
"d3-animate-choice","89","717648","0.0-61.0-1.9","1403","1658","8","Female","false","false","false","false","""event"",""trial"",""time""
""fullscreenenter"",""5"",""119313""
","
","
","""event"",""trial"",""time""
""fullscreenenter"",""5"",""119313""
","
","1694.8000000000466","","49","","","3000","1","","","images/tutgreenplanet.jpg","images/tutalien2","images/tutalien1","images/tutrocket2","images/tutalien1","images/t.png","2","practice","true","1","common","1","2022-05-05 22:27:09.018"
"two-step-fixation","90","718651","0.0-61.0-2.9","1403","1658","8","Female","false","false","false","false","""event"",""trial"",""time""
""fullscreenenter"",""5"",""119313""
","
","
","""event"",""trial"",""time""
""fullscreenenter"",""5"",""119313""
","
","","images/earth.jpg","","","","","","","","","","","","","","fixation","","","","","",""
"d3-animate-choice","91","721586","0.0-61.0-0.10","1403","1658","8","Female","false","false","false","false","""event"",""trial"",""time""
""fullscreenenter"",""5"",""119313""
","
","
","""event"",""trial"",""time""
""fullscreenenter"",""5"",""119313""
","
","930.5","","48","","","3000","1","","","images/earth.jpg","images/tutrocket1","images/tutrocket2","null","images/tutrocket1","","1","practice","null","2","","",""
"d3-animate-choice","92","725593","0.0-61.0-1.10","1403","1658","8","Female","false","false","false","false","""event"",""trial"",""time""
""fullscreenenter"",""5"",""119313""
","
","
","""event"",""trial"",""time""
""fullscreenenter"",""5"",""119313""
","
","2216.100000000093","","49","","","3000","1","","","images/tutgreenplanet.jpg","images/tutalien2","images/tutalien1","images/tutrocket1","images/tutalien1","images/nothing.png","2","practice","false","1","rare","0","2022-05-05 22:27:16.964"
"two-step-fixation","93","726601","0.0-61.0-2.10","1403","1658","8","Female","false","false","false","false","""event"",""trial"",""time""
""fullscreenenter"",""5"",""119313""
","
","
","""event"",""trial"",""time""
""fullscreenenter"",""5"",""119313""
","
","","images/earth.jpg","","","","","","","","","","","","","","fixation","","","","","",""
"d3-animate-choice","94","729937","0.0-61.0-0.11","1403","1658","8","Female","false","false","false","false","""event"",""trial"",""time""
""fullscreenenter"",""5"",""119313""
","
","
","""event"",""trial"",""time""
""fullscreenenter"",""5"",""119313""
","
","1329.3000000000466","","48","","","3000","1","","","images/earth.jpg","images/tutrocket1","images/tutrocket2","null","images/tutrocket1","","1","practice","null","2","","",""
"d3-animate-choice","95","733066","0.0-61.0-1.11","1403","1658","8","Female","false","false","false","false","""event"",""trial"",""time""
""fullscreenenter"",""5"",""119313""
","
","
","""event"",""trial"",""time""
""fullscreenenter"",""5"",""119313""
","
","1122.3999999999069","","48","","","3000","1","","","images/tutyellowplanet.jpg","images/tutalien4","images/tutalien3","images/tutrocket1","images/tutalien4","images/nothing.png","2","practice","true","2","common","0","2022-05-05 22:27:24.436"
"two-step-fixation","96","734071","0.0-61.0-2.11","1403","1658","8","Female","false","false","false","false","""event"",""trial"",""time""
""fullscreenenter"",""5"",""119313""
","
","
","""event"",""trial"",""time""
""fullscreenenter"",""5"",""119313""
","
","","images/earth.jpg","","","","","","","","","","","","","","fixation","","","","","",""
"d3-animate-choice","97","737847","0.0-61.0-0.12","1403","1658","8","Female","false","false","false","false","""event"",""trial"",""time""
""fullscreenenter"",""5"",""119313""
","
","
","""event"",""trial"",""time""
""fullscreenenter"",""5"",""119313""
","
","1771.2999999998137","","49","","","3000","1","","","images/earth.jpg","images/tutrocket1","images/tutrocket2","null","images/tutrocket2","","1","practice","null","1","","",""
"d3-animate-choice","98","741440","0.0-61.0-1.12","1403","1658","8","Female","false","false","false","false","""event"",""trial"",""time""
""fullscreenenter"",""5"",""119313""
","
","
","""event"",""trial"",""time""
""fullscreenenter"",""5"",""119313""
","
","408","","18","","","3000","1","1026.5,1586","18,49","images/tutgreenplanet.jpg","images/tutalien2","images/tutalien1","images/tutrocket2","images/tutalien1","images/nothing.png","2","practice","true","","common","0","2022-05-05 22:27:32.810"
"two-step-fixation","99","742449","0.0-61.0-2.12","1403","1658","8","Female","false","false","false","false","""event"",""trial"",""time""
""fullscreenenter"",""5"",""119313""
","
","
","""event"",""trial"",""time""
""fullscreenenter"",""5"",""119313""
","
","","images/earth.jpg","","","","","","","","","","","","","","fixation","","","","","",""
"d3-animate-choice","100","745273","0.0-61.0-0.13","1403","1658","8","Female","false","false","false","false","""event"",""trial"",""time""
""fullscreenenter"",""5"",""119313""
","
","
","""event"",""trial"",""time""
""fullscreenenter"",""5"",""119313""
","
","817.9000000001397","","48","","","3000","1","","","images/earth.jpg","images/tutrocket1","images/tutrocket2","null","images/tutrocket1","","1","practice","null","2","","",""
"d3-animate-choice","101","748056","0.0-61.0-1.13","1403","1658","8","Female","false","false","false","false","""event"",""trial"",""time""
""fullscreenenter"",""5"",""119313""
","
","
","""event"",""trial"",""time""
""fullscreenenter"",""5"",""119313""
","
","777.1999999999534","","49","","","3000","1","","","images/tutgreenplanet.jpg","images/tutalien2","images/tutalien1","images/tutrocket1","images/tutalien1","images/t.png","2","practice","false","1","rare","1","2022-05-05 22:27:39.427"
"two-step-fixation","102","749063","0.0-61.0-2.13","1403","1658","8","Female","false","false","false","false","""event"",""trial"",""time""
""fullscreenenter"",""5"",""119313""
","
","
","""event"",""trial"",""time""
""fullscreenenter"",""5"",""119313""
","
","","images/earth.jpg","","","","","","","","","","","","","","fixation","","","","","",""
"d3-animate-choice","103","751969","0.0-61.0-0.14","1403","1658","8","Female","false","false","false","false","""event"",""trial"",""time""
""fullscreenenter"",""5"",""119313""
","
","
","""event"",""trial"",""time""
""fullscreenenter"",""5"",""119313""
","
","900.8999999999069","","49","","","3000","1","","","images/earth.jpg","images/tutrocket1","images/tutrocket2","null","images/tutrocket2","","1","practice","null","1","","",""
"d3-animate-choice","104","754825","0.0-61.0-1.14","1403","1658","8","Female","false","false","false","false","""event"",""trial"",""time""
""fullscreenenter"",""5"",""119313""
","
","
","""event"",""trial"",""time""
""fullscreenenter"",""5"",""119313""
","
","852.0999999998603","","48","","","3000","1","","","images/tutgreenplanet.jpg","images/tutalien2","images/tutalien1","images/tutrocket2","images/tutalien2","images/nothing.png","2","practice","true","2","common","0","2022-05-05 22:27:46.195"
"two-step-fixation","105","755832","0.0-61.0-2.14","1403","1658","8","Female","false","false","false","false","""event"",""trial"",""time""
""fullscreenenter"",""5"",""119313""
","
","
","""event"",""trial"",""time""
""fullscreenenter"",""5"",""119313""
","
","","images/earth.jpg","","","","","","","","","","","","","","fixation","","","","","",""
"d3-animate-choice","106","758015","0.0-61.0-0.15","1403","1658","8","Female","false","false","false","false","""event"",""trial"",""time""
""fullscreenenter"",""5"",""119313""
","
","
","""event"",""trial"",""time""
""fullscreenenter"",""5"",""119313""
","
","176.70000000018626","","48","","","3000","1","578.5,883.1000000000931,1210,1386.2000000001863,1761.9000000001397,1914.1000000000931,2122.3000000000466","49,48,49,48,49,48,49","images/earth.jpg","images/tutrocket1","images/tutrocket2","null","images/tutrocket1","","1","practice","null","2","","",""
"d3-animate-choice","107","760225","0.0-61.0-1.15","1403","1658","8","Female","false","false","false","false","""event"",""trial"",""time""
""fullscreenenter"",""5"",""119313""
","
","
","""event"",""trial"",""time""
""fullscreenenter"",""5"",""119313""
","
","203.19999999995343","","48","","","3000","1","282.80000000004657,578.6999999999534,595.1000000000931,883.3999999999069,923.1000000000931,1202.3000000000466,1235.8000000000466,1521.3999999999069,1545.6999999999534,1857.8000000000466,1874.8000000000466,2179,2195.100000000093","49,48,49,49,48,49,48,48,49,48,49,48,49","images/tutyellowplanet.jpg","images/tutalien4","images/tutalien3","images/tutrocket1","images/tutalien4","images/t.png","2","practice","true","2","common","1","2022-05-05 22:27:51.595"
"two-step-fixation","108","761231","0.0-61.0-2.15","1403","1658","8","Female","false","false","false","false","""event"",""trial"",""time""
""fullscreenenter"",""5"",""119313""
","
","
","""event"",""trial"",""time""
""fullscreenenter"",""5"",""119313""
","
","","images/earth.jpg","","","","","","","","","","","","","","fixation","","","","","",""
"d3-animate-choice","109","763458","0.0-61.0-0.16","1403","1658","8","Female","false","false","false","false","""event"",""trial"",""time""
""fullscreenenter"",""5"",""119313""
","
","
","""event"",""trial"",""time""
""fullscreenenter"",""5"",""119313""
","
","219.19999999995343","","49","","","3000","1","268.80000000004657,555.3000000000466,603.3999999999069,851.8000000000466,891.6999999999534,1115.1000000000931,1203.1000000000931,1435.1999999999534,1521,1755.3999999999069","48,49,48,49,48,49,48,49,48,49","images/earth.jpg","images/tutrocket1","images/tutrocket2","null","images/tutrocket2","","1","practice","null","1","","",""
"d3-animate-choice","110","766329","0.0-61.0-1.16","1403","1658","8","Female","false","false","false","false","""event"",""trial"",""time""
""fullscreenenter"",""5"",""119313""
","
","
","""event"",""trial"",""time""
""fullscreenenter"",""5"",""119313""
","
","864.8999999999069","","49","","","3000","1","","","images/tutgreenplanet.jpg","images/tutalien2","images/tutalien1","images/tutrocket2","images/tutalien1","images/t.png","2","practice","true","1","common","1","2022-05-05 22:27:57.699"
"two-step-fixation","111","767332","0.0-61.0-2.16","1403","1658","8","Female","false","false","false","false","""event"",""trial"",""time""
""fullscreenenter"",""5"",""119313""
","
","
","""event"",""trial"",""time""
""fullscreenenter"",""5"",""119313""
","
","","images/earth.jpg","","","","","","","","","","","","","","fixation","","","","","",""
"d3-animate-choice","112","770167","0.0-61.0-0.17","1403","1658","8","Female","false","false","false","false","""event"",""trial"",""time""
""fullscreenenter"",""5"",""119313""
","
","
","""event"",""trial"",""time""
""fullscreenenter"",""5"",""119313""
","
","827.8000000000466","","48","","","3000","1","","","images/earth.jpg","images/tutrocket1","images/tutrocket2","null","images/tutrocket1","","1","practice","null","2","","",""
"d3-animate-choice","113","773265","0.0-61.0-1.17","1403","1658","8","Female","false","false","false","false","""event"",""trial"",""time""
""fullscreenenter"",""5"",""119313""
","
","
","""event"",""trial"",""time""
""fullscreenenter"",""5"",""119313""
","
","1090.5999999998603","","49","","","3000","1","","","images/tutgreenplanet.jpg","images/tutalien2","images/tutalien1","images/tutrocket1","images/tutalien1","images/nothing.png","2","practice","false","1","rare","0","2022-05-05 22:28:04.636"
"two-step-fixation","114","774271","0.0-61.0-2.17","1403","1658","8","Female","false","false","false","false","""event"",""trial"",""time""
""fullscreenenter"",""5"",""119313""
","
","
","""event"",""trial"",""time""
""fullscreenenter"",""5"",""119313""
","
","","images/earth.jpg","","","","","","","","","","","","","","fixation","","","","","",""
"d3-animate-choice","115","778277","0.0-61.0-0.18","1403","1658","8","Female","false","false","false","false","""event"",""trial"",""time""
""fullscreenenter"",""5"",""119313""
","
","
","""event"",""trial"",""time""
""fullscreenenter"",""5"",""119313""
","
","2440.9000000001397","","49","","","3000","1","","","images/earth.jpg","images/tutrocket1","images/tutrocket2","null","images/tutrocket2","","1","practice","null","1","","",""
"d3-animate-choice","116","781433","0.0-61.0-1.18","1403","1658","8","Female","false","false","false","false","""event"",""trial"",""time""
""fullscreenenter"",""5"",""119313""
","
","
","""event"",""trial"",""time""
""fullscreenenter"",""5"",""119313""
","
","1150.2000000001863","","48","","","3000","1","","","images/tutyellowplanet.jpg","images/tutalien4","images/tutalien3","images/tutrocket2","images/tutalien4","images/t.png","2","practice","false","2","rare","1","2022-05-05 22:28:12.803"
"two-step-fixation","117","782440","0.0-61.0-2.18","1403","1658","8","Female","false","false","false","false","""event"",""trial"",""time""
""fullscreenenter"",""5"",""119313""
","
","
","""event"",""trial"",""time""
""fullscreenenter"",""5"",""119313""
","
","","images/earth.jpg","","","","","","","","","","","","","","fixation","","","","","",""
"d3-animate-choice","118","786384","0.0-61.0-0.19","1403","1658","8","Female","false","false","false","false","""event"",""trial"",""time""
""fullscreenenter"",""5"",""119313""
","
","
","""event"",""trial"",""time""
""fullscreenenter"",""5"",""119313""
","
","1940.0999999998603","","48","","","3000","1","","","images/earth.jpg","images/tutrocket1","images/tutrocket2","null","images/tutrocket1","","1","practice","null","2","","",""
"d3-animate-choice","119","789601","0.0-61.0-1.19","1403","1658","8","Female","false","false","false","false","""event"",""trial"",""time""
""fullscreenenter"",""5"",""119313""
","
","
","""event"",""trial"",""time""
""fullscreenenter"",""5"",""119313""
","
","1212.7000000001863","","48","","","3000","1","","","images/tutyellowplanet.jpg","images/tutalien4","images/tutalien3","images/tutrocket1","images/tutalien4","images/nothing.png","2","practice","true","2","common","0","2022-05-05 22:28:20.971"
"two-step-fixation","120","790604","0.0-61.0-2.19","1403","1658","8","Female","false","false","false","false","""event"",""trial"",""time""
""fullscreenenter"",""5"",""119313""
","
","
","""event"",""trial"",""time""
""fullscreenenter"",""5"",""119313""
","
","","images/earth.jpg","","","","","","","","","","","","","","fixation","","","","","",""
"d3-instructions","121","799159","0.0-62.0","1403","1658","8","Female","false","false","false","false","""event"",""trial"",""time""
""fullscreenenter"",""5"",""119313""
","
","
","""event"",""trial"",""time""
""fullscreenenter"",""5"",""119313""
","
","","","","","","","","","","","","","","","","","","","","","",""
"audio-keyboard-response","122","807121","0.0-63.0","1403","1658","8","Female","false","false","false","false","""event"",""trial"",""time""
""fullscreenenter"",""5"",""119313""
","
","
","""event"",""trial"",""time""
""fullscreenenter"",""5"",""119313""
","
","7960","audio/instructions/treasure_feedback.wav","32","","","","","","","","","","","","","","","","","","",""
"d3-instructions","123","827392","0.0-64.0","1403","1658","8","Female","false","false","false","false","""event"",""trial"",""time""
""fullscreenenter"",""5"",""119313""
","
","
","""event"",""trial"",""time""
""fullscreenenter"",""5"",""119313""
","
","","","","","","","","","","","","","","","","","","","","","",""
"d3-instructions","124","849445","0.0-65.0","1403","1658","8","Female","false","false","false","false","""event"",""trial"",""time""
""fullscreenenter"",""5"",""119313""
","
","
","""event"",""trial"",""time""
""fullscreenenter"",""5"",""119313""
","
","","","","","","","","","","","","","","","","","","","","","",""
"d3-instructions","125","877486","0.0-66.0","1403","1658","8","Female","false","false","false","false","""event"",""trial"",""time""
""fullscreenenter"",""5"",""119313""
","
","
","""event"",""trial"",""time""
""fullscreenenter"",""5"",""119313""
","
","","","","","","","","","","","","","","","","","","","","","",""
"d3-instructions","126","917178","0.0-67.0","1403","1658","8","Female","false","false","false","false","""event"",""trial"",""time""
""fullscreenenter"",""5"",""119313""
","
","
","""event"",""trial"",""time""
""fullscreenenter"",""5"",""119313""
","
","","","","","","","","","","","","","","","","","","","","","",""
"d3-instructions","127","926776","0.0-68.0","1403","1658","8","Female","false","false","false","false","""event"",""trial"",""time""
""fullscreenenter"",""5"",""119313""
","
","
","""event"",""trial"",""time""
""fullscreenenter"",""5"",""119313""
","
","","","","","","","","","","","","","","","","","","","","","",""
"instructions-quiz","128","935003","0.0-69.0","1403","1658","8","Female","false","false","false","false","""event"",""trial"",""time""
""fullscreenenter"",""5"",""119313""
","
","
","""event"",""trial"",""time""
""fullscreenenter"",""5"",""119313""
","
","8224.5","audio/quiz/Q1_Prompt.wav","","1","","","","","","","","","","","","","","","","","",""
"audio-keyboard-response","129","944177","0.0-70.0","1403","1658","8","Female","false","false","false","false","""event"",""trial"",""time""
""fullscreenenter"",""5"",""119313""
","
","
","""event"",""trial"",""time""
""fullscreenenter"",""5"",""119313""
","
","null","audio/quiz/Q1_Correct.wav","null","","","","","","","","","","","","","","","","","","",""
"instructions-quiz","130","953204","0.0-71.0","1403","1658","8","Female","false","false","false","false","""event"",""trial"",""time""
""fullscreenenter"",""5"",""119313""
","
","
","""event"",""trial"",""time""
""fullscreenenter"",""5"",""119313""
","
","9022.5","audio/quiz/Q2_Prompt.wav","","0","","","","","","","","","","","","","","","","","",""
"audio-keyboard-response","131","966074","0.0-72.0","1403","1658","8","Female","false","false","false","false","""event"",""trial"",""time""
""fullscreenenter"",""5"",""119313""
","
","
","""event"",""trial"",""time""
""fullscreenenter"",""5"",""119313""
","
","null","audio/quiz/Q2_Correct.wav","null","","","","","","","","","","","","","","","","","","",""
"instructions-quiz","132","972919","0.0-73.0","1403","1658","8","Female","false","false","false","false","""event"",""trial"",""time""
""fullscreenenter"",""5"",""119313""
","
","
","""event"",""trial"",""time""
""fullscreenenter"",""5"",""119313""
","
","6843.5","audio/quiz/Q3_Prompt.wav","","1","","","","","","","","","","","","","","","","","",""
"audio-keyboard-response","133","978717","0.0-74.0","1403","1658","8","Female","false","false","false","false","""event"",""trial"",""time""
""fullscreenenter"",""5"",""119313""
","
","
","""event"",""trial"",""time""
""fullscreenenter"",""5"",""119313""
","
","null","audio/quiz/Q3_Correct.wav","null","","","","","","","","","","","","","","","","","","",""
"d3-instructions","134","992498","0.0-75.0","1403","1658","8","Female","false","false","false","false","""event"",""trial"",""time""
""fullscreenenter"",""5"",""119313""
","
","
","""event"",""trial"",""time""
""fullscreenenter"",""5"",""119313""
","
","","","","","","","","","","","","","","","","","","","","","",""
"d3-animate-choice","135","996024","0.0-76.0-0.0","1403","1658","8","Female","false","false","false","false","""event"",""trial"",""time""
""fullscreenenter"",""5"",""119313""
","
","
","""event"",""trial"",""time""
""fullscreenenter"",""5"",""119313""
","
","1502.5","","48","","","3000","1","","","images/earth.jpg","images/rocket1","images/rocket2","null","images/rocket1","","1","real","null","2","","",""
"d3-animate-choice","136","999815","0.0-76.0-1.0","1403","1658","8","Female","false","false","false","false","""event"",""trial"",""time""
""fullscreenenter"",""5"",""119313""
","
","
","""event"",""trial"",""time""
""fullscreenenter"",""5"",""119313""
","
","1785.1999999999534","","48","","","3000","1","","","images/redplanet1.jpg","images/alien2","images/alien1","images/rocket1","images/alien2","images/t.png","2","real","false","2","rare","1","2022-05-05 22:31:51.185"
"two-step-fixation","137","1000819","0.0-76.0-2.0","1403","1658","8","Female","false","false","false","false","""event"",""trial"",""time""
""fullscreenenter"",""5"",""119313""
","
","
","""event"",""trial"",""time""
""fullscreenenter"",""5"",""119313""
","
","","images/earth.jpg","","","","","","","","","","","","","","fixation","","","","","",""
"d3-animate-choice","138","1004825","0.0-76.0-0.1","1403","1658","8","Female","false","false","false","false","""event"",""trial"",""time""
""fullscreenenter"",""5"",""119313""
","
","
","""event"",""trial"",""time""
""fullscreenenter"",""5"",""119313""
","
","2384.3000000000466","","49","","","3000","1","","","images/earth.jpg","images/rocket1","images/rocket2","null","images/rocket2","","1","real","null","1","","",""
"d3-animate-choice","139","1008194","0.0-76.0-1.1","1403","1658","8","Female","false","false","false","false","""event"",""trial"",""time""
""fullscreenenter"",""5"",""119313""
","
","
","""event"",""trial"",""time""
""fullscreenenter"",""5"",""119313""
","
","1344.1000000000931","","48","","","3000","1","","","images/redplanet1.jpg","images/alien2","images/alien1","images/rocket2","images/alien2","images/t.png","2","real","true","2","common","1","2022-05-05 22:31:59.564"
"two-step-fixation","140","1009214","0.0-76.0-2.1","1403","1658","8","Female","false","false","false","false","""event"",""trial"",""time""
""fullscreenenter"",""5"",""119313""
","
","
","""event"",""trial"",""time""
""fullscreenenter"",""5"",""119313""
","
","","images/earth.jpg","","","","","","","","","","","","","","fixation","","","","","",""
"d3-animate-choice","141","1012774","0.0-76.0-0.2","1403","1658","8","Female","false","false","false","false","""event"",""trial"",""time""
""fullscreenenter"",""5"",""119313""
","
","
","""event"",""trial"",""time""
""fullscreenenter"",""5"",""119313""
","
","1554.6999999999534","","48","","","3000","1","","","images/earth.jpg","images/rocket1","images/rocket2","null","images/rocket1","","1","real","null","2","","",""
"d3-animate-choice","142","1016487","0.0-76.0-1.2","1403","1658","8","Female","false","false","false","false","""event"",""trial"",""time""
""fullscreenenter"",""5"",""119313""
","
","
","""event"",""trial"",""time""
""fullscreenenter"",""5"",""119313""
","
","1709.5","","48","","","3000","1","","","images/purpleplanet.jpg","images/alien4","images/alien3","images/rocket1","images/alien4","images/nothing.png","2","real","true","2","common","0","2022-05-05 22:32:07.857"
"two-step-fixation","143","1017503","0.0-76.0-2.2","1403","1658","8","Female","false","false","false","false","""event"",""trial"",""time""
""fullscreenenter"",""5"",""119313""
","
","
","""event"",""trial"",""time""
""fullscreenenter"",""5"",""119313""
","
","","images/earth.jpg","","","","","","","","","","","","","","fixation","","","","","",""
"d3-animate-choice","144","1020303","0.0-76.0-0.3","1403","1658","8","Female","false","false","false","false","""event"",""trial"",""time""
""fullscreenenter"",""5"",""119313""
","
","
","""event"",""trial"",""time""
""fullscreenenter"",""5"",""119313""
","
","787.6000000000931","","48","","","3000","1","","","images/earth.jpg","images/rocket1","images/rocket2","null","images/rocket1","","1","real","null","2","","",""
"d3-animate-choice","145","1023774","0.0-76.0-1.3","1403","1658","8","Female","false","false","false","false","""event"",""trial"",""time""
""fullscreenenter"",""5"",""119313""
","
","
","""event"",""trial"",""time""
""fullscreenenter"",""5"",""119313""
","
","1467.3999999999069","","48","","","3000","1","","","images/redplanet1.jpg","images/alien2","images/alien1","images/rocket1","images/alien2","images/nothing.png","2","real","false","2","rare","0","2022-05-05 22:32:15.144"
"two-step-fixation","146","1024777","0.0-76.0-2.3","1403","1658","8","Female","false","false","false","false","""event"",""trial"",""time""
""fullscreenenter"",""5"",""119313""
","
","
","""event"",""trial"",""time""
""fullscreenenter"",""5"",""119313""
","
","","images/earth.jpg","","","","","","","","","","","","","","fixation","","","","","",""
"d3-animate-choice","147","1028781","0.0-76.0-0.4","1403","1658","8","Female","false","false","false","false","""event"",""trial"",""time""
""fullscreenenter"",""5"",""119313""
","
","
","""event"",""trial"",""time""
""fullscreenenter"",""5"",""119313""
","
","1363.1000000000931","","192","","","3000","1","2458,3082.100000000093","192,49","images/earth.jpg","images/rocket1","images/rocket2","null","images/rocket2","","1","real","null","","","",""
"d3-animate-choice","148","1031857","0.0-76.0-1.4","1403","1658","8","Female","false","false","false","false","""event"",""trial"",""time""
""fullscreenenter"",""5"",""119313""
","
","
","""event"",""trial"",""time""
""fullscreenenter"",""5"",""119313""
","
","1072.0999999998603","","48","","","3000","1","","","images/redplanet1.jpg","images/alien2","images/alien1","images/rocket2","images/alien2","images/nothing.png","2","real","true","2","common","0","2022-05-05 22:32:23.227"
"two-step-fixation","149","1032860","0.0-76.0-2.4","1403","1658","8","Female","false","false","false","false","""event"",""trial"",""time""
""fullscreenenter"",""5"",""119313""
","
","
","""event"",""trial"",""time""
""fullscreenenter"",""5"",""119313""
","
","","images/earth.jpg","","","","","","","","","","","","","","fixation","","","","","",""
"d3-animate-choice","150","1036079","0.0-76.0-0.5","1403","1658","8","Female","false","false","false","false","""event"",""trial"",""time""
""fullscreenenter"",""5"",""119313""
","
","
","""event"",""trial"",""time""
""fullscreenenter"",""5"",""119313""
","
","1214.6000000000931","","48","","","3000","1","","","images/earth.jpg","images/rocket1","images/rocket2","null","images/rocket1","","1","real","null","2","","",""
"d3-animate-choice","151","1040082","0.0-76.0-1.5","1403","1658","8","Female","false","false","false","false","""event"",""trial"",""time""
""fullscreenenter"",""5"",""119313""
","
","
","""event"",""trial"",""time""
""fullscreenenter"",""5"",""119313""
","
","2260.7999999998137","","48","","","3000","1","","","images/purpleplanet.jpg","images/alien4","images/alien3","images/rocket1","images/alien4","images/nothing.png","2","real","true","2","common","0","2022-05-05 22:32:31.452"
"two-step-fixation","152","1041085","0.0-76.0-2.5","1403","1658","8","Female","false","false","false","false","""event"",""trial"",""time""
""fullscreenenter"",""5"",""119313""
","
","
","""event"",""trial"",""time""
""fullscreenenter"",""5"",""119313""
","
","","images/earth.jpg","","","","","","","","","","","","","","fixation","","","","","",""
"d3-animate-choice","153","1044358","0.0-76.0-0.6","1403","1658","8","Female","false","false","false","false","""event"",""trial"",""time""
""fullscreenenter"",""5"",""119313""
","
","
","""event"",""trial"",""time""
""fullscreenenter"",""5"",""119313""
","
","1270.1000000000931","","49","","","3000","1","","","images/earth.jpg","images/rocket1","images/rocket2","null","images/rocket2","","1","real","null","1","","",""
"d3-animate-choice","154","1047721","0.0-76.0-1.6","1403","1658","8","Female","false","false","false","false","""event"",""trial"",""time""
""fullscreenenter"",""5"",""119313""
","
","
","""event"",""trial"",""time""
""fullscreenenter"",""5"",""119313""
","
","1358.2000000001863","","49","","","3000","1","","","images/redplanet1.jpg","images/alien2","images/alien1","images/rocket2","images/alien1","images/nothing.png","2","real","true","1","common","0","2022-05-05 22:32:39.091"
"two-step-fixation","155","1048725","0.0-76.0-2.6","1403","1658","8","Female","false","false","false","false","""event"",""trial"",""time""
""fullscreenenter"",""5"",""119313""
","
","
","""event"",""trial"",""time""
""fullscreenenter"",""5"",""119313""
","
","","images/earth.jpg","","","","","","","","","","","","","","fixation","","","","","",""
"d3-animate-choice","156","1051503","0.0-76.0-0.7","1403","1658","8","Female","false","false","false","false","""event"",""trial"",""time""
""fullscreenenter"",""5"",""119313""
","
","
","""event"",""trial"",""time""
""fullscreenenter"",""5"",""119313""
","
","774.7000000001863","","48","","","3000","1","","","images/earth.jpg","images/rocket1","images/rocket2","null","images/rocket1","","1","real","null","2","","",""
"d3-animate-choice","157","1055487","0.0-76.0-1.7","1403","1658","8","Female","false","false","false","false","""event"",""trial"",""time""
""fullscreenenter"",""5"",""119313""
","
","
","""event"",""trial"",""time""
""fullscreenenter"",""5"",""119313""
","
","1976.0999999996275","","49","","","3000","1","","","images/purpleplanet.jpg","images/alien4","images/alien3","images/rocket1","images/alien3","images/nothing.png","2","real","true","1","common","0","2022-05-05 22:32:46.858"
"two-step-fixation","158","1056495","0.0-76.0-2.7","1403","1658","8","Female","false","false","false","false","""event"",""trial"",""time""
""fullscreenenter"",""5"",""119313""
","
","
","""event"",""trial"",""time""
""fullscreenenter"",""5"",""119313""
","
","","images/earth.jpg","","","","","","","","","","","","","","fixation","","","","","",""
"d3-animate-choice","159","1059538","0.0-76.0-0.8","1403","1658","8","Female","false","false","false","false","""event"",""trial"",""time""
""fullscreenenter"",""5"",""119313""
","
","
","""event"",""trial"",""time""
""fullscreenenter"",""5"",""119313""
","
","1039.1999999997206","","49","","","3000","1","","","images/earth.jpg","images/rocket1","images/rocket2","null","images/rocket2","","1","real","null","1","","",""
"d3-animate-choice","160","1062794","0.0-76.0-1.8","1403","1658","8","Female","false","false","false","false","""event"",""trial"",""time""
""fullscreenenter"",""5"",""119313""
","
","
","""event"",""trial"",""time""
""fullscreenenter"",""5"",""119313""
","
","1252.1999999997206","","48","","","3000","1","","","images/redplanet1.jpg","images/alien2","images/alien1","images/rocket2","images/alien2","images/t.png","2","real","true","2","common","1","2022-05-05 22:32:54.164"
"two-step-fixation","161","1063803","0.0-76.0-2.8","1403","1658","8","Female","false","false","false","false","""event"",""trial"",""time""
""fullscreenenter"",""5"",""119313""
","
","
","""event"",""trial"",""time""
""fullscreenenter"",""5"",""119313""
","
","","images/earth.jpg","","","","","","","","","","","","","","fixation","","","","","",""
"d3-animate-choice","162","1067632","0.0-76.0-0.9","1403","1658","8","Female","false","false","false","false","""event"",""trial"",""time""
""fullscreenenter"",""5"",""119313""
","
","
","""event"",""trial"",""time""
""fullscreenenter"",""5"",""119313""
","
","1824.6999999997206","","49","","","3000","1","","","images/earth.jpg","images/rocket1","images/rocket2","null","images/rocket2","","1","real","null","1","","",""
"d3-animate-choice","163","1070559","0.0-76.0-1.9","1403","1658","8","Female","false","false","false","false","""event"",""trial"",""time""
""fullscreenenter"",""5"",""119313""
","
","
","""event"",""trial"",""time""
""fullscreenenter"",""5"",""119313""
","
","921.5","","48","","","3000","1","","","images/redplanet1.jpg","images/alien2","images/alien1","images/rocket2","images/alien2","images/t.png","2","real","true","2","common","1","2022-05-05 22:33:01.929"
"two-step-fixation","164","1071563","0.0-76.0-2.9","1403","1658","8","Female","false","false","false","false","""event"",""trial"",""time""
""fullscreenenter"",""5"",""119313""
","
","
","""event"",""trial"",""time""
""fullscreenenter"",""5"",""119313""
","
","","images/earth.jpg","","","","","","","","","","","","","","fixation","","","","","",""
"d3-animate-choice","165","1074562","0.0-76.0-0.10","1403","1658","8","Female","false","false","false","false","""event"",""trial"",""time""
""fullscreenenter"",""5"",""119313""
","
","
","""event"",""trial"",""time""
""fullscreenenter"",""5"",""119313""
","
","995.3999999999069","","49","","","3000","1","","","images/earth.jpg","images/rocket1","images/rocket2","null","images/rocket2","","1","real","null","1","","",""
"d3-animate-choice","166","1077362","0.0-76.0-1.10","1403","1658","8","Female","false","false","false","false","""event"",""trial"",""time""
""fullscreenenter"",""5"",""119313""
","
","
","""event"",""trial"",""time""
""fullscreenenter"",""5"",""119313""
","
","791.6000000000931","","48","","","3000","1","","","images/redplanet1.jpg","images/alien2","images/alien1","images/rocket2","images/alien2","images/nothing.png","2","real","true","2","common","0","2022-05-05 22:33:08.732"
"two-step-fixation","167","1078367","0.0-76.0-2.10","1403","1658","8","Female","false","false","false","false","""event"",""trial"",""time""
""fullscreenenter"",""5"",""119313""
","
","
","""event"",""trial"",""time""
""fullscreenenter"",""5"",""119313""
","
","","images/earth.jpg","","","","","","","","","","","","","","fixation","","","","","",""
"d3-animate-choice","168","1080961","0.0-76.0-0.11","1403","1658","8","Female","false","false","false","false","""event"",""trial"",""time""
""fullscreenenter"",""5"",""119313""
","
","
","""event"",""trial"",""time""
""fullscreenenter"",""5"",""119313""
","
","589","","49","","","3000","1","","","images/earth.jpg","images/rocket1","images/rocket2","null","images/rocket2","","1","real","null","1","","",""
"d3-animate-choice","169","1083362","0.0-76.0-1.11","1403","1658","8","Female","false","false","false","false","""event"",""trial"",""time""
""fullscreenenter"",""5"",""119313""
","
","
","""event"",""trial"",""time""
""fullscreenenter"",""5"",""119313""
","
","395.79999999981374","","48","","","3000","1","","","images/redplanet1.jpg","images/alien2","images/alien1","images/rocket2","images/alien2","images/nothing.png","2","real","true","2","common","0","2022-05-05 22:33:14.733"
"two-step-fixation","170","1084366","0.0-76.0-2.11","1403","1658","8","Female","false","false","false","false","""event"",""trial"",""time""
""fullscreenenter"",""5"",""119313""
","
","
","""event"",""trial"",""time""
""fullscreenenter"",""5"",""119313""
","
","","images/earth.jpg","","","","","","","","","","","","","","fixation","","","","","",""
"d3-animate-choice","171","1087370","0.0-76.0-0.12","1403","1658","8","Female","false","false","false","false","""event"",""trial"",""time""
""fullscreenenter"",""5"",""119313""
","
","
","""event"",""trial"",""time""
""fullscreenenter"",""5"",""119313""
","
","996.1000000000931","","49","","","3000","1","","","images/earth.jpg","images/rocket1","images/rocket2","null","images/rocket2","","1","real","null","1","","",""
"d3-animate-choice","172","1089976","0.0-76.0-1.12","1403","1658","8","Female","false","false","false","false","""event"",""trial"",""time""
""fullscreenenter"",""5"",""119313""
","
","
","""event"",""trial"",""time""
""fullscreenenter"",""5"",""119313""
","
","603.1000000000931","","48","","","3000","1","","","images/redplanet1.jpg","images/alien2","images/alien1","images/rocket2","images/alien2","images/nothing.png","2","real","true","2","common","0","2022-05-05 22:33:21.347"
"two-step-fixation","173","1090983","0.0-76.0-2.12","1403","1658","8","Female","false","false","false","false","""event"",""trial"",""time""
""fullscreenenter"",""5"",""119313""
","
","
","""event"",""trial"",""time""
""fullscreenenter"",""5"",""119313""
","
","","images/earth.jpg","","","","","","","","","","","","","","fixation","","","","","",""
"d3-animate-choice","174","1093449","0.0-76.0-0.13","1403","1658","8","Female","false","false","false","false","""event"",""trial"",""time""
""fullscreenenter"",""5"",""119313""
","
","
","""event"",""trial"",""time""
""fullscreenenter"",""5"",""119313""
","
","458.40000000037253","","48","","","3000","1","","","images/earth.jpg","images/rocket1","images/rocket2","null","images/rocket1","","1","real","null","2","","",""
"d3-animate-choice","175","1097456","0.0-76.0-1.13","1403","1658","8","Female","false","false","false","false","""event"",""trial"",""time""
""fullscreenenter"",""5"",""119313""
","
","
","""event"",""trial"",""time""
""fullscreenenter"",""5"",""119313""
","
","2025.8000000002794","","48","","","3000","1","","","images/purpleplanet.jpg","images/alien4","images/alien3","images/rocket1","images/alien4","images/t.png","2","real","true","2","common","1","2022-05-05 22:33:28.826"
"two-step-fixation","176","1098462","0.0-76.0-2.13","1403","1658","8","Female","false","false","false","false","""event"",""trial"",""time""
""fullscreenenter"",""5"",""119313""
","
","
","""event"",""trial"",""time""
""fullscreenenter"",""5"",""119313""
","
","","images/earth.jpg","","","","","","","","","","","","","","fixation","","","","","",""
"d3-animate-choice","177","1101210","0.0-76.0-0.14","1403","1658","8","Female","false","false","false","false","""event"",""trial"",""time""
""fullscreenenter"",""5"",""119313""
","
","
","""event"",""trial"",""time""
""fullscreenenter"",""5"",""119313""
","
","741.1000000000931","","48","","","3000","1","","","images/earth.jpg","images/rocket1","images/rocket2","null","images/rocket1","","1","real","null","2","","",""
"d3-animate-choice","178","1103801","0.0-76.0-1.14","1403","1658","8","Female","false","false","false","false","""event"",""trial"",""time""
""fullscreenenter"",""5"",""119313""
","
","
","""event"",""trial"",""time""
""fullscreenenter"",""5"",""119313""
","
","586.3999999999069","","48","","","3000","1","","","images/purpleplanet.jpg","images/alien4","images/alien3","images/rocket1","images/alien4","images/t.png","2","real","true","2","common","1","2022-05-05 22:33:35.171"
"two-step-fixation","179","1104807","0.0-76.0-2.14","1403","1658","8","Female","false","false","false","false","""event"",""trial"",""time""
""fullscreenenter"",""5"",""119313""
","
","
","""event"",""trial"",""time""
""fullscreenenter"",""5"",""119313""
","
","","images/earth.jpg","","","","","","","","","","","","","","fixation","","","","","",""
"d3-animate-choice","180","1107344","0.0-76.0-0.15","1403","1658","8","Female","false","false","false","false","""event"",""trial"",""time""
""fullscreenenter"",""5"",""119313""
","
","
","""event"",""trial"",""time""
""fullscreenenter"",""5"",""119313""
","
","532.8000000002794","","48","","","3000","1","","","images/earth.jpg","images/rocket1","images/rocket2","null","images/rocket1","","1","real","null","2","","",""
"d3-animate-choice","181","1110882","0.0-76.0-1.15","1403","1658","8","Female","false","false","false","false","""event"",""trial"",""time""
""fullscreenenter"",""5"",""119313""
","
","
","""event"",""trial"",""time""
""fullscreenenter"",""5"",""119313""
","
","1530.1999999997206","","48","","","3000","1","","","images/redplanet1.jpg","images/alien2","images/alien1","images/rocket1","images/alien2","images/nothing.png","2","real","false","2","rare","0","2022-05-05 22:33:42.252"
"two-step-fixation","182","1111886","0.0-76.0-2.15","1403","1658","8","Female","false","false","false","false","""event"",""trial"",""time""
""fullscreenenter"",""5"",""119313""
","
","
","""event"",""trial"",""time""
""fullscreenenter"",""5"",""119313""
","
","","images/earth.jpg","","","","","","","","","","","","","","fixation","","","","","",""
"d3-animate-choice","183","1114544","0.0-76.0-0.16","1403","1658","8","Female","false","false","false","false","""event"",""trial"",""time""
""fullscreenenter"",""5"",""119313""
","
","
","""event"",""trial"",""time""
""fullscreenenter"",""5"",""119313""
","
","651.6000000000931","","49","","","3000","1","","","images/earth.jpg","images/rocket1","images/rocket2","null","images/rocket2","","1","real","null","1","","",""
"d3-animate-choice","184","1118509","0.0-76.0-1.16","1403","1658","8","Female","false","false","false","false","""event"",""trial"",""time""
""fullscreenenter"",""5"",""119313""
","
","
","""event"",""trial"",""time""
""fullscreenenter"",""5"",""119313""
","
","1962.2999999998137","","48","","","3000","1","","","images/purpleplanet.jpg","images/alien4","images/alien3","images/rocket2","images/alien4","images/t.png","2","real","false","2","rare","1","2022-05-05 22:33:49.879"
"two-step-fixation","185","1119517","0.0-76.0-2.16","1403","1658","8","Female","false","false","false","false","""event"",""trial"",""time""
""fullscreenenter"",""5"",""119313""
","
","
","""event"",""trial"",""time""
""fullscreenenter"",""5"",""119313""
","
","","images/earth.jpg","","","","","","","","","","","","","","fixation","","","","","",""
"d3-animate-choice","186","1123371","0.0-76.0-0.17","1403","1658","8","Female","false","false","false","false","""event"",""trial"",""time""
""fullscreenenter"",""5"",""119313""
","
","
","""event"",""trial"",""time""
""fullscreenenter"",""5"",""119313""
","
","1843.8000000002794","","49","","","3000","1","","","images/earth.jpg","images/rocket1","images/rocket2","null","images/rocket2","","1","real","null","1","","",""
"d3-animate-choice","187","1127329","0.0-76.0-1.17","1403","1658","8","Female","false","false","false","false","""event"",""trial"",""time""
""fullscreenenter"",""5"",""119313""
","
","
","""event"",""trial"",""time""
""fullscreenenter"",""5"",""119313""
","
","1951.2000000001863","","49","","","3000","1","","","images/redplanet1.jpg","images/alien2","images/alien1","images/rocket2","images/alien1","images/nothing.png","2","real","true","1","common","0","2022-05-05 22:33:58.699"
"two-step-fixation","188","1128336","0.0-76.0-2.17","1403","1658","8","Female","false","false","false","false","""event"",""trial"",""time""
""fullscreenenter"",""5"",""119313""
","
","
","""event"",""trial"",""time""
""fullscreenenter"",""5"",""119313""
","
","","images/earth.jpg","","","","","","","","","","","","","","fixation","","","","","",""
"d3-animate-choice","189","1130760","0.0-76.0-0.18","1403","1658","8","Female","false","false","false","false","""event"",""trial"",""time""
""fullscreenenter"",""5"",""119313""
","
","
","""event"",""trial"",""time""
""fullscreenenter"",""5"",""119313""
","
","419.8000000002794","","48","","","3000","1","","","images/earth.jpg","images/rocket1","images/rocket2","null","images/rocket1","","1","real","null","2","","",""
"d3-animate-choice","190","1133503","0.0-76.0-1.18","1403","1658","8","Female","false","false","false","false","""event"",""trial"",""time""
""fullscreenenter"",""5"",""119313""
","
","
","""event"",""trial"",""time""
""fullscreenenter"",""5"",""119313""
","
","736.3999999999069","","48","","","3000","1","","","images/purpleplanet.jpg","images/alien4","images/alien3","images/rocket1","images/alien4","images/t.png","2","real","true","2","common","1","2022-05-05 22:34:04.873"
"two-step-fixation","191","1134509","0.0-76.0-2.18","1403","1658","8","Female","false","false","false","false","""event"",""trial"",""time""
""fullscreenenter"",""5"",""119313""
","
","
","""event"",""trial"",""time""
""fullscreenenter"",""5"",""119313""
","
","","images/earth.jpg","","","","","","","","","","","","","","fixation","","","","","",""
"d3-animate-choice","192","1136873","0.0-76.0-0.19","1403","1658","8","Female","false","false","false","false","""event"",""trial"",""time""
""fullscreenenter"",""5"",""119313""
","
","
","""event"",""trial"",""time""
""fullscreenenter"",""5"",""119313""
","
","357","","48","","","3000","1","","","images/earth.jpg","images/rocket1","images/rocket2","null","images/rocket1","","1","real","null","2","","",""
"d3-animate-choice","193","1139666","0.0-76.0-1.19","1403","1658","8","Female","false","false","false","false","""event"",""trial"",""time""
""fullscreenenter"",""5"",""119313""
","
","
","""event"",""trial"",""time""
""fullscreenenter"",""5"",""119313""
","
","790.3000000002794","","48","","","3000","1","","","images/purpleplanet.jpg","images/alien4","images/alien3","images/rocket1","images/alien4","images/t.png","2","real","true","2","common","1","2022-05-05 22:34:11.036"
"two-step-fixation","194","1140669","0.0-76.0-2.19","1403","1658","8","Female","false","false","false","false","""event"",""trial"",""time""
""fullscreenenter"",""5"",""119313""
","
","
","""event"",""trial"",""time""
""fullscreenenter"",""5"",""119313""
","
","","images/earth.jpg","","","","","","","","","","","","","","fixation","","","","","",""
"d3-animate-choice","195","1143596","0.0-76.0-0.20","1403","1658","8","Female","false","false","false","false","""event"",""trial"",""time""
""fullscreenenter"",""5"",""119313""
","
","
","""event"",""trial"",""time""
""fullscreenenter"",""5"",""119313""
","
","916.2000000001863","","48","","","3000","1","","","images/earth.jpg","images/rocket1","images/rocket2","null","images/rocket1","","1","real","null","2","","",""
"d3-animate-choice","196","1146414","0.0-76.0-1.20","1403","1658","8","Female","false","false","false","false","""event"",""trial"",""time""
""fullscreenenter"",""5"",""119313""
","
","
","""event"",""trial"",""time""
""fullscreenenter"",""5"",""119313""
","
","810","","48","","","3000","1","","","images/purpleplanet.jpg","images/alien4","images/alien3","images/rocket1","images/alien4","images/nothing.png","2","real","true","2","common","0","2022-05-05 22:34:17.784"
"two-step-fixation","197","1147423","0.0-76.0-2.20","1403","1658","8","Female","false","false","false","false","""event"",""trial"",""time""
""fullscreenenter"",""5"",""119313""
","
","
","""event"",""trial"",""time""
""fullscreenenter"",""5"",""119313""
","
","","images/earth.jpg","","","","","","","","","","","","","","fixation","","","","","",""
"d3-animate-choice","198","1149794","0.0-76.0-0.21","1403","1658","8","Female","false","false","false","false","""event"",""trial"",""time""
""fullscreenenter"",""5"",""119313""
","
","
","""event"",""trial"",""time""
""fullscreenenter"",""5"",""119313""
","
","362.10000000009313","","48","","","3000","1","","","images/earth.jpg","images/rocket1","images/rocket2","null","images/rocket1","","1","real","null","2","","",""
"d3-animate-choice","199","1153797","0.0-76.0-1.21","1403","1658","8","Female","false","false","false","false","""event"",""trial"",""time""
""fullscreenenter"",""5"",""119313""
","
","
","""event"",""trial"",""time""
""fullscreenenter"",""5"",""119313""
","
","2339.2999999998137","","48","","","3000","1","","","images/redplanet1.jpg","images/alien2","images/alien1","images/rocket1","images/alien2","images/nothing.png","2","real","false","2","rare","0","2022-05-05 22:34:25.167"
"two-step-fixation","200","1154807","0.0-76.0-2.21","1403","1658","8","Female","false","false","false","false","""event"",""trial"",""time""
""fullscreenenter"",""5"",""119313""
","
","
","""event"",""trial"",""time""
""fullscreenenter"",""5"",""119313""
","
","","images/earth.jpg","","","","","","","","","","","","","","fixation","","","","","",""
"d3-animate-choice","201","1157449","0.0-76.0-0.22","1403","1658","8","Female","false","false","false","false","""event"",""trial"",""time""
""fullscreenenter"",""5"",""119313""
","
","
","""event"",""trial"",""time""
""fullscreenenter"",""5"",""119313""
","
","637.8999999999069","","48","","","3000","1","","","images/earth.jpg","images/rocket1","images/rocket2","null","images/rocket1","","1","real","null","2","","",""
"d3-animate-choice","202","1160832","0.0-76.0-1.22","1403","1658","8","Female","false","false","false","false","""event"",""trial"",""time""
""fullscreenenter"",""5"",""119313""
","
","
","""event"",""trial"",""time""
""fullscreenenter"",""5"",""119313""
","
","1377","","49","","","3000","1","","","images/redplanet1.jpg","images/alien2","images/alien1","images/rocket1","images/alien1","images/nothing.png","2","real","false","1","rare","0","2022-05-05 22:34:32.203"
"two-step-fixation","203","1161841","0.0-76.0-2.22","1403","1658","8","Female","false","false","false","false","""event"",""trial"",""time""
""fullscreenenter"",""5"",""119313""
","
","
","""event"",""trial"",""time""
""fullscreenenter"",""5"",""119313""
","
","","images/earth.jpg","","","","","","","","","","","","","","fixation","","","","","",""
"d3-animate-choice","204","1165750","0.0-76.0-0.23","1403","1658","8","Female","false","false","false","false","""event"",""trial"",""time""
""fullscreenenter"",""5"",""119313""
","
","
","""event"",""trial"",""time""
""fullscreenenter"",""5"",""119313""
","
","1905.3999999999069","","49","","","3000","1","","","images/earth.jpg","images/rocket1","images/rocket2","null","images/rocket2","","1","real","null","1","","",""
"d3-animate-choice","205","1168843","0.0-76.0-1.23","1403","1658","8","Female","false","false","false","false","""event"",""trial"",""time""
""fullscreenenter"",""5"",""119313""
","
","
","""event"",""trial"",""time""
""fullscreenenter"",""5"",""119313""
","
","1085.2000000001863","","48","","","3000","1","","","images/redplanet1.jpg","images/alien2","images/alien1","images/rocket2","images/alien2","images/t.png","2","real","true","2","common","1","2022-05-05 22:34:40.213"
"two-step-fixation","206","1169851","0.0-76.0-2.23","1403","1658","8","Female","false","false","false","false","""event"",""trial"",""time""
""fullscreenenter"",""5"",""119313""
","
","
","""event"",""trial"",""time""
""fullscreenenter"",""5"",""119313""
","
","","images/earth.jpg","","","","","","","","","","","","","","fixation","","","","","",""
"d3-animate-choice","207","1173856","0.0-76.0-0.24","1403","1658","8","Female","false","false","false","false","""event"",""trial"",""time""
""fullscreenenter"",""5"",""119313""
","
","
","""event"",""trial"",""time""
""fullscreenenter"",""5"",""119313""
","
","2242.2999999998137","","48","","","3000","1","","","images/earth.jpg","images/rocket1","images/rocket2","null","images/rocket1","","1","real","null","2","","",""
"d3-animate-choice","208","1177863","0.0-76.0-1.24","1403","1658","8","Female","false","false","false","false","""event"",""trial"",""time""
""fullscreenenter"",""5"",""119313""
","
","
","""event"",""trial"",""time""
""fullscreenenter"",""5"",""119313""
","
","2281.7000000001863","","48","","","3000","1","","","images/redplanet1.jpg","images/alien2","images/alien1","images/rocket1","images/alien2","images/nothing.png","2","real","false","2","rare","0","2022-05-05 22:34:49.234"
"two-step-fixation","209","1178872","0.0-76.0-2.24","1403","1658","8","Female","false","false","false","false","""event"",""trial"",""time""
""fullscreenenter"",""5"",""119313""
","
","
","""event"",""trial"",""time""
""fullscreenenter"",""5"",""119313""
","
","","images/earth.jpg","","","","","","","","","","","","","","fixation","","","","","",""
"d3-animate-choice","210","1182770","0.0-76.0-0.25","1403","1658","8","Female","false","false","false","false","""event"",""trial"",""time""
""fullscreenenter"",""5"",""119313""
","
","
","""event"",""trial"",""time""
""fullscreenenter"",""5"",""119313""
","
","1890.1000000000931","","49","","","3000","1","","","images/earth.jpg","images/rocket1","images/rocket2","null","images/rocket2","","1","real","null","1","","",""
"d3-animate-choice","211","1186773","0.0-76.0-1.25","1403","1658","8","Female","false","false","false","false","""event"",""trial"",""time""
""fullscreenenter"",""5"",""119313""
","
","
","""event"",""trial"",""time""
""fullscreenenter"",""5"",""119313""
","
","2276.399999999907","","48","","","3000","1","","","images/purpleplanet.jpg","images/alien4","images/alien3","images/rocket2","images/alien4","images/t.png","2","real","false","2","rare","1","2022-05-05 22:34:58.144"
"two-step-fixation","212","1187781","0.0-76.0-2.25","1403","1658","8","Female","false","false","false","false","""event"",""trial"",""time""
""fullscreenenter"",""5"",""119313""
","
","
","""event"",""trial"",""time""
""fullscreenenter"",""5"",""119313""
","
","","images/earth.jpg","","","","","","","","","","","","","","fixation","","","","","",""
"d3-animate-choice","213","1190788","0.0-76.0-0.26","1403","1658","8","Female","false","false","false","false","""event"",""trial"",""time""
""fullscreenenter"",""5"",""119313""
","
","
","""event"",""trial"",""time""
""fullscreenenter"",""5"",""119313""
","
","996.9000000003725","","49","","","3000","1","1364.3000000002794","49","images/earth.jpg","images/rocket1","images/rocket2","null","images/rocket2","","1","real","null","1","","",""
"d3-animate-choice","214","1194496","0.0-76.0-1.26","1403","1658","8","Female","false","false","false","false","""event"",""trial"",""time""
""fullscreenenter"",""5"",""119313""
","
","
","""event"",""trial"",""time""
""fullscreenenter"",""5"",""119313""
","
","1699.2999999998137","","48","","","3000","1","","","images/redplanet1.jpg","images/alien2","images/alien1","images/rocket2","images/alien2","images/t.png","2","real","true","2","common","1","2022-05-05 22:35:05.866"
"two-step-fixation","215","1195501","0.0-76.0-2.26","1403","1658","8","Female","false","false","false","false","""event"",""trial"",""time""
""fullscreenenter"",""5"",""119313""
","
","
","""event"",""trial"",""time""
""fullscreenenter"",""5"",""119313""
","
","","images/earth.jpg","","","","","","","","","","","","","","fixation","","","","","",""
"d3-animate-choice","216","1198673","0.0-76.0-0.27","1403","1658","8","Female","false","false","false","false","""event"",""trial"",""time""
""fullscreenenter"",""5"",""119313""
","
","
","""event"",""trial"",""time""
""fullscreenenter"",""5"",""119313""
","
","1164","","49","","","3000","1","","","images/earth.jpg","images/rocket1","images/rocket2","null","images/rocket2","","1","real","null","1","","",""
"d3-animate-choice","217","1201418","0.0-76.0-1.27","1403","1658","8","Female","false","false","false","false","""event"",""trial"",""time""
""fullscreenenter"",""5"",""119313""
","
","
","""event"",""trial"",""time""
""fullscreenenter"",""5"",""119313""
","
","738.1999999997206","","48","","","3000","1","","","images/purpleplanet.jpg","images/alien4","images/alien3","images/rocket2","images/alien4","images/t.png","2","real","false","2","rare","1","2022-05-05 22:35:12.788"
"two-step-fixation","218","1202422","0.0-76.0-2.27","1403","1658","8","Female","false","false","false","false","""event"",""trial"",""time""
""fullscreenenter"",""5"",""119313""
","
","
","""event"",""trial"",""time""
""fullscreenenter"",""5"",""119313""
","
","","images/earth.jpg","","","","","","","","","","","","","","fixation","","","","","",""
"d3-animate-choice","219","1205172","0.0-76.0-0.28","1403","1658","8","Female","false","false","false","false","""event"",""trial"",""time""
""fullscreenenter"",""5"",""119313""
","
","
","""event"",""trial"",""time""
""fullscreenenter"",""5"",""119313""
","
","743.6999999997206","","49","","","3000","1","","","images/earth.jpg","images/rocket1","images/rocket2","null","images/rocket2","","1","real","null","1","","",""
"d3-animate-choice","220","1208074","0.0-76.0-1.28","1403","1658","8","Female","false","false","false","false","""event"",""trial"",""time""
""fullscreenenter"",""5"",""119313""
","
","
","""event"",""trial"",""time""
""fullscreenenter"",""5"",""119313""
","
","895.1000000000931","","48","","","3000","1","","","images/redplanet1.jpg","images/alien2","images/alien1","images/rocket2","images/alien2","images/nothing.png","2","real","true","2","common","0","2022-05-05 22:35:19.444"
"two-step-fixation","221","1209081","0.0-76.0-2.28","1403","1658","8","Female","false","false","false","false","""event"",""trial"",""time""
""fullscreenenter"",""5"",""119313""
","
","
","""event"",""trial"",""time""
""fullscreenenter"",""5"",""119313""
","
","","images/earth.jpg","","","","","","","","","","","","","","fixation","","","","","",""
"d3-animate-choice","222","1211946","0.0-76.0-0.29","1403","1658","8","Female","false","false","false","false","""event"",""trial"",""time""
""fullscreenenter"",""5"",""119313""
","
","
","""event"",""trial"",""time""
""fullscreenenter"",""5"",""119313""
","
","857.4000000003725","","48","","","3000","1","","","images/earth.jpg","images/rocket1","images/rocket2","null","images/rocket1","","1","real","null","2","","",""
"d3-animate-choice","223","1214706","0.0-76.0-1.29","1403","1658","8","Female","false","false","false","false","""event"",""trial"",""time""
""fullscreenenter"",""5"",""119313""
","
","
","""event"",""trial"",""time""
""fullscreenenter"",""5"",""119313""
","
","752","","48","","","3000","1","","","images/redplanet1.jpg","images/alien2","images/alien1","images/rocket1","images/alien2","images/t.png","2","real","false","2","rare","1","2022-05-05 22:35:26.076"
"two-step-fixation","224","1215711","0.0-76.0-2.29","1403","1658","8","Female","false","false","false","false","""event"",""trial"",""time""
""fullscreenenter"",""5"",""119313""
","
","
","""event"",""trial"",""time""
""fullscreenenter"",""5"",""119313""
","
","","images/earth.jpg","","","","","","","","","","","","","","fixation","","","","","",""
"d3-animate-choice","225","1218203","0.0-76.0-0.30","1403","1658","8","Female","false","false","false","false","""event"",""trial"",""time""
""fullscreenenter"",""5"",""119313""
","
","
","""event"",""trial"",""time""
""fullscreenenter"",""5"",""119313""
","
","483.40000000037253","","49","","","3000","1","","","images/earth.jpg","images/rocket1","images/rocket2","null","images/rocket2","","1","real","null","1","","",""
"d3-animate-choice","226","1220974","0.0-76.0-1.30","1403","1658","8","Female","false","false","false","false","""event"",""trial"",""time""
""fullscreenenter"",""5"",""119313""
","
","
","""event"",""trial"",""time""
""fullscreenenter"",""5"",""119313""
","
","767.5","","48","","","3000","1","","","images/redplanet1.jpg","images/alien2","images/alien1","images/rocket2","images/alien2","images/nothing.png","2","real","true","2","common","0","2022-05-05 22:35:32.344"
"two-step-fixation","227","1221978","0.0-76.0-2.30","1403","1658","8","Female","false","false","false","false","""event"",""trial"",""time""
""fullscreenenter"",""5"",""119313""
","
","
","""event"",""trial"",""time""
""fullscreenenter"",""5"",""119313""
","
","","images/earth.jpg","","","","","","","","","","","","","","fixation","","","","","",""
"d3-animate-choice","228","1224371","0.0-76.0-0.31","1403","1658","8","Female","false","false","false","false","""event"",""trial"",""time""
""fullscreenenter"",""5"",""119313""
","
","
","""event"",""trial"",""time""
""fullscreenenter"",""5"",""119313""
","
","386.5","","48","","","3000","1","","","images/earth.jpg","images/rocket1","images/rocket2","null","images/rocket1","","1","real","null","2","","",""
"d3-animate-choice","229","1227899","0.0-76.0-1.31","1403","1658","8","Female","false","false","false","false","""event"",""trial"",""time""
""fullscreenenter"",""5"",""119313""
","
","
","""event"",""trial"",""time""
""fullscreenenter"",""5"",""119313""
","
","1523.7000000001863","","48","","","3000","1","","","images/redplanet1.jpg","images/alien2","images/alien1","images/rocket1","images/alien2","images/nothing.png","2","real","false","2","rare","0","2022-05-05 22:35:39.269"
"two-step-fixation","230","1228902","0.0-76.0-2.31","1403","1658","8","Female","false","false","false","false","""event"",""trial"",""time""
""fullscreenenter"",""5"",""119313""
","
","
","""event"",""trial"",""time""
""fullscreenenter"",""5"",""119313""
","
","","images/earth.jpg","","","","","","","","","","","","","","fixation","","","","","",""
"d3-animate-choice","231","1232087","0.0-76.0-0.32","1403","1658","8","Female","false","false","false","false","""event"",""trial"",""time""
""fullscreenenter"",""5"",""119313""
","
","
","""event"",""trial"",""time""
""fullscreenenter"",""5"",""119313""
","
","1175.7999999998137","","48","","","3000","1","","","images/earth.jpg","images/rocket1","images/rocket2","null","images/rocket1","","1","real","null","2","","",""
"d3-animate-choice","232","1234770","0.0-76.0-1.32","1403","1658","8","Female","false","false","false","false","""event"",""trial"",""time""
""fullscreenenter"",""5"",""119313""
","
","
","""event"",""trial"",""time""
""fullscreenenter"",""5"",""119313""
","
","676.3999999999069","","48","","","3000","1","","","images/redplanet1.jpg","images/alien2","images/alien1","images/rocket1","images/alien2","images/t.png","2","real","false","2","rare","1","2022-05-05 22:35:46.140"
"two-step-fixation","233","1235776","0.0-76.0-2.32","1403","1658","8","Female","false","false","false","false","""event"",""trial"",""time""
""fullscreenenter"",""5"",""119313""
","
","
","""event"",""trial"",""time""
""fullscreenenter"",""5"",""119313""
","
","","images/earth.jpg","","","","","","","","","","","","","","fixation","","","","","",""
"d3-animate-choice","234","1238782","0.0-76.0-0.33","1403","1658","8","Female","false","false","false","false","""event"",""trial"",""time""
""fullscreenenter"",""5"",""119313""
","
","
","""event"",""trial"",""time""
""fullscreenenter"",""5"",""119313""
","
","1003.3000000002794","","48","","","3000","1","","","images/earth.jpg","images/rocket1","images/rocket2","null","images/rocket1","","1","real","null","2","","",""
"d3-animate-choice","235","1241742","0.0-76.0-1.33","1403","1658","8","Female","false","false","false","false","""event"",""trial"",""time""
""fullscreenenter"",""5"",""119313""
","
","
","""event"",""trial"",""time""
""fullscreenenter"",""5"",""119313""
","
","956.7999999998137","","48","","","3000","1","","","images/purpleplanet.jpg","images/alien4","images/alien3","images/rocket1","images/alien4","images/t.png","2","real","true","2","common","1","2022-05-05 22:35:53.113"
"two-step-fixation","236","1242749","0.0-76.0-2.33","1403","1658","8","Female","false","false","false","false","""event"",""trial"",""time""
""fullscreenenter"",""5"",""119313""
","
","
","""event"",""trial"",""time""
""fullscreenenter"",""5"",""119313""
","
","","images/earth.jpg","","","","","","","","","","","","","","fixation","","","","","",""
"d3-animate-choice","237","1245370","0.0-76.0-0.34","1403","1658","8","Female","false","false","false","false","""event"",""trial"",""time""
""fullscreenenter"",""5"",""119313""
","
","
","""event"",""trial"",""time""
""fullscreenenter"",""5"",""119313""
","
","614.2999999998137","","48","","","3000","1","","","images/earth.jpg","images/rocket1","images/rocket2","null","images/rocket1","","1","real","null","2","","",""
"d3-animate-choice","238","1248151","0.0-76.0-1.34","1403","1658","8","Female","false","false","false","false","""event"",""trial"",""time""
""fullscreenenter"",""5"",""119313""
","
","
","""event"",""trial"",""time""
""fullscreenenter"",""5"",""119313""
","
","778.2000000001863","","48","","","3000","1","","","images/purpleplanet.jpg","images/alien4","images/alien3","images/rocket1","images/alien4","images/nothing.png","2","real","true","2","common","0","2022-05-05 22:35:59.521"
"two-step-fixation","239","1249158","0.0-76.0-2.34","1403","1658","8","Female","false","false","false","false","""event"",""trial"",""time""
""fullscreenenter"",""5"",""119313""
","
","
","""event"",""trial"",""time""
""fullscreenenter"",""5"",""119313""
","
","","images/earth.jpg","","","","","","","","","","","","","","fixation","","","","","",""
"d3-animate-choice","240","1252059","0.0-76.0-0.35","1403","1658","8","Female","false","false","false","false","""event"",""trial"",""time""
""fullscreenenter"",""5"",""119313""
","
","
","""event"",""trial"",""time""
""fullscreenenter"",""5"",""119313""
","
","893.5","","48","","","3000","1","","","images/earth.jpg","images/rocket1","images/rocket2","null","images/rocket1","","1","real","null","2","","",""
"d3-animate-choice","241","1256065","0.0-76.0-1.35","1403","1658","8","Female","false","false","false","false","""event"",""trial"",""time""
""fullscreenenter"",""5"",""119313""
","
","
","""event"",""trial"",""time""
""fullscreenenter"",""5"",""119313""
","
