"trial_type","trial_index","time_elapsed","internal_node_id","participant_id","subject_id","age","gender","rocket_sides","red_planet_first_rocket","red_display_order","purple_display_order","interactions","blur_events","focus_events","fullscreenenter_events","fullscreenexit_events","rt","stimulus","key_press","button_pressed","success","duration","valid_pressed","rts","keys","planet_text","right_text","left_text","center_text","chosen_text","reward_text","trial_stage","practice_trial","transition_type","choice","transition","reward","timestamp"
"pavlovia","0","5","0.0-0.0","2337","4955","8","Male","true","false","false","true","""event"",""trial"",""time""
""focus"",""1"",""4756""
","
","""event"",""trial"",""time""
""focus"",""1"",""4756""
","
","
","","","","","","","","","","","","","","","","","","","","","",""
"html-keyboard-response","1","6591","0.0-1.0","2337","4955","8","Male","true","false","false","true","""event"",""trial"",""time""
""focus"",""1"",""4756""
","
","""event"",""trial"",""time""
""focus"",""1"",""4756""
","
","
","6584","Welcome! Press the space bar to begin.","32","","","","","","","","","","","","","","","","","","",""
"audio-keyboard-response","2","14631","0.0-2.0","2337","4955","8","Male","true","false","false","true","""event"",""trial"",""time""
""focus"",""1"",""4756""
","
","""event"",""trial"",""time""
""focus"",""1"",""4756""
","
","
","7891","audio/beep_loop.wav","32","","","","","","","","","","","","","","","","","","",""
"audio-button-response","3","20517","0.0-3.0","2337","4955","8","Male","true","false","false","true","""event"",""trial"",""time""
""focus"",""1"",""4756""
","
","""event"",""trial"",""time""
""focus"",""1"",""4756""
","
","
","NaN","audio/fish.mp3","","1","","","","","","","","","","","","","","","","","",""
"audio-button-response","4","23310","0.0-4.0","2337","4955","8","Male","true","false","false","true","""event"",""trial"",""time""
""focus"",""1"",""4756""
""fullscreenenter"",""5"",""26198""
","
","""event"",""trial"",""time""
""focus"",""1"",""4756""
","""event"",""trial"",""time""
""fullscreenenter"",""5"",""26198""
","
","NaN","audio/tiger.mp3","","4","","","","","","","","","","","","","","","","","",""
"fullscreen","5","26959","0.0-5.0","2337","4955","8","Male","true","false","false","true","""event"",""trial"",""time""
""focus"",""1"",""4756""
""fullscreenenter"",""5"",""26198""
","
","""event"",""trial"",""time""
""focus"",""1"",""4756""
","""event"",""trial"",""time""
""fullscreenenter"",""5"",""26198""
","
","","","","","true","","","","","","","","","","","","","","","","",""
"d3-instructions","6","50926","0.0-6.0","2337","4955","8","Male","true","false","false","true","""event"",""trial"",""time""
""focus"",""1"",""4756""
""fullscreenenter"",""5"",""26198""
","
","""event"",""trial"",""time""
""focus"",""1"",""4756""
","""event"",""trial"",""time""
""fullscreenenter"",""5"",""26198""
","
","","","","","","","","","","","","","","","","","","","","","",""
"d3-instructions","7","52214","0.0-7.0","2337","4955","8","Male","true","false","false","true","""event"",""trial"",""time""
""focus"",""1"",""4756""
""fullscreenenter"",""5"",""26198""
","
","""event"",""trial"",""time""
""focus"",""1"",""4756""
","""event"",""trial"",""time""
""fullscreenenter"",""5"",""26198""
","
","","","","","","","","","","","","","","","","","","","","","",""
"d3-instructions","8","52806","0.0-8.0","2337","4955","8","Male","true","false","false","true","""event"",""trial"",""time""
""focus"",""1"",""4756""
""fullscreenenter"",""5"",""26198""
","
","""event"",""trial"",""time""
""focus"",""1"",""4756""
","""event"",""trial"",""time""
""fullscreenenter"",""5"",""26198""
","
","","","","","","","","","","","","","","","","","","","","","",""
"d3-instructions","9","53462","0.0-9.0","2337","4955","8","Male","true","false","false","true","""event"",""trial"",""time""
""focus"",""1"",""4756""
""fullscreenenter"",""5"",""26198""
","
","""event"",""trial"",""time""
""focus"",""1"",""4756""
","""event"",""trial"",""time""
""fullscreenenter"",""5"",""26198""
","
","","","","","","","","","","","","","","","","","","","","","",""
"d3-instructions","10","54015","0.0-10.0","2337","4955","8","Male","true","false","false","true","""event"",""trial"",""time""
""focus"",""1"",""4756""
""fullscreenenter"",""5"",""26198""
","
","""event"",""trial"",""time""
""focus"",""1"",""4756""
","""event"",""trial"",""time""
""fullscreenenter"",""5"",""26198""
","
","","","","","","","","","","","","","","","","","","","","","",""
"d3-animate-choice","11","57899","0.0-11.0","2337","4955","8","Male","true","false","false","true","""event"",""trial"",""time""
""focus"",""1"",""4756""
""fullscreenenter"",""5"",""26198""
","
","""event"",""trial"",""time""
""focus"",""1"",""4756""
","""event"",""trial"",""time""
""fullscreenenter"",""5"",""26198""
","
","261","","32","","","3000","1","509,805,1869,2148,2477,2758,3134,3405","32,32,49,49,49,49,49,49","images/tutgreenplanet.jpg","images/tutalien1","images/tutalien2","null","images/tutalien2","","NA","practice","null","","","",""
"d3-animate-choice","12","61301","0.0-12.0","2337","4955","8","Male","true","false","false","true","""event"",""trial"",""time""
""focus"",""1"",""4756""
""fullscreenenter"",""5"",""26198""
","
","""event"",""trial"",""time""
""focus"",""1"",""4756""
","""event"",""trial"",""time""
""fullscreenenter"",""5"",""26198""
","
","1376","","49","","","3000","1","","","images/tutgreenplanet.jpg","images/tutalien1","images/tutalien2","null","images/tutalien2","","NA","practice","null","","","",""
"d3-animate-choice","13","63760","0.0-13.0","2337","4955","8","Male","true","false","false","true","""event"",""trial"",""time""
""focus"",""1"",""4756""
""fullscreenenter"",""5"",""26198""
","
","""event"",""trial"",""time""
""focus"",""1"",""4756""
","""event"",""trial"",""time""
""fullscreenenter"",""5"",""26198""
","
","445","","49","","","3000","1","","","images/tutgreenplanet.jpg","images/tutalien1","images/tutalien2","null","images/tutalien2","","NA","practice","null","","","",""
"d3-animate-choice","14","65859","0.0-14.0","2337","4955","8","Male","true","false","false","true","""event"",""trial"",""time""
""focus"",""1"",""4756""
""fullscreenenter"",""5"",""26198""
","
","""event"",""trial"",""time""
""focus"",""1"",""4756""
","""event"",""trial"",""time""
""fullscreenenter"",""5"",""26198""
","
","84","","48","","","3000","1","","","images/tutgreenplanet.jpg","images/tutalien1","images/tutalien2","null","images/tutalien1","","NA","practice","null","","","",""
"d3-instructions","15","70175","0.0-15.0","2337","4955","8","Male","true","false","false","true","""event"",""trial"",""time""
""focus"",""1"",""4756""
""fullscreenenter"",""5"",""26198""
","
","""event"",""trial"",""time""
""focus"",""1"",""4756""
","""event"",""trial"",""time""
""fullscreenenter"",""5"",""26198""
","
","","","","","","","","","","","","","","","","","","","","","",""
"d3-instructions","16","70542","0.0-16.0","2337","4955","8","Male","true","false","false","true","""event"",""trial"",""time""
""focus"",""1"",""4756""
""fullscreenenter"",""5"",""26198""
","
","""event"",""trial"",""time""
""focus"",""1"",""4756""
","""event"",""trial"",""time""
""fullscreenenter"",""5"",""26198""
","
","","","","","","","","","","","","","","","","","","","","","",""
"d3-instructions","17","70838","0.0-17.0","2337","4955","8","Male","true","false","false","true","""event"",""trial"",""time""
""focus"",""1"",""4756""
""fullscreenenter"",""5"",""26198""
","
","""event"",""trial"",""time""
""focus"",""1"",""4756""
","""event"",""trial"",""time""
""fullscreenenter"",""5"",""26198""
","
","","","","","","","","","","","","","","","","","","","","","",""
"d3-instructions","18","71382","0.0-18.0","2337","4955","8","Male","true","false","false","true","""event"",""trial"",""time""
""focus"",""1"",""4756""
""fullscreenenter"",""5"",""26198""
","
","""event"",""trial"",""time""
""focus"",""1"",""4756""
","""event"",""trial"",""time""
""fullscreenenter"",""5"",""26198""
","
","","","","","","","","","","","","","","","","","","","","","",""
"d3-instructions","19","71646","0.0-19.0","2337","4955","8","Male","true","false","false","true","""event"",""trial"",""time""
""focus"",""1"",""4756""
""fullscreenenter"",""5"",""26198""
","
","""event"",""trial"",""time""
""focus"",""1"",""4756""
","""event"",""trial"",""time""
""fullscreenenter"",""5"",""26198""
","
","","","","","","","","","","","","","","","","","","","","","",""
"d3-animate-choice","20","75210","0.0-20.0","2337","4955","8","Male","true","false","false","true","""event"",""trial"",""time""
""focus"",""1"",""4756""
""fullscreenenter"",""5"",""26198""
","
","""event"",""trial"",""time""
""focus"",""1"",""4756""
","""event"",""trial"",""time""
""fullscreenenter"",""5"",""26198""
","
","1558","","49","","","3000","1","1846,2264,2614,3006,3349","49,49,49,49,49","images/tutyellowplanet.jpg","null","images/tutalien3","null","images/tutalien3","images/t.png","NA","practice","null","","","",""
"d3-animate-choice","21","77290","0.0-21.0","2337","4955","8","Male","true","false","false","true","""event"",""trial"",""time""
""focus"",""1"",""4756""
""fullscreenenter"",""5"",""26198""
","
","""event"",""trial"",""time""
""focus"",""1"",""4756""
","""event"",""trial"",""time""
""fullscreenenter"",""5"",""26198""
","
","74","","49","","","3000","1","362,626,1665,1921","49,49,49,49","images/tutyellowplanet.jpg","null","images/tutalien3","null","images/tutalien3","images/t.png","NA","practice","null","","","",""
"d3-animate-choice","22","79450","0.0-22.0","2337","4955","8","Male","true","false","false","true","""event"",""trial"",""time""
""focus"",""1"",""4756""
""fullscreenenter"",""5"",""26198""
","
","""event"",""trial"",""time""
""focus"",""1"",""4756""
","""event"",""trial"",""time""
""fullscreenenter"",""5"",""26198""
","
","139","","49","","","3000","1","418,753,1026,1290,1746,1954","49,49,49,49,48,48","images/tutyellowplanet.jpg","null","images/tutalien3","null","images/tutalien3","images/t.png","NA","practice","null","","","",""
"d3-animate-choice","23","82530","0.0-23.0","2337","4955","8","Male","true","false","false","true","""event"",""trial"",""time""
""focus"",""1"",""4756""
""fullscreenenter"",""5"",""26198""
","
","""event"",""trial"",""time""
""focus"",""1"",""4756""
","""event"",""trial"",""time""
""fullscreenenter"",""5"",""26198""
","
","9","","48","","","3000","1","217,409,618,841,1065,1069,1353,1723,1937,2209,2464,2712,2945","48,48,48,48,49,48,49,49,49,49,49,49,49","images/tutyellowplanet.jpg","null","images/tutalien3","null","images/tutalien3","images/t.png","NA","practice","null","","","",""
"d3-animate-choice","24","84650","0.0-24.0","2337","4955","8","Male","true","false","false","true","""event"",""trial"",""time""
""focus"",""1"",""4756""
""fullscreenenter"",""5"",""26198""
","
","""event"",""trial"",""time""
""focus"",""1"",""4756""
","""event"",""trial"",""time""
""fullscreenenter"",""5"",""26198""
","
","99","","49","","","3000","1","387,620,907,1187,1451,1722,1987","49,49,49,49,49,49,49","images/tutyellowplanet.jpg","null","images/tutalien3","null","images/tutalien3","images/t.png","NA","practice","null","","","",""
"d3-animate-choice","25","86830","0.0-25.0","2337","4955","8","Male","true","false","false","true","""event"",""trial"",""time""
""focus"",""1"",""4756""
""fullscreenenter"",""5"",""26198""
","
","""event"",""trial"",""time""
""focus"",""1"",""4756""
","""event"",""trial"",""time""
""fullscreenenter"",""5"",""26198""
","
","171","","49","","","3000","1","467,755,979,1235,1507,1755,2043","49,49,49,49,49,49,49","images/tutyellowplanet.jpg","null","images/tutalien3","null","images/tutalien3","images/t.png","NA","practice","null","","","",""
"d3-animate-choice","26","89010","0.0-26.0","2337","4955","8","Male","true","false","false","true","""event"",""trial"",""time""
""focus"",""1"",""4756""
""fullscreenenter"",""5"",""26198""
","
","""event"",""trial"",""time""
""focus"",""1"",""4756""
","""event"",""trial"",""time""
""fullscreenenter"",""5"",""26198""
","
","175","","49","","","3000","1","415,670,983,1223,1566,1847,2143","49,49,49,49,49,49,49","images/tutyellowplanet.jpg","null","images/tutalien3","null","images/tutalien3","images/nothing.png","NA","practice","null","","","",""
"d3-animate-choice","27","91250","0.0-27.0","2337","4955","8","Male","true","false","false","true","""event"",""trial"",""time""
""focus"",""1"",""4756""
""fullscreenenter"",""5"",""26198""
","
","""event"",""trial"",""time""
""focus"",""1"",""4756""
","""event"",""trial"",""time""
""fullscreenenter"",""5"",""26198""
","
","220","","49","","","3000","1","475,779,1082,1410,1700,1995","49,49,49,49,49,49","images/tutyellowplanet.jpg","null","images/tutalien3","null","images/tutalien3","images/t.png","NA","practice","null","","","",""
"d3-animate-choice","28","93310","0.0-28.0","2337","4955","8","Male","true","false","false","true","""event"",""trial"",""time""
""focus"",""1"",""4756""
""fullscreenenter"",""5"",""26198""
","
","""event"",""trial"",""time""
""focus"",""1"",""4756""
","""event"",""trial"",""time""
""fullscreenenter"",""5"",""26198""
","
","51","","49","","","3000","1","387,739,1060,1427,1715,1986","49,49,49,49,49,49","images/tutyellowplanet.jpg","null","images/tutalien3","null","images/tutalien3","images/t.png","NA","practice","null","","","",""
"d3-animate-choice","29","95750","0.0-29.0","2337","4955","8","Male","true","false","false","true","""event"",""trial"",""time""
""focus"",""1"",""4756""
""fullscreenenter"",""5"",""26198""
","
","""event"",""trial"",""time""
""focus"",""1"",""4756""
","""event"",""trial"",""time""
""fullscreenenter"",""5"",""26198""
","
","431","","49","","","3000","1","711,1015,1254,1574,1871,2175,2431","49,49,49,49,49,49,49","images/tutyellowplanet.jpg","null","images/tutalien3","null","images/tutalien3","images/nothing.png","NA","practice","null","","","",""
"d3-instructions","30","98847","0.0-30.0","2337","4955","8","Male","true","false","false","true","""event"",""trial"",""time""
""focus"",""1"",""4756""
""fullscreenenter"",""5"",""26198""
","
","""event"",""trial"",""time""
""focus"",""1"",""4756""
","""event"",""trial"",""time""
""fullscreenenter"",""5"",""26198""
","
","","","","","","","","","","","","","","","","","","","","","",""
"d3-instructions","31","99438","0.0-31.0","2337","4955","8","Male","true","false","false","true","""event"",""trial"",""time""
""focus"",""1"",""4756""
""fullscreenenter"",""5"",""26198""
","
","""event"",""trial"",""time""
""focus"",""1"",""4756""
","""event"",""trial"",""time""
""fullscreenenter"",""5"",""26198""
","
","","","","","","","","","","","","","","","","","","","","","",""
"d3-instructions","32","101054","0.0-32.0","2337","4955","8","Male","true","false","false","true","""event"",""trial"",""time""
""focus"",""1"",""4756""
""fullscreenenter"",""5"",""26198""
","
","""event"",""trial"",""time""
""focus"",""1"",""4756""
","""event"",""trial"",""time""
""fullscreenenter"",""5"",""26198""
","
","","","","","","","","","","","","","","","","","","","","","",""
"d3-instructions","33","101382","0.0-33.0","2337","4955","8","Male","true","false","false","true","""event"",""trial"",""time""
""focus"",""1"",""4756""
""fullscreenenter"",""5"",""26198""
","
","""event"",""trial"",""time""
""focus"",""1"",""4756""
","""event"",""trial"",""time""
""fullscreenenter"",""5"",""26198""
","
","","","","","","","","","","","","","","","","","","","","","",""
"d3-animate-choice","34","104579","0.0-34.0","2337","4955","8","Male","true","false","false","true","""event"",""trial"",""time""
""focus"",""1"",""4756""
""fullscreenenter"",""5"",""26198""
","
","""event"",""trial"",""time""
""focus"",""1"",""4756""
","""event"",""trial"",""time""
""fullscreenenter"",""5"",""26198""
","
","302","","32","","","3000","1","614,1182,1462,1798,2142,2718,2967","32,49,49,49,49,49,49","images/tutgreenplanet.jpg","images/tutalien1","images/tutalien2","null","images/tutalien2","images/t.png","NA","practice","null","","","",""
"d3-animate-choice","35","106999","0.0-35.0","2337","4955","8","Male","true","false","false","true","""event"",""trial"",""time""
""focus"",""1"",""4756""
""fullscreenenter"",""5"",""26198""
","
","""event"",""trial"",""time""
""focus"",""1"",""4756""
","""event"",""trial"",""time""
""fullscreenenter"",""5"",""26198""
","
","416","","49","","","3000","1","728,992,1322,1615,1960,2303","49,49,49,49,49,49","images/tutgreenplanet.jpg","images/tutalien1","images/tutalien2","null","images/tutalien2","images/t.png","NA","practice","null","","","",""
"d3-animate-choice","36","109199","0.0-36.0","2337","4955","8","Male","true","false","false","true","""event"",""trial"",""time""
""focus"",""1"",""4756""
""fullscreenenter"",""5"",""26198""
","
","""event"",""trial"",""time""
""focus"",""1"",""4756""
","""event"",""trial"",""time""
""fullscreenenter"",""5"",""26198""
","
","180","","49","","","3000","1","572,1196,1612,1955","49,49,49,49","images/tutgreenplanet.jpg","images/tutalien1","images/tutalien2","null","images/tutalien2","images/nothing.png","NA","practice","null","","","",""
"d3-animate-choice","37","111290","0.0-37.0","2337","4955","8","Male","true","false","false","true","""event"",""trial"",""time""
""focus"",""1"",""4756""
""fullscreenenter"",""5"",""26198""
","
","""event"",""trial"",""time""
""focus"",""1"",""4756""
","""event"",""trial"",""time""
""fullscreenenter"",""5"",""26198""
","
","83","","49","","","3000","1","364,684,1316,1563,1875","49,49,49,49,49","images/tutgreenplanet.jpg","images/tutalien1","images/tutalien2","null","images/tutalien2","images/t.png","NA","practice","null","","","",""
"d3-animate-choice","38","113409","0.0-38.0","2337","4955","8","Male","true","false","false","true","""event"",""trial"",""time""
""focus"",""1"",""4756""
""fullscreenenter"",""5"",""26198""
","
","""event"",""trial"",""time""
""focus"",""1"",""4756""
","""event"",""trial"",""time""
""fullscreenenter"",""5"",""26198""
","
","105","","49","","","3000","1","441,706,786,1081,1379,1650,1979","49,49,49,49,49,49,49","images/tutgreenplanet.jpg","images/tutalien1","images/tutalien2","null","images/tutalien2","images/t.png","NA","practice","null","","","",""
"d3-animate-choice","39","115669","0.0-39.0","2337","4955","8","Male","true","false","false","true","""event"",""trial"",""time""
""focus"",""1"",""4756""
""fullscreenenter"",""5"",""26198""
","
","""event"",""trial"",""time""
""focus"",""1"",""4756""
","""event"",""trial"",""time""
""fullscreenenter"",""5"",""26198""
","
","251","","49","","","3000","1","579,1691,1962","49,49,49","images/tutgreenplanet.jpg","images/tutalien1","images/tutalien2","null","images/tutalien2","images/t.png","NA","practice","null","","","",""
"d3-animate-choice","40","118327","0.0-40.0","2337","4955","8","Male","true","false","false","true","""event"",""trial"",""time""
""focus"",""1"",""4756""
""fullscreenenter"",""5"",""26198""
","
","""event"",""trial"",""time""
""focus"",""1"",""4756""
","""event"",""trial"",""time""
""fullscreenenter"",""5"",""26198""
","
","639","","49","","","3000","1","1206,2102","49,49","images/tutgreenplanet.jpg","images/tutalien1","images/tutalien2","null","images/tutalien2","images/t.png","NA","practice","null","","","",""
"d3-animate-choice","41","120359","0.0-41.0","2337","4955","8","Male","true","false","false","true","""event"",""trial"",""time""
""focus"",""1"",""4756""
""fullscreenenter"",""5"",""26198""
","
","""event"",""trial"",""time""
""focus"",""1"",""4756""
","""event"",""trial"",""time""
""fullscreenenter"",""5"",""26198""
","
","14","","49","","","3000","1","620,934,1356,1667,1940","49,49,49,49,49","images/tutgreenplanet.jpg","images/tutalien1","images/tutalien2","null","images/tutalien2","images/t.png","NA","practice","null","","","",""
"d3-animate-choice","42","122619","0.0-42.0","2337","4955","8","Male","true","false","false","true","""event"",""trial"",""time""
""focus"",""1"",""4756""
""fullscreenenter"",""5"",""26198""
","
","""event"",""trial"",""time""
""focus"",""1"",""4756""
","""event"",""trial"",""time""
""fullscreenenter"",""5"",""26198""
","
","243","","49","","","3000","1","588,1460,1731,2092","49,49,49,49","images/tutgreenplanet.jpg","images/tutalien1","images/tutalien2","null","images/tutalien2","images/t.png","NA","practice","null","","","",""
"d3-animate-choice","43","124740","0.0-43.0","2337","4955","8","Male","true","false","false","true","""event"",""trial"",""time""
""focus"",""1"",""4756""
""fullscreenenter"",""5"",""26198""
","
","""event"",""trial"",""time""
""focus"",""1"",""4756""
","""event"",""trial"",""time""
""fullscreenenter"",""5"",""26198""
","
","112","","49","","","3000","1","352,919,1152,1432,1784","49,49,49,49,49","images/tutgreenplanet.jpg","images/tutalien1","images/tutalien2","null","images/tutalien2","images/t.png","NA","practice","null","","","",""
"d3-instructions","44","130894","0.0-44.0","2337","4955","8","Male","true","false","false","true","""event"",""trial"",""time""
""focus"",""1"",""4756""
""fullscreenenter"",""5"",""26198""
","
","""event"",""trial"",""time""
""focus"",""1"",""4756""
","""event"",""trial"",""time""
""fullscreenenter"",""5"",""26198""
","
","","","","","","","","","","","","","","","","","","","","","",""
"d3-instructions","45","131462","0.0-45.0","2337","4955","8","Male","true","false","false","true","""event"",""trial"",""time""
""focus"",""1"",""4756""
""fullscreenenter"",""5"",""26198""
","
","""event"",""trial"",""time""
""focus"",""1"",""4756""
","""event"",""trial"",""time""
""fullscreenenter"",""5"",""26198""
","
","","","","","","","","","","","","","","","","","","","","","",""
"d3-instructions","46","132054","0.0-46.0","2337","4955","8","Male","true","false","false","true","""event"",""trial"",""time""
""focus"",""1"",""4756""
""fullscreenenter"",""5"",""26198""
","
","""event"",""trial"",""time""
""focus"",""1"",""4756""
","""event"",""trial"",""time""
""fullscreenenter"",""5"",""26198""
","
","","","","","","","","","","","","","","","","","","","","","",""
"d3-instructions","47","132534","0.0-47.0","2337","4955","8","Male","true","false","false","true","""event"",""trial"",""time""
""focus"",""1"",""4756""
""fullscreenenter"",""5"",""26198""
","
","""event"",""trial"",""time""
""focus"",""1"",""4756""
","""event"",""trial"",""time""
""fullscreenenter"",""5"",""26198""
","
","","","","","","","","","","","","","","","","","","","","","",""
"d3-instructions","48","132778","0.0-48.0","2337","4955","8","Male","true","false","false","true","""event"",""trial"",""time""
""focus"",""1"",""4756""
""fullscreenenter"",""5"",""26198""
","
","""event"",""trial"",""time""
""focus"",""1"",""4756""
","""event"",""trial"",""time""
""fullscreenenter"",""5"",""26198""
","
","","","","","","","","","","","","","","","","","","","","","",""
"d3-instructions","49","133222","0.0-49.0","2337","4955","8","Male","true","false","false","true","""event"",""trial"",""time""
""focus"",""1"",""4756""
""fullscreenenter"",""5"",""26198""
","
","""event"",""trial"",""time""
""focus"",""1"",""4756""
","""event"",""trial"",""time""
""fullscreenenter"",""5"",""26198""
","
","","","","","","","","","","","","","","","","","","","","","",""
"d3-instructions","50","133791","0.0-50.0","2337","4955","8","Male","true","false","false","true","""event"",""trial"",""time""
""focus"",""1"",""4756""
""fullscreenenter"",""5"",""26198""
","
","""event"",""trial"",""time""
""focus"",""1"",""4756""
","""event"",""trial"",""time""
""fullscreenenter"",""5"",""26198""
","
","","","","","","","","","","","","","","","","","","","","","",""
"d3-instructions","51","134118","0.0-51.0","2337","4955","8","Male","true","false","false","true","""event"",""trial"",""time""
""focus"",""1"",""4756""
""fullscreenenter"",""5"",""26198""
","
","""event"",""trial"",""time""
""focus"",""1"",""4756""
","""event"",""trial"",""time""
""fullscreenenter"",""5"",""26198""
","
","","","","","","","","","","","","","","","","","","","","","",""
"d3-instructions","52","134478","0.0-52.0","2337","4955","8","Male","true","false","false","true","""event"",""trial"",""time""
""focus"",""1"",""4756""
""fullscreenenter"",""5"",""26198""
","
","""event"",""trial"",""time""
""focus"",""1"",""4756""
","""event"",""trial"",""time""
""fullscreenenter"",""5"",""26198""
","
","","","","","","","","","","","","","","","","","","","","","",""
"d3-instructions","53","135038","0.0-53.0","2337","4955","8","Male","true","false","false","true","""event"",""trial"",""time""
""focus"",""1"",""4756""
""fullscreenenter"",""5"",""26198""
","
","""event"",""trial"",""time""
""focus"",""1"",""4756""
","""event"",""trial"",""time""
""fullscreenenter"",""5"",""26198""
","
","","","","","","","","","","","","","","","","","","","","","",""
"d3-instructions","54","135542","0.0-54.0","2337","4955","8","Male","true","false","false","true","""event"",""trial"",""time""
""focus"",""1"",""4756""
""fullscreenenter"",""5"",""26198""
","
","""event"",""trial"",""time""
""focus"",""1"",""4756""
","""event"",""trial"",""time""
""fullscreenenter"",""5"",""26198""
","
","","","","","","","","","","","","","","","","","","","","","",""
"d3-instructions","55","135991","0.0-55.0","2337","4955","8","Male","true","false","false","true","""event"",""trial"",""time""
""focus"",""1"",""4756""
""fullscreenenter"",""5"",""26198""
","
","""event"",""trial"",""time""
""focus"",""1"",""4756""
","""event"",""trial"",""time""
""fullscreenenter"",""5"",""26198""
","
","","","","","","","","","","","","","","","","","","","","","",""
"d3-instructions","56","136461","0.0-56.0","2337","4955","8","Male","true","false","false","true","""event"",""trial"",""time""
""focus"",""1"",""4756""
""fullscreenenter"",""5"",""26198""
","
","""event"",""trial"",""time""
""focus"",""1"",""4756""
","""event"",""trial"",""time""
""fullscreenenter"",""5"",""26198""
","
","","","","","","","","","","","","","","","","","","","","","",""
"d3-instructions","57","136950","0.0-57.0","2337","4955","8","Male","true","false","false","true","""event"",""trial"",""time""
""focus"",""1"",""4756""
""fullscreenenter"",""5"",""26198""
","
","""event"",""trial"",""time""
""focus"",""1"",""4756""
","""event"",""trial"",""time""
""fullscreenenter"",""5"",""26198""
","
","","","","","","","","","","","","","","","","","","","","","",""
"d3-instructions","58","137430","0.0-58.0","2337","4955","8","Male","true","false","false","true","""event"",""trial"",""time""
""focus"",""1"",""4756""
""fullscreenenter"",""5"",""26198""
","
","""event"",""trial"",""time""
""focus"",""1"",""4756""
","""event"",""trial"",""time""
""fullscreenenter"",""5"",""26198""
","
","","","","","","","","","","","","","","","","","","","","","",""
"d3-instructions","59","137919","0.0-59.0","2337","4955","8","Male","true","false","false","true","""event"",""trial"",""time""
""focus"",""1"",""4756""
""fullscreenenter"",""5"",""26198""
","
","""event"",""trial"",""time""
""focus"",""1"",""4756""
","""event"",""trial"",""time""
""fullscreenenter"",""5"",""26198""
","
","","","","","","","","","","","","","","","","","","","","","",""
"d3-instructions","60","138407","0.0-60.0","2337","4955","8","Male","true","false","false","true","""event"",""trial"",""time""
""focus"",""1"",""4756""
""fullscreenenter"",""5"",""26198""
","
","""event"",""trial"",""time""
""focus"",""1"",""4756""
","""event"",""trial"",""time""
""fullscreenenter"",""5"",""26198""
","
","","","","","","","","","","","","","","","","","","","","","",""
"d3-animate-choice","61","141771","0.0-61.0-0.0","2337","4955","8","Male","true","false","false","true","""event"",""trial"",""time""
""focus"",""1"",""4756""
""fullscreenenter"",""5"",""26198""
","
","""event"",""trial"",""time""
""focus"",""1"",""4756""
","""event"",""trial"",""time""
""fullscreenenter"",""5"",""26198""
","
","315","","32","","","3000","1","1339,1611,2003,2291,2739,3035","49,49,49,49,49,49","images/earth.jpg","images/tutrocket2","images/tutrocket1","null","images/tutrocket1","","1","practice","null","","","",""
"d3-animate-choice","62","144349","0.0-61.0-1.0","2337","4955","8","Male","true","false","false","true","""event"",""trial"",""time""
""focus"",""1"",""4756""
""fullscreenenter"",""5"",""26198""
","
","""event"",""trial"",""time""
""focus"",""1"",""4756""
","""event"",""trial"",""time""
""fullscreenenter"",""5"",""26198""
","
","559","","49","","","3000","1","2135","49","images/tutyellowplanet.jpg","images/tutalien4","images/tutalien3","images/tutrocket1","images/tutalien3","images/nothing.png","2","practice","true","1","common","0","2022-12-07 00:25:23.138"
"two-step-fixation","63","145370","0.0-61.0-2.0","2337","4955","8","Male","true","false","false","true","""event"",""trial"",""time""
""focus"",""1"",""4756""
""fullscreenenter"",""5"",""26198""
","
","""event"",""trial"",""time""
""focus"",""1"",""4756""
","""event"",""trial"",""time""
""fullscreenenter"",""5"",""26198""
","
","","images/earth.jpg","","","","","","","","","","","","","","fixation","","","","","",""
"d3-animate-choice","64","147590","0.0-61.0-0.1","2337","4955","8","Male","true","false","false","true","""event"",""trial"",""time""
""focus"",""1"",""4756""
""fullscreenenter"",""5"",""26198""
","
","""event"",""trial"",""time""
""focus"",""1"",""4756""
","""event"",""trial"",""time""
""fullscreenenter"",""5"",""26198""
","
","211","","48","","","3000","1","475,1130,1442,2067","48,48,48,48","images/earth.jpg","images/tutrocket2","images/tutrocket1","null","images/tutrocket2","","1","practice","null","2","","",""
"d3-animate-choice","65","149849","0.0-61.0-1.1","2337","4955","8","Male","true","false","false","true","""event"",""trial"",""time""
""focus"",""1"",""4756""
""fullscreenenter"",""5"",""26198""
","
","""event"",""trial"",""time""
""focus"",""1"",""4756""
","""event"",""trial"",""time""
""fullscreenenter"",""5"",""26198""
","
","246","","48","","","3000","1","1021,1381,1701,1966,2230","48,48,48,48,48","images/tutyellowplanet.jpg","images/tutalien4","images/tutalien3","images/tutrocket2","images/tutalien4","images/t.png","2","practice","false","2","rare","1","2022-12-07 00:25:28.638"
"two-step-fixation","66","150870","0.0-61.0-2.1","2337","4955","8","Male","true","false","false","true","""event"",""trial"",""time""
""focus"",""1"",""4756""
""fullscreenenter"",""5"",""26198""
","
","""event"",""trial"",""time""
""focus"",""1"",""4756""
","""event"",""trial"",""time""
""fullscreenenter"",""5"",""26198""
","
","","images/earth.jpg","","","","","","","","","","","","","","fixation","","","","","",""
"d3-animate-choice","67","153029","0.0-61.0-0.2","2337","4955","8","Male","true","false","false","true","""event"",""trial"",""time""
""focus"",""1"",""4756""
""fullscreenenter"",""5"",""26198""
","
","""event"",""trial"",""time""
""focus"",""1"",""4756""
","""event"",""trial"",""time""
""fullscreenenter"",""5"",""26198""
","
","141","","48","","","3000","1","413,661,918,1149,1399,1710","48,48,48,48,48,48","images/earth.jpg","images/tutrocket2","images/tutrocket1","null","images/tutrocket2","","1","practice","null","2","","",""
"d3-animate-choice","68","155050","0.0-61.0-1.2","2337","4955","8","Male","true","false","false","true","""event"",""trial"",""time""
""focus"",""1"",""4756""
""fullscreenenter"",""5"",""26198""
","
","""event"",""trial"",""time""
""focus"",""1"",""4756""
","""event"",""trial"",""time""
""fullscreenenter"",""5"",""26198""
","
","13","","48","","","3000","1","188,428,733,1021,1293","48,48,48,48,48","images/tutgreenplanet.jpg","images/tutalien2","images/tutalien1","images/tutrocket2","images/tutalien2","images/t.png","2","practice","true","2","common","1","2022-12-07 00:25:33.838"
"two-step-fixation","69","156060","0.0-61.0-2.2","2337","4955","8","Male","true","false","false","true","""event"",""trial"",""time""
""focus"",""1"",""4756""
""fullscreenenter"",""5"",""26198""
","
","""event"",""trial"",""time""
""focus"",""1"",""4756""
","""event"",""trial"",""time""
""fullscreenenter"",""5"",""26198""
","
","","images/earth.jpg","","","","","","","","","","","","","","fixation","","","","","",""
"d3-animate-choice","70","158299","0.0-61.0-0.3","2337","4955","8","Male","true","false","false","true","""event"",""trial"",""time""
""focus"",""1"",""4756""
""fullscreenenter"",""5"",""26198""
","
","""event"",""trial"",""time""
""focus"",""1"",""4756""
","""event"",""trial"",""time""
""fullscreenenter"",""5"",""26198""
","
","233","","48","","","3000","1","481,841,1649,1929","48,48,48,48","images/earth.jpg","images/tutrocket2","images/tutrocket1","null","images/tutrocket2","","1","practice","null","2","","",""
"d3-animate-choice","71","160379","0.0-61.0-1.3","2337","4955","8","Male","true","false","false","true","""event"",""trial"",""time""
""focus"",""1"",""4756""
""fullscreenenter"",""5"",""26198""
","
","""event"",""trial"",""time""
""focus"",""1"",""4756""
","""event"",""trial"",""time""
""fullscreenenter"",""5"",""26198""
","
","72","","48","","","3000","1","304,759,976,1159,1224,1504,1759,1816,2064","48,48,48,48,57,48,48,57,48","images/tutyellowplanet.jpg","images/tutalien4","images/tutalien3","images/tutrocket2","images/tutalien4","images/t.png","2","practice","false","2","rare","1","2022-12-07 00:25:39.167"
"two-step-fixation","72","161400","0.0-61.0-2.3","2337","4955","8","Male","true","false","false","true","""event"",""trial"",""time""
""focus"",""1"",""4756""
""fullscreenenter"",""5"",""26198""
","
","""event"",""trial"",""time""
""focus"",""1"",""4756""
","""event"",""trial"",""time""
""fullscreenenter"",""5"",""26198""
","
","","images/earth.jpg","","","","","","","","","","","","","","fixation","","","","","",""
"d3-animate-choice","73","163479","0.0-61.0-0.4","2337","4955","8","Male","true","false","false","true","""event"",""trial"",""time""
""focus"",""1"",""4756""
""fullscreenenter"",""5"",""26198""
","
","""event"",""trial"",""time""
""focus"",""1"",""4756""
","""event"",""trial"",""time""
""fullscreenenter"",""5"",""26198""
","
","68","","48","","","3000","1","444,1092,1451","48,48,48","images/earth.jpg","images/tutrocket2","images/tutrocket1","null","images/tutrocket2","","1","practice","null","2","","",""
"d3-animate-choice","74","165609","0.0-61.0-1.4","2337","4955","8","Male","true","false","false","true","""event"",""trial"",""time""
""focus"",""1"",""4756""
""fullscreenenter"",""5"",""26198""
","
","""event"",""trial"",""time""
""focus"",""1"",""4756""
","""event"",""trial"",""time""
""fullscreenenter"",""5"",""26198""
","
","124","","48","","","3000","1","524,1636","48,48","images/tutgreenplanet.jpg","images/tutalien2","images/tutalien1","images/tutrocket2","images/tutalien2","images/nothing.png","2","practice","true","2","common","0","2022-12-07 00:25:44.397"
"two-step-fixation","75","166630","0.0-61.0-2.4","2337","4955","8","Male","true","false","false","true","""event"",""trial"",""time""
""focus"",""1"",""4756""
""fullscreenenter"",""5"",""26198""
","
","""event"",""trial"",""time""
""focus"",""1"",""4756""
","""event"",""trial"",""time""
""fullscreenenter"",""5"",""26198""
","
","","images/earth.jpg","","","","","","","","","","","","","","fixation","","","","","",""
"d3-animate-choice","76","168729","0.0-61.0-0.5","2337","4955","8","Male","true","false","false","true","""event"",""trial"",""time""
""focus"",""1"",""4756""
""fullscreenenter"",""5"",""26198""
","
","""event"",""trial"",""time""
""focus"",""1"",""4756""
","""event"",""trial"",""time""
""fullscreenenter"",""5"",""26198""
","
","87","","48","","","3000","1","366,959","48,48","images/earth.jpg","images/tutrocket2","images/tutrocket1","null","images/tutrocket2","","1","practice","null","2","","",""
"d3-animate-choice","77","171250","0.0-61.0-1.5","2337","4955","8","Male","true","false","false","true","""event"",""trial"",""time""
""focus"",""1"",""4756""
""fullscreenenter"",""5"",""26198""
","
","""event"",""trial"",""time""
""focus"",""1"",""4756""
","""event"",""trial"",""time""
""fullscreenenter"",""5"",""26198""
","
","507","","48","","","3000","1","2307","48","images/tutgreenplanet.jpg","images/tutalien2","images/tutalien1","images/tutrocket2","images/tutalien2","images/nothing.png","2","practice","true","2","common","0","2022-12-07 00:25:50.038"
"two-step-fixation","78","172270","0.0-61.0-2.5","2337","4955","8","Male","true","false","false","true","""event"",""trial"",""time""
""focus"",""1"",""4756""
""fullscreenenter"",""5"",""26198""
","
","""event"",""trial"",""time""
""focus"",""1"",""4756""
","""event"",""trial"",""time""
""fullscreenenter"",""5"",""26198""
","
","","images/earth.jpg","","","","","","","","","","","","","","fixation","","","","","",""
"d3-animate-choice","79","174530","0.0-61.0-0.6","2337","4955","8","Male","true","false","false","true","""event"",""trial"",""time""
""focus"",""1"",""4756""
""fullscreenenter"",""5"",""26198""
","
","""event"",""trial"",""time""
""focus"",""1"",""4756""
","""event"",""trial"",""time""
""fullscreenenter"",""5"",""26198""
","
","245","","48","","","3000","1","1534,2125","48,48","images/earth.jpg","images/tutrocket2","images/tutrocket1","null","images/tutrocket2","","1","practice","null","2","","",""
"d3-animate-choice","80","176989","0.0-61.0-1.6","2337","4955","8","Male","true","false","false","true","""event"",""trial"",""time""
""focus"",""1"",""4756""
""fullscreenenter"",""5"",""26198""
","
","""event"",""trial"",""time""
""focus"",""1"",""4756""
","""event"",""trial"",""time""
""fullscreenenter"",""5"",""26198""
","
","441","","48","","","3000","1","1299,1506,1706,1812,1961,2010,2170,2171,2362,2363","48,48,48,49,48,49,49,48,49,48","images/tutgreenplanet.jpg","images/tutalien2","images/tutalien1","images/tutrocket2","images/tutalien2","images/nothing.png","2","practice","true","2","common","0","2022-12-07 00:25:55.777"
"two-step-fixation","81","178009","0.0-61.0-2.6","2337","4955","8","Male","true","false","false","true","""event"",""trial"",""time""
""focus"",""1"",""4756""
""fullscreenenter"",""5"",""26198""
","
","""event"",""trial"",""time""
""focus"",""1"",""4756""
","""event"",""trial"",""time""
""fullscreenenter"",""5"",""26198""
","
","","images/earth.jpg","","","","","","","","","","","","","","fixation","","","","","",""
"d3-animate-choice","82","180090","0.0-61.0-0.7","2337","4955","8","Male","true","false","false","true","""event"",""trial"",""time""
""focus"",""1"",""4756""
""fullscreenenter"",""5"",""26198""
","
","""event"",""trial"",""time""
""focus"",""1"",""4756""
","""event"",""trial"",""time""
""fullscreenenter"",""5"",""26198""
","
","75","","48","","","3000","1","92,251,291,490,707,915,1146,1370,1635,1874","49,48,49,48,48,48,48,48,48,48","images/earth.jpg","images/tutrocket2","images/tutrocket1","null","images/tutrocket2","","1","practice","null","2","","",""
"d3-animate-choice","83","182359","0.0-61.0-1.7","2337","4955","8","Male","true","false","false","true","""event"",""trial"",""time""
""focus"",""1"",""4756""
""fullscreenenter"",""5"",""26198""
","
","""event"",""trial"",""time""
""focus"",""1"",""4756""
","""event"",""trial"",""time""
""fullscreenenter"",""5"",""26198""
","
","249","","48","","","3000","1","530,762,985,1426,1585,1771,1969,2194","48,48,48,48,48,48,48,48","images/tutyellowplanet.jpg","images/tutalien4","images/tutalien3","images/tutrocket2","images/tutalien4","images/t.png","2","practice","false","2","rare","1","2022-12-07 00:26:01.147"
"two-step-fixation","84","183379","0.0-61.0-2.7","2337","4955","8","Male","true","false","false","true","""event"",""trial"",""time""
""focus"",""1"",""4756""
""fullscreenenter"",""5"",""26198""
","
","""event"",""trial"",""time""
""focus"",""1"",""4756""
","""event"",""trial"",""time""
""fullscreenenter"",""5"",""26198""
","
","","images/earth.jpg","","","","","","","","","","","","","","fixation","","","","","",""
"d3-animate-choice","85","185419","0.0-61.0-0.8","2337","4955","8","Male","true","false","false","true","""event"",""trial"",""time""
""focus"",""1"",""4756""
""fullscreenenter"",""5"",""26198""
","
","""event"",""trial"",""time""
""focus"",""1"",""4756""
","""event"",""trial"",""time""
""fullscreenenter"",""5"",""26198""
","
","31","","48","","","3000","1","215,449,649,864,1056,1295,1599,1816","48,48,48,48,48,48,48,48","images/earth.jpg","images/tutrocket2","images/tutrocket1","null","images/tutrocket2","","1","practice","null","2","","",""
"d3-animate-choice","86","187459","0.0-61.0-1.8","2337","4955","8","Male","true","false","false","true","""event"",""trial"",""time""
""focus"",""1"",""4756""
""fullscreenenter"",""5"",""26198""
","
","""event"",""trial"",""time""
""focus"",""1"",""4756""
","""event"",""trial"",""time""
""fullscreenenter"",""5"",""26198""
","
","25","","48","","","3000","1","256,473,665,872,1057,1289,1513,1712,1930","48,48,48,48,48,48,48,48,48","images/tutgreenplanet.jpg","images/tutalien2","images/tutalien1","images/tutrocket2","images/tutalien2","images/t.png","2","practice","true","2","common","1","2022-12-07 00:26:06.247"
"two-step-fixation","87","188479","0.0-61.0-2.8","2337","4955","8","Male","true","false","false","true","""event"",""trial"",""time""
""focus"",""1"",""4756""
""fullscreenenter"",""5"",""26198""
","
","""event"",""trial"",""time""
""focus"",""1"",""4756""
","""event"",""trial"",""time""
""fullscreenenter"",""5"",""26198""
","
","","images/earth.jpg","","","","","","","","","","","","","","fixation","","","","","",""
"d3-animate-choice","88","190579","0.0-61.0-0.9","2337","4955","8","Male","true","false","false","true","""event"",""trial"",""time""
""focus"",""1"",""4756""
""fullscreenenter"",""5"",""26198""
","
","""event"",""trial"",""time""
""focus"",""1"",""4756""
","""event"",""trial"",""time""
""fullscreenenter"",""5"",""26198""
","
","84","","48","","","3000","1","301,573,877,1084,1301,1516,1725,1997","48,48,48,48,48,48,48,48","images/earth.jpg","images/tutrocket2","images/tutrocket1","null","images/tutrocket2","","1","practice","null","2","","",""
"d3-animate-choice","89","192719","0.0-61.0-1.9","2337","4955","8","Male","true","false","false","true","""event"",""trial"",""time""
""focus"",""1"",""4756""
""fullscreenenter"",""5"",""26198""
","
","""event"",""trial"",""time""
""focus"",""1"",""4756""
","""event"",""trial"",""time""
""fullscreenenter"",""5"",""26198""
","
","120","","48","","","3000","1","584,1048,1290,1511,1728,1975","48,48,48,48,48,48","images/tutgreenplanet.jpg","images/tutalien2","images/tutalien1","images/tutrocket2","images/tutalien2","images/nothing.png","2","practice","true","2","common","0","2022-12-07 00:26:11.507"
"two-step-fixation","90","193739","0.0-61.0-2.9","2337","4955","8","Male","true","false","false","true","""event"",""trial"",""time""
""focus"",""1"",""4756""
""fullscreenenter"",""5"",""26198""
","
","""event"",""trial"",""time""
""focus"",""1"",""4756""
","""event"",""trial"",""time""
""fullscreenenter"",""5"",""26198""
","
","","images/earth.jpg","","","","","","","","","","","","","","fixation","","","","","",""
"d3-animate-choice","91","195779","0.0-61.0-0.10","2337","4955","8","Male","true","false","false","true","""event"",""trial"",""time""
""focus"",""1"",""4756""
""fullscreenenter"",""5"",""26198""
","
","""event"",""trial"",""time""
""focus"",""1"",""4756""
","""event"",""trial"",""time""
""fullscreenenter"",""5"",""26198""
","
","25","","48","","","3000","1","273,504,760,1001,1296,1584,1841","48,48,48,48,48,48,48","images/earth.jpg","images/tutrocket2","images/tutrocket1","null","images/tutrocket2","","1","practice","null","2","","",""
"d3-animate-choice","92","197840","0.0-61.0-1.10","2337","4955","8","Male","true","false","false","true","""event"",""trial"",""time""
""focus"",""1"",""4756""
""fullscreenenter"",""5"",""26198""
","
","""event"",""trial"",""time""
""focus"",""1"",""4756""
","""event"",""trial"",""time""
""fullscreenenter"",""5"",""26198""
","
","48","","48","","","3000","1","296,760,1031,1271,1504,1768,1984","48,48,48,48,48,48,48","images/tutyellowplanet.jpg","images/tutalien4","images/tutalien3","images/tutrocket2","images/tutalien4","images/nothing.png","2","practice","false","2","rare","0","2022-12-07 00:26:16.628"
"two-step-fixation","93","198859","0.0-61.0-2.10","2337","4955","8","Male","true","false","false","true","""event"",""trial"",""time""
""focus"",""1"",""4756""
""fullscreenenter"",""5"",""26198""
","
","""event"",""trial"",""time""
""focus"",""1"",""4756""
","""event"",""trial"",""time""
""fullscreenenter"",""5"",""26198""
","
","","images/earth.jpg","","","","","","","","","","","","","","fixation","","","","","",""
"d3-animate-choice","94","200935","0.0-61.0-0.11","2337","4955","8","Male","true","false","false","true","""event"",""trial"",""time""
""focus"",""1"",""4756""
""fullscreenenter"",""5"",""26198""
","
","""event"",""trial"",""time""
""focus"",""1"",""4756""
","""event"",""trial"",""time""
""fullscreenenter"",""5"",""26198""
","
","73","","48","","","3000","1","297,513,817,1040,1289,1584,1800,2025","48,48,48,48,48,48,48,48","images/earth.jpg","images/tutrocket2","images/tutrocket1","null","images/tutrocket2","","1","practice","null","2","","",""
"d3-animate-choice","95","203164","0.0-61.0-1.11","2337","4955","8","Male","true","false","false","true","""event"",""trial"",""time""
""focus"",""1"",""4756""
""fullscreenenter"",""5"",""26198""
","
","""event"",""trial"",""time""
""focus"",""1"",""4756""
","""event"",""trial"",""time""
""fullscreenenter"",""5"",""26198""
","
","213","","48","","","3000","1","437,701,981,1228,1469,1708,1949,2150","48,48,48,48,48,48,48,48","images/tutgreenplanet.jpg","images/tutalien2","images/tutalien1","images/tutrocket2","images/tutalien2","images/t.png","2","practice","true","2","common","1","2022-12-07 00:26:21.952"
"two-step-fixation","96","204180","0.0-61.0-2.11","2337","4955","8","Male","true","false","false","true","""event"",""trial"",""time""
""focus"",""1"",""4756""
""fullscreenenter"",""5"",""26198""
","
","""event"",""trial"",""time""
""focus"",""1"",""4756""
","""event"",""trial"",""time""
""fullscreenenter"",""5"",""26198""
","
","","images/earth.jpg","","","","","","","","","","","","","","fixation","","","","","",""
"d3-animate-choice","97","206300","0.0-61.0-0.12","2337","4955","8","Male","true","false","false","true","""event"",""trial"",""time""
""focus"",""1"",""4756""
""fullscreenenter"",""5"",""26198""
","
","""event"",""trial"",""time""
""focus"",""1"",""4756""
","""event"",""trial"",""time""
""fullscreenenter"",""5"",""26198""
","
","111","","48","","","3000","1","344,584,808,1063,1312,1512,1776,2024","48,48,48,48,48,48,48,48","images/earth.jpg","images/tutrocket2","images/tutrocket1","null","images/tutrocket2","","1","practice","null","2","","",""
"d3-animate-choice","98","208459","0.0-61.0-1.12","2337","4955","8","Male","true","false","false","true","""event"",""trial"",""time""
""focus"",""1"",""4756""
""fullscreenenter"",""5"",""26198""
","
","""event"",""trial"",""time""
""focus"",""1"",""4756""
","""event"",""trial"",""time""
""fullscreenenter"",""5"",""26198""
","
","154","","48","","","3000","1","418,649,896,1170,1410,1640,1856,2080","48,48,48,48,48,48,48,48","images/tutgreenplanet.jpg","images/tutalien2","images/tutalien1","images/tutrocket2","images/tutalien2","images/t.png","2","practice","true","2","common","1","2022-12-07 00:26:27.247"
"two-step-fixation","99","209479","0.0-61.0-2.12","2337","4955","8","Male","true","false","false","true","""event"",""trial"",""time""
""focus"",""1"",""4756""
""fullscreenenter"",""5"",""26198""
","
","""event"",""trial"",""time""
""focus"",""1"",""4756""
","""event"",""trial"",""time""
""fullscreenenter"",""5"",""26198""
","
","","images/earth.jpg","","","","","","","","","","","","","","fixation","","","","","",""
"d3-animate-choice","100","211659","0.0-61.0-0.13","2337","4955","8","Male","true","false","false","true","""event"",""trial"",""time""
""focus"",""1"",""4756""
""fullscreenenter"",""5"",""26198""
","
","""event"",""trial"",""time""
""focus"",""1"",""4756""
","""event"",""trial"",""time""
""fullscreenenter"",""5"",""26198""
","
","171","","48","","","3000","1","452,692,940,1140,1412,1644,1852,2140","48,48,48,48,48,48,48,48","images/earth.jpg","images/tutrocket2","images/tutrocket1","null","images/tutrocket2","","1","practice","null","2","","",""
"d3-animate-choice","101","213837","0.0-61.0-1.13","2337","4955","8","Male","true","false","false","true","""event"",""trial"",""time""
""focus"",""1"",""4756""
""fullscreenenter"",""5"",""26198""
","
","""event"",""trial"",""time""
""focus"",""1"",""4756""
","""event"",""trial"",""time""
""fullscreenenter"",""5"",""26198""
","
","169","","48","","","3000","1","400,624,1191,1456,1672,1929","48,48,48,48,48,48","images/tutgreenplanet.jpg","images/tutalien2","images/tutalien1","images/tutrocket2","images/tutalien2","images/t.png","2","practice","true","2","common","1","2022-12-07 00:26:32.625"
"two-step-fixation","102","214859","0.0-61.0-2.13","2337","4955","8","Male","true","false","false","true","""event"",""trial"",""time""
""focus"",""1"",""4756""
""fullscreenenter"",""5"",""26198""
","
","""event"",""trial"",""time""
""focus"",""1"",""4756""
","""event"",""trial"",""time""
""fullscreenenter"",""5"",""26198""
","
","","images/earth.jpg","","","","","","","","","","","","","","fixation","","","","","",""
"d3-animate-choice","103","217080","0.0-61.0-0.14","2337","4955","8","Male","true","false","false","true","""event"",""trial"",""time""
""focus"",""1"",""4756""
""fullscreenenter"",""5"",""26198""
","
","""event"",""trial"",""time""
""focus"",""1"",""4756""
","""event"",""trial"",""time""
""fullscreenenter"",""5"",""26198""
","
","209","","48","","","3000","1","432,680,930,1097,1337,1569,1784,2049,2216","48,48,48,48,48,48,48,48,48","images/earth.jpg","images/tutrocket2","images/tutrocket1","null","images/tutrocket2","","1","practice","null","2","","",""
"d3-animate-choice","104","219349","0.0-61.0-1.14","2337","4955","8","Male","true","false","false","true","""event"",""trial"",""time""
""focus"",""1"",""4756""
""fullscreenenter"",""5"",""26198""
","
","""event"",""trial"",""time""
""focus"",""1"",""4756""
","""event"",""trial"",""time""
""fullscreenenter"",""5"",""26198""
","
","261","","48","","","3000","1","469,700,932,1164,1380,1629,1852,2124","48,48,48,48,48,48,48,48","images/tutgreenplanet.jpg","images/tutalien2","images/tutalien1","images/tutrocket2","images/tutalien2","images/t.png","2","practice","true","2","common","1","2022-12-07 00:26:38.137"
"two-step-fixation","105","220370","0.0-61.0-2.14","2337","4955","8","Male","true","false","false","true","""event"",""trial"",""time""
""focus"",""1"",""4756""
""fullscreenenter"",""5"",""26198""
","
","""event"",""trial"",""time""
""focus"",""1"",""4756""
","""event"",""trial"",""time""
""fullscreenenter"",""5"",""26198""
","
","","images/earth.jpg","","","","","","","","","","","","","","fixation","","","","","",""
"d3-animate-choice","106","222389","0.0-61.0-0.15","2337","4955","8","Male","true","false","false","true","""event"",""trial"",""time""
""focus"",""1"",""4756""
""fullscreenenter"",""5"",""26198""
","
","""event"",""trial"",""time""
""focus"",""1"",""4756""
","""event"",""trial"",""time""
""fullscreenenter"",""5"",""26198""
","
","8","","48","","","3000","1","257,537,808,1049,1352,1569","48,48,48,48,48,48","images/earth.jpg","images/tutrocket2","images/tutrocket1","null","images/tutrocket2","","1","practice","null","2","","",""
"d3-animate-choice","107","225209","0.0-61.0-1.15","2337","4955","8","Male","true","false","false","true","""event"",""trial"",""time""
""focus"",""1"",""4756""
""fullscreenenter"",""5"",""26198""
","
","""event"",""trial"",""time""
""focus"",""1"",""4756""
","""event"",""trial"",""time""
""fullscreenenter"",""5"",""26198""
","
","806","","48","","","3000","1","1119,1374,1661,1918,2182,2430,2661","48,48,48,48,48,48,48","images/tutyellowplanet.jpg","images/tutalien4","images/tutalien3","images/tutrocket2","images/tutalien4","images/t.png","2","practice","false","2","rare","1","2022-12-07 00:26:43.997"
"two-step-fixation","108","226229","0.0-61.0-2.15","2337","4955","8","Male","true","false","false","true","""event"",""trial"",""time""
""focus"",""1"",""4756""
""fullscreenenter"",""5"",""26198""
","
","""event"",""trial"",""time""
""focus"",""1"",""4756""
","""event"",""trial"",""time""
""fullscreenenter"",""5"",""26198""
","
","","images/earth.jpg","","","","","","","","","","","","","","fixation","","","","","",""
"d3-animate-choice","109","228359","0.0-61.0-0.16","2337","4955","8","Male","true","false","false","true","""event"",""trial"",""time""
""focus"",""1"",""4756""
""fullscreenenter"",""5"",""26198""
","
","""event"",""trial"",""time""
""focus"",""1"",""4756""
","""event"",""trial"",""time""
""fullscreenenter"",""5"",""26198""
","
","118","","48","","","3000","1","366,686,934,1222,1438,1742,2029","48,48,48,48,48,48,48","images/earth.jpg","images/tutrocket2","images/tutrocket1","null","images/tutrocket2","","1","practice","null","2","","",""
"d3-animate-choice","110","230540","0.0-61.0-1.16","2337","4955","8","Male","true","false","false","true","""event"",""trial"",""time""
""focus"",""1"",""4756""
""fullscreenenter"",""5"",""26198""
","
","""event"",""trial"",""time""
""focus"",""1"",""4756""
","""event"",""trial"",""time""
""fullscreenenter"",""5"",""26198""
","
","172","","48","","","3000","1","443,715,923,1180,1428,1683,1924","48,48,48,48,48,48,48","images/tutyellowplanet.jpg","images/tutalien4","images/tutalien3","images/tutrocket2","images/tutalien4","images/nothing.png","2","practice","false","2","rare","0","2022-12-07 00:26:49.328"
"two-step-fixation","111","231559","0.0-61.0-2.16","2337","4955","8","Male","true","false","false","true","""event"",""trial"",""time""
""focus"",""1"",""4756""
""fullscreenenter"",""5"",""26198""
","
","""event"",""trial"",""time""
""focus"",""1"",""4756""
","""event"",""trial"",""time""
""fullscreenenter"",""5"",""26198""
","
","","images/earth.jpg","","","","","","","","","","","","","","fixation","","","","","",""
"d3-animate-choice","112","233678","0.0-61.0-0.17","2337","4955","8","Male","true","false","false","true","""event"",""trial"",""time""
""focus"",""1"",""4756""
""fullscreenenter"",""5"",""26198""
","
","""event"",""trial"",""time""
""focus"",""1"",""4756""
","""event"",""trial"",""time""
""fullscreenenter"",""5"",""26198""
","
","100","","48","","","3000","1","275,500,724,956,1189,1443,1684,1891,2092","48,48,48,48,48,48,48,48,48","images/earth.jpg","images/tutrocket2","images/tutrocket1","null","images/tutrocket2","","1","practice","null","2","","",""
"d3-animate-choice","113","235899","0.0-61.0-1.17","2337","4955","8","Male","true","false","false","true","""event"",""trial"",""time""
""focus"",""1"",""4756""
""fullscreenenter"",""5"",""26198""
","
","""event"",""trial"",""time""
""focus"",""1"",""4756""
","""event"",""trial"",""time""
""fullscreenenter"",""5"",""26198""
","
","204","","48","","","3000","1","956,1164,1404,1683,1956","48,48,48,48,48","images/tutgreenplanet.jpg","images/tutalien2","images/tutalien1","images/tutrocket2","images/tutalien2","images/nothing.png","2","practice","true","2","common","0","2022-12-07 00:26:54.687"
"two-step-fixation","114","236919","0.0-61.0-2.17","2337","4955","8","Male","true","false","false","true","""event"",""trial"",""time""
""focus"",""1"",""4756""
""fullscreenenter"",""5"",""26198""
","
","""event"",""trial"",""time""
""focus"",""1"",""4756""
","""event"",""trial"",""time""
""fullscreenenter"",""5"",""26198""
","
","","images/earth.jpg","","","","","","","","","","","","","","fixation","","","","","",""
"d3-animate-choice","115","239179","0.0-61.0-0.18","2337","4955","8","Male","true","false","false","true","""event"",""trial"",""time""
""focus"",""1"",""4756""
""fullscreenenter"",""5"",""26198""
","
","""event"",""trial"",""time""
""focus"",""1"",""4756""
","""event"",""trial"",""time""
""fullscreenenter"",""5"",""26198""
","
","243","","48","","","3000","1","460,749,963,1804","48,48,48,48","images/earth.jpg","images/tutrocket2","images/tutrocket1","null","images/tutrocket2","","1","practice","null","2","","",""
"d3-animate-choice","116","241259","0.0-61.0-1.18","2337","4955","8","Male","true","false","false","true","""event"",""trial"",""time""
""focus"",""1"",""4756""
""fullscreenenter"",""5"",""26198""
","
","""event"",""trial"",""time""
""focus"",""1"",""4756""
","""event"",""trial"",""time""
""fullscreenenter"",""5"",""26198""
","
","72","","48","","","3000","1","335,1136,1440,2009","48,48,48,48","images/tutgreenplanet.jpg","images/tutalien2","images/tutalien1","images/tutrocket2","images/tutalien2","images/t.png","2","practice","true","2","common","1","2022-12-07 00:27:00.047"
"two-step-fixation","117","242279","0.0-61.0-2.18","2337","4955","8","Male","true","false","false","true","""event"",""trial"",""time""
""focus"",""1"",""4756""
""fullscreenenter"",""5"",""26198""
","
","""event"",""trial"",""time""
""focus"",""1"",""4756""
","""event"",""trial"",""time""
""fullscreenenter"",""5"",""26198""
","
","","images/earth.jpg","","","","","","","","","","","","","","fixation","","","","","",""
"d3-animate-choice","118","244769","0.0-61.0-0.19","2337","4955","8","Male","true","false","false","true","""event"",""trial"",""time""
""focus"",""1"",""4756""
""fullscreenenter"",""5"",""26198""
","
","""event"",""trial"",""time""
""focus"",""1"",""4756""
","""event"",""trial"",""time""
""fullscreenenter"",""5"",""26198""
","
","475","","48","","","3000","1","836,1148,1540,2020,2284","48,48,48,48,48","images/earth.jpg","images/tutrocket2","images/tutrocket1","null","images/tutrocket2","","1","practice","null","2","","",""
"d3-animate-choice","119","247129","0.0-61.0-1.19","2337","4955","8","Male","true","false","false","true","""event"",""trial"",""time""
""focus"",""1"",""4756""
""fullscreenenter"",""5"",""26198""
","
","""event"",""trial"",""time""
""focus"",""1"",""4756""
","""event"",""trial"",""time""
""fullscreenenter"",""5"",""26198""
","
","345","","48","","","3000","1","778,969,1194,1514,1722,1953,2154","48,48,48,48,48,48,48","images/tutyellowplanet.jpg","images/tutalien4","images/tutalien3","images/tutrocket2","images/tutalien4","images/nothing.png","2","practice","false","2","rare","0","2022-12-07 00:27:05.917"
"two-step-fixation","120","248150","0.0-61.0-2.19","2337","4955","8","Male","true","false","false","true","""event"",""trial"",""time""
""focus"",""1"",""4756""
""fullscreenenter"",""5"",""26198""
","
","""event"",""trial"",""time""
""focus"",""1"",""4756""
","""event"",""trial"",""time""
""fullscreenenter"",""5"",""26198""
","
","","images/earth.jpg","","","","","","","","","","","","","","fixation","","","","","",""
"d3-instructions","121","252382","0.0-62.0","2337","4955","8","Male","true","false","false","true","""event"",""trial"",""time""
""focus"",""1"",""4756""
""fullscreenenter"",""5"",""26198""
","
","""event"",""trial"",""time""
""focus"",""1"",""4756""
","""event"",""trial"",""time""
""fullscreenenter"",""5"",""26198""
","
","","","","","","","","","","","","","","","","","","","","","",""
"audio-keyboard-response","122","252598","0.0-63.0","2337","4955","8","Male","true","false","false","true","""event"",""trial"",""time""
""focus"",""1"",""4756""
""fullscreenenter"",""5"",""26198""
","
","""event"",""trial"",""time""
""focus"",""1"",""4756""
","""event"",""trial"",""time""
""fullscreenenter"",""5"",""26198""
","
","211","audio/instructions/treasure_feedback.wav","32","","","","","","","","","","","","","","","","","","",""
"d3-instructions","123","253070","0.0-64.0","2337","4955","8","Male","true","false","false","true","""event"",""trial"",""time""
""focus"",""1"",""4756""
""fullscreenenter"",""5"",""26198""
","
","""event"",""trial"",""time""
""focus"",""1"",""4756""
","""event"",""trial"",""time""
""fullscreenenter"",""5"",""26198""
","
","","","","","","","","","","","","","","","","","","","","","",""
"d3-instructions","124","253478","0.0-65.0","2337","4955","8","Male","true","false","false","true","""event"",""trial"",""time""
""focus"",""1"",""4756""
""fullscreenenter"",""5"",""26198""
","
","""event"",""trial"",""time""
""focus"",""1"",""4756""
","""event"",""trial"",""time""
""fullscreenenter"",""5"",""26198""
","
","","","","","","","","","","","","","","","","","","","","","",""
"d3-instructions","125","253862","0.0-66.0","2337","4955","8","Male","true","false","false","true","""event"",""trial"",""time""
""focus"",""1"",""4756""
""fullscreenenter"",""5"",""26198""
","
","""event"",""trial"",""time""
""focus"",""1"",""4756""
","""event"",""trial"",""time""
""fullscreenenter"",""5"",""26198""
","
","","","","","","","","","","","","","","","","","","","","","",""
"d3-instructions","126","254055","0.0-67.0","2337","4955","8","Male","true","false","false","true","""event"",""trial"",""time""
""focus"",""1"",""4756""
""fullscreenenter"",""5"",""26198""
","
","""event"",""trial"",""time""
""focus"",""1"",""4756""
","""event"",""trial"",""time""
""fullscreenenter"",""5"",""26198""
","
","","","","","","","","","","","","","","","","","","","","","",""
"d3-instructions","127","255333","0.0-68.0","2337","4955","8","Male","true","false","false","true","""event"",""trial"",""time""
""focus"",""1"",""4756""
""fullscreenenter"",""5"",""26198""
","
","""event"",""trial"",""time""
""focus"",""1"",""4756""
","""event"",""trial"",""time""
""fullscreenenter"",""5"",""26198""
","
","","","","","","","","","","","","","","","","","","","","","",""
"instructions-quiz","128","258942","0.0-69.0","2337","4955","8","Male","true","false","false","true","""event"",""trial"",""time""
""focus"",""1"",""4756""
""fullscreenenter"",""5"",""26198""
","
","""event"",""trial"",""time""
""focus"",""1"",""4756""
","""event"",""trial"",""time""
""fullscreenenter"",""5"",""26198""
","
","3606","audio/quiz/Q1_Prompt.wav","","1","","","","","","","","","","","","","","","","","",""
"audio-keyboard-response","129","261031","0.0-70.0","2337","4955","8","Male","true","false","false","true","""event"",""trial"",""time""
""focus"",""1"",""4756""
""fullscreenenter"",""5"",""26198""
","
","""event"",""trial"",""time""
""focus"",""1"",""4756""
","""event"",""trial"",""time""
""fullscreenenter"",""5"",""26198""
","
","2091","audio/quiz/Q1_Correct.wav","32","","","","","","","","","","","","","","","","","","",""
"instructions-quiz","130","263285","0.0-71.0","2337","4955","8","Male","true","false","false","true","""event"",""trial"",""time""
""focus"",""1"",""4756""
""fullscreenenter"",""5"",""26198""
","
","""event"",""trial"",""time""
""focus"",""1"",""4756""
","""event"",""trial"",""time""
""fullscreenenter"",""5"",""26198""
","
","2253","audio/quiz/Q2_Prompt.wav","","0","","","","","","","","","","","","","","","","","",""
"audio-keyboard-response","131","264894","0.0-72.0","2337","4955","8","Male","true","false","false","true","""event"",""trial"",""time""
""focus"",""1"",""4756""
""fullscreenenter"",""5"",""26198""
","
","""event"",""trial"",""time""
""focus"",""1"",""4756""
","""event"",""trial"",""time""
""fullscreenenter"",""5"",""26198""
","
","1608","audio/quiz/Q2_Correct.wav","32","","","","","","","","","","","","","","","","","","",""
"instructions-quiz","132","268077","0.0-73.0","2337","4955","8","Male","true","false","false","true","""event"",""trial"",""time""
""focus"",""1"",""4756""
""fullscreenenter"",""5"",""26198""
","
","""event"",""trial"",""time""
""focus"",""1"",""4756""
","""event"",""trial"",""time""
""fullscreenenter"",""5"",""26198""
","
","3182","audio/quiz/Q3_Prompt.wav","","1","","","","","","","","","","","","","","","","","",""
"audio-keyboard-response","133","268471","0.0-74.0","2337","4955","8","Male","true","false","false","true","""event"",""trial"",""time""
""focus"",""1"",""4756""
""fullscreenenter"",""5"",""26198""
","
","""event"",""trial"",""time""
""focus"",""1"",""4756""
","""event"",""trial"",""time""
""fullscreenenter"",""5"",""26198""
","
","389","audio/quiz/Q3_Correct.wav","32","","","","","","","","","","","","","","","","","","",""
"d3-instructions","134","269998","0.0-75.0","2337","4955","8","Male","true","false","false","true","""event"",""trial"",""time""
""focus"",""1"",""4756""
""fullscreenenter"",""5"",""26198""
","
","""event"",""trial"",""time""
""focus"",""1"",""4756""
","""event"",""trial"",""time""
""fullscreenenter"",""5"",""26198""
","
","","","","","","","","","","","","","","","","","","","","","",""
"d3-animate-choice","135","273556","0.0-76.0-0.0","2337","4955","8","Male","true","false","false","true","""event"",""trial"",""time""
""focus"",""1"",""4756""
""fullscreenenter"",""5"",""26198""
","
","""event"",""trial"",""time""
""focus"",""1"",""4756""
","""event"",""trial"",""time""
""fullscreenenter"",""5"",""26198""
","
","1542","","49","","","3000","1","1765,1973,2246,2453,2573,2765,3014,3294,3510","49,49,49,48,48,48,48,48,48","images/earth.jpg","images/rocket2","images/rocket1","null","images/rocket1","","1","real","null","1","","",""
"d3-animate-choice","136","275749","0.0-76.0-1.0","2337","4955","8","Male","true","false","false","true","""event"",""trial"",""time""
""focus"",""1"",""4756""
""fullscreenenter"",""5"",""26198""
","
","""event"",""trial"",""time""
""focus"",""1"",""4756""
","""event"",""trial"",""time""
""fullscreenenter"",""5"",""26198""
","
","183","","48","","","3000","1","414,638,1158,1391,1703,1919,2094","48,48,48,48,48,48,48","images/purpleplanet.jpg","images/alien4","images/alien3","images/rocket1","images/alien4","images/t.png","2","real","true","2","common","1","2022-12-07 00:27:34.537"
"two-step-fixation","137","276768","0.0-76.0-2.0","2337","4955","8","Male","true","false","false","true","""event"",""trial"",""time""
""focus"",""1"",""4756""
""fullscreenenter"",""5"",""26198""
","
","""event"",""trial"",""time""
""focus"",""1"",""4756""
","""event"",""trial"",""time""
""fullscreenenter"",""5"",""26198""
","
","","images/earth.jpg","","","","","","","","","","","","","","fixation","","","","","",""
"d3-animate-choice","138","278909","0.0-76.0-0.1","2337","4955","8","Male","true","false","false","true","""event"",""trial"",""time""
""focus"",""1"",""4756""
""fullscreenenter"",""5"",""26198""
","
","""event"",""trial"",""time""
""focus"",""1"",""4756""
","""event"",""trial"",""time""
""fullscreenenter"",""5"",""26198""
","
","123","","48","","","3000","1","354,1051,1387,1722,2026","48,48,48,48,48","images/earth.jpg","images/rocket2","images/rocket1","null","images/rocket2","","1","real","null","2","","",""
"d3-animate-choice","139","281009","0.0-76.0-1.1","2337","4955","8","Male","true","false","false","true","""event"",""trial"",""time""
""focus"",""1"",""4756""
""fullscreenenter"",""5"",""26198""
","
","""event"",""trial"",""time""
""focus"",""1"",""4756""
","""event"",""trial"",""time""
""fullscreenenter"",""5"",""26198""
","
","86","","48","","","3000","1","350,646,1101,1350","48,48,48,48","images/redplanet1.jpg","images/alien2","images/alien1","images/rocket2","images/alien2","images/nothing.png","2","real","true","2","common","0","2022-12-07 00:27:39.797"
"two-step-fixation","140","282029","0.0-76.0-2.1","2337","4955","8","Male","true","false","false","true","""event"",""trial"",""time""
""focus"",""1"",""4756""
""fullscreenenter"",""5"",""26198""
","
","""event"",""trial"",""time""
""focus"",""1"",""4756""
","""event"",""trial"",""time""
""fullscreenenter"",""5"",""26198""
","
","","images/earth.jpg","","","","","","","","","","","","","","fixation","","","","","",""
"d3-animate-choice","141","284179","0.0-76.0-0.2","2337","4955","8","Male","true","false","false","true","""event"",""trial"",""time""
""focus"",""1"",""4756""
""fullscreenenter"",""5"",""26198""
","
","""event"",""trial"",""time""
""focus"",""1"",""4756""
","""event"",""trial"",""time""
""fullscreenenter"",""5"",""26198""
","
","135","","48","","","3000","1","367,655,926,1199,1439,1687,1950","48,48,48,48,48,48,48","images/earth.jpg","images/rocket2","images/rocket1","null","images/rocket2","","1","real","null","2","","",""
"d3-animate-choice","142","286280","0.0-76.0-1.2","2337","4955","8","Male","true","false","false","true","""event"",""trial"",""time""
""focus"",""1"",""4756""
""fullscreenenter"",""5"",""26198""
","
","""event"",""trial"",""time""
""focus"",""1"",""4756""
","""event"",""trial"",""time""
""fullscreenenter"",""5"",""26198""
","
","96","","48","","","3000","1","343,728,1128,1383,1849,2080","48,48,48,48,48,48","images/redplanet1.jpg","images/alien2","images/alien1","images/rocket2","images/alien2","images/t.png","2","real","true","2","common","1","2022-12-07 00:27:45.068"
"two-step-fixation","143","287299","0.0-76.0-2.2","2337","4955","8","Male","true","false","false","true","""event"",""trial"",""time""
""focus"",""1"",""4756""
""fullscreenenter"",""5"",""26198""
","
","""event"",""trial"",""time""
""focus"",""1"",""4756""
","""event"",""trial"",""time""
""fullscreenenter"",""5"",""26198""
","
","","images/earth.jpg","","","","","","","","","","","","","","fixation","","","","","",""
"d3-animate-choice","144","289459","0.0-76.0-0.3","2337","4955","8","Male","true","false","false","true","""event"",""trial"",""time""
""focus"",""1"",""4756""
""fullscreenenter"",""5"",""26198""
","
","""event"",""trial"",""time""
""focus"",""1"",""4756""
","""event"",""trial"",""time""
""fullscreenenter"",""5"",""26198""
","
","144","","48","","","3000","1","343,928,1216,1488,1895,2128","48,48,48,48,48,48","images/earth.jpg","images/rocket2","images/rocket1","null","images/rocket2","","1","real","null","2","","",""
"d3-animate-choice","145","291979","0.0-76.0-1.3","2337","4955","8","Male","true","false","false","true","""event"",""trial"",""time""
""focus"",""1"",""4756""
""fullscreenenter"",""5"",""26198""
","
","""event"",""trial"",""time""
""focus"",""1"",""4756""
","""event"",""trial"",""time""
""fullscreenenter"",""5"",""26198""
","
","512","","48","","","3000","1","889,1192,2151","48,48,48","images/redplanet1.jpg","images/alien2","images/alien1","images/rocket2","images/alien2","images/t.png","2","real","true","2","common","1","2022-12-07 00:27:50.767"
"two-step-fixation","146","292999","0.0-76.0-2.3","2337","4955","8","Male","true","false","false","true","""event"",""trial"",""time""
""focus"",""1"",""4756""
""fullscreenenter"",""5"",""26198""
","
","""event"",""trial"",""time""
""focus"",""1"",""4756""
","""event"",""trial"",""time""
""fullscreenenter"",""5"",""26198""
","
","","images/earth.jpg","","","","","","","","","","","","","","fixation","","","","","",""
"d3-animate-choice","147","295230","0.0-76.0-0.4","2337","4955","8","Male","true","false","false","true","""event"",""trial"",""time""
""focus"",""1"",""4756""
""fullscreenenter"",""5"",""26198""
","
","""event"",""trial"",""time""
""focus"",""1"",""4756""
","""event"",""trial"",""time""
""fullscreenenter"",""5"",""26198""
","
","212","","48","","","3000","1","477,1413,1916","48,48,48","images/earth.jpg","images/rocket2","images/rocket1","null","images/rocket2","","1","real","null","2","","",""
"d3-animate-choice","148","297469","0.0-76.0-1.4","2337","4955","8","Male","true","false","false","true","""event"",""trial"",""time""
""focus"",""1"",""4756""
""fullscreenenter"",""5"",""26198""
","
","""event"",""trial"",""time""
""focus"",""1"",""4756""
","""event"",""trial"",""time""
""fullscreenenter"",""5"",""26198""
","
","221","","48","","","3000","1","549,853,2125","48,48,48","images/purpleplanet.jpg","images/alien4","images/alien3","images/rocket2","images/alien4","images/t.png","2","real","false","2","rare","1","2022-12-07 00:27:56.257"
"two-step-fixation","149","298479","0.0-76.0-2.4","2337","4955","8","Male","true","false","false","true","""event"",""trial"",""time""
""focus"",""1"",""4756""
""fullscreenenter"",""5"",""26198""
","
","""event"",""trial"",""time""
""focus"",""1"",""4756""
","""event"",""trial"",""time""
""fullscreenenter"",""5"",""26198""
","
","","images/earth.jpg","","","","","","","","","","","","","","fixation","","","","","",""
"d3-animate-choice","150","300559","0.0-76.0-0.5","2337","4955","8","Male","true","false","false","true","""event"",""trial"",""time""
""focus"",""1"",""4756""
""fullscreenenter"",""5"",""26198""
","
","""event"",""trial"",""time""
""focus"",""1"",""4756""
","""event"",""trial"",""time""
""fullscreenenter"",""5"",""26198""
","
","60","","48","","","3000","1","462,653,933,1174,1516,1719,2076","48,48,48,48,48,48,48","images/earth.jpg","images/rocket2","images/rocket1","null","images/rocket2","","1","real","null","2","","",""
"d3-animate-choice","151","303159","0.0-76.0-1.5","2337","4955","8","Male","true","false","false","true","""event"",""trial"",""time""
""focus"",""1"",""4756""
""fullscreenenter"",""5"",""26198""
","
","""event"",""trial"",""time""
""focus"",""1"",""4756""
","""event"",""trial"",""time""
""fullscreenenter"",""5"",""26198""
","
","597","","48","","","3000","1","822,1092,1405,2380","48,48,48,48","images/redplanet1.jpg","images/alien2","images/alien1","images/rocket2","images/alien2","images/t.png","2","real","true","2","common","1","2022-12-07 00:28:01.948"
"two-step-fixation","152","304179","0.0-76.0-2.5","2337","4955","8","Male","true","false","false","true","""event"",""trial"",""time""
""focus"",""1"",""4756""
""fullscreenenter"",""5"",""26198""
","
","""event"",""trial"",""time""
""focus"",""1"",""4756""
","""event"",""trial"",""time""
""fullscreenenter"",""5"",""26198""
","
","","images/earth.jpg","","","","","","","","","","","","","","fixation","","","","","",""
"d3-animate-choice","153","306559","0.0-76.0-0.6","2337","4955","8","Male","true","false","false","true","""event"",""trial"",""time""
""focus"",""1"",""4756""
""fullscreenenter"",""5"",""26198""
","
","""event"",""trial"",""time""
""focus"",""1"",""4756""
","""event"",""trial"",""time""
""fullscreenenter"",""5"",""26198""
","
","369","","48","","","3000","1","1282,1577,1912,2216","48,48,48,48","images/earth.jpg","images/rocket2","images/rocket1","null","images/rocket2","","1","real","null","2","","",""
"d3-animate-choice","154","308719","0.0-76.0-1.6","2337","4955","8","Male","true","false","false","true","""event"",""trial"",""time""
""focus"",""1"",""4756""
""fullscreenenter"",""5"",""26198""
","
","""event"",""trial"",""time""
""focus"",""1"",""4756""
","""event"",""trial"",""time""
""fullscreenenter"",""5"",""26198""
","
","139","","48","","","3000","1","572,908,1411,1764","48,48,48,48","images/redplanet1.jpg","images/alien2","images/alien1","images/rocket2","images/alien2","images/t.png","2","real","true","2","common","1","2022-12-07 00:28:07.507"
"two-step-fixation","155","309738","0.0-76.0-2.6","2337","4955","8","Male","true","false","false","true","""event"",""trial"",""time""
""focus"",""1"",""4756""
""fullscreenenter"",""5"",""26198""
","
","""event"",""trial"",""time""
""focus"",""1"",""4756""
","""event"",""trial"",""time""
""fullscreenenter"",""5"",""26198""
","
","","images/earth.jpg","","","","","","","","","","","","","","fixation","","","","","",""
"d3-animate-choice","156","311839","0.0-76.0-0.7","2337","4955","8","Male","true","false","false","true","""event"",""trial"",""time""
""focus"",""1"",""4756""
""fullscreenenter"",""5"",""26198""
","
","""event"",""trial"",""time""
""focus"",""1"",""4756""
","""event"",""trial"",""time""
""fullscreenenter"",""5"",""26198""
","
","97","","48","","","3000","1","530,882,1178,1585,1818,2042","48,48,48,48,48,48","images/earth.jpg","images/rocket2","images/rocket1","null","images/rocket2","","1","real","null","2","","",""
"d3-animate-choice","157","314059","0.0-76.0-1.7","2337","4955","8","Male","true","false","false","true","""event"",""trial"",""time""
""focus"",""1"",""4756""
""fullscreenenter"",""5"",""26198""
","
","""event"",""trial"",""time""
""focus"",""1"",""4756""
","""event"",""trial"",""time""
""fullscreenenter"",""5"",""26198""
","
","205","","48","","","3000","1","517,844,1140,1477,1781","48,48,48,48,48","images/redplanet1.jpg","images/alien2","images/alien1","images/rocket2","images/alien2","images/nothing.png","2","real","true","2","common","0","2022-12-07 00:28:12.847"
"two-step-fixation","158","315079","0.0-76.0-2.7","2337","4955","8","Male","true","false","false","true","""event"",""trial"",""time""
""focus"",""1"",""4756""
""fullscreenenter"",""5"",""26198""
","
","""event"",""trial"",""time""
""focus"",""1"",""4756""
","""event"",""trial"",""time""
""fullscreenenter"",""5"",""26198""
","
","","images/earth.jpg","","","","","","","","","","","","","","fixation","","","","","",""
"d3-animate-choice","159","317259","0.0-76.0-0.8","2337","4955","8","Male","true","false","false","true","""event"",""trial"",""time""
""focus"",""1"",""4756""
""fullscreenenter"",""5"",""26198""
","
","""event"",""trial"",""time""
""focus"",""1"",""4756""
","""event"",""trial"",""time""
""fullscreenenter"",""5"",""26198""
","
","172","","48","","","3000","1","515,1300,1916","48,48,48","images/earth.jpg","images/rocket2","images/rocket1","null","images/rocket2","","1","real","null","2","","",""
"d3-animate-choice","160","320699","0.0-76.0-1.8","2337","4955","8","Male","true","false","false","true","""event"",""trial"",""time""
""focus"",""1"",""4756""
""fullscreenenter"",""5"",""26198""
","
","""event"",""trial"",""time""
""focus"",""1"",""4756""
","""event"",""trial"",""time""
""fullscreenenter"",""5"",""26198""
","
","1432","","48","","","3000","1","1783,2976,3264","48,48,48","images/redplanet1.jpg","images/alien2","images/alien1","images/rocket2","images/alien2","images/t.png","2","real","true","2","common","1","2022-12-07 00:28:19.487"
"two-step-fixation","161","321719","0.0-76.0-2.8","2337","4955","8","Male","true","false","false","true","""event"",""trial"",""time""
""focus"",""1"",""4756""
""fullscreenenter"",""5"",""26198""
","
","""event"",""trial"",""time""
""focus"",""1"",""4756""
","""event"",""trial"",""time""
""fullscreenenter"",""5"",""26198""
","
","","images/earth.jpg","","","","","","","","","","","","","","fixation","","","","","",""
"d3-animate-choice","162","323769","0.0-76.0-0.9","2337","4955","8","Male","true","false","false","true","""event"",""trial"",""time""
""focus"",""1"",""4756""
""fullscreenenter"",""5"",""26198""
","
","""event"",""trial"",""time""
""focus"",""1"",""4756""
","""event"",""trial"",""time""
""fullscreenenter"",""5"",""26198""
","
","30","","48","","","3000","1","365,581,1373,1702,1992","48,48,48,48,48","images/earth.jpg","images/rocket2","images/rocket1","null","images/rocket2","","1","real","null","2","","",""
"d3-animate-choice","163","326309","0.0-76.0-1.9","2337","4955","8","Male","true","false","false","true","""event"",""trial"",""time""
""focus"",""1"",""4756""
""fullscreenenter"",""5"",""26198""
","
","""event"",""trial"",""time""
""focus"",""1"",""4756""
","""event"",""trial"",""time""
""fullscreenenter"",""5"",""26198""
","
","521","","48","","","3000","1","1106,1385,1562,1785,2298","48,48,48,48,48","images/redplanet1.jpg","images/alien2","images/alien1","images/rocket2","images/alien2","images/nothing.png","2","real","true","2","common","0","2022-12-07 00:28:25.097"
"two-step-fixation","164","327329","0.0-76.0-2.9","2337","4955","8","Male","true","false","false","true","""event"",""trial"",""time""
""focus"",""1"",""4756""
""fullscreenenter"",""5"",""26198""
","
","""event"",""trial"",""time""
""focus"",""1"",""4756""
","""event"",""trial"",""time""
""fullscreenenter"",""5"",""26198""
","
","","images/earth.jpg","","","","","","","","","","","","","","fixation","","","","","",""
"d3-animate-choice","165","329349","0.0-76.0-0.10","2337","4955","8","Male","true","false","false","true","""event"",""trial"",""time""
""focus"",""1"",""4756""
""fullscreenenter"",""5"",""26198""
","
","""event"",""trial"",""time""
""focus"",""1"",""4756""
","""event"",""trial"",""time""
""fullscreenenter"",""5"",""26198""
","
","11","","48","","","3000","1","226,627,850,1099,1339,1619","48,48,48,48,48,48","images/earth.jpg","images/rocket2","images/rocket1","null","images/rocket2","","1","real","null","2","","",""
"d3-animate-choice","166","331569","0.0-76.0-1.10","2337","4955","8","Male","true","false","false","true","""event"",""trial"",""time""
""focus"",""1"",""4756""
""fullscreenenter"",""5"",""26198""
","
","""event"",""trial"",""time""
""focus"",""1"",""4756""
","""event"",""trial"",""time""
""fullscreenenter"",""5"",""26198""
","
","207","","32","","","3000","1","209,414,647,910,1062,1230,1463,1686,1894,2135","48,48,48,48,48,48,48,48,48,48","images/redplanet1.jpg","images/alien2","images/alien1","images/rocket2","images/alien2","images/nothing.png","2","real","true","","common","0","2022-12-07 00:28:30.357"
"two-step-fixation","167","332589","0.0-76.0-2.10","2337","4955","8","Male","true","false","false","true","""event"",""trial"",""time""
""focus"",""1"",""4756""
""fullscreenenter"",""5"",""26198""
","
","""event"",""trial"",""time""
""focus"",""1"",""4756""
","""event"",""trial"",""time""
""fullscreenenter"",""5"",""26198""
","
","","images/earth.jpg","","","","","","","","","","","","","","fixation","","","","","",""
"d3-animate-choice","168","334609","0.0-76.0-0.11","2337","4955","8","Male","true","false","false","true","""event"",""trial"",""time""
""focus"",""1"",""4756""
""fullscreenenter"",""5"",""26198""
","
","""event"",""trial"",""time""
""focus"",""1"",""4756""
","""event"",""trial"",""time""
""fullscreenenter"",""5"",""26198""
","
","15","","48","","","3000","1","262,446,687,902,1151","48,48,48,48,48","images/earth.jpg","images/rocket2","images/rocket1","null","images/rocket2","","1","real","null","2","","",""
"d3-animate-choice","169","336789","0.0-76.0-1.11","2337","4955","8","Male","true","false","false","true","""event"",""trial"",""time""
""focus"",""1"",""4756""
""fullscreenenter"",""5"",""26198""
","
","""event"",""trial"",""time""
""focus"",""1"",""4756""
","""event"",""trial"",""time""
""fullscreenenter"",""5"",""26198""
","
","169","","48","","","3000","1","410,1458,2098","48,48,48","images/redplanet1.jpg","images/alien2","images/alien1","images/rocket2","images/alien2","images/t.png","2","real","true","2","common","1","2022-12-07 00:28:35.577"
"two-step-fixation","170","337800","0.0-76.0-2.11","2337","4955","8","Male","true","false","false","true","""event"",""trial"",""time""
""focus"",""1"",""4756""
""fullscreenenter"",""5"",""26198""
","
","""event"",""trial"",""time""
""focus"",""1"",""4756""
","""event"",""trial"",""time""
""fullscreenenter"",""5"",""26198""
","
","","images/earth.jpg","","","","","","","","","","","","","","fixation","","","","","",""
"d3-animate-choice","171","339999","0.0-76.0-0.12","2337","4955","8","Male","true","false","false","true","""event"",""trial"",""time""
""focus"",""1"",""4756""
""fullscreenenter"",""5"",""26198""
","
","""event"",""trial"",""time""
""focus"",""1"",""4756""
","""event"",""trial"",""time""
""fullscreenenter"",""5"",""26198""
","
","188","","49","","","3000","1","940,1468,1820","48,49,48","images/earth.jpg","images/rocket2","images/rocket1","null","images/rocket1","","1","real","null","1","","",""
"d3-animate-choice","172","342039","0.0-76.0-1.12","2337","4955","8","Male","true","false","false","true","""event"",""trial"",""time""
""focus"",""1"",""4756""
""fullscreenenter"",""5"",""26198""
","
","""event"",""trial"",""time""
""focus"",""1"",""4756""
","""event"",""trial"",""time""
""fullscreenenter"",""5"",""26198""
","
","19","","48","","","3000","1","324,620,883,932,1228,1443","48,48,48,49,49,49","images/purpleplanet.jpg","images/alien4","images/alien3","images/rocket1","images/alien4","images/nothing.png","2","real","true","2","common","0","2022-12-07 00:28:40.827"
"two-step-fixation","173","343058","0.0-76.0-2.12","2337","4955","8","Male","true","false","false","true","""event"",""trial"",""time""
""focus"",""1"",""4756""
""fullscreenenter"",""5"",""26198""
","
","""event"",""trial"",""time""
""focus"",""1"",""4756""
","""event"",""trial"",""time""
""fullscreenenter"",""5"",""26198""
","
","","images/earth.jpg","","","","","","","","","","","","","","fixation","","","","","",""
"d3-animate-choice","174","345238","0.0-76.0-0.13","2337","4955","8","Male","true","false","false","true","""event"",""trial"",""time""
""focus"",""1"",""4756""
""fullscreenenter"",""5"",""26198""
","
","""event"",""trial"",""time""
""focus"",""1"",""4756""
","""event"",""trial"",""time""
""fullscreenenter"",""5"",""26198""
","
","168","","48","","","3000","1","225,448,495,775,1063","49,48,49,49,49","images/earth.jpg","images/rocket2","images/rocket1","null","images/rocket2","","1","real","null","2","","",""
"d3-animate-choice","175","347310","0.0-76.0-1.13","2337","4955","8","Male","true","false","false","true","""event"",""trial"",""time""
""focus"",""1"",""4756""
""fullscreenenter"",""5"",""26198""
","
","""event"",""trial"",""time""
""focus"",""1"",""4756""
","""event"",""trial"",""time""
""fullscreenenter"",""5"",""26198""
","
","51","","48","","","3000","1","251,253,443,636,868,1076,1268,1515,1723,1949","57,48,48,48,48,48,48,48,48,48","images/redplanet1.jpg","images/alien2","images/alien1","images/rocket2","images/alien2","images/nothing.png","2","real","true","2","common","0","2022-12-07 00:28:46.098"
"two-step-fixation","176","348329","0.0-76.0-2.13","2337","4955","8","Male","true","false","false","true","""event"",""trial"",""time""
""focus"",""1"",""4756""
""fullscreenenter"",""5"",""26198""
","
","""event"",""trial"",""time""
""focus"",""1"",""4756""
","""event"",""trial"",""time""
""fullscreenenter"",""5"",""26198""
","
","","images/earth.jpg","","","","","","","","","","","","","","fixation","","","","","",""
"d3-animate-choice","177","350384","0.0-76.0-0.14","2337","4955","8","Male","true","false","false","true","""event"",""trial"",""time""
""focus"",""1"",""4756""
""fullscreenenter"",""5"",""26198""
","
","""event"",""trial"",""time""
""focus"",""1"",""4756""
","""event"",""trial"",""time""
""fullscreenenter"",""5"",""26198""
","
","41","","48","","","3000","1","258,618,818,1082,1378,1842","48,48,48,48,48,48","images/earth.jpg","images/rocket2","images/rocket1","null","images/rocket2","","1","real","null","2","","",""
"d3-animate-choice","178","354388","0.0-76.0-1.14","2337","4955","8","Male","true","false","false","true","""event"",""trial"",""time""
""focus"",""1"",""4756""
""fullscreenenter"",""5"",""26198""
","
","""event"",""trial"",""time""
""focus"",""1"",""4756""
","""event"",""trial"",""time""
""fullscreenenter"",""5"",""26198""
","
","194","","173","","","3000","1","450,755,2178,3107,3410,3906","173,173,48,48,48,48","images/purpleplanet.jpg","images/alien4","images/alien3","images/rocket2","images/alien4","images/t.png","2","real","false","","rare","1","2022-12-07 00:28:53.176"
"two-step-fixation","179","355404","0.0-76.0-2.14","2337","4955","8","Male","true","false","false","true","""event"",""trial"",""time""
""focus"",""1"",""4756""
""fullscreenenter"",""5"",""26198""
","
","""event"",""trial"",""time""
""focus"",""1"",""4756""
","""event"",""trial"",""time""
""fullscreenenter"",""5"",""26198""
","
","","images/earth.jpg","","","","","","","","","","","","","","fixation","","","","","",""
"d3-animate-choice","180","357559","0.0-76.0-0.15","2337","4955","8","Male","true","false","false","true","""event"",""trial"",""time""
""focus"",""1"",""4756""
""fullscreenenter"",""5"",""26198""
","
","""event"",""trial"",""time""
""focus"",""1"",""4756""
","""event"",""trial"",""time""
""fullscreenenter"",""5"",""26198""
","
","151","","48","","","3000","1","320,504,696,896,1144,1376,1632,2007","48,48,48,48,48,48,48,48","images/earth.jpg","images/rocket2","images/rocket1","null","images/rocket2","","1","real","null","2","","",""
"d3-animate-choice","181","359658","0.0-76.0-1.15","2337","4955","8","Male","true","false","false","true","""event"",""trial"",""time""
""focus"",""1"",""4756""
""fullscreenenter"",""5"",""26198""
","
","""event"",""trial"",""time""
""focus"",""1"",""4756""
","""event"",""trial"",""time""
""fullscreenenter"",""5"",""26198""
","
","83","","48","","","3000","1","363,603,883,1428,1683,1932","48,48,48,48,48,48","images/redplanet1.jpg","images/alien2","images/alien1","images/rocket2","images/alien2","images/t.png","2","real","true","2","common","1","2022-12-07 00:28:58.447"
"two-step-fixation","182","360678","0.0-76.0-2.15","2337","4955","8","Male","true","false","false","true","""event"",""trial"",""time""
""focus"",""1"",""4756""
""fullscreenenter"",""5"",""26198""
","
","""event"",""trial"",""time""
""focus"",""1"",""4756""
","""event"",""trial"",""time""
""fullscreenenter"",""5"",""26198""
","
","","images/earth.jpg","","","","","","","","","","","","","","fixation","","","","","",""
"d3-animate-choice","183","362969","0.0-76.0-0.16","2337","4955","8","Male","true","false","false","true","""event"",""trial"",""time""
""focus"",""1"",""4756""
""fullscreenenter"",""5"",""26198""
","
","""event"",""trial"",""time""
""focus"",""1"",""4756""
","""event"",""trial"",""time""
""fullscreenenter"",""5"",""26198""
","
","284","","48","","","3000","1","541,789,1004,1260,1764,2029,2284","48,48,48,48,48,48,48","images/earth.jpg","images/rocket2","images/rocket1","null","images/rocket2","","1","real","null","2","","",""
"d3-animate-choice","184","365418","0.0-76.0-1.16","2337","4955","8","Male","true","false","false","true","""event"",""trial"",""time""
""focus"",""1"",""4756""
""fullscreenenter"",""5"",""26198""
","
","""event"",""trial"",""time""
""focus"",""1"",""4756""
","""event"",""trial"",""time""
""fullscreenenter"",""5"",""26198""
","
","441","","48","","","3000","1","666,930","48,48","images/redplanet1.jpg","images/alien2","images/alien1","images/rocket2","images/alien2","images/t.png","2","real","true","2","common","1","2022-12-07 00:29:04.206"
"two-step-fixation","185","366438","0.0-76.0-2.16","2337","4955","8","Male","true","false","false","true","""event"",""trial"",""time""
""focus"",""1"",""4756""
""fullscreenenter"",""5"",""26198""
","
","""event"",""trial"",""time""
""focus"",""1"",""4756""
","""event"",""trial"",""time""
""fullscreenenter"",""5"",""26198""
","
","","images/earth.jpg","","","","","","","","","","","","","","fixation","","","","","",""
"d3-animate-choice","186","368499","0.0-76.0-0.17","2337","4955","8","Male","true","false","false","true","""event"",""trial"",""time""
""focus"",""1"",""4756""
""fullscreenenter"",""5"",""26198""
","
","""event"",""trial"",""time""
""focus"",""1"",""4756""
","""event"",""trial"",""time""
""fullscreenenter"",""5"",""26198""
","
","44","","48","","","3000","1","","","images/earth.jpg","images/rocket2","images/rocket1","null","images/rocket2","","1","real","null","2","","",""
"d3-animate-choice","187","370719","0.0-76.0-1.17","2337","4955","8","Male","true","false","false","true","""event"",""trial"",""time""
""focus"",""1"",""4756""
""fullscreenenter"",""5"",""26198""
","
","""event"",""trial"",""time""
""focus"",""1"",""4756""
","""event"",""trial"",""time""
""fullscreenenter"",""5"",""26198""
","
","217","","48","","","3000","1","","","images/redplanet1.jpg","images/alien2","images/alien1","images/rocket2","images/alien2","images/t.png","2","real","true","2","common","1","2022-12-07 00:29:09.507"
"two-step-fixation","188","371739","0.0-76.0-2.17","2337","4955","8","Male","true","false","false","true","""event"",""trial"",""time""
""focus"",""1"",""4756""
""fullscreenenter"",""5"",""26198""
","
","""event"",""trial"",""time""
""focus"",""1"",""4756""
","""event"",""trial"",""time""
""fullscreenenter"",""5"",""26198""
","
","","images/earth.jpg","","","","","","","","","","","","","","fixation","","","","","",""
"d3-animate-choice","189","373958","0.0-76.0-0.18","2337","4955","8","Male","true","false","false","true","""event"",""trial"",""time""
""focus"",""1"",""4756""
""fullscreenenter"",""5"",""26198""
","
","""event"",""trial"",""time""
""focus"",""1"",""4756""
","""event"",""trial"",""time""
""fullscreenenter"",""5"",""26198""
","
","216","","48","","","3000","1","544,800,1034,1209,1433,1657,1889,2104","48,48,48,48,48,48,48,48","images/earth.jpg","images/rocket2","images/rocket1","null","images/rocket2","","1","real","null","2","","",""
"d3-animate-choice","190","376079","0.0-76.0-1.18","2337","4955","8","Male","true","false","false","true","""event"",""trial"",""time""
""focus"",""1"",""4756""
""fullscreenenter"",""5"",""26198""
","
","""event"",""trial"",""time""
""focus"",""1"",""4756""
","""event"",""trial"",""time""
""fullscreenenter"",""5"",""26198""
","
","109","","48","","","3000","1","365,644,884,1164,1389,1596,1876","48,48,48,48,48,48,48","images/redplanet1.jpg","images/alien2","images/alien1","images/rocket2","images/alien2","images/t.png","2","real","true","2","common","1","2022-12-07 00:29:14.867"
"two-step-fixation","191","377088","0.0-76.0-2.18","2337","4955","8","Male","true","false","false","true","""event"",""trial"",""time""
""focus"",""1"",""4756""
""fullscreenenter"",""5"",""26198""
","
","""event"",""trial"",""time""
""focus"",""1"",""4756""
","""event"",""trial"",""time""
""fullscreenenter"",""5"",""26198""
","
","","images/earth.jpg","","","","","","","","","","","","","","fixation","","","","","",""
"d3-animate-choice","192","380413","0.0-76.0-0.19","2337","4955","8","Male","true","false","false","true","""event"",""trial"",""time""
""focus"",""1"",""4756""
""fullscreenenter"",""5"",""26198""
","
","""event"",""trial"",""time""
""focus"",""1"",""4756""
","""event"",""trial"",""time""
""fullscreenenter"",""5"",""26198""
","
","1307","","48","","","3000","1","2243,2595,2875,3171","48,48,48,48","images/earth.jpg","images/rocket2","images/rocket1","null","images/rocket2","","1","real","null","2","","",""
"d3-animate-choice","193","382519","0.0-76.0-1.19","2337","4955","8","Male","true","false","false","true","""event"",""trial"",""time""
""focus"",""1"",""4756""
""fullscreenenter"",""5"",""26198""
","
","""event"",""trial"",""time""
""focus"",""1"",""4756""
","""event"",""trial"",""time""
""fullscreenenter"",""5"",""26198""
","
","94","","48","","","3000","1","362,614,855,1557,1775,1966","48,48,48,48,48,48","images/purpleplanet.jpg","images/alien4","images/alien3","images/rocket2","images/alien4","images/t.png","2","real","false","2","rare","1","2022-12-07 00:29:21.307"
"two-step-fixation","194","383529","0.0-76.0-2.19","2337","4955","8","Male","true","false","false","true","""event"",""trial"",""time""
""focus"",""1"",""4756""
""fullscreenenter"",""5"",""26198""
","
","""event"",""trial"",""time""
""focus"",""1"",""4756""
","""event"",""trial"",""time""
""fullscreenenter"",""5"",""26198""
","
","","images/earth.jpg","","","","","","","","","","","","","","fixation","","","","","",""
"d3-animate-choice","195","385758","0.0-76.0-0.20","2337","4955","8","Male","true","false","false","true","""event"",""trial"",""time""
""focus"",""1"",""4756""
""fullscreenenter"",""5"",""26198""
","
","""event"",""trial"",""time""
""focus"",""1"",""4756""
","""event"",""trial"",""time""
""fullscreenenter"",""5"",""26198""
","
","226","","48","","","3000","1","1659,1867,1869,2051,2226","48,173,48,48,48","images/earth.jpg","images/rocket2","images/rocket1","null","images/rocket2","","1","real","null","2","","",""
"d3-animate-choice","196","388119","0.0-76.0-1.20","2337","4955","8","Male","true","false","false","true","""event"",""trial"",""time""
""focus"",""1"",""4756""
""fullscreenenter"",""5"",""26198""
","
","""event"",""trial"",""time""
""focus"",""1"",""4756""
","""event"",""trial"",""time""
""fullscreenenter"",""5"",""26198""
","
","349","","48","","","3000","1","581,789,1052,1676","48,48,48,48","images/redplanet1.jpg","images/alien2","images/alien1","images/rocket2","images/alien2","images/t.png","2","real","true","2","common","1","2022-12-07 00:29:26.907"
"two-step-fixation","197","389138","0.0-76.0-2.20","2337","4955","8","Male","true","false","false","true","""event"",""trial"",""time""
""focus"",""1"",""4756""
""fullscreenenter"",""5"",""26198""
","
","""event"",""trial"",""time""
""focus"",""1"",""4756""
","""event"",""trial"",""time""
""fullscreenenter"",""5"",""26198""
","
","","images/earth.jpg","","","","","","","","","","","","","","fixation","","","","","",""
"d3-animate-choice","198","391558","0.0-76.0-0.21","2337","4955","8","Male","true","false","false","true","""event"",""trial"",""time""
""focus"",""1"",""4756""
""fullscreenenter"",""5"",""26198""
","
","""event"",""trial"",""time""
""focus"",""1"",""4756""
","""event"",""trial"",""time""
""fullscreenenter"",""5"",""26198""
","
","417","","48","","","3000","1","1097,1410","48,48","images/earth.jpg","images/rocket2","images/rocket1","null","images/rocket2","","1","real","null","2","","",""
"d3-animate-choice","199","394758","0.0-76.0-1.21","2337","4955","8","Male","true","false","false","true","""event"",""trial"",""time""
""focus"",""1"",""4756""
""fullscreenenter"",""5"",""26198""
","
","""event"",""trial"",""time""
""focus"",""1"",""4756""
","""event"",""trial"",""time""
""fullscreenenter"",""5"",""26198""
","
","1189","","48","","","3000","1","1444,1956,2164,2404,2629,2861,3117","48,48,48,48,48,48,48","images/redplanet1.jpg","images/alien2","images/alien1","images/rocket2","images/alien2","images/t.png","2","real","true","2","common","1","2022-12-07 00:29:33.547"
"two-step-fixation","200","395778","0.0-76.0-2.21","2337","4955","8","Male","true","false","false","true","""event"",""trial"",""time""
""focus"",""1"",""4756""
""fullscreenenter"",""5"",""26198""
","
","""event"",""trial"",""time""
""focus"",""1"",""4756""
","""event"",""trial"",""time""
""fullscreenenter"",""5"",""26198""
","
","","images/earth.jpg","","","","","","","","","","","","","","fixation","","","","","",""
"d3-animate-choice","201","397818","0.0-76.0-0.22","2337","4955","8","Male","true","false","false","true","""event"",""trial"",""time""
""focus"",""1"",""4756""
""fullscreenenter"",""5"",""26198""
","
","""event"",""trial"",""time""
""focus"",""1"",""4756""
","""event"",""trial"",""time""
""fullscreenenter"",""5"",""26198""
