"trial_type","trial_index","time_elapsed","internal_node_id","participant_id","subject_id","age","gender","rocket_sides","red_planet_first_rocket","red_display_order","purple_display_order","interactions","blur_events","focus_events","fullscreenenter_events","fullscreenexit_events","rt","stimulus","key_press","button_pressed","success","duration","valid_pressed","rts","keys","planet_text","right_text","left_text","center_text","chosen_text","reward_text","trial_stage","practice_trial","transition_type","choice","transition","reward","timestamp"
"pavlovia","0","2","0.0-0.0","741","648","23","Female","false","false","false","false","
","
","
","
","
","","","","","","","","","","","","","","","","","","","","","",""
"html-keyboard-response","1","9611","0.0-1.0","741","648","23","Female","false","false","false","false","
","
","
","
","
","9608","Welcome! Press the space bar to begin.","32","","","","","","","","","","","","","","","","","","",""
"audio-keyboard-response","2","13632","0.0-2.0","741","648","23","Female","false","false","false","false","
","
","
","
","
","4019","audio/beep_loop.wav","32","","","","","","","","","","","","","","","","","","",""
"audio-button-response","3","22724","0.0-3.0","741","648","23","Female","false","false","false","false","
","
","
","
","
","NaN","audio/fish.mp3","","1","","","","","","","","","","","","","","","","","",""
"audio-button-response","4","25194","0.0-4.0","741","648","23","Female","false","false","false","false","""event"",""trial"",""time""
""fullscreenenter"",""5"",""28343""
","
","
","""event"",""trial"",""time""
""fullscreenenter"",""5"",""28343""
","
","NaN","audio/tiger.mp3","","4","","","","","","","","","","","","","","","","","",""
"fullscreen","5","29343","0.0-5.0","741","648","23","Female","false","false","false","false","""event"",""trial"",""time""
""fullscreenenter"",""5"",""28343""
","
","
","""event"",""trial"",""time""
""fullscreenenter"",""5"",""28343""
","
","","","","","true","","","","","","","","","","","","","","","","",""
"d3-instructions","6","46849","0.0-6.0","741","648","23","Female","false","false","false","false","""event"",""trial"",""time""
""fullscreenenter"",""5"",""28343""
","
","
","""event"",""trial"",""time""
""fullscreenenter"",""5"",""28343""
","
","","","","","","","","","","","","","","","","","","","","","",""
"d3-instructions","7","55489","0.0-7.0","741","648","23","Female","false","false","false","false","""event"",""trial"",""time""
""fullscreenenter"",""5"",""28343""
","
","
","""event"",""trial"",""time""
""fullscreenenter"",""5"",""28343""
","
","","","","","","","","","","","","","","","","","","","","","",""
"d3-instructions","8","63129","0.0-8.0","741","648","23","Female","false","false","false","false","""event"",""trial"",""time""
""fullscreenenter"",""5"",""28343""
","
","
","""event"",""trial"",""time""
""fullscreenenter"",""5"",""28343""
","
","","","","","","","","","","","","","","","","","","","","","",""
"d3-instructions","9","74585","0.0-9.0","741","648","23","Female","false","false","false","false","""event"",""trial"",""time""
""fullscreenenter"",""5"",""28343""
","
","
","""event"",""trial"",""time""
""fullscreenenter"",""5"",""28343""
","
","","","","","","","","","","","","","","","","","","","","","",""
"d3-instructions","10","93353","0.0-10.0","741","648","23","Female","false","false","false","false","""event"",""trial"",""time""
""fullscreenenter"",""5"",""28343""
","
","
","""event"",""trial"",""time""
""fullscreenenter"",""5"",""28343""
","
","","","","","","","","","","","","","","","","","","","","","",""
"d3-animate-choice","11","96980","0.0-11.0","741","648","23","Female","false","false","false","false","""event"",""trial"",""time""
""fullscreenenter"",""5"",""28343""
","
","
","""event"",""trial"",""time""
""fullscreenenter"",""5"",""28343""
","
","1613.6000000238419","","49","","","3000","1","2789.2000000178814","48","images/tutgreenplanet.jpg","images/tutalien1","images/tutalien2","null","images/tutalien2","","NA","practice","null","","","",""
"d3-animate-choice","12","99053","0.0-12.0","741","648","23","Female","false","false","false","false","""event"",""trial"",""time""
""fullscreenenter"",""5"",""28343""
","
","
","""event"",""trial"",""time""
""fullscreenenter"",""5"",""28343""
","
","59","","48","","","3000","1","","","images/tutgreenplanet.jpg","images/tutalien1","images/tutalien2","null","images/tutalien1","","NA","practice","null","","","",""
"d3-animate-choice","13","101719","0.0-13.0","741","648","23","Female","false","false","false","false","""event"",""trial"",""time""
""fullscreenenter"",""5"",""28343""
","
","
","""event"",""trial"",""time""
""fullscreenenter"",""5"",""28343""
","
","658.0999999940395","","48","","","3000","1","","","images/tutgreenplanet.jpg","images/tutalien1","images/tutalien2","null","images/tutalien1","","NA","practice","null","","","",""
"d3-animate-choice","14","104541","0.0-14.0","741","648","23","Female","false","false","false","false","""event"",""trial"",""time""
""fullscreenenter"",""5"",""28343""
","
","
","""event"",""trial"",""time""
""fullscreenenter"",""5"",""28343""
","
","816.2999999821186","","49","","","3000","1","","","images/tutgreenplanet.jpg","images/tutalien1","images/tutalien2","null","images/tutalien2","","NA","practice","null","","","",""
"d3-instructions","15","113601","0.0-15.0","741","648","23","Female","false","false","false","false","""event"",""trial"",""time""
""fullscreenenter"",""5"",""28343""
","
","
","""event"",""trial"",""time""
""fullscreenenter"",""5"",""28343""
","
","","","","","","","","","","","","","","","","","","","","","",""
"d3-instructions","16","121449","0.0-16.0","741","648","23","Female","false","false","false","false","""event"",""trial"",""time""
""fullscreenenter"",""5"",""28343""
","
","
","""event"",""trial"",""time""
""fullscreenenter"",""5"",""28343""
","
","","","","","","","","","","","","","","","","","","","","","",""
"d3-instructions","17","130634","0.0-17.0","741","648","23","Female","false","false","false","false","""event"",""trial"",""time""
""fullscreenenter"",""5"",""28343""
","
","
","""event"",""trial"",""time""
""fullscreenenter"",""5"",""28343""
","
","","","","","","","","","","","","","","","","","","","","","",""
"d3-instructions","18","145041","0.0-18.0","741","648","23","Female","false","false","false","false","""event"",""trial"",""time""
""fullscreenenter"",""5"",""28343""
","
","
","""event"",""trial"",""time""
""fullscreenenter"",""5"",""28343""
","
","","","","","","","","","","","","","","","","","","","","","",""
"d3-instructions","19","158561","0.0-19.0","741","648","23","Female","false","false","false","false","""event"",""trial"",""time""
""fullscreenenter"",""5"",""28343""
","
","
","""event"",""trial"",""time""
""fullscreenenter"",""5"",""28343""
","
","","","","","","","","","","","","","","","","","","","","","",""
"d3-animate-choice","20","160980","0.0-20.0","741","648","23","Female","false","false","false","false","""event"",""trial"",""time""
""fullscreenenter"",""5"",""28343""
","
","
","""event"",""trial"",""time""
""fullscreenenter"",""5"",""28343""
","
","413.69999998807907","","49","","","3000","1","","","images/tutyellowplanet.jpg","null","images/tutalien3","null","images/tutalien3","images/t.png","NA","practice","null","","","",""
"d3-animate-choice","21","163275","0.0-21.0","741","648","23","Female","false","false","false","false","""event"",""trial"",""time""
""fullscreenenter"",""5"",""28343""
","
","
","""event"",""trial"",""time""
""fullscreenenter"",""5"",""28343""
","
","292.5","","49","","","3000","1","","","images/tutyellowplanet.jpg","null","images/tutalien3","null","images/tutalien3","images/t.png","NA","practice","null","","","",""
"d3-animate-choice","22","165546","0.0-22.0","741","648","23","Female","false","false","false","false","""event"",""trial"",""time""
""fullscreenenter"",""5"",""28343""
","
","
","""event"",""trial"",""time""
""fullscreenenter"",""5"",""28343""
","
","252.40000000596046","","49","","","3000","1","","","images/tutyellowplanet.jpg","null","images/tutalien3","null","images/tutalien3","images/nothing.png","NA","practice","null","","","",""
"d3-animate-choice","23","167789","0.0-23.0","741","648","23","Female","false","false","false","false","""event"",""trial"",""time""
""fullscreenenter"",""5"",""28343""
","
","
","""event"",""trial"",""time""
""fullscreenenter"",""5"",""28343""
","
","229.30000001192093","","49","","","3000","1","","","images/tutyellowplanet.jpg","null","images/tutalien3","null","images/tutalien3","images/t.png","NA","practice","null","","","",""
"d3-animate-choice","24","170182","0.0-24.0","741","648","23","Female","false","false","false","false","""event"",""trial"",""time""
""fullscreenenter"",""5"",""28343""
","
","
","""event"",""trial"",""time""
""fullscreenenter"",""5"",""28343""
","
","378.89999997615814","","49","","","3000","1","","","images/tutyellowplanet.jpg","null","images/tutalien3","null","images/tutalien3","images/nothing.png","NA","practice","null","","","",""
"d3-animate-choice","25","172396","0.0-25.0","741","648","23","Female","false","false","false","false","""event"",""trial"",""time""
""fullscreenenter"",""5"",""28343""
","
","
","""event"",""trial"",""time""
""fullscreenenter"",""5"",""28343""
","
","210.30000001192093","","49","","","3000","1","","","images/tutyellowplanet.jpg","null","images/tutalien3","null","images/tutalien3","images/nothing.png","NA","practice","null","","","",""
"d3-animate-choice","26","174639","0.0-26.0","741","648","23","Female","false","false","false","false","""event"",""trial"",""time""
""fullscreenenter"",""5"",""28343""
","
","
","""event"",""trial"",""time""
""fullscreenenter"",""5"",""28343""
","
","228.19999998807907","","49","","","3000","1","","","images/tutyellowplanet.jpg","null","images/tutalien3","null","images/tutalien3","images/t.png","NA","practice","null","","","",""
"d3-animate-choice","27","177107","0.0-27.0","741","648","23","Female","false","false","false","false","""event"",""trial"",""time""
""fullscreenenter"",""5"",""28343""
","
","
","""event"",""trial"",""time""
""fullscreenenter"",""5"",""28343""
","
","464.59999999403954","","49","","","3000","1","","","images/tutyellowplanet.jpg","null","images/tutalien3","null","images/tutalien3","images/t.png","NA","practice","null","","","",""
"d3-animate-choice","28","179380","0.0-28.0","741","648","23","Female","false","false","false","false","""event"",""trial"",""time""
""fullscreenenter"",""5"",""28343""
","
","
","""event"",""trial"",""time""
""fullscreenenter"",""5"",""28343""
","
","260.7000000178814","","49","","","3000","1","","","images/tutyellowplanet.jpg","null","images/tutalien3","null","images/tutalien3","images/t.png","NA","practice","null","","","",""
"d3-animate-choice","29","181789","0.0-29.0","741","648","23","Female","false","false","false","false","""event"",""trial"",""time""
""fullscreenenter"",""5"",""28343""
","
","
","""event"",""trial"",""time""
""fullscreenenter"",""5"",""28343""
","
","395.59999999403954","","49","","","3000","1","","","images/tutyellowplanet.jpg","null","images/tutalien3","null","images/tutalien3","images/t.png","NA","practice","null","","","",""
"d3-instructions","30","184361","0.0-30.0","741","648","23","Female","false","false","false","false","""event"",""trial"",""time""
""fullscreenenter"",""5"",""28343""
","
","
","""event"",""trial"",""time""
""fullscreenenter"",""5"",""28343""
","
","","","","","","","","","","","","","","","","","","","","","",""
"d3-instructions","31","189097","0.0-31.0","741","648","23","Female","false","false","false","false","""event"",""trial"",""time""
""fullscreenenter"",""5"",""28343""
","
","
","""event"",""trial"",""time""
""fullscreenenter"",""5"",""28343""
","
","","","","","","","","","","","","","","","","","","","","","",""
"d3-instructions","32","193417","0.0-32.0","741","648","23","Female","false","false","false","false","""event"",""trial"",""time""
""fullscreenenter"",""5"",""28343""
","
","
","""event"",""trial"",""time""
""fullscreenenter"",""5"",""28343""
","
","","","","","","","","","","","","","","","","","","","","","",""
"d3-instructions","33","196521","0.0-33.0","741","648","23","Female","false","false","false","false","""event"",""trial"",""time""
""fullscreenenter"",""5"",""28343""
","
","
","""event"",""trial"",""time""
""fullscreenenter"",""5"",""28343""
","
","","","","","","","","","","","","","","","","","","","","","",""
"d3-animate-choice","34","199414","0.0-34.0","741","648","23","Female","false","false","false","false","""event"",""trial"",""time""
""fullscreenenter"",""5"",""28343""
","
","
","""event"",""trial"",""time""
""fullscreenenter"",""5"",""28343""
","
","878.5","","49","","","3000","1","","","images/tutgreenplanet.jpg","images/tutalien1","images/tutalien2","null","images/tutalien2","images/t.png","NA","practice","null","","","",""
"d3-animate-choice","35","201725","0.0-35.0","741","648","23","Female","false","false","false","false","""event"",""trial"",""time""
""fullscreenenter"",""5"",""28343""
","
","
","""event"",""trial"",""time""
""fullscreenenter"",""5"",""28343""
","
","306.19999998807907","","49","","","3000","1","","","images/tutgreenplanet.jpg","images/tutalien1","images/tutalien2","null","images/tutalien2","images/t.png","NA","practice","null","","","",""
"d3-animate-choice","36","204451","0.0-36.0","741","648","23","Female","false","false","false","false","""event"",""trial"",""time""
""fullscreenenter"",""5"",""28343""
","
","
","""event"",""trial"",""time""
""fullscreenenter"",""5"",""28343""
","
","714.2000000178814","","49","","","3000","1","","","images/tutgreenplanet.jpg","images/tutalien1","images/tutalien2","null","images/tutalien2","images/t.png","NA","practice","null","","","",""
"d3-animate-choice","37","207141","0.0-37.0","741","648","23","Female","false","false","false","false","""event"",""trial"",""time""
""fullscreenenter"",""5"",""28343""
","
","
","""event"",""trial"",""time""
""fullscreenenter"",""5"",""28343""
","
","686.7000000178814","","49","","","3000","1","","","images/tutgreenplanet.jpg","images/tutalien1","images/tutalien2","null","images/tutalien2","images/t.png","NA","practice","null","","","",""
"d3-animate-choice","38","209482","0.0-38.0","741","648","23","Female","false","false","false","false","""event"",""trial"",""time""
""fullscreenenter"",""5"",""28343""
","
","
","""event"",""trial"",""time""
""fullscreenenter"",""5"",""28343""
","
","329.90000000596046","","49","","","3000","1","","","images/tutgreenplanet.jpg","images/tutalien1","images/tutalien2","null","images/tutalien2","images/t.png","NA","practice","null","","","",""
"d3-animate-choice","39","211853","0.0-39.0","741","648","23","Female","false","false","false","false","""event"",""trial"",""time""
""fullscreenenter"",""5"",""28343""
","
","
","""event"",""trial"",""time""
""fullscreenenter"",""5"",""28343""
","
","358.2999999821186","","49","","","3000","1","","","images/tutgreenplanet.jpg","images/tutalien1","images/tutalien2","null","images/tutalien2","images/t.png","NA","practice","null","","","",""
"d3-animate-choice","40","214474","0.0-40.0","741","648","23","Female","false","false","false","false","""event"",""trial"",""time""
""fullscreenenter"",""5"",""28343""
","
","
","""event"",""trial"",""time""
""fullscreenenter"",""5"",""28343""
","
","609.9000000059605","","49","","","3000","1","","","images/tutgreenplanet.jpg","images/tutalien1","images/tutalien2","null","images/tutalien2","images/nothing.png","NA","practice","null","","","",""
"d3-animate-choice","41","217339","0.0-41.0","741","648","23","Female","false","false","false","false","""event"",""trial"",""time""
""fullscreenenter"",""5"",""28343""
","
","
","""event"",""trial"",""time""
""fullscreenenter"",""5"",""28343""
","
","861.0999999940395","","49","","","3000","1","","","images/tutgreenplanet.jpg","images/tutalien1","images/tutalien2","null","images/tutalien2","images/t.png","NA","practice","null","","","",""
"d3-animate-choice","42","220060","0.0-42.0","741","648","23","Female","false","false","false","false","""event"",""trial"",""time""
""fullscreenenter"",""5"",""28343""
","
","
","""event"",""trial"",""time""
""fullscreenenter"",""5"",""28343""
","
","717.2000000178814","","49","","","3000","1","","","images/tutgreenplanet.jpg","images/tutalien1","images/tutalien2","null","images/tutalien2","images/t.png","NA","practice","null","","","",""
"d3-animate-choice","43","222380","0.0-43.0","741","648","23","Female","false","false","false","false","""event"",""trial"",""time""
""fullscreenenter"",""5"",""28343""
","
","
","""event"",""trial"",""time""
""fullscreenenter"",""5"",""28343""
","
","315.90000000596046","","49","","","3000","1","","","images/tutgreenplanet.jpg","images/tutalien1","images/tutalien2","null","images/tutalien2","images/t.png","NA","practice","null","","","",""
"d3-instructions","44","235617","0.0-44.0","741","648","23","Female","false","false","false","false","""event"",""trial"",""time""
""fullscreenenter"",""5"",""28343""
","
","
","""event"",""trial"",""time""
""fullscreenenter"",""5"",""28343""
","
","","","","","","","","","","","","","","","","","","","","","",""
"d3-instructions","45","239170","0.0-45.0","741","648","23","Female","false","false","false","false","""event"",""trial"",""time""
""fullscreenenter"",""5"",""28343""
","
","
","""event"",""trial"",""time""
""fullscreenenter"",""5"",""28343""
","
","","","","","","","","","","","","","","","","","","","","","",""
"d3-instructions","46","242305","0.0-46.0","741","648","23","Female","false","false","false","false","""event"",""trial"",""time""
""fullscreenenter"",""5"",""28343""
","
","
","""event"",""trial"",""time""
""fullscreenenter"",""5"",""28343""
","
","","","","","","","","","","","","","","","","","","","","","",""
"d3-instructions","47","258537","0.0-47.0","741","648","23","Female","false","false","false","false","""event"",""trial"",""time""
""fullscreenenter"",""5"",""28343""
","
","
","""event"",""trial"",""time""
""fullscreenenter"",""5"",""28343""
","
","","","","","","","","","","","","","","","","","","","","","",""
"d3-instructions","48","263521","0.0-48.0","741","648","23","Female","false","false","false","false","""event"",""trial"",""time""
""fullscreenenter"",""5"",""28343""
","
","
","""event"",""trial"",""time""
""fullscreenenter"",""5"",""28343""
","
","","","","","","","","","","","","","","","","","","","","","",""
"d3-instructions","49","267136","0.0-49.0","741","648","23","Female","false","false","false","false","""event"",""trial"",""time""
""fullscreenenter"",""5"",""28343""
","
","
","""event"",""trial"",""time""
""fullscreenenter"",""5"",""28343""
","
","","","","","","","","","","","","","","","","","","","","","",""
"d3-instructions","50","269753","0.0-50.0","741","648","23","Female","false","false","false","false","""event"",""trial"",""time""
""fullscreenenter"",""5"",""28343""
","
","
","""event"",""trial"",""time""
""fullscreenenter"",""5"",""28343""
","
","","","","","","","","","","","","","","","","","","","","","",""
"d3-instructions","51","272513","0.0-51.0","741","648","23","Female","false","false","false","false","""event"",""trial"",""time""
""fullscreenenter"",""5"",""28343""
","
","
","""event"",""trial"",""time""
""fullscreenenter"",""5"",""28343""
","
","","","","","","","","","","","","","","","","","","","","","",""
"d3-instructions","52","274537","0.0-52.0","741","648","23","Female","false","false","false","false","""event"",""trial"",""time""
""fullscreenenter"",""5"",""28343""
","
","
","""event"",""trial"",""time""
""fullscreenenter"",""5"",""28343""
","
","","","","","","","","","","","","","","","","","","","","","",""
"d3-instructions","53","282656","0.0-53.0","741","648","23","Female","false","false","false","false","""event"",""trial"",""time""
""fullscreenenter"",""5"",""28343""
","
","
","""event"",""trial"",""time""
""fullscreenenter"",""5"",""28343""
","
","","","","","","","","","","","","","","","","","","","","","",""
"d3-instructions","54","288633","0.0-54.0","741","648","23","Female","false","false","false","false","""event"",""trial"",""time""
""fullscreenenter"",""5"",""28343""
","
","
","""event"",""trial"",""time""
""fullscreenenter"",""5"",""28343""
","
","","","","","","","","","","","","","","","","","","","","","",""
"d3-instructions","55","292224","0.0-55.0","741","648","23","Female","false","false","false","false","""event"",""trial"",""time""
""fullscreenenter"",""5"",""28343""
","
","
","""event"",""trial"",""time""
""fullscreenenter"",""5"",""28343""
","
","","","","","","","","","","","","","","","","","","","","","",""
"d3-instructions","56","298201","0.0-56.0","741","648","23","Female","false","false","false","false","""event"",""trial"",""time""
""fullscreenenter"",""5"",""28343""
","
","
","""event"",""trial"",""time""
""fullscreenenter"",""5"",""28343""
","
","","","","","","","","","","","","","","","","","","","","","",""
"d3-instructions","57","309035","0.0-57.0","741","648","23","Female","false","false","false","false","""event"",""trial"",""time""
""fullscreenenter"",""5"",""28343""
","
","
","""event"",""trial"",""time""
""fullscreenenter"",""5"",""28343""
","
","","","","","","","","","","","","","","","","","","","","","",""
"d3-instructions","58","311929","0.0-58.0","741","648","23","Female","false","false","false","false","""event"",""trial"",""time""
""fullscreenenter"",""5"",""28343""
","
","
","""event"",""trial"",""time""
""fullscreenenter"",""5"",""28343""
","
","","","","","","","","","","","","","","","","","","","","","",""
"d3-instructions","59","314936","0.0-59.0","741","648","23","Female","false","false","false","false","""event"",""trial"",""time""
""fullscreenenter"",""5"",""28343""
","
","
","""event"",""trial"",""time""
""fullscreenenter"",""5"",""28343""
","
","","","","","","","","","","","","","","","","","","","","","",""
"d3-instructions","60","317913","0.0-60.0","741","648","23","Female","false","false","false","false","""event"",""trial"",""time""
""fullscreenenter"",""5"",""28343""
","
","
","""event"",""trial"",""time""
""fullscreenenter"",""5"",""28343""
","
","","","","","","","","","","","","","","","","","","","","","",""
"d3-animate-choice","61","321226","0.0-61.0-0.0","741","648","23","Female","false","false","false","false","""event"",""trial"",""time""
""fullscreenenter"",""5"",""28343""
","
","
","""event"",""trial"",""time""
""fullscreenenter"",""5"",""28343""
","
","1309.0999999940395","","49","","","3000","1","","","images/earth.jpg","images/tutrocket2","images/tutrocket1","null","images/tutrocket1","","1","practice","null","1","","",""
"d3-animate-choice","62","324212","0.0-61.0-1.0","741","648","23","Female","false","false","false","false","""event"",""trial"",""time""
""fullscreenenter"",""5"",""28343""
","
","
","""event"",""trial"",""time""
""fullscreenenter"",""5"",""28343""
","
","979.4000000059605","","49","","","3000","1","","","images/tutyellowplanet.jpg","images/tutalien4","images/tutalien3","images/tutrocket1","images/tutalien3","images/t.png","2","practice","true","1","common","1","2022-02-05 22:38:54.119"
"two-step-fixation","63","325222","0.0-61.0-2.0","741","648","23","Female","false","false","false","false","""event"",""trial"",""time""
""fullscreenenter"",""5"",""28343""
","
","
","""event"",""trial"",""time""
""fullscreenenter"",""5"",""28343""
","
","","images/earth.jpg","","","","","","","","","","","","","","fixation","","","","","",""
"d3-animate-choice","64","327732","0.0-61.0-0.1","741","648","23","Female","false","false","false","false","""event"",""trial"",""time""
""fullscreenenter"",""5"",""28343""
","
","
","""event"",""trial"",""time""
""fullscreenenter"",""5"",""28343""
","
","504.7999999821186","","49","","","3000","1","","","images/earth.jpg","images/tutrocket2","images/tutrocket1","null","images/tutrocket1","","1","practice","null","1","","",""
"d3-animate-choice","65","330698","0.0-61.0-1.1","741","648","23","Female","false","false","false","false","""event"",""trial"",""time""
""fullscreenenter"",""5"",""28343""
","
","
","""event"",""trial"",""time""
""fullscreenenter"",""5"",""28343""
","
","962.6999999880791","","49","","","3000","1","","","images/tutgreenplanet.jpg","images/tutalien2","images/tutalien1","images/tutrocket1","images/tutalien1","images/nothing.png","2","practice","false","1","rare","0","2022-02-05 22:39:00.605"
"two-step-fixation","66","331702","0.0-61.0-2.1","741","648","23","Female","false","false","false","false","""event"",""trial"",""time""
""fullscreenenter"",""5"",""28343""
","
","
","""event"",""trial"",""time""
""fullscreenenter"",""5"",""28343""
","
","","images/earth.jpg","","","","","","","","","","","","","","fixation","","","","","",""
"d3-animate-choice","67","334489","0.0-61.0-0.2","741","648","23","Female","false","false","false","false","""event"",""trial"",""time""
""fullscreenenter"",""5"",""28343""
","
","
","""event"",""trial"",""time""
""fullscreenenter"",""5"",""28343""
","
","776.3000000119209","","48","","","3000","1","","","images/earth.jpg","images/tutrocket2","images/tutrocket1","null","images/tutrocket2","","1","practice","null","2","","",""
"d3-animate-choice","68","337675","0.0-61.0-1.2","741","648","23","Female","false","false","false","false","""event"",""trial"",""time""
""fullscreenenter"",""5"",""28343""
","
","
","""event"",""trial"",""time""
""fullscreenenter"",""5"",""28343""
","
","1181.800000011921","","49","","","3000","1","","","images/tutgreenplanet.jpg","images/tutalien2","images/tutalien1","images/tutrocket2","images/tutalien1","images/nothing.png","2","practice","true","1","common","0","2022-02-05 22:39:07.582"
"two-step-fixation","69","338678","0.0-61.0-2.2","741","648","23","Female","false","false","false","false","""event"",""trial"",""time""
""fullscreenenter"",""5"",""28343""
","
","
","""event"",""trial"",""time""
""fullscreenenter"",""5"",""28343""
","
","","images/earth.jpg","","","","","","","","","","","","","","fixation","","","","","",""
"d3-animate-choice","70","340990","0.0-61.0-0.3","741","648","23","Female","false","false","false","false","""event"",""trial"",""time""
""fullscreenenter"",""5"",""28343""
","
","
","""event"",""trial"",""time""
""fullscreenenter"",""5"",""28343""
","
","303.90000000596046","","48","","","3000","1","","","images/earth.jpg","images/tutrocket2","images/tutrocket1","null","images/tutrocket2","","1","practice","null","2","","",""
"d3-animate-choice","71","343415","0.0-61.0-1.3","741","648","23","Female","false","false","false","false","""event"",""trial"",""time""
""fullscreenenter"",""5"",""28343""
","
","
","""event"",""trial"",""time""
""fullscreenenter"",""5"",""28343""
","
","408.7999999821186","","48","","","3000","1","","","images/tutgreenplanet.jpg","images/tutalien2","images/tutalien1","images/tutrocket2","images/tutalien2","images/nothing.png","2","practice","true","2","common","0","2022-02-05 22:39:13.322"
"two-step-fixation","72","344425","0.0-61.0-2.3","741","648","23","Female","false","false","false","false","""event"",""trial"",""time""
""fullscreenenter"",""5"",""28343""
","
","
","""event"",""trial"",""time""
""fullscreenenter"",""5"",""28343""
","
","","images/earth.jpg","","","","","","","","","","","","","","fixation","","","","","",""
"d3-animate-choice","73","346978","0.0-61.0-0.4","741","648","23","Female","false","false","false","false","""event"",""trial"",""time""
""fullscreenenter"",""5"",""28343""
","
","
","""event"",""trial"",""time""
""fullscreenenter"",""5"",""28343""
","
","549.0999999940395","","48","","","3000","1","","","images/earth.jpg","images/tutrocket2","images/tutrocket1","null","images/tutrocket2","","1","practice","null","2","","",""
"d3-animate-choice","74","350122","0.0-61.0-1.4","741","648","23","Female","false","false","false","false","""event"",""trial"",""time""
""fullscreenenter"",""5"",""28343""
","
","
","""event"",""trial"",""time""
""fullscreenenter"",""5"",""28343""
","
","1141.0999999940395","","49","","","3000","1","","","images/tutyellowplanet.jpg","images/tutalien4","images/tutalien3","images/tutrocket2","images/tutalien3","images/nothing.png","2","practice","false","1","rare","0","2022-02-05 22:39:20.029"
"two-step-fixation","75","351126","0.0-61.0-2.4","741","648","23","Female","false","false","false","false","""event"",""trial"",""time""
""fullscreenenter"",""5"",""28343""
","
","
","""event"",""trial"",""time""
""fullscreenenter"",""5"",""28343""
","
","","images/earth.jpg","","","","","","","","","","","","","","fixation","","","","","",""
"d3-animate-choice","76","353898","0.0-61.0-0.5","741","648","23","Female","false","false","false","false","""event"",""trial"",""time""
""fullscreenenter"",""5"",""28343""
","
","
","""event"",""trial"",""time""
""fullscreenenter"",""5"",""28343""
","
","767.9000000059605","","49","","","3000","1","","","images/earth.jpg","images/tutrocket2","images/tutrocket1","null","images/tutrocket1","","1","practice","null","1","","",""
"d3-animate-choice","77","356329","0.0-61.0-1.5","741","648","23","Female","false","false","false","false","""event"",""trial"",""time""
""fullscreenenter"",""5"",""28343""
","
","
","""event"",""trial"",""time""
""fullscreenenter"",""5"",""28343""
","
","428.5","","48","","","3000","1","","","images/tutyellowplanet.jpg","images/tutalien4","images/tutalien3","images/tutrocket1","images/tutalien4","images/nothing.png","2","practice","true","2","common","0","2022-02-05 22:39:26.236"
"two-step-fixation","78","357333","0.0-61.0-2.5","741","648","23","Female","false","false","false","false","""event"",""trial"",""time""
""fullscreenenter"",""5"",""28343""
","
","
","""event"",""trial"",""time""
""fullscreenenter"",""5"",""28343""
","
","","images/earth.jpg","","","","","","","","","","","","","","fixation","","","","","",""
"d3-animate-choice","79","359963","0.0-61.0-0.6","741","648","23","Female","false","false","false","false","""event"",""trial"",""time""
""fullscreenenter"",""5"",""28343""
","
","
","""event"",""trial"",""time""
""fullscreenenter"",""5"",""28343""
","
","625.5","","49","","","3000","1","","","images/earth.jpg","images/tutrocket2","images/tutrocket1","null","images/tutrocket1","","1","practice","null","1","","",""
"d3-animate-choice","80","362314","0.0-61.0-1.6","741","648","23","Female","false","false","false","false","""event"",""trial"",""time""
""fullscreenenter"",""5"",""28343""
","
","
","""event"",""trial"",""time""
""fullscreenenter"",""5"",""28343""
","
","349.09999999403954","","48","","","3000","1","","","images/tutgreenplanet.jpg","images/tutalien2","images/tutalien1","images/tutrocket1","images/tutalien2","images/nothing.png","2","practice","false","2","rare","0","2022-02-05 22:39:32.221"
"two-step-fixation","81","363319","0.0-61.0-2.6","741","648","23","Female","false","false","false","false","""event"",""trial"",""time""
""fullscreenenter"",""5"",""28343""
","
","
","""event"",""trial"",""time""
""fullscreenenter"",""5"",""28343""
","
","","images/earth.jpg","","","","","","","","","","","","","","fixation","","","","","",""
"d3-animate-choice","82","365890","0.0-61.0-0.7","741","648","23","Female","false","false","false","false","""event"",""trial"",""time""
""fullscreenenter"",""5"",""28343""
","
","
","""event"",""trial"",""time""
""fullscreenenter"",""5"",""28343""
","
","568.5","","49","","","3000","1","","","images/earth.jpg","images/tutrocket2","images/tutrocket1","null","images/tutrocket1","","1","practice","null","1","","",""
"d3-animate-choice","83","368499","0.0-61.0-1.7","741","648","23","Female","false","false","false","false","""event"",""trial"",""time""
""fullscreenenter"",""5"",""28343""
","
","
","""event"",""trial"",""time""
""fullscreenenter"",""5"",""28343""
","
","605.8000000119209","","49","","","3000","1","","","images/tutyellowplanet.jpg","images/tutalien4","images/tutalien3","images/tutrocket1","images/tutalien3","images/t.png","2","practice","true","1","common","1","2022-02-05 22:39:38.406"
"two-step-fixation","84","369502","0.0-61.0-2.7","741","648","23","Female","false","false","false","false","""event"",""trial"",""time""
""fullscreenenter"",""5"",""28343""
","
","
","""event"",""trial"",""time""
""fullscreenenter"",""5"",""28343""
","
","","images/earth.jpg","","","","","","","","","","","","","","fixation","","","","","",""
"d3-animate-choice","85","372347","0.0-61.0-0.8","741","648","23","Female","false","false","false","false","""event"",""trial"",""time""
""fullscreenenter"",""5"",""28343""
","
","
","""event"",""trial"",""time""
""fullscreenenter"",""5"",""28343""
","
","841.1000000238419","","48","","","3000","1","","","images/earth.jpg","images/tutrocket2","images/tutrocket1","null","images/tutrocket2","","1","practice","null","2","","",""
"d3-animate-choice","86","375538","0.0-61.0-1.8","741","648","23","Female","false","false","false","false","""event"",""trial"",""time""
""fullscreenenter"",""5"",""28343""
","
","
","""event"",""trial"",""time""
""fullscreenenter"",""5"",""28343""
","
","1187.8999999761581","","49","","","3000","1","","","images/tutgreenplanet.jpg","images/tutalien2","images/tutalien1","images/tutrocket2","images/tutalien1","images/nothing.png","2","practice","true","1","common","0","2022-02-05 22:39:45.445"
"two-step-fixation","87","376542","0.0-61.0-2.8","741","648","23","Female","false","false","false","false","""event"",""trial"",""time""
""fullscreenenter"",""5"",""28343""
","
","
","""event"",""trial"",""time""
""fullscreenenter"",""5"",""28343""
","
","","images/earth.jpg","","","","","","","","","","","","","","fixation","","","","","",""
"d3-animate-choice","88","378858","0.0-61.0-0.9","741","648","23","Female","false","false","false","false","""event"",""trial"",""time""
""fullscreenenter"",""5"",""28343""
","
","
","""event"",""trial"",""time""
""fullscreenenter"",""5"",""28343""
","
","312.19999998807907","","48","","","3000","1","","","images/earth.jpg","images/tutrocket2","images/tutrocket1","null","images/tutrocket2","","1","practice","null","2","","",""
"d3-animate-choice","89","381827","0.0-61.0-1.9","741","648","23","Female","false","false","false","false","""event"",""trial"",""time""
""fullscreenenter"",""5"",""28343""
","
","
","""event"",""trial"",""time""
""fullscreenenter"",""5"",""28343""
","
","964.7999999821186","","48","","","3000","1","","","images/tutgreenplanet.jpg","images/tutalien2","images/tutalien1","images/tutrocket2","images/tutalien2","images/t.png","2","practice","true","2","common","1","2022-02-05 22:39:51.735"
"two-step-fixation","90","382831","0.0-61.0-2.9","741","648","23","Female","false","false","false","false","""event"",""trial"",""time""
""fullscreenenter"",""5"",""28343""
","
","
","""event"",""trial"",""time""
""fullscreenenter"",""5"",""28343""
","
","","images/earth.jpg","","","","","","","","","","","","","","fixation","","","","","",""
"d3-animate-choice","91","385275","0.0-61.0-0.10","741","648","23","Female","false","false","false","false","""event"",""trial"",""time""
""fullscreenenter"",""5"",""28343""
","
","
","""event"",""trial"",""time""
""fullscreenenter"",""5"",""28343""
","
","440","","48","","","3000","1","","","images/earth.jpg","images/tutrocket2","images/tutrocket1","null","images/tutrocket2","","1","practice","null","2","","",""
"d3-animate-choice","92","388257","0.0-61.0-1.10","741","648","23","Female","false","false","false","false","""event"",""trial"",""time""
""fullscreenenter"",""5"",""28343""
","
","
","""event"",""trial"",""time""
""fullscreenenter"",""5"",""28343""
","
","979.8999999761581","","48","","","3000","1","","","images/tutgreenplanet.jpg","images/tutalien2","images/tutalien1","images/tutrocket2","images/tutalien2","images/t.png","2","practice","true","2","common","1","2022-02-05 22:39:58.164"
"two-step-fixation","93","389261","0.0-61.0-2.10","741","648","23","Female","false","false","false","false","""event"",""trial"",""time""
""fullscreenenter"",""5"",""28343""
","
","
","""event"",""trial"",""time""
""fullscreenenter"",""5"",""28343""
","
","","images/earth.jpg","","","","","","","","","","","","","","fixation","","","","","",""
"d3-animate-choice","94","391514","0.0-61.0-0.11","741","648","23","Female","false","false","false","false","""event"",""trial"",""time""
""fullscreenenter"",""5"",""28343""
","
","
","""event"",""trial"",""time""
""fullscreenenter"",""5"",""28343""
","
","249.60000002384186","","48","","","3000","1","","","images/earth.jpg","images/tutrocket2","images/tutrocket1","null","images/tutrocket2","","1","practice","null","2","","",""
"d3-animate-choice","95","394497","0.0-61.0-1.11","741","648","23","Female","false","false","false","false","""event"",""trial"",""time""
""fullscreenenter"",""5"",""28343""
","
","
","""event"",""trial"",""time""
""fullscreenenter"",""5"",""28343""
","
","980.0999999940395","","49","","","3000","1","","","images/tutyellowplanet.jpg","images/tutalien4","images/tutalien3","images/tutrocket2","images/tutalien3","images/nothing.png","2","practice","false","1","rare","0","2022-02-05 22:40:04.404"
"two-step-fixation","96","395501","0.0-61.0-2.11","741","648","23","Female","false","false","false","false","""event"",""trial"",""time""
""fullscreenenter"",""5"",""28343""
","
","
","""event"",""trial"",""time""
""fullscreenenter"",""5"",""28343""
","
","","images/earth.jpg","","","","","","","","","","","","","","fixation","","","","","",""
"d3-animate-choice","97","397763","0.0-61.0-0.12","741","648","23","Female","false","false","false","false","""event"",""trial"",""time""
""fullscreenenter"",""5"",""28343""
","
","
","""event"",""trial"",""time""
""fullscreenenter"",""5"",""28343""
","
","257.90000000596046","","48","","","3000","1","","","images/earth.jpg","images/tutrocket2","images/tutrocket1","null","images/tutrocket2","","1","practice","null","2","","",""
"d3-animate-choice","98","400242","0.0-61.0-1.12","741","648","23","Female","false","false","false","false","""event"",""trial"",""time""
""fullscreenenter"",""5"",""28343""
","
","
","""event"",""trial"",""time""
""fullscreenenter"",""5"",""28343""
","
","476","","48","","","3000","1","","","images/tutgreenplanet.jpg","images/tutalien2","images/tutalien1","images/tutrocket2","images/tutalien2","images/t.png","2","practice","true","2","common","1","2022-02-05 22:40:10.149"
"two-step-fixation","99","401246","0.0-61.0-2.12","741","648","23","Female","false","false","false","false","""event"",""trial"",""time""
""fullscreenenter"",""5"",""28343""
","
","
","""event"",""trial"",""time""
""fullscreenenter"",""5"",""28343""
","
","","images/earth.jpg","","","","","","","","","","","","","","fixation","","","","","",""
"d3-animate-choice","100","403562","0.0-61.0-0.13","741","648","23","Female","false","false","false","false","""event"",""trial"",""time""
""fullscreenenter"",""5"",""28343""
","
","
","""event"",""trial"",""time""
""fullscreenenter"",""5"",""28343""
","
","312.40000000596046","","48","","","3000","1","","","images/earth.jpg","images/tutrocket2","images/tutrocket1","null","images/tutrocket2","","1","practice","null","2","","",""
"d3-animate-choice","101","406506","0.0-61.0-1.13","741","648","23","Female","false","false","false","false","""event"",""trial"",""time""
""fullscreenenter"",""5"",""28343""
","
","
","""event"",""trial"",""time""
""fullscreenenter"",""5"",""28343""
","
","941.3999999761581","","49","","","3000","1","","","images/tutyellowplanet.jpg","images/tutalien4","images/tutalien3","images/tutrocket2","images/tutalien3","images/nothing.png","2","practice","false","1","rare","0","2022-02-05 22:40:16.413"
"two-step-fixation","102","407510","0.0-61.0-2.13","741","648","23","Female","false","false","false","false","""event"",""trial"",""time""
""fullscreenenter"",""5"",""28343""
","
","
","""event"",""trial"",""time""
""fullscreenenter"",""5"",""28343""
","
","","images/earth.jpg","","","","","","","","","","","","","","fixation","","","","","",""
"d3-animate-choice","103","409841","0.0-61.0-0.14","741","648","23","Female","false","false","false","false","""event"",""trial"",""time""
""fullscreenenter"",""5"",""28343""
","
","
","""event"",""trial"",""time""
""fullscreenenter"",""5"",""28343""
","
","328.60000002384186","","48","","","3000","1","","","images/earth.jpg","images/tutrocket2","images/tutrocket1","null","images/tutrocket2","","1","practice","null","2","","",""
"d3-animate-choice","104","412354","0.0-61.0-1.14","741","648","23","Female","false","false","false","false","""event"",""trial"",""time""
""fullscreenenter"",""5"",""28343""
","
","
","""event"",""trial"",""time""
""fullscreenenter"",""5"",""28343""
","
","509.2999999821186","","48","","","3000","1","","","images/tutgreenplanet.jpg","images/tutalien2","images/tutalien1","images/tutrocket2","images/tutalien2","images/nothing.png","2","practice","true","2","common","0","2022-02-05 22:40:22.261"
"two-step-fixation","105","413356","0.0-61.0-2.14","741","648","23","Female","false","false","false","false","""event"",""trial"",""time""
""fullscreenenter"",""5"",""28343""
","
","
","""event"",""trial"",""time""
""fullscreenenter"",""5"",""28343""
","
","","images/earth.jpg","","","","","","","","","","","","","","fixation","","","","","",""
"d3-animate-choice","106","415770","0.0-61.0-0.15","741","648","23","Female","false","false","false","false","""event"",""trial"",""time""
""fullscreenenter"",""5"",""28343""
","
","
","""event"",""trial"",""time""
""fullscreenenter"",""5"",""28343""
","
","411.09999999403954","","48","","","3000","1","","","images/earth.jpg","images/tutrocket2","images/tutrocket1","null","images/tutrocket2","","1","practice","null","2","","",""
"d3-animate-choice","107","418195","0.0-61.0-1.15","741","648","23","Female","false","false","false","false","""event"",""trial"",""time""
""fullscreenenter"",""5"",""28343""
","
","
","""event"",""trial"",""time""
""fullscreenenter"",""5"",""28343""
","
","421.40000000596046","","48","","","3000","1","","","images/tutgreenplanet.jpg","images/tutalien2","images/tutalien1","images/tutrocket2","images/tutalien2","images/nothing.png","2","practice","true","2","common","0","2022-02-05 22:40:28.102"
"two-step-fixation","108","419199","0.0-61.0-2.15","741","648","23","Female","false","false","false","false","""event"",""trial"",""time""
""fullscreenenter"",""5"",""28343""
","
","
","""event"",""trial"",""time""
""fullscreenenter"",""5"",""28343""
","
","","images/earth.jpg","","","","","","","","","","","","","","fixation","","","","","",""
"d3-animate-choice","109","421931","0.0-61.0-0.16","741","648","23","Female","false","false","false","false","""event"",""trial"",""time""
""fullscreenenter"",""5"",""28343""
","
","
","""event"",""trial"",""time""
""fullscreenenter"",""5"",""28343""
","
","728.0999999940395","","48","","","3000","1","","","images/earth.jpg","images/tutrocket2","images/tutrocket1","null","images/tutrocket2","","1","practice","null","2","","",""
"d3-animate-choice","110","424874","0.0-61.0-1.16","741","648","23","Female","false","false","false","false","""event"",""trial"",""time""
""fullscreenenter"",""5"",""28343""
","
","
","""event"",""trial"",""time""
""fullscreenenter"",""5"",""28343""
","
","939.9000000059605","","48","","","3000","1","","","images/tutyellowplanet.jpg","images/tutalien4","images/tutalien3","images/tutrocket2","images/tutalien4","images/t.png","2","practice","false","2","rare","1","2022-02-05 22:40:34.781"
"two-step-fixation","111","425878","0.0-61.0-2.16","741","648","23","Female","false","false","false","false","""event"",""trial"",""time""
""fullscreenenter"",""5"",""28343""
","
","
","""event"",""trial"",""time""
""fullscreenenter"",""5"",""28343""
","
","","images/earth.jpg","","","","","","","","","","","","","","fixation","","","","","",""
"d3-animate-choice","112","428242","0.0-61.0-0.17","741","648","23","Female","false","false","false","false","""event"",""trial"",""time""
""fullscreenenter"",""5"",""28343""
","
","
","""event"",""trial"",""time""
""fullscreenenter"",""5"",""28343""
","
","360.69999998807907","","49","","","3000","1","","","images/earth.jpg","images/tutrocket2","images/tutrocket1","null","images/tutrocket1","","1","practice","null","1","","",""
"d3-animate-choice","113","431002","0.0-61.0-1.17","741","648","23","Female","false","false","false","false","""event"",""trial"",""time""
""fullscreenenter"",""5"",""28343""
","
","
","""event"",""trial"",""time""
""fullscreenenter"",""5"",""28343""
","
","756.4000000059605","","48","","","3000","1","","","images/tutgreenplanet.jpg","images/tutalien2","images/tutalien1","images/tutrocket1","images/tutalien2","images/nothing.png","2","practice","false","2","rare","0","2022-02-05 22:40:40.909"
"two-step-fixation","114","432007","0.0-61.0-2.17","741","648","23","Female","false","false","false","false","""event"",""trial"",""time""
""fullscreenenter"",""5"",""28343""
","
","
","""event"",""trial"",""time""
""fullscreenenter"",""5"",""28343""
","
","","images/earth.jpg","","","","","","","","","","","","","","fixation","","","","","",""
"d3-animate-choice","115","434274","0.0-61.0-0.18","741","648","23","Female","false","false","false","false","""event"",""trial"",""time""
""fullscreenenter"",""5"",""28343""
","
","
","""event"",""trial"",""time""
""fullscreenenter"",""5"",""28343""
","
","263.80000001192093","","49","","","3000","1","","","images/earth.jpg","images/tutrocket2","images/tutrocket1","null","images/tutrocket1","","1","practice","null","1","","",""
"d3-animate-choice","116","436762","0.0-61.0-1.18","741","648","23","Female","false","false","false","false","""event"",""trial"",""time""
""fullscreenenter"",""5"",""28343""
","
","
","""event"",""trial"",""time""
""fullscreenenter"",""5"",""28343""
","
","484.59999999403954","","48","","","3000","1","","","images/tutyellowplanet.jpg","images/tutalien4","images/tutalien3","images/tutrocket1","images/tutalien4","images/t.png","2","practice","true","2","common","1","2022-02-05 22:40:46.669"
"two-step-fixation","117","437766","0.0-61.0-2.18","741","648","23","Female","false","false","false","false","""event"",""trial"",""time""
""fullscreenenter"",""5"",""28343""
","
","
","""event"",""trial"",""time""
""fullscreenenter"",""5"",""28343""
","
","","images/earth.jpg","","","","","","","","","","","","","","fixation","","","","","",""
"d3-animate-choice","118","440122","0.0-61.0-0.19","741","648","23","Female","false","false","false","false","""event"",""trial"",""time""
""fullscreenenter"",""5"",""28343""
","
","
","""event"",""trial"",""time""
""fullscreenenter"",""5"",""28343""
","
","352.40000000596046","","49","","","3000","1","","","images/earth.jpg","images/tutrocket2","images/tutrocket1","null","images/tutrocket1","","1","practice","null","1","","",""
"d3-animate-choice","119","443001","0.0-61.0-1.19","741","648","23","Female","false","false","false","false","""event"",""trial"",""time""
""fullscreenenter"",""5"",""28343""
","
","
","""event"",""trial"",""time""
""fullscreenenter"",""5"",""28343""
","
","876.8000000119209","","48","","","3000","1","","","images/tutyellowplanet.jpg","images/tutalien4","images/tutalien3","images/tutrocket1","images/tutalien4","images/nothing.png","2","practice","true","2","common","0","2022-02-05 22:40:52.908"
"two-step-fixation","120","444005","0.0-61.0-2.19","741","648","23","Female","false","false","false","false","""event"",""trial"",""time""
""fullscreenenter"",""5"",""28343""
","
","
","""event"",""trial"",""time""
""fullscreenenter"",""5"",""28343""
","
","","images/earth.jpg","","","","","","","","","","","","","","fixation","","","","","",""
"d3-instructions","121","449409","0.0-62.0","741","648","23","Female","false","false","false","false","""event"",""trial"",""time""
""fullscreenenter"",""5"",""28343""
","
","
","""event"",""trial"",""time""
""fullscreenenter"",""5"",""28343""
","
","","","","","","","","","","","","","","","","","","","","","",""
"audio-keyboard-response","122","452889","0.0-63.0","741","648","23","Female","false","false","false","false","""event"",""trial"",""time""
""fullscreenenter"",""5"",""28343""
","
","
","""event"",""trial"",""time""
""fullscreenenter"",""5"",""28343""
","
","3480","audio/instructions/treasure_feedback.wav","32","","","","","","","","","","","","","","","","","","",""
"d3-instructions","123","459617","0.0-64.0","741","648","23","Female","false","false","false","false","""event"",""trial"",""time""
""fullscreenenter"",""5"",""28343""
","
","
","""event"",""trial"",""time""
""fullscreenenter"",""5"",""28343""
","
","","","","","","","","","","","","","","","","","","","","","",""
"d3-instructions","124","478257","0.0-65.0","741","648","23","Female","false","false","false","false","""event"",""trial"",""time""
""fullscreenenter"",""5"",""28343""
","
","
","""event"",""trial"",""time""
""fullscreenenter"",""5"",""28343""
","
","","","","","","","","","","","","","","","","","","","","","",""
"d3-instructions","125","504689","0.0-66.0","741","648","23","Female","false","false","false","false","""event"",""trial"",""time""
""fullscreenenter"",""5"",""28343""
","
","
","""event"",""trial"",""time""
""fullscreenenter"",""5"",""28343""
","
","","","","","","","","","","","","","","","","","","","","","",""
"d3-instructions","126","508690","0.0-67.0","741","648","23","Female","false","false","false","false","""event"",""trial"",""time""
""fullscreenenter"",""5"",""28343""
","
","
","""event"",""trial"",""time""
""fullscreenenter"",""5"",""28343""
","
","","","","","","","","","","","","","","","","","","","","","",""
"d3-instructions","127","510777","0.0-68.0","741","648","23","Female","false","false","false","false","""event"",""trial"",""time""
""fullscreenenter"",""5"",""28343""
","
","
","""event"",""trial"",""time""
""fullscreenenter"",""5"",""28343""
","
","","","","","","","","","","","","","","","","","","","","","",""
"instructions-quiz","128","513505","0.0-69.0","741","648","23","Female","false","false","false","false","""event"",""trial"",""time""
""fullscreenenter"",""5"",""28343""
","
","
","""event"",""trial"",""time""
""fullscreenenter"",""5"",""28343""
","
","2725.699999988079","audio/quiz/Q1_Prompt.wav","","1","","","","","","","","","","","","","","","","","",""
"audio-keyboard-response","129","514874","0.0-70.0","741","648","23","Female","false","false","false","false","""event"",""trial"",""time""
""fullscreenenter"",""5"",""28343""
","
","
","""event"",""trial"",""time""
""fullscreenenter"",""5"",""28343""
","
","1371","audio/quiz/Q1_Correct.wav","32","","","","","","","","","","","","","","","","","","",""
"instructions-quiz","130","518036","0.0-71.0","741","648","23","Female","false","false","false","false","""event"",""trial"",""time""
""fullscreenenter"",""5"",""28343""
","
","
","""event"",""trial"",""time""
""fullscreenenter"",""5"",""28343""
","
","3161.0999999940395","audio/quiz/Q2_Prompt.wav","","1","","","","","","","","","","","","","","","","","",""
"audio-keyboard-response","131","520545","0.0-72.0","741","648","23","Female","false","false","false","false","""event"",""trial"",""time""
""fullscreenenter"",""5"",""28343""
","
","
","""event"",""trial"",""time""
""fullscreenenter"",""5"",""28343""
","
","2509","audio/quiz/Q2_Incorrect.wav","32","","","","","","","","","","","","","","","","","","",""
"instructions-quiz","132","522907","0.0-73.0","741","648","23","Female","false","false","false","false","""event"",""trial"",""time""
""fullscreenenter"",""5"",""28343""
","
","
","""event"",""trial"",""time""
""fullscreenenter"",""5"",""28343""
","
","2360.300000011921","audio/quiz/Q3_Prompt.wav","","1","","","","","","","","","","","","","","","","","",""
"audio-keyboard-response","133","523538","0.0-74.0","741","648","23","Female","false","false","false","false","""event"",""trial"",""time""
""fullscreenenter"",""5"",""28343""
","
","
","""event"",""trial"",""time""
""fullscreenenter"",""5"",""28343""
","
","629","audio/quiz/Q3_Correct.wav","32","","","","","","","","","","","","","","","","","","",""
"d3-instructions","134","525946","0.0-75.0","741","648","23","Female","false","false","false","false","""event"",""trial"",""time""
""fullscreenenter"",""5"",""28343""
","
","
","""event"",""trial"",""time""
""fullscreenenter"",""5"",""28343""
","
","","","","","","","","","","","","","","","","","","","","","",""
"d3-animate-choice","135","529738","0.0-76.0-0.0","741","648","23","Female","false","false","false","false","""event"",""trial"",""time""
""fullscreenenter"",""5"",""28343""
","
","
","""event"",""trial"",""time""
""fullscreenenter"",""5"",""28343""
","
","1788.9000000059605","","49","","","3000","1","","","images/earth.jpg","images/rocket1","images/rocket2","null","images/rocket2","","1","real","null","1","","",""
"d3-animate-choice","136","532602","0.0-76.0-1.0","741","648","23","Female","false","false","false","false","""event"",""trial"",""time""
""fullscreenenter"",""5"",""28343""
","
","
","""event"",""trial"",""time""
""fullscreenenter"",""5"",""28343""
","
","860.5","","48","","","3000","1","","","images/redplanet1.jpg","images/alien2","images/alien1","images/rocket2","images/alien2","images/t.png","2","real","true","2","common","1","2022-02-05 22:42:22.509"
"two-step-fixation","137","533606","0.0-76.0-2.0","741","648","23","Female","false","false","false","false","""event"",""trial"",""time""
""fullscreenenter"",""5"",""28343""
","
","
","""event"",""trial"",""time""
""fullscreenenter"",""5"",""28343""
","
","","images/earth.jpg","","","","","","","","","","","","","","fixation","","","","","",""
"d3-animate-choice","138","535954","0.0-76.0-0.1","741","648","23","Female","false","false","false","false","""event"",""trial"",""time""
""fullscreenenter"",""5"",""28343""
","
","
","""event"",""trial"",""time""
""fullscreenenter"",""5"",""28343""
","
","345.5","","49","","","3000","1","","","images/earth.jpg","images/rocket1","images/rocket2","null","images/rocket2","","1","real","null","1","","",""
"d3-animate-choice","139","538395","0.0-76.0-1.1","741","648","23","Female","false","false","false","false","""event"",""trial"",""time""
""fullscreenenter"",""5"",""28343""
","
","
","""event"",""trial"",""time""
""fullscreenenter"",""5"",""28343""
","
","437.5","","48","","","3000","1","","","images/redplanet1.jpg","images/alien2","images/alien1","images/rocket2","images/alien2","images/t.png","2","real","true","2","common","1","2022-02-05 22:42:28.302"
"two-step-fixation","140","539399","0.0-76.0-2.1","741","648","23","Female","false","false","false","false","""event"",""trial"",""time""
""fullscreenenter"",""5"",""28343""
","
","
","""event"",""trial"",""time""
""fullscreenenter"",""5"",""28343""
","
","","images/earth.jpg","","","","","","","","","","","","","","fixation","","","","","",""
"d3-animate-choice","141","541738","0.0-76.0-0.2","741","648","23","Female","false","false","false","false","""event"",""trial"",""time""
""fullscreenenter"",""5"",""28343""
","
","
","""event"",""trial"",""time""
""fullscreenenter"",""5"",""28343""
","
","336.5","","49","","","3000","1","","","images/earth.jpg","images/rocket1","images/rocket2","null","images/rocket2","","1","real","null","1","","",""
"d3-animate-choice","142","544146","0.0-76.0-1.2","741","648","23","Female","false","false","false","false","""event"",""trial"",""time""
""fullscreenenter"",""5"",""28343""
","
","
","""event"",""trial"",""time""
""fullscreenenter"",""5"",""28343""
","
","405.09999999403954","","48","","","3000","1","","","images/redplanet1.jpg","images/alien2","images/alien1","images/rocket2","images/alien2","images/t.png","2","real","true","2","common","1","2022-02-05 22:42:34.053"
"two-step-fixation","143","545150","0.0-76.0-2.2","741","648","23","Female","false","false","false","false","""event"",""trial"",""time""
""fullscreenenter"",""5"",""28343""
","
","
","""event"",""trial"",""time""
""fullscreenenter"",""5"",""28343""
","
","","images/earth.jpg","","","","","","","","","","","","","","fixation","","","","","",""
"d3-animate-choice","144","547443","0.0-76.0-0.3","741","648","23","Female","false","false","false","false","""event"",""trial"",""time""
""fullscreenenter"",""5"",""28343""
","
","
","""event"",""trial"",""time""
""fullscreenenter"",""5"",""28343""
","
","288.7999999821186","","49","","","3000","1","","","images/earth.jpg","images/rocket1","images/rocket2","null","images/rocket2","","1","real","null","1","","",""
"d3-animate-choice","145","549850","0.0-76.0-1.3","741","648","23","Female","false","false","false","false","""event"",""trial"",""time""
""fullscreenenter"",""5"",""28343""
","
","
","""event"",""trial"",""time""
""fullscreenenter"",""5"",""28343""
","
","404.69999998807907","","48","","","3000","1","","","images/redplanet1.jpg","images/alien2","images/alien1","images/rocket2","images/alien2","images/nothing.png","2","real","true","2","common","0","2022-02-05 22:42:39.757"
"two-step-fixation","146","550854","0.0-76.0-2.3","741","648","23","Female","false","false","false","false","""event"",""trial"",""time""
""fullscreenenter"",""5"",""28343""
","
","
","""event"",""trial"",""time""
""fullscreenenter"",""5"",""28343""
","
","","images/earth.jpg","","","","","","","","","","","","","","fixation","","","","","",""
"d3-animate-choice","147","553147","0.0-76.0-0.4","741","648","23","Female","false","false","false","false","""event"",""trial"",""time""
""fullscreenenter"",""5"",""28343""
","
","
","""event"",""trial"",""time""
""fullscreenenter"",""5"",""28343""
","
","289.2000000178814","","49","","","3000","1","","","images/earth.jpg","images/rocket1","images/rocket2","null","images/rocket2","","1","real","null","1","","",""
"d3-animate-choice","148","555468","0.0-76.0-1.4","741","648","23","Female","false","false","false","false","""event"",""trial"",""time""
""fullscreenenter"",""5"",""28343""
","
","
","""event"",""trial"",""time""
""fullscreenenter"",""5"",""28343""
","
","315.80000001192093","","48","","","3000","1","","","images/redplanet1.jpg","images/alien2","images/alien1","images/rocket2","images/alien2","images/nothing.png","2","real","true","2","common","0","2022-02-05 22:42:45.376"
"two-step-fixation","149","556472","0.0-76.0-2.4","741","648","23","Female","false","false","false","false","""event"",""trial"",""time""
""fullscreenenter"",""5"",""28343""
","
","
","""event"",""trial"",""time""
""fullscreenenter"",""5"",""28343""
","
","","images/earth.jpg","","","","","","","","","","","","","","fixation","","","","","",""
"d3-animate-choice","150","558739","0.0-76.0-0.5","741","648","23","Female","false","false","false","false","""event"",""trial"",""time""
""fullscreenenter"",""5"",""28343""
","
","
","""event"",""trial"",""time""
""fullscreenenter"",""5"",""28343""
","
","262.80000001192093","","49","","","3000","1","","","images/earth.jpg","images/rocket1","images/rocket2","null","images/rocket2","","1","real","null","1","","",""
"d3-animate-choice","151","561218","0.0-76.0-1.5","741","648","23","Female","false","false","false","false","""event"",""trial"",""time""
""fullscreenenter"",""5"",""28343""
","
","
","""event"",""trial"",""time""
""fullscreenenter"",""5"",""28343""
","
","476.59999999403954","","48","","","3000","1","","","images/redplanet1.jpg","images/alien2","images/alien1","images/rocket2","images/alien2","images/nothing.png","2","real","true","2","common","0","2022-02-05 22:42:51.125"
"two-step-fixation","152","562222","0.0-76.0-2.5","741","648","23","Female","false","false","false","false","""event"",""trial"",""time""
""fullscreenenter"",""5"",""28343""
","
","
","""event"",""trial"",""time""
""fullscreenenter"",""5"",""28343""
","
","","images/earth.jpg","","","","","","","","","","","","","","fixation","","","","","",""
"d3-animate-choice","153","564506","0.0-76.0-0.6","741","648","23","Female","false","false","false","false","""event"",""trial"",""time""
""fullscreenenter"",""5"",""28343""
","
","
","""event"",""trial"",""time""
""fullscreenenter"",""5"",""28343""
","
","280.39999997615814","","49","","","3000","1","","","images/earth.jpg","images/rocket1","images/rocket2","null","images/rocket2","","1","real","null","1","","",""
"d3-animate-choice","154","566913","0.0-76.0-1.6","741","648","23","Female","false","false","false","false","""event"",""trial"",""time""
""fullscreenenter"",""5"",""28343""
","
","
","""event"",""trial"",""time""
""fullscreenenter"",""5"",""28343""
","
","404.80000001192093","","49","","","3000","1","","","images/redplanet1.jpg","images/alien2","images/alien1","images/rocket2","images/alien1","images/nothing.png","2","real","true","1","common","0","2022-02-05 22:42:56.820"
"two-step-fixation","155","567918","0.0-76.0-2.6","741","648","23","Female","false","false","false","false","""event"",""trial"",""time""
""fullscreenenter"",""5"",""28343""
","
","
","""event"",""trial"",""time""
""fullscreenenter"",""5"",""28343""
","
","","images/earth.jpg","","","","","","","","","","","","","","fixation","","","","","",""
"d3-animate-choice","156","570210","0.0-76.0-0.7","741","648","23","Female","false","false","false","false","""event"",""trial"",""time""
""fullscreenenter"",""5"",""28343""
","
","
","""event"",""trial"",""time""
""fullscreenenter"",""5"",""28343""
","
","289","","48","","","3000","1","","","images/earth.jpg","images/rocket1","images/rocket2","null","images/rocket1","","1","real","null","2","","",""
"d3-animate-choice","157","572842","0.0-76.0-1.7","741","648","23","Female","false","false","false","false","""event"",""trial"",""time""
""fullscreenenter"",""5"",""28343""
","
","
","""event"",""trial"",""time""
""fullscreenenter"",""5"",""28343""
","
","628.9000000059605","","49","","","3000","1","","","images/purpleplanet.jpg","images/alien4","images/alien3","images/rocket1","images/alien3","images/nothing.png","2","real","true","1","common","0","2022-02-05 22:43:02.749"
"two-step-fixation","158","573846","0.0-76.0-2.7","741","648","23","Female","false","false","false","false","""event"",""trial"",""time""
""fullscreenenter"",""5"",""28343""
","
","
","""event"",""trial"",""time""
""fullscreenenter"",""5"",""28343""
","
","","images/earth.jpg","","","","","","","","","","","","","","fixation","","","","","",""
"d3-animate-choice","159","576123","0.0-76.0-0.8","741","648","23","Female","false","false","false","false","""event"",""trial"",""time""
""fullscreenenter"",""5"",""28343""
","
","
","""event"",""trial"",""time""
""fullscreenenter"",""5"",""28343""
","
","273.10000002384186","","48","","","3000","1","","","images/earth.jpg","images/rocket1","images/rocket2","null","images/rocket1","","1","real","null","2","","",""
"d3-animate-choice","160","578859","0.0-76.0-1.8","741","648","23","Female","false","false","false","false","""event"",""trial"",""time""
""fullscreenenter"",""5"",""28343""
","
","
","""event"",""trial"",""time""
""fullscreenenter"",""5"",""28343""
","
","732.5999999940395","","48","","","3000","1","","","images/redplanet1.jpg","images/alien2","images/alien1","images/rocket1","images/alien2","images/nothing.png","2","real","false","2","rare","0","2022-02-05 22:43:08.766"
"two-step-fixation","161","579864","0.0-76.0-2.8","741","648","23","Female","false","false","false","false","""event"",""trial"",""time""
""fullscreenenter"",""5"",""28343""
","
","
","""event"",""trial"",""time""
""fullscreenenter"",""5"",""28343""
","
","","images/earth.jpg","","","","","","","","","","","","","","fixation","","","","","",""
"d3-animate-choice","162","582163","0.0-76.0-0.9","741","648","23","Female","false","false","false","false","""event"",""trial"",""time""
""fullscreenenter"",""5"",""28343""
","
","
","""event"",""trial"",""time""
""fullscreenenter"",""5"",""28343""
","
","294.90000000596046","","48","","","3000","1","","","images/earth.jpg","images/rocket1","images/rocket2","null","images/rocket1","","1","real","null","2","","",""
"d3-animate-choice","163","584706","0.0-76.0-1.9","741","648","23","Female","false","false","false","false","""event"",""trial"",""time""
""fullscreenenter"",""5"",""28343""
","
","
","""event"",""trial"",""time""
""fullscreenenter"",""5"",""28343""
","
","540.5","","48","","","3000","1","","","images/purpleplanet.jpg","images/alien4","images/alien3","images/rocket1","images/alien4","images/t.png","2","real","true","2","common","1","2022-02-05 22:43:14.613"
"two-step-fixation","164","585710","0.0-76.0-2.9","741","648","23","Female","false","false","false","false","""event"",""trial"",""time""
""fullscreenenter"",""5"",""28343""
","
","
","""event"",""trial"",""time""
""fullscreenenter"",""5"",""28343""
","
","","images/earth.jpg","","","","","","","","","","","","","","fixation","","","","","",""
"d3-animate-choice","165","587978","0.0-76.0-0.10","741","648","23","Female","false","false","false","false","""event"",""trial"",""time""
""fullscreenenter"",""5"",""28343""
","
","
","""event"",""trial"",""time""
""fullscreenenter"",""5"",""28343""
","
","264","","48","","","3000","1","","","images/earth.jpg","images/rocket1","images/rocket2","null","images/rocket1","","1","real","null","2","","",""
"d3-animate-choice","166","590282","0.0-76.0-1.10","741","648","23","Female","false","false","false","false","""event"",""trial"",""time""
""fullscreenenter"",""5"",""28343""
","
","
","""event"",""trial"",""time""
""fullscreenenter"",""5"",""28343""
","
","300.40000000596046","","48","","","3000","1","","","images/redplanet1.jpg","images/alien2","images/alien1","images/rocket1","images/alien2","images/t.png","2","real","false","2","rare","1","2022-02-05 22:43:20.189"
"two-step-fixation","167","591286","0.0-76.0-2.10","741","648","23","Female","false","false","false","false","""event"",""trial"",""time""
""fullscreenenter"",""5"",""28343""
","
","
","""event"",""trial"",""time""
""fullscreenenter"",""5"",""28343""
","
","","images/earth.jpg","","","","","","","","","","","","","","fixation","","","","","",""
"d3-animate-choice","168","593666","0.0-76.0-0.11","741","648","23","Female","false","false","false","false","""event"",""trial"",""time""
""fullscreenenter"",""5"",""28343""
","
","
","""event"",""trial"",""time""
""fullscreenenter"",""5"",""28343""
","
","376.7999999821186","","48","","","3000","1","","","images/earth.jpg","images/rocket1","images/rocket2","null","images/rocket1","","1","real","null","2","","",""
"d3-animate-choice","169","596050","0.0-76.0-1.11","741","648","23","Female","false","false","false","false","""event"",""trial"",""time""
""fullscreenenter"",""5"",""28343""
","
","
","""event"",""trial"",""time""
""fullscreenenter"",""5"",""28343""
","
","382.30000001192093","","48","","","3000","1","","","images/redplanet1.jpg","images/alien2","images/alien1","images/rocket1","images/alien2","images/t.png","2","real","false","2","rare","1","2022-02-05 22:43:25.957"
"two-step-fixation","170","597053","0.0-76.0-2.11","741","648","23","Female","false","false","false","false","""event"",""trial"",""time""
""fullscreenenter"",""5"",""28343""
","
","
","""event"",""trial"",""time""
""fullscreenenter"",""5"",""28343""
","
","","images/earth.jpg","","","","","","","","","","","","","","fixation","","","","","",""
"d3-animate-choice","171","599378","0.0-76.0-0.12","741","648","23","Female","false","false","false","false","""event"",""trial"",""time""
""fullscreenenter"",""5"",""28343""
","
","
","""event"",""trial"",""time""
""fullscreenenter"",""5"",""28343""
","
","321.09999999403954","","48","","","3000","1","","","images/earth.jpg","images/rocket1","images/rocket2","null","images/rocket1","","1","real","null","2","","",""
"d3-animate-choice","172","601841","0.0-76.0-1.12","741","648","23","Female","false","false","false","false","""event"",""trial"",""time""
""fullscreenenter"",""5"",""28343""
","
","
","""event"",""trial"",""time""
""fullscreenenter"",""5"",""28343""
","
","460.60000002384186","","48","","","3000","1","","","images/purpleplanet.jpg","images/alien4","images/alien3","images/rocket1","images/alien4","images/t.png","2","real","true","2","common","1","2022-02-05 22:43:31.748"
"two-step-fixation","173","602845","0.0-76.0-2.12","741","648","23","Female","false","false","false","false","""event"",""trial"",""time""
""fullscreenenter"",""5"",""28343""
","
","
","""event"",""trial"",""time""
""fullscreenenter"",""5"",""28343""
","
","","images/earth.jpg","","","","","","","","","","","","","","fixation","","","","","",""
"d3-animate-choice","174","605122","0.0-76.0-0.13","741","648","23","Female","false","false","false","false","""event"",""trial"",""time""
""fullscreenenter"",""5"",""28343""
","
","
","""event"",""trial"",""time""
""fullscreenenter"",""5"",""28343""
","
","273.09999999403954","","48","","","3000","1","","","images/earth.jpg","images/rocket1","images/rocket2","null","images/rocket1","","1","real","null","2","","",""
"d3-animate-choice","175","607674","0.0-76.0-1.13","741","648","23","Female","false","false","false","false","""event"",""trial"",""time""
""fullscreenenter"",""5"",""28343""
","
","
","""event"",""trial"",""time""
""fullscreenenter"",""5"",""28343""
","
","549","","48","","","3000","1","","","images/purpleplanet.jpg","images/alien4","images/alien3","images/rocket1","images/alien4","images/t.png","2","real","true","2","common","1","2022-02-05 22:43:37.581"
"two-step-fixation","176","608678","0.0-76.0-2.13","741","648","23","Female","false","false","false","false","""event"",""trial"",""time""
""fullscreenenter"",""5"",""28343""
","
","
","""event"",""trial"",""time""
""fullscreenenter"",""5"",""28343""
","
","","images/earth.jpg","","","","","","","","","","","","","","fixation","","","","","",""
"d3-animate-choice","177","610979","0.0-76.0-0.14","741","648","23","Female","false","false","false","false","""event"",""trial"",""time""
""fullscreenenter"",""5"",""28343""
","
","
","""event"",""trial"",""time""
""fullscreenenter"",""5"",""28343""
","
","296.90000000596046","","48","","","3000","1","","","images/earth.jpg","images/rocket1","images/rocket2","null","images/rocket1","","1","real","null","2","","",""
"d3-animate-choice","178","613394","0.0-76.0-1.14","741","648","23","Female","false","false","false","false","""event"",""trial"",""time""
""fullscreenenter"",""5"",""28343""
","
","
","""event"",""trial"",""time""
""fullscreenenter"",""5"",""28343""
","
","411.40000000596046","","48","","","3000","1","","","images/purpleplanet.jpg","images/alien4","images/alien3","images/rocket1","images/alien4","images/t.png","2","real","true","2","common","1","2022-02-05 22:43:43.301"
"two-step-fixation","179","614397","0.0-76.0-2.14","741","648","23","Female","false","false","false","false","""event"",""trial"",""time""
""fullscreenenter"",""5"",""28343""
","
","
","""event"",""trial"",""time""
""fullscreenenter"",""5"",""28343""
","
","","images/earth.jpg","","","","","","","","","","","","","","fixation","","","","","",""
"d3-animate-choice","180","616722","0.0-76.0-0.15","741","648","23","Female","false","false","false","false","""event"",""trial"",""time""
""fullscreenenter"",""5"",""28343""
","
","
","""event"",""trial"",""time""
""fullscreenenter"",""5"",""28343""
","
","320.90000000596046","","48","","","3000","1","","","images/earth.jpg","images/rocket1","images/rocket2","null","images/rocket1","","1","real","null","2","","",""
"d3-animate-choice","181","619099","0.0-76.0-1.15","741","648","23","Female","false","false","false","false","""event"",""trial"",""time""
""fullscreenenter"",""5"",""28343""
","
","
","""event"",""trial"",""time""
""fullscreenenter"",""5"",""28343""
","
","373.5","","48","","","3000","1","","","images/purpleplanet.jpg","images/alien4","images/alien3","images/rocket1","images/alien4","images/t.png","2","real","true","2","common","1","2022-02-05 22:43:49.006"
"two-step-fixation","182","620102","0.0-76.0-2.15","741","648","23","Female","false","false","false","false","""event"",""trial"",""time""
""fullscreenenter"",""5"",""28343""
","
","
","""event"",""trial"",""time""
""fullscreenenter"",""5"",""28343""
","
","","images/earth.jpg","","","","","","","","","","","","","","fixation","","","","","",""
"d3-animate-choice","183","622410","0.0-76.0-0.16","741","648","23","Female","false","false","false","false","""event"",""trial"",""time""
""fullscreenenter"",""5"",""28343""
","
","
","""event"",""trial"",""time""
""fullscreenenter"",""5"",""28343""
","
","304.09999999403954","","48","","","3000","1","","","images/earth.jpg","images/rocket1","images/rocket2","null","images/rocket1","","1","real","null","2","","",""
"d3-animate-choice","184","624811","0.0-76.0-1.16","741","648","23","Female","false","false","false","false","""event"",""trial"",""time""
""fullscreenenter"",""5"",""28343""
","
","
","""event"",""trial"",""time""
""fullscreenenter"",""5"",""28343""
","
","397.59999999403954","","48","","","3000","1","","","images/purpleplanet.jpg","images/alien4","images/alien3","images/rocket1","images/alien4","images/t.png","2","real","true","2","common","1","2022-02-05 22:43:54.718"
"two-step-fixation","185","625814","0.0-76.0-2.16","741","648","23","Female","false","false","false","false","""event"",""trial"",""time""
""fullscreenenter"",""5"",""28343""
","
","
","""event"",""trial"",""time""
""fullscreenenter"",""5"",""28343""
","
","","images/earth.jpg","","","","","","","","","","","","","","fixation","","","","","",""
"d3-animate-choice","186","628130","0.0-76.0-0.17","741","648","23","Female","false","false","false","false","""event"",""trial"",""time""
""fullscreenenter"",""5"",""28343""
","
","
","""event"",""trial"",""time""
""fullscreenenter"",""5"",""28343""
","
","312.60000002384186","","48","","","3000","1","","","images/earth.jpg","images/rocket1","images/rocket2","null","images/rocket1","","1","real","null","2","","",""
"d3-animate-choice","187","630827","0.0-76.0-1.17","741","648","23","Female","false","false","false","false","""event"",""trial"",""time""
""fullscreenenter"",""5"",""28343""
","
","
","""event"",""trial"",""time""
""fullscreenenter"",""5"",""28343""
","
","692.9000000059605","","48","","","3000","1","","","images/purpleplanet.jpg","images/alien4","images/alien3","images/rocket1","images/alien4","images/t.png","2","real","true","2","common","1","2022-02-05 22:44:00.734"
"two-step-fixation","188","631830","0.0-76.0-2.17","741","648","23","Female","false","false","false","false","""event"",""trial"",""time""
""fullscreenenter"",""5"",""28343""
","
","
","""event"",""trial"",""time""
""fullscreenenter"",""5"",""28343""
","
","","images/earth.jpg","","","","","","","","","","","","","","fixation","","","","","",""
"d3-animate-choice","189","634106","0.0-76.0-0.18","741","648","23","Female","false","false","false","false","""event"",""trial"",""time""
""fullscreenenter"",""5"",""28343""
","
","
","""event"",""trial"",""time""
""fullscreenenter"",""5"",""28343""
","
","273.2999999821186","","48","","","3000","1","","","images/earth.jpg","images/rocket1","images/rocket2","null","images/rocket1","","1","real","null","2","","",""
"d3-animate-choice","190","636554","0.0-76.0-1.18","741","648","23","Female","false","false","false","false","""event"",""trial"",""time""
""fullscreenenter"",""5"",""28343""
","
","
","""event"",""trial"",""time""
""fullscreenenter"",""5"",""28343""
","
","445.09999999403954","","48","","","3000","1","","","images/purpleplanet.jpg","images/alien4","images/alien3","images/rocket1","images/alien4","images/t.png","2","real","true","2","common","1","2022-02-05 22:44:06.461"
"two-step-fixation","191","637557","0.0-76.0-2.18","741","648","23","Female","false","false","false","false","""event"",""trial"",""time""
""fullscreenenter"",""5"",""28343""
","
","
","""event"",""trial"",""time""
""fullscreenenter"",""5"",""28343""
","
","","images/earth.jpg","","","","","","","","","","","","","","fixation","","","","","",""
"d3-animate-choice","192","639907","0.0-76.0-0.19","741","648","23","Female","false","false","false","false","""event"",""trial"",""time""
""fullscreenenter"",""5"",""28343""
","
","
","""event"",""trial"",""time""
""fullscreenenter"",""5"",""28343""
","
","345.30000001192093","","48","","","3000","1","","","images/earth.jpg","images/rocket1","images/rocket2","null","images/rocket1","","1","real","null","2","","",""
"d3-animate-choice","193","642410","0.0-76.0-1.19","741","648","23","Female","false","false","false","false","""event"",""trial"",""time""
""fullscreenenter"",""5"",""28343""
","
","
","""event"",""trial"",""time""
""fullscreenenter"",""5"",""28343""
","
","500","","48","","","3000","1","","","images/redplanet1.jpg","images/alien2","images/alien1","images/rocket1","images/alien2","images/nothing.png","2","real","false","2","rare","0","2022-02-05 22:44:12.317"
"two-step-fixation","194","643413","0.0-76.0-2.19","741","648","23","Female","false","false","false","false","""event"",""trial"",""time""
""fullscreenenter"",""5"",""28343""
","
","
","""event"",""trial"",""time""
""fullscreenenter"",""5"",""28343""
","
","","images/earth.jpg","","","","","","","","","","","","","","fixation","","","","","",""
"d3-animate-choice","195","645681","0.0-76.0-0.20","741","648","23","Female","false","false","false","false","""event"",""trial"",""time""
""fullscreenenter"",""5"",""28343""
","
","
","""event"",""trial"",""time""
""fullscreenenter"",""5"",""28343""
","
","265.09999999403954","","48","","","3000","1","","","images/earth.jpg","images/rocket1","images/rocket2","null","images/rocket1","","1","real","null","2","","",""
"d3-animate-choice","196","648082","0.0-76.0-1.20","741","648","23","Female","false","false","false","false","""event"",""trial"",""time""
""fullscreenenter"",""5"",""28343""
","
","
","""event"",""trial"",""time""
""fullscreenenter"",""5"",""28343""
","
","397.5","","48","","","3000","1","","","images/purpleplanet.jpg","images/alien4","images/alien3","images/rocket1","images/alien4","images/t.png","2","real","true","2","common","1","2022-02-05 22:44:17.989"
"two-step-fixation","197","649085","0.0-76.0-2.20","741","648","23","Female","false","false","false","false","""event"",""trial"",""time""
""fullscreenenter"",""5"",""28343""
","
","
","""event"",""trial"",""time""
""fullscreenenter"",""5"",""28343""
","
","","images/earth.jpg","","","","","","","","","","","","","","fixation","","","","","",""
"d3-animate-choice","198","651410","0.0-76.0-0.21","741","648","23","Female","false","false","false","false","""event"",""trial"",""time""
""fullscreenenter"",""5"",""28343""
","
","
","""event"",""trial"",""time""
""fullscreenenter"",""5"",""28343""
","
","321.09999999403954","","48","","","3000","1","","","images/earth.jpg","images/rocket1","images/rocket2","null","images/rocket1","","1","real","null","2","","",""
"d3-animate-choice","199","653874","0.0-76.0-1.21","741","648","23","Female","false","false","false","false","""event"",""trial"",""time""
""fullscreenenter"",""5"",""28343""
","
","
","""event"",""trial"",""time""
""fullscreenenter"",""5"",""28343""
","
","461","","48","","","3000","1","","","images/purpleplanet.jpg","images/alien4","images/alien3","images/rocket1","images/alien4","images/t.png","2","real","true","2","common","1","2022-02-05 22:44:23.782"
"two-step-fixation","200","654879","0.0-76.0-2.21","741","648","23","Female","false","false","false","false","""event"",""trial"",""time""
""fullscreenenter"",""5"",""28343""
","
","
","""event"",""trial"",""time""
""fullscreenenter"",""5"",""28343""
","
","","images/earth.jpg","","","","","","","","","","","","","","fixation","","","","","",""
"d3-animate-choice","201","657194","0.0-76.0-0.22","741","648","23","Female","false","false","false","false","""event"",""trial"",""time""
""fullscreenenter"",""5"",""28343""
","
","
","""event"",""trial"",""time""
""fullscreenenter"",""5"",""28343""
","
","312","","48","","","3000","1","","","images/earth.jpg","images/rocket1","images/rocket2","null","images/rocket1","","1","real","null","2","","",""
"d3-animate-choice","202","659650","0.0-76.0-1.22","741","648","23","Female","false","false","false","false","""event"",""trial"",""time""
""fullscreenenter"",""5"",""28343""
","
","
","""event"",""trial"",""time""
""fullscreenenter"",""5"",""28343""
","
","452.89999997615814","","48","","","3000","1","","","images/redplanet1.jpg","images/alien2","images/alien1","images/rocket1","images/alien2","images/t.png","2","real","false","2","rare","1","2022-02-05 22:44:29.557"
"two-step-fixation","203","660654","0.0-76.0-2.22","741","648","23","Female","false","false","false","false","""event"",""trial"",""time""
""fullscreenenter"",""5"",""28343""
","
","
","""event"",""trial"",""time""
""fullscreenenter"",""5"",""28343""
","
","","images/earth.jpg","","","","","","","","","","","","","","fixation","","","","","",""
"d3-animate-choice","204","662962","0.0-76.0-0.23","741","648","23","Female","false","false","false","false","""event"",""trial"",""time""
""fullscreenenter"",""5"",""28343""
","
","
","""event"",""trial"",""time""
""fullscreenenter"",""5"",""28343""
","
","304.2999999821186","","48","","","3000","1","","","images/earth.jpg","images/rocket1","images/rocket2","null","images/rocket1","","1","real","null","2","","",""
"d3-animate-choice","205","665354","0.0-76.0-1.23","741","648","23","Female","false","false","false","false","""event"",""trial"",""time""
""fullscreenenter"",""5"",""28343""
","
","
","""event"",""trial"",""time""
""fullscreenenter"",""5"",""28343""
","
","388.90000000596046","","48","","","3000","1","","","images/purpleplanet.jpg","images/alien4","images/alien3","images/rocket1","images/alien4","images/t.png","2","real","true","2","common","1","2022-02-05 22:44:35.262"
"two-step-fixation","206","666358","0.0-76.0-2.23","741","648","23","Female","false","false","false","false","""event"",""trial"",""time""
""fullscreenenter"",""5"",""28343""
","
","
","""event"",""trial"",""time""
""fullscreenenter"",""5"",""28343""
","
","","images/earth.jpg","","","","","","","","","","","","","","fixation","","","","","",""
"d3-animate-choice","207","668666","0.0-76.0-0.24","741","648","23","Female","false","false","false","false","""event"",""trial"",""time""
""fullscreenenter"",""5"",""28343""
","
","
","""event"",""trial"",""time""
""fullscreenenter"",""5"",""28343""
","
","304.30000001192093","","48","","","3000","1","","","images/earth.jpg","images/rocket1","images/rocket2","null","images/rocket1","","1","real","null","2","","",""
"d3-animate-choice","208","671626","0.0-76.0-1.24","741","648","23","Female","false","false","false","false","""event"",""trial"",""time""
""fullscreenenter"",""5"",""28343""
","
","
","""event"",""trial"",""time""
""fullscreenenter"",""5"",""28343""
","
","956.9000000059605","","48","","","3000","1","","","images/redplanet1.jpg","images/alien2","images/alien1","images/rocket1","images/alien2","images/t.png","2","real","false","2","rare","1","2022-02-05 22:44:41.534"
"two-step-fixation","209","672630","0.0-76.0-2.24","741","648","23","Female","false","false","false","false","""event"",""trial"",""time""
""fullscreenenter"",""5"",""28343""
","
","
","""event"",""trial"",""time""
""fullscreenenter"",""5"",""28343""
","
","","images/earth.jpg","","","","","","","","","","","","","","fixation","","","","","",""
"d3-animate-choice","210","674907","0.0-76.0-0.25","741","648","23","Female","false","false","false","false","""event"",""trial"",""time""
""fullscreenenter"",""5"",""28343""
","
","
","""event"",""trial"",""time""
""fullscreenenter"",""5"",""28343""
","
","272.09999999403954","","48","","","3000","1","","","images/earth.jpg","images/rocket1","images/rocket2","null","images/rocket1","","1","real","null","2","","",""
"d3-animate-choice","211","677410","0.0-76.0-1.25","741","648","23","Female","false","false","false","false","""event"",""trial"",""time""
""fullscreenenter"",""5"",""28343""
","
","
","""event"",""trial"",""time""
""fullscreenenter"",""5"",""28343""
","
","500","","48","","","3000","1","","","images/purpleplanet.jpg","images/alien4","images/alien3","images/rocket1","images/alien4","images/nothing.png","2","real","true","2","common","0","2022-02-05 22:44:47.317"
"two-step-fixation","212","678414","0.0-76.0-2.25","741","648","23","Female","false","false","false","false","""event"",""trial"",""time""
""fullscreenenter"",""5"",""28343""
","
","
","""event"",""trial"",""time""
""fullscreenenter"",""5"",""28343""
","
","","images/earth.jpg","","","","","","","","","","","","","","fixation","","","","","",""
"d3-animate-choice","213","680713","0.0-76.0-0.26","741","648","23","Female","false","false","false","false","""event"",""trial"",""time""
""fullscreenenter"",""5"",""28343""
","
","
","""event"",""trial"",""time""
""fullscreenenter"",""5"",""28343""
","
","296","","48","","","3000","1","","","images/earth.jpg","images/rocket1","images/rocket2","null","images/rocket1","","1","real","null","2","","",""
"d3-animate-choice","214","683081","0.0-76.0-1.26","741","648","23","Female","false","false","false","false","""event"",""trial"",""time""
""fullscreenenter"",""5"",""28343""
","
","
","""event"",""trial"",""time""
""fullscreenenter"",""5"",""28343""
","
","364.59999999403954","","48","","","3000","1","","","images/purpleplanet.jpg","images/alien4","images/alien3","images/rocket1","images/alien4","images/t.png","2","real","true","2","common","1","2022-02-05 22:44:52.988"
"two-step-fixation","215","684084","0.0-76.0-2.26","741","648","23","Female","false","false","false","false","""event"",""trial"",""time""
""fullscreenenter"",""5"",""28343""
","
","
","""event"",""trial"",""time""
""fullscreenenter"",""5"",""28343""
","
","","images/earth.jpg","","","","","","","","","","","","","","fixation","","","","","",""
"d3-animate-choice","216","686529","0.0-76.0-0.27","741","648","23","Female","false","false","false","false","""event"",""trial"",""time""
""fullscreenenter"",""5"",""28343""
","
","
","""event"",""trial"",""time""
""fullscreenenter"",""5"",""28343""
","
","442.10000002384186","","48","","","3000","1","","","images/earth.jpg","images/rocket1","images/rocket2","null","images/rocket1","","1","real","null","2","","",""
"d3-animate-choice","217","688994","0.0-76.0-1.27","741","648","23","Female","false","false","false","false","""event"",""trial"",""time""
""fullscreenenter"",""5"",""28343""
","
","
","""event"",""trial"",""time""
""fullscreenenter"",""5"",""28343""
","
","461.5","","48","","","3000","1","","","images/redplanet1.jpg","images/alien2","images/alien1","images/rocket1","images/alien2","images/t.png","2","real","false","2","rare","1","2022-02-05 22:44:58.901"
"two-step-fixation","218","690000","0.0-76.0-2.27","741","648","23","Female","false","false","false","false","""event"",""trial"",""time""
""fullscreenenter"",""5"",""28343""
","
","
","""event"",""trial"",""time""
""fullscreenenter"",""5"",""28343""
","
","","images/earth.jpg","","","","","","","","","","","","","","fixation","","","","","",""
"d3-animate-choice","219","692298","0.0-76.0-0.28","741","648","23","Female","false","false","false","false","""event"",""trial"",""time""
""fullscreenenter"",""5"",""28343""
","
","
","""event"",""trial"",""time""
""fullscreenenter"",""5"",""28343""
","
","294.19999998807907","","48","","","3000","1","","","images/earth.jpg","images/rocket1","images/rocket2","null","images/rocket1","","1","real","null","2","","",""
"d3-animate-choice","220","694690","0.0-76.0-1.28","741","648","23","Female","false","false","false","false","""event"",""trial"",""time""
""fullscreenenter"",""5"",""28343""
","
","
","""event"",""trial"",""time""
""fullscreenenter"",""5"",""28343""
","
","388.80000001192093","","48","","","3000","1","","","images/purpleplanet.jpg","images/alien4","images/alien3","images/rocket1","images/alien4","images/t.png","2","real","true","2","common","1","2022-02-05 22:45:04.597"
"two-step-fixation","221","695693","0.0-76.0-2.28","741","648","23","Female","false","false","false","false","""event"",""trial"",""time""
""fullscreenenter"",""5"",""28343""
","
","
","""event"",""trial"",""time""
""fullscreenenter"",""5"",""28343""
","
","","images/earth.jpg","","","","","","","","","","","","","","fixation","","","","","",""
"d3-animate-choice","222","698049","0.0-76.0-0.29","741","648","23","Female","false","false","false","false","""event"",""trial"",""time""
""fullscreenenter"",""5"",""28343""
","
","
","""event"",""trial"",""time""
""fullscreenenter"",""5"",""28343""
","
","352.60000002384186","","48","","","3000","1","","","images/earth.jpg","images/rocket1","images/rocket2","null","images/rocket1","","1","real","null","2","","",""
"d3-animate-choice","223","700746","0.0-76.0-1.29","741","648","23","Female","false","false","false","false","""event"",""trial"",""time""
""fullscreenenter"",""5"",""28343""
","
","
","""event"",""trial"",""time""
""fullscreenenter"",""5"",""28343""
","
","693.6000000238419","","48","","","3000","1","","","images/redplanet1.jpg","images/alien2","images/alien1","images/rocket1","images/alien2","images/t.png","2","real","false","2","rare","1","2022-02-05 22:45:10.653"
"two-step-fixation","224","701749","0.0-76.0-2.29","741","648","23","Female","false","false","false","false","""event"",""trial"",""time""
""fullscreenenter"",""5"",""28343""
","
","
","""event"",""trial"",""time""
""fullscreenenter"",""5"",""28343""
","
","","images/earth.jpg","","","","","","","","","","","","","","fixation","","","","","",""
"d3-animate-choice","225","704106","0.0-76.0-0.30","741","648","23","Female","false","false","false","false","""event"",""trial"",""time""
""fullscreenenter"",""5"",""28343""
","
","
","""event"",""trial"",""time""
""fullscreenenter"",""5"",""28343""
","
","353.30000001192093","","48","","","3000","1","","","images/earth.jpg","images/rocket1","images/rocket2","null","images/rocket1","","1","real","null","2","","",""
"d3-animate-choice","226","706673","0.0-76.0-1.30","741","648","23","Female","false","false","false","false","""event"",""trial"",""time""
""fullscreenenter"",""5"",""28343""
","
","
","""event"",""trial"",""time""
""fullscreenenter"",""5"",""28343""
","
","564.1999999880791","","48","","","3000","1","","","images/redplanet1.jpg","images/alien2","images/alien1","images/rocket1","images/alien2","images/nothing.png","2","real","false","2","rare","0","2022-02-05 22:45:16.580"
"two-step-fixation","227","707677","0.0-76.0-2.30","741","648","23","Female","false","false","false","false","""event"",""trial"",""time""
""fullscreenenter"",""5"",""28343""
","
","
","""event"",""trial"",""time""
""fullscreenenter"",""5"",""28343""
","
","","images/earth.jpg","","","","","","","","","","","","","","fixation","","","","","",""
"d3-animate-choice","228","710042","0.0-76.0-0.31","741","648","23","Female","false","false","false","false","""event"",""trial"",""time""
""fullscreenenter"",""5"",""28343""
","
","
","""event"",""trial"",""time""
""fullscreenenter"",""5"",""28343""
","
","360.69999998807907","","48","","","3000","1","","","images/earth.jpg","images/rocket1","images/rocket2","null","images/rocket1","","1","real","null","2","","",""
"d3-animate-choice","229","712466","0.0-76.0-1.31","741","648","23","Female","false","false","false","false","""event"",""trial"",""time""
""fullscreenenter"",""5"",""28343""
","
","
","""event"",""trial"",""time""
""fullscreenenter"",""5"",""28343""
","
","421.19999998807907","","48","","","3000","1","","","images/redplanet1.jpg","images/alien2","images/alien1","images/rocket1","images/alien2","images/nothing.png","2","real","false","2","rare","0","2022-02-05 22:45:22.373"
"two-step-fixation","230","713470","0.0-76.0-2.31","741","648","23","Female","false","false","false","false","""event"",""trial"",""time""
""fullscreenenter"",""5"",""28343""
","
","
","""event"",""trial"",""time""
""fullscreenenter"",""5"",""28343""
","
","","images/earth.jpg","","","","","","","","","","","","","","fixation","","","","","",""
"d3-animate-choice","231","715762","0.0-76.0-0.32","741","648","23","Female","false","false","false","false","""event"",""trial"",""time""
""fullscreenenter"",""5"",""28343""
","
","
","""event"",""trial"",""time""
""fullscreenenter"",""5"",""28343""
","
","287.80000001192093","","48","","","3000","1","","","images/earth.jpg","images/rocket1","images/rocket2","null","images/rocket1","","1","real","null","2","","",""
"d3-animate-choice","232","718689","0.0-76.0-1.32","741","648","23","Female","false","false","false","false","""event"",""trial"",""time""
""fullscreenenter"",""5"",""28343""
","
","
","""event"",""trial"",""time""
""fullscreenenter"",""5"",""28343""
","
","924.5999999940395","","48","","","3000","1","","","images/redplanet1.jpg","images/alien2","images/alien1","images/rocket1","images/alien2","images/nothing.png","2","real","false","2","rare","0","2022-02-05 22:45:28.596"
"two-step-fixation","233","719693","0.0-76.0-2.32","741","648","23","Female","false","false","false","false","""event"",""trial"",""time""
""fullscreenenter"",""5"",""28343""
","
","
","""event"",""trial"",""time""
""fullscreenenter"",""5"",""28343""
","
","","images/earth.jpg","","","","","","","","","","","","","","fixation","","","","","",""
"d3-animate-choice","234","721994","0.0-76.0-0.33","741","648","23","Female","false","false","false","false","""event"",""trial"",""time""
""fullscreenenter"",""5"",""28343""
","
","
","""event"",""trial"",""time""
""fullscreenenter"",""5"",""28343""
","
","297.09999999403954","","48","","","3000","1","","","images/earth.jpg","images/rocket1","images/rocket2","null","images/rocket1","","1","real","null","2","","",""
"d3-animate-choice","235","724690","0.0-76.0-1.33","741","648","23","Female","false","false","false","false","""event"",""trial"",""time""
""fullscreenenter"",""5"",""28343""
","
","
","""event"",""trial"",""time""
""fullscreenenter"",""5"",""28343""
","
","693","","48","","","3000","1","","","images/purpleplanet.jpg","images/alien4","images/alien3","images/rocket1","images/alien4","images/t.png","2","real","true","2","common","1","2022-02-05 22:45:34.597"
"two-step-fixation","236","725694","0.0-76.0-2.33","741","648","23","Female","false","false","false","false","""event"",""trial"",""time""
""fullscreenenter"",""5"",""28343""
","
","
","""event"",""trial"",""time""
""fullscreenenter"",""5"",""28343""
","
","","images/earth.jpg","","","","","","","","","","","","","","fixation","","","","","",""
"d3-animate-choice","237","728020","0.0-76.0-0.34","741","648","23","Female","false","false","false","false","""event"",""trial"",""time""
""fullscreenenter"",""5"",""28343""
","
","
","""event"",""trial"",""time""
""fullscreenenter"",""5"",""28343""
","
","320.90000000596046","","48","","","3000","1","","","images/earth.jpg","images/rocket1","images/rocket2","null","images/rocket1","","1","real","null","2","","",""
"d3-animate-choice","238","730970","0.0-76.0-1.34","741","648","23","Female","false","false","false","false","""event"",""trial"",""time""
""fullscreenenter"",""5"",""28343""
","
","
","""event"",""trial"",""time""
""fullscreenenter"",""5"",""28343""
","
","947.4000000059605","","49","","","3000","1","","","images/redplanet1.jpg","images/alien2","images/alien1","images/rocket1","images/alien1","images/t.png","2","real","false","1","rare","1","2022-02-05 22:45:40.877"
"two-step-fixation","239","731974","0.0-76.0-2.34","741","648","23","Female","false","false","false","false","""event"",""trial"",""time""
""fullscreenenter"",""5"",""28343""
","
","
","""event"",""trial"",""time""
""fullscreenenter"",""5"",""28343""
","
","","images/earth.jpg","","","","","","","","","","","","","","fixation","","","","","",""
"d3-animate-choice","240","734282","0.0-76.0-0.35","741","648","23","Female","false","false","false","false","""event"",""trial"",""time""
""fullscreenenter"",""5"",""28343""
","
","
","""event"",""trial"",""time""
""fullscreenenter"",""5"",""28343""
","
","304.19999998807907","","48","","","3000","1","","","images/earth.jpg","images/rocket1","images/rocket2","null","images/rocket1","","1","real","null","2","","",""
"d3-animate-choice","241","736882","0.0-76.0-1.35","741","648","23","Female","false","false","false","false","""event"",""trial"",""time""
""fullscreenenter"",""5"",""28343""
","
","
","""event"",""trial"",""time""
""fullscreenenter"",""5"",""28343""
","
","597.5","","49","","","3000","1","","","images/redplanet1.jpg","images/alien2","images/alien1","images/rocket1","images/alien1","images/nothing.png","2","real","false","1","rare","0","2022-02-05 22:45:46.789"
"two-step-fixation","242","737886","0.0-76.0-2.35","741","648","23","Female","false","false","false","false","""event"",""trial"",""time""
""fullscreenenter"",""5"",""28343""
","
","
","""event"",""trial"",""time""
""fullscreenenter"",""5"",""28343""
","
","","images/earth.jpg","","","","","","","","","","","","","","fixation","","","","","",""
"d3-animate-choice","243","740211","0.0-76.0-0.36","741","648","23","Female","false","false","false","false","""event"",""trial"",""time""
""fullscreenenter"",""5"",""28343""
","
","
","""event"",""trial"",""time""
""fullscreenenter"",""5"",""28343""
","
","321.7000000178814","","48","","","3000","1","","","images/earth.jpg","images/rocket1","images/rocket2","null","images/rocket1","","1","real","null","2","","",""
"d3-animate-choice","244","742810","0.0-76.0-1.36","741","648","23","Female","false","false","false","false","""event"",""trial"",""time""
""fullscreenenter"",""5"",""28343""
","
","
","""event"",""trial"",""time""
""fullscreenenter"",""5"",""28343""
","
","597","","49","","","3000","1","","","images/redplanet1.jpg","images/alien2","images/alien1","images/rocket1","images/alien1","images/nothing.png","2","real","false","1","rare","0","2022-02-05 22:45:52.717"
"two-step-fixation","245","743814","0.0-76.0-2.36","741","648","23","Female","false","false","false","false","""event"",""trial"",""time""
""fullscreenenter"",""5"",""28343""
","
","
","""event"",""trial"",""time""
""fullscreenenter"",""5"",""28343""
","
