"trial_type","trial_index","time_elapsed","internal_node_id","participant_id","subject_id","age","gender","rocket_sides","red_planet_first_rocket","red_display_order","purple_display_order","interactions","blur_events","focus_events","fullscreenenter_events","fullscreenexit_events","rt","stimulus","key_press","button_pressed","success","duration","valid_pressed","rts","keys","planet_text","right_text","left_text","center_text","chosen_text","reward_text","trial_stage","practice_trial","transition_type","choice","transition","reward","timestamp"
"pavlovia","0","3","0.0-0.0","42","738","20","Female","false","false","true","true","
","
","
","
","
","","","","","","","","","","","","","","","","","","","","","",""
"html-keyboard-response","1","1950","0.0-1.0","42","738","20","Female","false","false","true","true","
","
","
","
","
","1946.300000011921","Welcome! Press the space bar to begin.","32","","","","","","","","","","","","","","","","","","",""
"audio-keyboard-response","2","7606","0.0-2.0","42","738","20","Female","false","false","true","true","
","
","
","
","
","5381","audio/beep_loop.wav","32","","","","","","","","","","","","","","","","","","",""
"audio-button-response","3","10280","0.0-3.0","42","738","20","Female","false","false","true","true","
","
","
","
","
","NaN","audio/fish.mp3","","1","","","","","","","","","","","","","","","","","",""
"audio-button-response","4","13086","0.0-4.0","42","738","20","Female","false","false","true","true","""event"",""trial"",""time""
""fullscreenenter"",""5"",""40150""
","
","
","""event"",""trial"",""time""
""fullscreenenter"",""5"",""40150""
","
","NaN","audio/tiger.mp3","","4","","","","","","","","","","","","","","","","","",""
"fullscreen","5","41127","0.0-5.0","42","738","20","Female","false","false","true","true","""event"",""trial"",""time""
""fullscreenenter"",""5"",""40150""
","
","
","""event"",""trial"",""time""
""fullscreenenter"",""5"",""40150""
","
","","","","","true","","","","","","","","","","","","","","","","",""
"d3-instructions","6","56797","0.0-6.0","42","738","20","Female","false","false","true","true","""event"",""trial"",""time""
""fullscreenenter"",""5"",""40150""
","
","
","""event"",""trial"",""time""
""fullscreenenter"",""5"",""40150""
","
","","","","","","","","","","","","","","","","","","","","","",""
"d3-instructions","7","65435","0.0-7.0","42","738","20","Female","false","false","true","true","""event"",""trial"",""time""
""fullscreenenter"",""5"",""40150""
","
","
","""event"",""trial"",""time""
""fullscreenenter"",""5"",""40150""
","
","","","","","","","","","","","","","","","","","","","","","",""
"d3-instructions","8","73194","0.0-8.0","42","738","20","Female","false","false","true","true","""event"",""trial"",""time""
""fullscreenenter"",""5"",""40150""
","
","
","""event"",""trial"",""time""
""fullscreenenter"",""5"",""40150""
","
","","","","","","","","","","","","","","","","","","","","","",""
"d3-instructions","9","85312","0.0-9.0","42","738","20","Female","false","false","true","true","""event"",""trial"",""time""
""fullscreenenter"",""5"",""40150""
","
","
","""event"",""trial"",""time""
""fullscreenenter"",""5"",""40150""
","
","","","","","","","","","","","","","","","","","","","","","",""
"d3-instructions","10","100515","0.0-10.0","42","738","20","Female","false","false","true","true","""event"",""trial"",""time""
""fullscreenenter"",""5"",""40150""
","
","
","""event"",""trial"",""time""
""fullscreenenter"",""5"",""40150""
","
","","","","","","","","","","","","","","","","","","","","","",""
"d3-animate-choice","11","106195","0.0-11.0","42","738","20","Female","false","false","true","true","""event"",""trial"",""time""
""fullscreenenter"",""5"",""40150""
","
","
","""event"",""trial"",""time""
""fullscreenenter"",""5"",""40150""
","
","3674.0999999940395","","49","","","3000","1","","","images/tutgreenplanet.jpg","images/tutalien1","images/tutalien2","null","images/tutalien2","","NA","practice","null","","","",""
"d3-animate-choice","12","110301","0.0-12.0","42","738","20","Female","false","false","true","true","""event"",""trial"",""time""
""fullscreenenter"",""5"",""40150""
","
","
","""event"",""trial"",""time""
""fullscreenenter"",""5"",""40150""
","
","2101.5","","48","","","3000","1","","","images/tutgreenplanet.jpg","images/tutalien1","images/tutalien2","null","images/tutalien1","","NA","practice","null","","","",""
"d3-animate-choice","13","113558","0.0-13.0","42","738","20","Female","false","false","true","true","""event"",""trial"",""time""
""fullscreenenter"",""5"",""40150""
","
","
","""event"",""trial"",""time""
""fullscreenenter"",""5"",""40150""
","
","1253.8999999761581","","48","","","3000","1","","","images/tutgreenplanet.jpg","images/tutalien1","images/tutalien2","null","images/tutalien1","","NA","practice","null","","","",""
"d3-animate-choice","14","116611","0.0-14.0","42","738","20","Female","false","false","true","true","""event"",""trial"",""time""
""fullscreenenter"",""5"",""40150""
","
","
","""event"",""trial"",""time""
""fullscreenenter"",""5"",""40150""
","
","1048.5999999940395","","48","","","3000","1","","","images/tutgreenplanet.jpg","images/tutalien1","images/tutalien2","null","images/tutalien1","","NA","practice","null","","","",""
"d3-instructions","15","124455","0.0-15.0","42","738","20","Female","false","false","true","true","""event"",""trial"",""time""
""fullscreenenter"",""5"",""40150""
","
","
","""event"",""trial"",""time""
""fullscreenenter"",""5"",""40150""
","
","","","","","","","","","","","","","","","","","","","","","",""
"d3-instructions","16","131198","0.0-16.0","42","738","20","Female","false","false","true","true","""event"",""trial"",""time""
""fullscreenenter"",""5"",""40150""
","
","
","""event"",""trial"",""time""
""fullscreenenter"",""5"",""40150""
","
","","","","","","","","","","","","","","","","","","","","","",""
"d3-instructions","17","142244","0.0-17.0","42","738","20","Female","false","false","true","true","""event"",""trial"",""time""
""fullscreenenter"",""5"",""40150""
","
","
","""event"",""trial"",""time""
""fullscreenenter"",""5"",""40150""
","
","","","","","","","","","","","","","","","","","","","","","",""
"d3-instructions","18","154723","0.0-18.0","42","738","20","Female","false","false","true","true","""event"",""trial"",""time""
""fullscreenenter"",""5"",""40150""
","
","
","""event"",""trial"",""time""
""fullscreenenter"",""5"",""40150""
","
","","","","","","","","","","","","","","","","","","","","","",""
"d3-instructions","19","168119","0.0-19.0","42","738","20","Female","false","false","true","true","""event"",""trial"",""time""
""fullscreenenter"",""5"",""40150""
","
","
","""event"",""trial"",""time""
""fullscreenenter"",""5"",""40150""
","
","","","","","","","","","","","","","","","","","","","","","",""
"d3-animate-choice","20","170998","0.0-20.0","42","738","20","Female","false","false","true","true","""event"",""trial"",""time""
""fullscreenenter"",""5"",""40150""
","
","
","""event"",""trial"",""time""
""fullscreenenter"",""5"",""40150""
","
","871.0999999940395","","49","","","3000","1","","","images/tutyellowplanet.jpg","null","images/tutalien3","null","images/tutalien3","images/t.png","NA","practice","null","","","",""
"d3-animate-choice","21","173400","0.0-21.0","42","738","20","Female","false","false","true","true","""event"",""trial"",""time""
""fullscreenenter"",""5"",""40150""
","
","
","""event"",""trial"",""time""
""fullscreenenter"",""5"",""40150""
","
","396.90000000596046","","49","","","3000","1","","","images/tutyellowplanet.jpg","null","images/tutalien3","null","images/tutalien3","images/t.png","NA","practice","null","","","",""
"d3-animate-choice","22","175708","0.0-22.0","42","738","20","Female","false","false","true","true","""event"",""trial"",""time""
""fullscreenenter"",""5"",""40150""
","
","
","""event"",""trial"",""time""
""fullscreenenter"",""5"",""40150""
","
","300.2000000178814","","49","","","3000","1","","","images/tutyellowplanet.jpg","null","images/tutalien3","null","images/tutalien3","images/t.png","NA","practice","null","","","",""
"d3-animate-choice","23","178068","0.0-23.0","42","738","20","Female","false","false","true","true","""event"",""trial"",""time""
""fullscreenenter"",""5"",""40150""
","
","
","""event"",""trial"",""time""
""fullscreenenter"",""5"",""40150""
","
","354.69999998807907","","49","","","3000","1","","","images/tutyellowplanet.jpg","null","images/tutalien3","null","images/tutalien3","images/t.png","NA","practice","null","","","",""
"d3-animate-choice","24","180328","0.0-24.0","42","738","20","Female","false","false","true","true","""event"",""trial"",""time""
""fullscreenenter"",""5"",""40150""
","
","
","""event"",""trial"",""time""
""fullscreenenter"",""5"",""40150""
","
","256.5","","49","","","3000","1","","","images/tutyellowplanet.jpg","null","images/tutalien3","null","images/tutalien3","images/nothing.png","NA","practice","null","","","",""
"d3-animate-choice","25","182898","0.0-25.0","42","738","20","Female","false","false","true","true","""event"",""trial"",""time""
""fullscreenenter"",""5"",""40150""
","
","
","""event"",""trial"",""time""
""fullscreenenter"",""5"",""40150""
","
","567.5","","49","","","3000","1","","","images/tutyellowplanet.jpg","null","images/tutalien3","null","images/tutalien3","images/t.png","NA","practice","null","","","",""
"d3-animate-choice","26","185215","0.0-26.0","42","738","20","Female","false","false","true","true","""event"",""trial"",""time""
""fullscreenenter"",""5"",""40150""
","
","
","""event"",""trial"",""time""
""fullscreenenter"",""5"",""40150""
","
","313.90000000596046","","49","","","3000","1","","","images/tutyellowplanet.jpg","null","images/tutalien3","null","images/tutalien3","images/t.png","NA","practice","null","","","",""
"d3-animate-choice","27","187459","0.0-27.0","42","738","20","Female","false","false","true","true","""event"",""trial"",""time""
""fullscreenenter"",""5"",""40150""
","
","
","""event"",""trial"",""time""
""fullscreenenter"",""5"",""40150""
","
","236.59999999403954","","49","","","3000","1","","","images/tutyellowplanet.jpg","null","images/tutalien3","null","images/tutalien3","images/t.png","NA","practice","null","","","",""
"d3-animate-choice","28","189933","0.0-28.0","42","738","20","Female","false","false","true","true","""event"",""trial"",""time""
""fullscreenenter"",""5"",""40150""
","
","
","""event"",""trial"",""time""
""fullscreenenter"",""5"",""40150""
","
","470.40000000596046","","49","","","3000","1","","","images/tutyellowplanet.jpg","null","images/tutalien3","null","images/tutalien3","images/t.png","NA","practice","null","","","",""
"d3-animate-choice","29","192349","0.0-29.0","42","738","20","Female","false","false","true","true","""event"",""trial"",""time""
""fullscreenenter"",""5"",""40150""
","
","
","""event"",""trial"",""time""
""fullscreenenter"",""5"",""40150""
","
","411.7000000178814","","49","","","3000","1","","","images/tutyellowplanet.jpg","null","images/tutalien3","null","images/tutalien3","images/t.png","NA","practice","null","","","",""
"d3-instructions","30","196553","0.0-30.0","42","738","20","Female","false","false","true","true","""event"",""trial"",""time""
""fullscreenenter"",""5"",""40150""
","
","
","""event"",""trial"",""time""
""fullscreenenter"",""5"",""40150""
","
","","","","","","","","","","","","","","","","","","","","","",""
"d3-instructions","31","202427","0.0-31.0","42","738","20","Female","false","false","true","true","""event"",""trial"",""time""
""fullscreenenter"",""5"",""40150""
","
","
","""event"",""trial"",""time""
""fullscreenenter"",""5"",""40150""
","
","","","","","","","","","","","","","","","","","","","","","",""
"d3-instructions","32","206920","0.0-32.0","42","738","20","Female","false","false","true","true","""event"",""trial"",""time""
""fullscreenenter"",""5"",""40150""
","
","
","""event"",""trial"",""time""
""fullscreenenter"",""5"",""40150""
","
","","","","","","","","","","","","","","","","","","","","","",""
"d3-instructions","33","211362","0.0-33.0","42","738","20","Female","false","false","true","true","""event"",""trial"",""time""
""fullscreenenter"",""5"",""40150""
","
","
","""event"",""trial"",""time""
""fullscreenenter"",""5"",""40150""
","
","","","","","","","","","","","","","","","","","","","","","",""
"d3-animate-choice","34","214798","0.0-34.0","42","738","20","Female","false","false","true","true","""event"",""trial"",""time""
""fullscreenenter"",""5"",""40150""
","
","
","""event"",""trial"",""time""
""fullscreenenter"",""5"",""40150""
","
","1429.800000011921","","49","","","3000","1","","","images/tutgreenplanet.jpg","images/tutalien1","images/tutalien2","null","images/tutalien2","images/t.png","NA","practice","null","","","",""
"d3-animate-choice","35","217192","0.0-35.0","42","738","20","Female","false","false","true","true","""event"",""trial"",""time""
""fullscreenenter"",""5"",""40150""
","
","
","""event"",""trial"",""time""
""fullscreenenter"",""5"",""40150""
","
","388.09999999403954","","49","","","3000","1","","","images/tutgreenplanet.jpg","images/tutalien1","images/tutalien2","null","images/tutalien2","images/t.png","NA","practice","null","","","",""
"d3-animate-choice","36","219542","0.0-36.0","42","738","20","Female","false","false","true","true","""event"",""trial"",""time""
""fullscreenenter"",""5"",""40150""
","
","
","""event"",""trial"",""time""
""fullscreenenter"",""5"",""40150""
","
","344.89999997615814","","49","","","3000","1","","","images/tutgreenplanet.jpg","images/tutalien1","images/tutalien2","null","images/tutalien2","images/t.png","NA","practice","null","","","",""
"d3-animate-choice","37","221806","0.0-37.0","42","738","20","Female","false","false","true","true","""event"",""trial"",""time""
""fullscreenenter"",""5"",""40150""
","
","
","""event"",""trial"",""time""
""fullscreenenter"",""5"",""40150""
","
","260.80000001192093","","49","","","3000","1","","","images/tutgreenplanet.jpg","images/tutalien1","images/tutalien2","null","images/tutalien2","images/t.png","NA","practice","null","","","",""
"d3-animate-choice","38","224141","0.0-38.0","42","738","20","Female","false","false","true","true","""event"",""trial"",""time""
""fullscreenenter"",""5"",""40150""
","
","
","""event"",""trial"",""time""
""fullscreenenter"",""5"",""40150""
","
","329.59999999403954","","49","","","3000","1","","","images/tutgreenplanet.jpg","images/tutalien1","images/tutalien2","null","images/tutalien2","images/t.png","NA","practice","null","","","",""
"d3-animate-choice","39","226202","0.0-39.0","42","738","20","Female","false","false","true","true","""event"",""trial"",""time""
""fullscreenenter"",""5"",""40150""
","
","
","""event"",""trial"",""time""
""fullscreenenter"",""5"",""40150""
","
","53.5","","49","","","3000","1","","","images/tutgreenplanet.jpg","images/tutalien1","images/tutalien2","null","images/tutalien2","images/t.png","NA","practice","null","","","",""
"d3-animate-choice","40","228459","0.0-40.0","42","738","20","Female","false","false","true","true","""event"",""trial"",""time""
""fullscreenenter"",""5"",""40150""
","
","
","""event"",""trial"",""time""
""fullscreenenter"",""5"",""40150""
","
","249.7999999821186","","49","","","3000","1","","","images/tutgreenplanet.jpg","images/tutalien1","images/tutalien2","null","images/tutalien2","images/t.png","NA","practice","null","","","",""
"d3-animate-choice","41","230693","0.0-41.0","42","738","20","Female","false","false","true","true","""event"",""trial"",""time""
""fullscreenenter"",""5"",""40150""
","
","
","""event"",""trial"",""time""
""fullscreenenter"",""5"",""40150""
","
","226.59999999403954","","49","","","3000","1","","","images/tutgreenplanet.jpg","images/tutalien1","images/tutalien2","null","images/tutalien2","images/t.png","NA","practice","null","","","",""
"d3-animate-choice","42","232967","0.0-42.0","42","738","20","Female","false","false","true","true","""event"",""trial"",""time""
""fullscreenenter"",""5"",""40150""
","
","
","""event"",""trial"",""time""
""fullscreenenter"",""5"",""40150""
","
","266.2000000178814","","49","","","3000","1","","","images/tutgreenplanet.jpg","images/tutalien1","images/tutalien2","null","images/tutalien2","images/t.png","NA","practice","null","","","",""
"d3-animate-choice","43","235278","0.0-43.0","42","738","20","Female","false","false","true","true","""event"",""trial"",""time""
""fullscreenenter"",""5"",""40150""
","
","
","""event"",""trial"",""time""
""fullscreenenter"",""5"",""40150""
","
","307.30000001192093","","49","","","3000","1","","","images/tutgreenplanet.jpg","images/tutalien1","images/tutalien2","null","images/tutalien2","images/t.png","NA","practice","null","","","",""
"d3-instructions","44","251628","0.0-44.0","42","738","20","Female","false","false","true","true","""event"",""trial"",""time""
""fullscreenenter"",""5"",""40150""
","
","
","""event"",""trial"",""time""
""fullscreenenter"",""5"",""40150""
","
","","","","","","","","","","","","","","","","","","","","","",""
"d3-instructions","45","255410","0.0-45.0","42","738","20","Female","false","false","true","true","""event"",""trial"",""time""
""fullscreenenter"",""5"",""40150""
","
","
","""event"",""trial"",""time""
""fullscreenenter"",""5"",""40150""
","
","","","","","","","","","","","","","","","","","","","","","",""
"d3-instructions","46","259683","0.0-46.0","42","738","20","Female","false","false","true","true","""event"",""trial"",""time""
""fullscreenenter"",""5"",""40150""
","
","
","""event"",""trial"",""time""
""fullscreenenter"",""5"",""40150""
","
","","","","","","","","","","","","","","","","","","","","","",""
"d3-instructions","47","276007","0.0-47.0","42","738","20","Female","false","false","true","true","""event"",""trial"",""time""
""fullscreenenter"",""5"",""40150""
","
","
","""event"",""trial"",""time""
""fullscreenenter"",""5"",""40150""
","
","","","","","","","","","","","","","","","","","","","","","",""
"d3-instructions","48","280225","0.0-48.0","42","738","20","Female","false","false","true","true","""event"",""trial"",""time""
""fullscreenenter"",""5"",""40150""
","
","
","""event"",""trial"",""time""
""fullscreenenter"",""5"",""40150""
","
","","","","","","","","","","","","","","","","","","","","","",""
"d3-instructions","49","288596","0.0-49.0","42","738","20","Female","false","false","true","true","""event"",""trial"",""time""
""fullscreenenter"",""5"",""40150""
","
","
","""event"",""trial"",""time""
""fullscreenenter"",""5"",""40150""
","
","","","","","","","","","","","","","","","","","","","","","",""
"d3-instructions","50","295195","0.0-50.0","42","738","20","Female","false","false","true","true","""event"",""trial"",""time""
""fullscreenenter"",""5"",""40150""
","
","
","""event"",""trial"",""time""
""fullscreenenter"",""5"",""40150""
","
","","","","","","","","","","","","","","","","","","","","","",""
"d3-instructions","51","298252","0.0-51.0","42","738","20","Female","false","false","true","true","""event"",""trial"",""time""
""fullscreenenter"",""5"",""40150""
","
","
","""event"",""trial"",""time""
""fullscreenenter"",""5"",""40150""
","
","","","","","","","","","","","","","","","","","","","","","",""
"d3-instructions","52","301270","0.0-52.0","42","738","20","Female","false","false","true","true","""event"",""trial"",""time""
""fullscreenenter"",""5"",""40150""
","
","
","""event"",""trial"",""time""
""fullscreenenter"",""5"",""40150""
","
","","","","","","","","","","","","","","","","","","","","","",""
"d3-instructions","53","313730","0.0-53.0","42","738","20","Female","false","false","true","true","""event"",""trial"",""time""
""fullscreenenter"",""5"",""40150""
","
","
","""event"",""trial"",""time""
""fullscreenenter"",""5"",""40150""
","
","","","","","","","","","","","","","","","","","","","","","",""
"d3-instructions","54","325294","0.0-54.0","42","738","20","Female","false","false","true","true","""event"",""trial"",""time""
""fullscreenenter"",""5"",""40150""
","
","
","""event"",""trial"",""time""
""fullscreenenter"",""5"",""40150""
","
","","","","","","","","","","","","","","","","","","","","","",""
"d3-instructions","55","329470","0.0-55.0","42","738","20","Female","false","false","true","true","""event"",""trial"",""time""
""fullscreenenter"",""5"",""40150""
","
","
","""event"",""trial"",""time""
""fullscreenenter"",""5"",""40150""
","
","","","","","","","","","","","","","","","","","","","","","",""
"d3-instructions","56","336671","0.0-56.0","42","738","20","Female","false","false","true","true","""event"",""trial"",""time""
""fullscreenenter"",""5"",""40150""
","
","
","""event"",""trial"",""time""
""fullscreenenter"",""5"",""40150""
","
","","","","","","","","","","","","","","","","","","","","","",""
"d3-instructions","57","344135","0.0-57.0","42","738","20","Female","false","false","true","true","""event"",""trial"",""time""
""fullscreenenter"",""5"",""40150""
","
","
","""event"",""trial"",""time""
""fullscreenenter"",""5"",""40150""
","
","","","","","","","","","","","","","","","","","","","","","",""
"d3-instructions","58","354189","0.0-58.0","42","738","20","Female","false","false","true","true","""event"",""trial"",""time""
""fullscreenenter"",""5"",""40150""
","
","
","""event"",""trial"",""time""
""fullscreenenter"",""5"",""40150""
","
","","","","","","","","","","","","","","","","","","","","","",""
"d3-instructions","59","356421","0.0-59.0","42","738","20","Female","false","false","true","true","""event"",""trial"",""time""
""fullscreenenter"",""5"",""40150""
","
","
","""event"",""trial"",""time""
""fullscreenenter"",""5"",""40150""
","
","","","","","","","","","","","","","","","","","","","","","",""
"d3-instructions","60","363263","0.0-60.0","42","738","20","Female","false","false","true","true","""event"",""trial"",""time""
""fullscreenenter"",""5"",""40150""
","
","
","""event"",""trial"",""time""
""fullscreenenter"",""5"",""40150""
","
","","","","","","","","","","","","","","","","","","","","","",""
"d3-animate-choice","61","367270","0.0-61.0-0.0","42","738","20","Female","false","false","true","true","""event"",""trial"",""time""
""fullscreenenter"",""5"",""40150""
","
","
","""event"",""trial"",""time""
""fullscreenenter"",""5"",""40150""
","
","2337","","49","","","3000","1","","","images/earth.jpg","images/tutrocket2","images/tutrocket1","null","images/tutrocket1","","1","practice","null","1","","",""
"d3-animate-choice","62","370845","0.0-61.0-1.0","42","738","20","Female","false","false","true","true","""event"",""trial"",""time""
""fullscreenenter"",""5"",""40150""
","
","
","""event"",""trial"",""time""
""fullscreenenter"",""5"",""40150""
","
","1565.800000011921","","49","","","3000","1","","","images/tutgreenplanet.jpg","images/tutalien2","images/tutalien1","images/tutrocket1","images/tutalien1","images/nothing.png","2","practice","false","1","rare","0","2022-02-10 18:34:32.546"
"two-step-fixation","63","371853","0.0-61.0-2.0","42","738","20","Female","false","false","true","true","""event"",""trial"",""time""
""fullscreenenter"",""5"",""40150""
","
","
","""event"",""trial"",""time""
""fullscreenenter"",""5"",""40150""
","
","","images/earth.jpg","","","","","","","","","","","","","","fixation","","","","","",""
"d3-animate-choice","64","375024","0.0-61.0-0.1","42","738","20","Female","false","false","true","true","""event"",""trial"",""time""
""fullscreenenter"",""5"",""40150""
","
","
","""event"",""trial"",""time""
""fullscreenenter"",""5"",""40150""
","
","1167.2999999821186","","49","","","3000","1","","","images/earth.jpg","images/tutrocket2","images/tutrocket1","null","images/tutrocket1","","1","practice","null","1","","",""
"d3-animate-choice","65","377453","0.0-61.0-1.1","42","738","20","Female","false","false","true","true","""event"",""trial"",""time""
""fullscreenenter"",""5"",""40150""
","
","
","""event"",""trial"",""time""
""fullscreenenter"",""5"",""40150""
","
","425.5","","49","","","3000","1","","","images/tutyellowplanet.jpg","images/tutalien4","images/tutalien3","images/tutrocket1","images/tutalien3","images/nothing.png","2","practice","true","1","common","0","2022-02-10 18:34:39.153"
"two-step-fixation","66","378457","0.0-61.0-2.1","42","738","20","Female","false","false","true","true","""event"",""trial"",""time""
""fullscreenenter"",""5"",""40150""
","
","
","""event"",""trial"",""time""
""fullscreenenter"",""5"",""40150""
","
","","images/earth.jpg","","","","","","","","","","","","","","fixation","","","","","",""
"d3-animate-choice","67","381007","0.0-61.0-0.2","42","738","20","Female","false","false","true","true","""event"",""trial"",""time""
""fullscreenenter"",""5"",""40150""
","
","
","""event"",""trial"",""time""
""fullscreenenter"",""5"",""40150""
","
","542.7000000178814","","49","","","3000","1","","","images/earth.jpg","images/tutrocket2","images/tutrocket1","null","images/tutrocket1","","1","practice","null","1","","",""
"d3-animate-choice","68","383329","0.0-61.0-1.2","42","738","20","Female","false","false","true","true","""event"",""trial"",""time""
""fullscreenenter"",""5"",""40150""
","
","
","""event"",""trial"",""time""
""fullscreenenter"",""5"",""40150""
","
","317.2000000178814","","49","","","3000","1","","","images/tutgreenplanet.jpg","images/tutalien2","images/tutalien1","images/tutrocket1","images/tutalien1","images/nothing.png","2","practice","false","1","rare","0","2022-02-10 18:34:45.029"
"two-step-fixation","69","384332","0.0-61.0-2.2","42","738","20","Female","false","false","true","true","""event"",""trial"",""time""
""fullscreenenter"",""5"",""40150""
","
","
","""event"",""trial"",""time""
""fullscreenenter"",""5"",""40150""
","
","","images/earth.jpg","","","","","","","","","","","","","","fixation","","","","","",""
"d3-animate-choice","70","386675","0.0-61.0-0.3","42","738","20","Female","false","false","true","true","""event"",""trial"",""time""
""fullscreenenter"",""5"",""40150""
","
","
","""event"",""trial"",""time""
""fullscreenenter"",""5"",""40150""
","
","335.2000000178814","","49","","","3000","1","","","images/earth.jpg","images/tutrocket2","images/tutrocket1","null","images/tutrocket1","","1","practice","null","1","","",""
"d3-animate-choice","71","389041","0.0-61.0-1.3","42","738","20","Female","false","false","true","true","""event"",""trial"",""time""
""fullscreenenter"",""5"",""40150""
","
","
","""event"",""trial"",""time""
""fullscreenenter"",""5"",""40150""
","
","362","","48","","","3000","1","","","images/tutyellowplanet.jpg","images/tutalien4","images/tutalien3","images/tutrocket1","images/tutalien4","images/t.png","2","practice","true","2","common","1","2022-02-10 18:34:50.741"
"two-step-fixation","72","390045","0.0-61.0-2.3","42","738","20","Female","false","false","true","true","""event"",""trial"",""time""
""fullscreenenter"",""5"",""40150""
","
","
","""event"",""trial"",""time""
""fullscreenenter"",""5"",""40150""
","
","","images/earth.jpg","","","","","","","","","","","","","","fixation","","","","","",""
"d3-animate-choice","73","392622","0.0-61.0-0.4","42","738","20","Female","false","false","true","true","""event"",""trial"",""time""
""fullscreenenter"",""5"",""40150""
","
","
","""event"",""trial"",""time""
""fullscreenenter"",""5"",""40150""
","
","573.8000000119209","","49","","","3000","1","","","images/earth.jpg","images/tutrocket2","images/tutrocket1","null","images/tutrocket1","","1","practice","null","1","","",""
"d3-animate-choice","74","394964","0.0-61.0-1.4","42","738","20","Female","false","false","true","true","""event"",""trial"",""time""
""fullscreenenter"",""5"",""40150""
","
","
","""event"",""trial"",""time""
""fullscreenenter"",""5"",""40150""
","
","338.5","","48","","","3000","1","","","images/tutyellowplanet.jpg","images/tutalien4","images/tutalien3","images/tutrocket1","images/tutalien4","images/t.png","2","practice","true","2","common","1","2022-02-10 18:34:56.664"
"two-step-fixation","75","395969","0.0-61.0-2.4","42","738","20","Female","false","false","true","true","""event"",""trial"",""time""
""fullscreenenter"",""5"",""40150""
","
","
","""event"",""trial"",""time""
""fullscreenenter"",""5"",""40150""
","
","","images/earth.jpg","","","","","","","","","","","","","","fixation","","","","","",""
"d3-animate-choice","76","398429","0.0-61.0-0.5","42","738","20","Female","false","false","true","true","""event"",""trial"",""time""
""fullscreenenter"",""5"",""40150""
","
","
","""event"",""trial"",""time""
""fullscreenenter"",""5"",""40150""
","
","455.2000000178814","","49","","","3000","1","","","images/earth.jpg","images/tutrocket2","images/tutrocket1","null","images/tutrocket1","","1","practice","null","1","","",""
"d3-animate-choice","77","400894","0.0-61.0-1.5","42","738","20","Female","false","false","true","true","""event"",""trial"",""time""
""fullscreenenter"",""5"",""40150""
","
","
","""event"",""trial"",""time""
""fullscreenenter"",""5"",""40150""
","
","460.10000002384186","","48","","","3000","1","","","images/tutyellowplanet.jpg","images/tutalien4","images/tutalien3","images/tutrocket1","images/tutalien4","images/nothing.png","2","practice","true","2","common","0","2022-02-10 18:35:02.594"
"two-step-fixation","78","401897","0.0-61.0-2.5","42","738","20","Female","false","false","true","true","""event"",""trial"",""time""
""fullscreenenter"",""5"",""40150""
","
","
","""event"",""trial"",""time""
""fullscreenenter"",""5"",""40150""
","
","","images/earth.jpg","","","","","","","","","","","","","","fixation","","","","","",""
"d3-animate-choice","79","404516","0.0-61.0-0.6","42","738","20","Female","false","false","true","true","""event"",""trial"",""time""
""fullscreenenter"",""5"",""40150""
","
","
","""event"",""trial"",""time""
""fullscreenenter"",""5"",""40150""
","
","615.2000000178814","","49","","","3000","1","","","images/earth.jpg","images/tutrocket2","images/tutrocket1","null","images/tutrocket1","","1","practice","null","1","","",""
"d3-animate-choice","80","406990","0.0-61.0-1.6","42","738","20","Female","false","false","true","true","""event"",""trial"",""time""
""fullscreenenter"",""5"",""40150""
","
","
","""event"",""trial"",""time""
""fullscreenenter"",""5"",""40150""
","
","470.09999999403954","","48","","","3000","1","","","images/tutgreenplanet.jpg","images/tutalien2","images/tutalien1","images/tutrocket1","images/tutalien2","images/nothing.png","2","practice","false","2","rare","0","2022-02-10 18:35:08.690"
"two-step-fixation","81","407993","0.0-61.0-2.6","42","738","20","Female","false","false","true","true","""event"",""trial"",""time""
""fullscreenenter"",""5"",""40150""
","
","
","""event"",""trial"",""time""
""fullscreenenter"",""5"",""40150""
","
","","images/earth.jpg","","","","","","","","","","","","","","fixation","","","","","",""
"d3-animate-choice","82","410306","0.0-61.0-0.7","42","738","20","Female","false","false","true","true","""event"",""trial"",""time""
""fullscreenenter"",""5"",""40150""
","
","
","""event"",""trial"",""time""
""fullscreenenter"",""5"",""40150""
","
","307.89999997615814","","49","","","3000","1","","","images/earth.jpg","images/tutrocket2","images/tutrocket1","null","images/tutrocket1","","1","practice","null","1","","",""
"d3-animate-choice","83","413419","0.0-61.0-1.7","42","738","20","Female","false","false","true","true","""event"",""trial"",""time""
""fullscreenenter"",""5"",""40150""
","
","
","""event"",""trial"",""time""
""fullscreenenter"",""5"",""40150""
","
","1109.5","","49","","","3000","1","","","images/tutyellowplanet.jpg","images/tutalien4","images/tutalien3","images/tutrocket1","images/tutalien3","images/nothing.png","2","practice","true","1","common","0","2022-02-10 18:35:15.119"
"two-step-fixation","84","414424","0.0-61.0-2.7","42","738","20","Female","false","false","true","true","""event"",""trial"",""time""
""fullscreenenter"",""5"",""40150""
","
","
","""event"",""trial"",""time""
""fullscreenenter"",""5"",""40150""
","
","","images/earth.jpg","","","","","","","","","","","","","","fixation","","","","","",""
"d3-animate-choice","85","416785","0.0-61.0-0.8","42","738","20","Female","false","false","true","true","""event"",""trial"",""time""
""fullscreenenter"",""5"",""40150""
","
","
","""event"",""trial"",""time""
""fullscreenenter"",""5"",""40150""
","
","356.90000000596046","","49","","","3000","1","","","images/earth.jpg","images/tutrocket2","images/tutrocket1","null","images/tutrocket1","","1","practice","null","1","","",""
"d3-animate-choice","86","419319","0.0-61.0-1.8","42","738","20","Female","false","false","true","true","""event"",""trial"",""time""
""fullscreenenter"",""5"",""40150""
","
","
","""event"",""trial"",""time""
""fullscreenenter"",""5"",""40150""
","
","529.5999999940395","","48","","","3000","1","","","images/tutyellowplanet.jpg","images/tutalien4","images/tutalien3","images/tutrocket1","images/tutalien4","images/nothing.png","2","practice","true","2","common","0","2022-02-10 18:35:21.019"
"two-step-fixation","87","420323","0.0-61.0-2.8","42","738","20","Female","false","false","true","true","""event"",""trial"",""time""
""fullscreenenter"",""5"",""40150""
","
","
","""event"",""trial"",""time""
""fullscreenenter"",""5"",""40150""
","
","","images/earth.jpg","","","","","","","","","","","","","","fixation","","","","","",""
"d3-animate-choice","88","423310","0.0-61.0-0.9","42","738","20","Female","false","false","true","true","""event"",""trial"",""time""
""fullscreenenter"",""5"",""40150""
","
","
","""event"",""trial"",""time""
""fullscreenenter"",""5"",""40150""
","
","983.1999999880791","","49","","","3000","1","","","images/earth.jpg","images/tutrocket2","images/tutrocket1","null","images/tutrocket1","","1","practice","null","1","","",""
"d3-animate-choice","89","425816","0.0-61.0-1.9","42","738","20","Female","false","false","true","true","""event"",""trial"",""time""
""fullscreenenter"",""5"",""40150""
","
","
","""event"",""trial"",""time""
""fullscreenenter"",""5"",""40150""
","
","502.30000001192093","","48","","","3000","1","","","images/tutyellowplanet.jpg","images/tutalien4","images/tutalien3","images/tutrocket1","images/tutalien4","images/nothing.png","2","practice","true","2","common","0","2022-02-10 18:35:27.516"
"two-step-fixation","90","426820","0.0-61.0-2.9","42","738","20","Female","false","false","true","true","""event"",""trial"",""time""
""fullscreenenter"",""5"",""40150""
","
","
","""event"",""trial"",""time""
""fullscreenenter"",""5"",""40150""
","
","","images/earth.jpg","","","","","","","","","","","","","","fixation","","","","","",""
"d3-animate-choice","91","429181","0.0-61.0-0.10","42","738","20","Female","false","false","true","true","""event"",""trial"",""time""
""fullscreenenter"",""5"",""40150""
","
","
","""event"",""trial"",""time""
""fullscreenenter"",""5"",""40150""
","
","355.80000001192093","","48","","","3000","1","","","images/earth.jpg","images/tutrocket2","images/tutrocket1","null","images/tutrocket2","","1","practice","null","2","","",""
"d3-animate-choice","92","431732","0.0-61.0-1.10","42","738","20","Female","false","false","true","true","""event"",""trial"",""time""
""fullscreenenter"",""5"",""40150""
","
","
","""event"",""trial"",""time""
""fullscreenenter"",""5"",""40150""
","
","544.8999999761581","","49","","","3000","1","","","images/tutyellowplanet.jpg","images/tutalien4","images/tutalien3","images/tutrocket2","images/tutalien3","images/nothing.png","2","practice","false","1","rare","0","2022-02-10 18:35:33.432"
"two-step-fixation","93","432734","0.0-61.0-2.10","42","738","20","Female","false","false","true","true","""event"",""trial"",""time""
""fullscreenenter"",""5"",""40150""
","
","
","""event"",""trial"",""time""
""fullscreenenter"",""5"",""40150""
","
","","images/earth.jpg","","","","","","","","","","","","","","fixation","","","","","",""
"d3-animate-choice","94","435166","0.0-61.0-0.11","42","738","20","Female","false","false","true","true","""event"",""trial"",""time""
""fullscreenenter"",""5"",""40150""
","
","
","""event"",""trial"",""time""
""fullscreenenter"",""5"",""40150""
","
","428.5","","48","","","3000","1","","","images/earth.jpg","images/tutrocket2","images/tutrocket1","null","images/tutrocket2","","1","practice","null","2","","",""
"d3-animate-choice","95","437798","0.0-61.0-1.11","42","738","20","Female","false","false","true","true","""event"",""trial"",""time""
""fullscreenenter"",""5"",""40150""
","
","
","""event"",""trial"",""time""
""fullscreenenter"",""5"",""40150""
","
","628.5","","48","","","3000","1","","","images/tutyellowplanet.jpg","images/tutalien4","images/tutalien3","images/tutrocket2","images/tutalien4","images/nothing.png","2","practice","false","2","rare","0","2022-02-10 18:35:39.498"
"two-step-fixation","96","438802","0.0-61.0-2.11","42","738","20","Female","false","false","true","true","""event"",""trial"",""time""
""fullscreenenter"",""5"",""40150""
","
","
","""event"",""trial"",""time""
""fullscreenenter"",""5"",""40150""
","
","","images/earth.jpg","","","","","","","","","","","","","","fixation","","","","","",""
"d3-animate-choice","97","441246","0.0-61.0-0.12","42","738","20","Female","false","false","true","true","""event"",""trial"",""time""
""fullscreenenter"",""5"",""40150""
","
","
","""event"",""trial"",""time""
""fullscreenenter"",""5"",""40150""
","
","441.19999998807907","","48","","","3000","1","","","images/earth.jpg","images/tutrocket2","images/tutrocket1","null","images/tutrocket2","","1","practice","null","2","","",""
"d3-animate-choice","98","443614","0.0-61.0-1.12","42","738","20","Female","false","false","true","true","""event"",""trial"",""time""
""fullscreenenter"",""5"",""40150""
","
","
","""event"",""trial"",""time""
""fullscreenenter"",""5"",""40150""
","
","362.09999999403954","","49","","","3000","1","","","images/tutyellowplanet.jpg","images/tutalien4","images/tutalien3","images/tutrocket2","images/tutalien3","images/nothing.png","2","practice","false","1","rare","0","2022-02-10 18:35:45.314"
"two-step-fixation","99","444617","0.0-61.0-2.12","42","738","20","Female","false","false","true","true","""event"",""trial"",""time""
""fullscreenenter"",""5"",""40150""
","
","
","""event"",""trial"",""time""
""fullscreenenter"",""5"",""40150""
","
","","images/earth.jpg","","","","","","","","","","","","","","fixation","","","","","",""
"d3-animate-choice","100","447177","0.0-61.0-0.13","42","738","20","Female","false","false","true","true","""event"",""trial"",""time""
""fullscreenenter"",""5"",""40150""
","
","
","""event"",""trial"",""time""
""fullscreenenter"",""5"",""40150""
","
","557.3000000119209","","49","","","3000","1","","","images/earth.jpg","images/tutrocket2","images/tutrocket1","null","images/tutrocket1","","1","practice","null","1","","",""
"d3-animate-choice","101","449538","0.0-61.0-1.13","42","738","20","Female","false","false","true","true","""event"",""trial"",""time""
""fullscreenenter"",""5"",""40150""
","
","
","""event"",""trial"",""time""
""fullscreenenter"",""5"",""40150""
","
","356","","49","","","3000","1","","","images/tutyellowplanet.jpg","images/tutalien4","images/tutalien3","images/tutrocket1","images/tutalien3","images/nothing.png","2","practice","true","1","common","0","2022-02-10 18:35:51.238"
"two-step-fixation","102","450542","0.0-61.0-2.13","42","738","20","Female","false","false","true","true","""event"",""trial"",""time""
""fullscreenenter"",""5"",""40150""
","
","
","""event"",""trial"",""time""
""fullscreenenter"",""5"",""40150""
","
","","images/earth.jpg","","","","","","","","","","","","","","fixation","","","","","",""
"d3-animate-choice","103","452974","0.0-61.0-0.14","42","738","20","Female","false","false","true","true","""event"",""trial"",""time""
""fullscreenenter"",""5"",""40150""
","
","
","""event"",""trial"",""time""
""fullscreenenter"",""5"",""40150""
","
","428.90000000596046","","49","","","3000","1","","","images/earth.jpg","images/tutrocket2","images/tutrocket1","null","images/tutrocket1","","1","practice","null","1","","",""
"d3-animate-choice","104","455649","0.0-61.0-1.14","42","738","20","Female","false","false","true","true","""event"",""trial"",""time""
""fullscreenenter"",""5"",""40150""
","
","
","""event"",""trial"",""time""
""fullscreenenter"",""5"",""40150""
","
","669.6999999880791","","48","","","3000","1","","","images/tutyellowplanet.jpg","images/tutalien4","images/tutalien3","images/tutrocket1","images/tutalien4","images/t.png","2","practice","true","2","common","1","2022-02-10 18:35:57.349"
"two-step-fixation","105","456654","0.0-61.0-2.14","42","738","20","Female","false","false","true","true","""event"",""trial"",""time""
""fullscreenenter"",""5"",""40150""
","
","
","""event"",""trial"",""time""
""fullscreenenter"",""5"",""40150""
","
","","images/earth.jpg","","","","","","","","","","","","","","fixation","","","","","",""
"d3-animate-choice","106","458993","0.0-61.0-0.15","42","738","20","Female","false","false","true","true","""event"",""trial"",""time""
""fullscreenenter"",""5"",""40150""
","
","
","""event"",""trial"",""time""
""fullscreenenter"",""5"",""40150""
","
","331.59999999403954","","49","","","3000","1","","","images/earth.jpg","images/tutrocket2","images/tutrocket1","null","images/tutrocket1","","1","practice","null","1","","",""
"d3-animate-choice","107","461934","0.0-61.0-1.15","42","738","20","Female","false","false","true","true","""event"",""trial"",""time""
""fullscreenenter"",""5"",""40150""
","
","
","""event"",""trial"",""time""
""fullscreenenter"",""5"",""40150""
","
","936.5999999940395","","48","","","3000","1","","","images/tutgreenplanet.jpg","images/tutalien2","images/tutalien1","images/tutrocket1","images/tutalien2","images/nothing.png","2","practice","false","2","rare","0","2022-02-10 18:36:03.634"
"two-step-fixation","108","462937","0.0-61.0-2.15","42","738","20","Female","false","false","true","true","""event"",""trial"",""time""
""fullscreenenter"",""5"",""40150""
","
","
","""event"",""trial"",""time""
""fullscreenenter"",""5"",""40150""
","
","","images/earth.jpg","","","","","","","","","","","","","","fixation","","","","","",""
"d3-animate-choice","109","465388","0.0-61.0-0.16","42","738","20","Female","false","false","true","true","""event"",""trial"",""time""
""fullscreenenter"",""5"",""40150""
","
","
","""event"",""trial"",""time""
""fullscreenenter"",""5"",""40150""
","
","446.5","","49","","","3000","1","","","images/earth.jpg","images/tutrocket2","images/tutrocket1","null","images/tutrocket1","","1","practice","null","1","","",""
"d3-animate-choice","110","467929","0.0-61.0-1.16","42","738","20","Female","false","false","true","true","""event"",""trial"",""time""
""fullscreenenter"",""5"",""40150""
","
","
","""event"",""trial"",""time""
""fullscreenenter"",""5"",""40150""
","
","536.7000000178814","","48","","","3000","1","","","images/tutyellowplanet.jpg","images/tutalien4","images/tutalien3","images/tutrocket1","images/tutalien4","images/t.png","2","practice","true","2","common","1","2022-02-10 18:36:09.629"
"two-step-fixation","111","468932","0.0-61.0-2.16","42","738","20","Female","false","false","true","true","""event"",""trial"",""time""
""fullscreenenter"",""5"",""40150""
","
","
","""event"",""trial"",""time""
""fullscreenenter"",""5"",""40150""
","
","","images/earth.jpg","","","","","","","","","","","","","","fixation","","","","","",""
"d3-animate-choice","112","471358","0.0-61.0-0.17","42","738","20","Female","false","false","true","true","""event"",""trial"",""time""
""fullscreenenter"",""5"",""40150""
","
","
","""event"",""trial"",""time""
""fullscreenenter"",""5"",""40150""
","
","421.09999999403954","","48","","","3000","1","","","images/earth.jpg","images/tutrocket2","images/tutrocket1","null","images/tutrocket2","","1","practice","null","2","","",""
"d3-animate-choice","113","474077","0.0-61.0-1.17","42","738","20","Female","false","false","true","true","""event"",""trial"",""time""
""fullscreenenter"",""5"",""40150""
","
","
","""event"",""trial"",""time""
""fullscreenenter"",""5"",""40150""
","
","715.9000000059605","","49","","","3000","1","","","images/tutgreenplanet.jpg","images/tutalien2","images/tutalien1","images/tutrocket2","images/tutalien1","images/nothing.png","2","practice","true","1","common","0","2022-02-10 18:36:15.778"
"two-step-fixation","114","475081","0.0-61.0-2.17","42","738","20","Female","false","false","true","true","""event"",""trial"",""time""
""fullscreenenter"",""5"",""40150""
","
","
","""event"",""trial"",""time""
""fullscreenenter"",""5"",""40150""
","
","","images/earth.jpg","","","","","","","","","","","","","","fixation","","","","","",""
"d3-animate-choice","115","477529","0.0-61.0-0.18","42","738","20","Female","false","false","true","true","""event"",""trial"",""time""
""fullscreenenter"",""5"",""40150""
","
","
","""event"",""trial"",""time""
""fullscreenenter"",""5"",""40150""
","
","446.09999999403954","","49","","","3000","1","","","images/earth.jpg","images/tutrocket2","images/tutrocket1","null","images/tutrocket1","","1","practice","null","1","","",""
"d3-animate-choice","116","480274","0.0-61.0-1.18","42","738","20","Female","false","false","true","true","""event"",""trial"",""time""
""fullscreenenter"",""5"",""40150""
","
","
","""event"",""trial"",""time""
""fullscreenenter"",""5"",""40150""
","
","739.0999999940395","","48","","","3000","1","","","images/tutyellowplanet.jpg","images/tutalien4","images/tutalien3","images/tutrocket1","images/tutalien4","images/nothing.png","2","practice","true","2","common","0","2022-02-10 18:36:21.974"
"two-step-fixation","117","481277","0.0-61.0-2.18","42","738","20","Female","false","false","true","true","""event"",""trial"",""time""
""fullscreenenter"",""5"",""40150""
","
","
","""event"",""trial"",""time""
""fullscreenenter"",""5"",""40150""
","
","","images/earth.jpg","","","","","","","","","","","","","","fixation","","","","","",""
"d3-animate-choice","118","483704","0.0-61.0-0.19","42","738","20","Female","false","false","true","true","""event"",""trial"",""time""
""fullscreenenter"",""5"",""40150""
","
","
","""event"",""trial"",""time""
""fullscreenenter"",""5"",""40150""
","
","424.2000000178814","","49","","","3000","1","","","images/earth.jpg","images/tutrocket2","images/tutrocket1","null","images/tutrocket1","","1","practice","null","1","","",""
"d3-animate-choice","119","486265","0.0-61.0-1.19","42","738","20","Female","false","false","true","true","""event"",""trial"",""time""
""fullscreenenter"",""5"",""40150""
","
","
","""event"",""trial"",""time""
""fullscreenenter"",""5"",""40150""
","
","558.0999999940395","","48","","","3000","1","","","images/tutyellowplanet.jpg","images/tutalien4","images/tutalien3","images/tutrocket1","images/tutalien4","images/nothing.png","2","practice","true","2","common","0","2022-02-10 18:36:27.965"
"two-step-fixation","120","487268","0.0-61.0-2.19","42","738","20","Female","false","false","true","true","""event"",""trial"",""time""
""fullscreenenter"",""5"",""40150""
","
","
","""event"",""trial"",""time""
""fullscreenenter"",""5"",""40150""
","
","","images/earth.jpg","","","","","","","","","","","","","","fixation","","","","","",""
"d3-instructions","121","490391","0.0-62.0","42","738","20","Female","false","false","true","true","""event"",""trial"",""time""
""fullscreenenter"",""5"",""40150""
","
","
","""event"",""trial"",""time""
""fullscreenenter"",""5"",""40150""
","
","","","","","","","","","","","","","","","","","","","","","",""
"audio-keyboard-response","122","495236","0.0-63.0","42","738","20","Female","false","false","true","true","""event"",""trial"",""time""
""fullscreenenter"",""5"",""40150""
","
","
","""event"",""trial"",""time""
""fullscreenenter"",""5"",""40150""
","
","4843","audio/instructions/treasure_feedback.wav","32","","","","","","","","","","","","","","","","","","",""
"d3-instructions","123","506511","0.0-64.0","42","738","20","Female","false","false","true","true","""event"",""trial"",""time""
""fullscreenenter"",""5"",""40150""
","
","
","""event"",""trial"",""time""
""fullscreenenter"",""5"",""40150""
","
","","","","","","","","","","","","","","","","","","","","","",""
"d3-instructions","124","530895","0.0-65.0","42","738","20","Female","false","false","true","true","""event"",""trial"",""time""
""fullscreenenter"",""5"",""40150""
","
","
","""event"",""trial"",""time""
""fullscreenenter"",""5"",""40150""
","
","","","","","","","","","","","","","","","","","","","","","",""
"d3-instructions","125","585039","0.0-66.0","42","738","20","Female","false","false","true","true","""event"",""trial"",""time""
""fullscreenenter"",""5"",""40150""
","
","
","""event"",""trial"",""time""
""fullscreenenter"",""5"",""40150""
","
","","","","","","","","","","","","","","","","","","","","","",""
"d3-instructions","126","600977","0.0-67.0","42","738","20","Female","false","false","true","true","""event"",""trial"",""time""
""fullscreenenter"",""5"",""40150""
","
","
","""event"",""trial"",""time""
""fullscreenenter"",""5"",""40150""
","
","","","","","","","","","","","","","","","","","","","","","",""
"d3-instructions","127","607071","0.0-68.0","42","738","20","Female","false","false","true","true","""event"",""trial"",""time""
""fullscreenenter"",""5"",""40150""
","
","
","""event"",""trial"",""time""
""fullscreenenter"",""5"",""40150""
","
","","","","","","","","","","","","","","","","","","","","","",""
"instructions-quiz","128","610794","0.0-69.0","42","738","20","Female","false","false","true","true","""event"",""trial"",""time""
""fullscreenenter"",""5"",""40150""
","
","
","""event"",""trial"",""time""
""fullscreenenter"",""5"",""40150""
","
","3722.199999988079","audio/quiz/Q1_Prompt.wav","","1","","","","","","","","","","","","","","","","","",""
"audio-keyboard-response","129","619398","0.0-70.0","42","738","20","Female","false","false","true","true","""event"",""trial"",""time""
""fullscreenenter"",""5"",""40150""
","
","
","""event"",""trial"",""time""
""fullscreenenter"",""5"",""40150""
","
","8603","audio/quiz/Q1_Correct.wav","32","","","","","","","","","","","","","","","","","","",""
"instructions-quiz","130","623601","0.0-71.0","42","738","20","Female","false","false","true","true","""event"",""trial"",""time""
""fullscreenenter"",""5"",""40150""
","
","
","""event"",""trial"",""time""
""fullscreenenter"",""5"",""40150""
","
","4201","audio/quiz/Q2_Prompt.wav","","0","","","","","","","","","","","","","","","","","",""
"audio-keyboard-response","131","636467","0.0-72.0","42","738","20","Female","false","false","true","true","""event"",""trial"",""time""
""fullscreenenter"",""5"",""40150""
","
","
","""event"",""trial"",""time""
""fullscreenenter"",""5"",""40150""
","
","null","audio/quiz/Q2_Correct.wav","null","","","","","","","","","","","","","","","","","","",""
"instructions-quiz","132","640844","0.0-73.0","42","738","20","Female","false","false","true","true","""event"",""trial"",""time""
""fullscreenenter"",""5"",""40150""
","
","
","""event"",""trial"",""time""
""fullscreenenter"",""5"",""40150""
","
","4375.800000011921","audio/quiz/Q3_Prompt.wav","","1","","","","","","","","","","","","","","","","","",""
"audio-keyboard-response","133","641997","0.0-74.0","42","738","20","Female","false","false","true","true","""event"",""trial"",""time""
""fullscreenenter"",""5"",""40150""
","
","
","""event"",""trial"",""time""
""fullscreenenter"",""5"",""40150""
","
","1152","audio/quiz/Q3_Correct.wav","32","","","","","","","","","","","","","","","","","","",""
"d3-instructions","134","653845","0.0-75.0","42","738","20","Female","false","false","true","true","""event"",""trial"",""time""
""fullscreenenter"",""5"",""40150""
","
","
","""event"",""trial"",""time""
""fullscreenenter"",""5"",""40150""
","
","","","","","","","","","","","","","","","","","","","","","",""
"d3-animate-choice","135","657028","0.0-76.0-0.0","42","738","20","Female","false","false","true","true","""event"",""trial"",""time""
""fullscreenenter"",""5"",""40150""
","
","
","""event"",""trial"",""time""
""fullscreenenter"",""5"",""40150""
","
","1178.2000000178814","","49","","","3000","1","","","images/earth.jpg","images/rocket1","images/rocket2","null","images/rocket2","","1","real","null","1","","",""
"d3-animate-choice","136","659496","0.0-76.0-1.0","42","738","20","Female","false","false","true","true","""event"",""trial"",""time""
""fullscreenenter"",""5"",""40150""
","
","
","""event"",""trial"",""time""
""fullscreenenter"",""5"",""40150""
","
","463.90000000596046","","49","","","3000","1","","","images/purpleplanet.jpg","images/alien4","images/alien3","images/rocket2","images/alien3","images/t.png","2","real","false","1","rare","1","2022-02-10 18:39:21.196"
"two-step-fixation","137","660499","0.0-76.0-2.0","42","738","20","Female","false","false","true","true","""event"",""trial"",""time""
""fullscreenenter"",""5"",""40150""
","
","
","""event"",""trial"",""time""
""fullscreenenter"",""5"",""40150""
","
","","images/earth.jpg","","","","","","","","","","","","","","fixation","","","","","",""
"d3-animate-choice","138","662939","0.0-76.0-0.1","42","738","20","Female","false","false","true","true","""event"",""trial"",""time""
""fullscreenenter"",""5"",""40150""
","
","
","""event"",""trial"",""time""
""fullscreenenter"",""5"",""40150""
","
","431.69999998807907","","49","","","3000","1","","","images/earth.jpg","images/rocket1","images/rocket2","null","images/rocket2","","1","real","null","1","","",""
"d3-animate-choice","139","665811","0.0-76.0-1.1","42","738","20","Female","false","false","true","true","""event"",""trial"",""time""
""fullscreenenter"",""5"",""40150""
","
","
","""event"",""trial"",""time""
""fullscreenenter"",""5"",""40150""
","
","868.1999999880791","","48","","","3000","1","","","images/redplanet1.jpg","images/alien2","images/alien1","images/rocket2","images/alien2","images/nothing.png","2","real","true","2","common","0","2022-02-10 18:39:27.511"
"two-step-fixation","140","666813","0.0-76.0-2.1","42","738","20","Female","false","false","true","true","""event"",""trial"",""time""
""fullscreenenter"",""5"",""40150""
","
","
","""event"",""trial"",""time""
""fullscreenenter"",""5"",""40150""
","
","","images/earth.jpg","","","","","","","","","","","","","","fixation","","","","","",""
"d3-animate-choice","141","669206","0.0-76.0-0.2","42","738","20","Female","false","false","true","true","""event"",""trial"",""time""
""fullscreenenter"",""5"",""40150""
","
","
","""event"",""trial"",""time""
""fullscreenenter"",""5"",""40150""
","
","388.69999998807907","","49","","","3000","1","","","images/earth.jpg","images/rocket1","images/rocket2","null","images/rocket2","","1","real","null","1","","",""
"d3-animate-choice","142","672349","0.0-76.0-1.2","42","738","20","Female","false","false","true","true","""event"",""trial"",""time""
""fullscreenenter"",""5"",""40150""
","
","
","""event"",""trial"",""time""
""fullscreenenter"",""5"",""40150""
","
","1139.9000000059605","","49","","","3000","1","","","images/redplanet1.jpg","images/alien2","images/alien1","images/rocket2","images/alien1","images/nothing.png","2","real","true","1","common","0","2022-02-10 18:39:34.049"
"two-step-fixation","143","673352","0.0-76.0-2.2","42","738","20","Female","false","false","true","true","""event"",""trial"",""time""
""fullscreenenter"",""5"",""40150""
","
","
","""event"",""trial"",""time""
""fullscreenenter"",""5"",""40150""
","
","","images/earth.jpg","","","","","","","","","","","","","","fixation","","","","","",""
"d3-animate-choice","144","676083","0.0-76.0-0.3","42","738","20","Female","false","false","true","true","""event"",""trial"",""time""
""fullscreenenter"",""5"",""40150""
","
","
","""event"",""trial"",""time""
""fullscreenenter"",""5"",""40150""
","
","727.9000000059605","","49","","","3000","1","","","images/earth.jpg","images/rocket1","images/rocket2","null","images/rocket2","","1","real","null","1","","",""
"d3-animate-choice","145","679289","0.0-76.0-1.3","42","738","20","Female","false","false","true","true","""event"",""trial"",""time""
""fullscreenenter"",""5"",""40150""
","
","
","""event"",""trial"",""time""
""fullscreenenter"",""5"",""40150""
","
","1201.5999999940395","","48","","","3000","1","","","images/redplanet1.jpg","images/alien2","images/alien1","images/rocket2","images/alien2","images/nothing.png","2","real","true","2","common","0","2022-02-10 18:39:40.989"
"two-step-fixation","146","680295","0.0-76.0-2.3","42","738","20","Female","false","false","true","true","""event"",""trial"",""time""
""fullscreenenter"",""5"",""40150""
","
","
","""event"",""trial"",""time""
""fullscreenenter"",""5"",""40150""
","
","","images/earth.jpg","","","","","","","","","","","","","","fixation","","","","","",""
"d3-animate-choice","147","682727","0.0-76.0-0.4","42","738","20","Female","false","false","true","true","""event"",""trial"",""time""
""fullscreenenter"",""5"",""40150""
","
","
","""event"",""trial"",""time""
""fullscreenenter"",""5"",""40150""
","
","429.2000000178814","","48","","","3000","1","","","images/earth.jpg","images/rocket1","images/rocket2","null","images/rocket1","","1","real","null","2","","",""
"d3-animate-choice","148","685737","0.0-76.0-1.4","42","738","20","Female","false","false","true","true","""event"",""trial"",""time""
""fullscreenenter"",""5"",""40150""
","
","
","""event"",""trial"",""time""
""fullscreenenter"",""5"",""40150""
","
","1005.5999999940395","","48","","","3000","1","","","images/redplanet1.jpg","images/alien2","images/alien1","images/rocket1","images/alien2","images/t.png","2","real","false","2","rare","1","2022-02-10 18:39:47.437"
"two-step-fixation","149","686740","0.0-76.0-2.4","42","738","20","Female","false","false","true","true","""event"",""trial"",""time""
""fullscreenenter"",""5"",""40150""
","
","
","""event"",""trial"",""time""
""fullscreenenter"",""5"",""40150""
","
","","images/earth.jpg","","","","","","","","","","","","","","fixation","","","","","",""
"d3-animate-choice","150","689108","0.0-76.0-0.5","42","738","20","Female","false","false","true","true","""event"",""trial"",""time""
""fullscreenenter"",""5"",""40150""
","
","
","""event"",""trial"",""time""
""fullscreenenter"",""5"",""40150""
","
","363.30000001192093","","48","","","3000","1","","","images/earth.jpg","images/rocket1","images/rocket2","null","images/rocket1","","1","real","null","2","","",""
"d3-animate-choice","151","692089","0.0-76.0-1.5","42","738","20","Female","false","false","true","true","""event"",""trial"",""time""
""fullscreenenter"",""5"",""40150""
","
","
","""event"",""trial"",""time""
""fullscreenenter"",""5"",""40150""
","
","975.9000000059605","","49","","","3000","1","","","images/purpleplanet.jpg","images/alien4","images/alien3","images/rocket1","images/alien3","images/t.png","2","real","true","1","common","1","2022-02-10 18:39:53.789"
"two-step-fixation","152","693092","0.0-76.0-2.5","42","738","20","Female","false","false","true","true","""event"",""trial"",""time""
""fullscreenenter"",""5"",""40150""
","
","
","""event"",""trial"",""time""
""fullscreenenter"",""5"",""40150""
","
","","images/earth.jpg","","","","","","","","","","","","","","fixation","","","","","",""
"d3-animate-choice","153","695655","0.0-76.0-0.6","42","738","20","Female","false","false","true","true","""event"",""trial"",""time""
""fullscreenenter"",""5"",""40150""
","
","
","""event"",""trial"",""time""
""fullscreenenter"",""5"",""40150""
","
","557.8000000119209","","49","","","3000","1","","","images/earth.jpg","images/rocket1","images/rocket2","null","images/rocket2","","1","real","null","1","","",""
"d3-animate-choice","154","698361","0.0-76.0-1.6","42","738","20","Female","false","false","true","true","""event"",""trial"",""time""
""fullscreenenter"",""5"",""40150""
","
","
","""event"",""trial"",""time""
""fullscreenenter"",""5"",""40150""
","
","703","","48","","","3000","1","","","images/redplanet1.jpg","images/alien2","images/alien1","images/rocket2","images/alien2","images/t.png","2","real","true","2","common","1","2022-02-10 18:40:00.061"
"two-step-fixation","155","699364","0.0-76.0-2.6","42","738","20","Female","false","false","true","true","""event"",""trial"",""time""
""fullscreenenter"",""5"",""40150""
","
","
","""event"",""trial"",""time""
""fullscreenenter"",""5"",""40150""
","
","","images/earth.jpg","","","","","","","","","","","","","","fixation","","","","","",""
"d3-animate-choice","156","701966","0.0-76.0-0.7","42","738","20","Female","false","false","true","true","""event"",""trial"",""time""
""fullscreenenter"",""5"",""40150""
","
","
","""event"",""trial"",""time""
""fullscreenenter"",""5"",""40150""
","
","599.4000000059605","","49","","","3000","1","","","images/earth.jpg","images/rocket1","images/rocket2","null","images/rocket2","","1","real","null","1","","",""
"d3-animate-choice","157","704894","0.0-76.0-1.7","42","738","20","Female","false","false","true","true","""event"",""trial"",""time""
""fullscreenenter"",""5"",""40150""
","
","
","""event"",""trial"",""time""
""fullscreenenter"",""5"",""40150""
","
","923.7999999821186","","49","","","3000","1","","","images/purpleplanet.jpg","images/alien4","images/alien3","images/rocket2","images/alien3","images/t.png","2","real","false","1","rare","1","2022-02-10 18:40:06.594"
"two-step-fixation","158","705897","0.0-76.0-2.7","42","738","20","Female","false","false","true","true","""event"",""trial"",""time""
""fullscreenenter"",""5"",""40150""
","
","
","""event"",""trial"",""time""
""fullscreenenter"",""5"",""40150""
","
","","images/earth.jpg","","","","","","","","","","","","","","fixation","","","","","",""
"d3-animate-choice","159","708303","0.0-76.0-0.8","42","738","20","Female","false","false","true","true","""event"",""trial"",""time""
""fullscreenenter"",""5"",""40150""
","
","
","""event"",""trial"",""time""
""fullscreenenter"",""5"",""40150""
","
","402.90000000596046","","49","","","3000","1","","","images/earth.jpg","images/rocket1","images/rocket2","null","images/rocket2","","1","real","null","1","","",""
"d3-animate-choice","160","710932","0.0-76.0-1.8","42","738","20","Female","false","false","true","true","""event"",""trial"",""time""
""fullscreenenter"",""5"",""40150""
","
","
","""event"",""trial"",""time""
""fullscreenenter"",""5"",""40150""
","
","622","","48","","","3000","1","","","images/redplanet1.jpg","images/alien2","images/alien1","images/rocket2","images/alien2","images/t.png","2","real","true","2","common","1","2022-02-10 18:40:12.632"
"two-step-fixation","161","711935","0.0-76.0-2.8","42","738","20","Female","false","false","true","true","""event"",""trial"",""time""
""fullscreenenter"",""5"",""40150""
","
","
","""event"",""trial"",""time""
""fullscreenenter"",""5"",""40150""
","
","","images/earth.jpg","","","","","","","","","","","","","","fixation","","","","","",""
"d3-animate-choice","162","714332","0.0-76.0-0.9","42","738","20","Female","false","false","true","true","""event"",""trial"",""time""
""fullscreenenter"",""5"",""40150""
","
","
","""event"",""trial"",""time""
""fullscreenenter"",""5"",""40150""
","
","393.69999998807907","","49","","","3000","1","","","images/earth.jpg","images/rocket1","images/rocket2","null","images/rocket2","","1","real","null","1","","",""
"d3-animate-choice","163","717019","0.0-76.0-1.9","42","738","20","Female","false","false","true","true","""event"",""trial"",""time""
""fullscreenenter"",""5"",""40150""
","
","
","""event"",""trial"",""time""
""fullscreenenter"",""5"",""40150""
","
","683.6000000238419","","49","","","3000","1","","","images/purpleplanet.jpg","images/alien4","images/alien3","images/rocket2","images/alien3","images/nothing.png","2","real","false","1","rare","0","2022-02-10 18:40:18.719"
"two-step-fixation","164","718023","0.0-76.0-2.9","42","738","20","Female","false","false","true","true","""event"",""trial"",""time""
""fullscreenenter"",""5"",""40150""
","
","
","""event"",""trial"",""time""
""fullscreenenter"",""5"",""40150""
","
","","images/earth.jpg","","","","","","","","","","","","","","fixation","","","","","",""
"d3-animate-choice","165","720419","0.0-76.0-0.10","42","738","20","Female","false","false","true","true","""event"",""trial"",""time""
""fullscreenenter"",""5"",""40150""
","
","
","""event"",""trial"",""time""
""fullscreenenter"",""5"",""40150""
","
","391.2000000178814","","48","","","3000","1","","","images/earth.jpg","images/rocket1","images/rocket2","null","images/rocket1","","1","real","null","2","","",""
"d3-animate-choice","166","723180","0.0-76.0-1.10","42","738","20","Female","false","false","true","true","""event"",""trial"",""time""
""fullscreenenter"",""5"",""40150""
","
","
","""event"",""trial"",""time""
""fullscreenenter"",""5"",""40150""
","
","758","","48","","","3000","1","","","images/purpleplanet.jpg","images/alien4","images/alien3","images/rocket1","images/alien4","images/t.png","2","real","true","2","common","1","2022-02-10 18:40:24.880"
"two-step-fixation","167","724184","0.0-76.0-2.10","42","738","20","Female","false","false","true","true","""event"",""trial"",""time""
""fullscreenenter"",""5"",""40150""
","
","
","""event"",""trial"",""time""
""fullscreenenter"",""5"",""40150""
","
","","images/earth.jpg","","","","","","","","","","","","","","fixation","","","","","",""
"d3-animate-choice","168","726705","0.0-76.0-0.11","42","738","20","Female","false","false","true","true","""event"",""trial"",""time""
""fullscreenenter"",""5"",""40150""
","
","
","""event"",""trial"",""time""
""fullscreenenter"",""5"",""40150""
","
","515.6000000238419","","49","","","3000","1","","","images/earth.jpg","images/rocket1","images/rocket2","null","images/rocket2","","1","real","null","1","","",""
"d3-animate-choice","169","729703","0.0-76.0-1.11","42","738","20","Female","false","false","true","true","""event"",""trial"",""time""
""fullscreenenter"",""5"",""40150""
","
","
","""event"",""trial"",""time""
""fullscreenenter"",""5"",""40150""
","
","993.5","","49","","","3000","1","","","images/redplanet1.jpg","images/alien2","images/alien1","images/rocket2","images/alien1","images/t.png","2","real","true","1","common","1","2022-02-10 18:40:31.403"
"two-step-fixation","170","730708","0.0-76.0-2.11","42","738","20","Female","false","false","true","true","""event"",""trial"",""time""
""fullscreenenter"",""5"",""40150""
","
","
","""event"",""trial"",""time""
""fullscreenenter"",""5"",""40150""
","
","","images/earth.jpg","","","","","","","","","","","","","","fixation","","","","","",""
"d3-animate-choice","171","733023","0.0-76.0-0.12","42","738","20","Female","false","false","true","true","""event"",""trial"",""time""
""fullscreenenter"",""5"",""40150""
","
","
","""event"",""trial"",""time""
""fullscreenenter"",""5"",""40150""
","
","310.80000001192093","","49","","","3000","1","","","images/earth.jpg","images/rocket1","images/rocket2","null","images/rocket2","","1","real","null","1","","",""
"d3-animate-choice","172","735934","0.0-76.0-1.12","42","738","20","Female","false","false","true","true","""event"",""trial"",""time""
""fullscreenenter"",""5"",""40150""
","
","
","""event"",""trial"",""time""
""fullscreenenter"",""5"",""40150""
","
","905.5999999940395","","49","","","3000","1","","","images/redplanet1.jpg","images/alien2","images/alien1","images/rocket2","images/alien1","images/nothing.png","2","real","true","1","common","0","2022-02-10 18:40:37.635"
"two-step-fixation","173","736942","0.0-76.0-2.12","42","738","20","Female","false","false","true","true","""event"",""trial"",""time""
""fullscreenenter"",""5"",""40150""
","
","
","""event"",""trial"",""time""
""fullscreenenter"",""5"",""40150""
","
","","images/earth.jpg","","","","","","","","","","","","","","fixation","","","","","",""
"d3-animate-choice","174","739348","0.0-76.0-0.13","42","738","20","Female","false","false","true","true","""event"",""trial"",""time""
""fullscreenenter"",""5"",""40150""
","
","
","""event"",""trial"",""time""
""fullscreenenter"",""5"",""40150""
","
","402","","49","","","3000","1","","","images/earth.jpg","images/rocket1","images/rocket2","null","images/rocket2","","1","real","null","1","","",""
"d3-animate-choice","175","742126","0.0-76.0-1.13","42","738","20","Female","false","false","true","true","""event"",""trial"",""time""
""fullscreenenter"",""5"",""40150""
","
","
","""event"",""trial"",""time""
""fullscreenenter"",""5"",""40150""
","
","773.9000000059605","","48","","","3000","1","","","images/redplanet1.jpg","images/alien2","images/alien1","images/rocket2","images/alien2","images/nothing.png","2","real","true","2","common","0","2022-02-10 18:40:43.826"
"two-step-fixation","176","743129","0.0-76.0-2.13","42","738","20","Female","false","false","true","true","""event"",""trial"",""time""
""fullscreenenter"",""5"",""40150""
","
","
","""event"",""trial"",""time""
""fullscreenenter"",""5"",""40150""
","
","","images/earth.jpg","","","","","","","","","","","","","","fixation","","","","","",""
"d3-animate-choice","177","745480","0.0-76.0-0.14","42","738","20","Female","false","false","true","true","""event"",""trial"",""time""
""fullscreenenter"",""5"",""40150""
","
","
","""event"",""trial"",""time""
""fullscreenenter"",""5"",""40150""
","
","346.80000001192093","","49","","","3000","1","","","images/earth.jpg","images/rocket1","images/rocket2","null","images/rocket2","","1","real","null","1","","",""
"d3-animate-choice","178","748460","0.0-76.0-1.14","42","738","20","Female","false","false","true","true","""event"",""trial"",""time""
""fullscreenenter"",""5"",""40150""
","
","
","""event"",""trial"",""time""
""fullscreenenter"",""5"",""40150""
","
","975.3999999761581","","49","","","3000","1","","","images/purpleplanet.jpg","images/alien4","images/alien3","images/rocket2","images/alien3","images/t.png","2","real","false","1","rare","1","2022-02-10 18:40:50.161"
"two-step-fixation","179","749464","0.0-76.0-2.14","42","738","20","Female","false","false","true","true","""event"",""trial"",""time""
""fullscreenenter"",""5"",""40150""
","
","
","""event"",""trial"",""time""
""fullscreenenter"",""5"",""40150""
","
","","images/earth.jpg","","","","","","","","","","","","","","fixation","","","","","",""
"d3-animate-choice","180","751810","0.0-76.0-0.15","42","738","20","Female","false","false","true","true","""event"",""trial"",""time""
""fullscreenenter"",""5"",""40150""
","
","
","""event"",""trial"",""time""
""fullscreenenter"",""5"",""40150""
","
","340.2999999821186","","48","","","3000","1","","","images/earth.jpg","images/rocket1","images/rocket2","null","images/rocket1","","1","real","null","2","","",""
"d3-animate-choice","181","754397","0.0-76.0-1.15","42","738","20","Female","false","false","true","true","""event"",""trial"",""time""
""fullscreenenter"",""5"",""40150""
","
","
","""event"",""trial"",""time""
""fullscreenenter"",""5"",""40150""
","
","583.3000000119209","","48","","","3000","1","","","images/redplanet1.jpg","images/alien2","images/alien1","images/rocket1","images/alien2","images/t.png","2","real","false","2","rare","1","2022-02-10 18:40:56.097"
"two-step-fixation","182","755401","0.0-76.0-2.15","42","738","20","Female","false","false","true","true","""event"",""trial"",""time""
""fullscreenenter"",""5"",""40150""
","
","
","""event"",""trial"",""time""
""fullscreenenter"",""5"",""40150""
","
","","images/earth.jpg","","","","","","","","","","","","","","fixation","","","","","",""
"d3-animate-choice","183","757735","0.0-76.0-0.16","42","738","20","Female","false","false","true","true","""event"",""trial"",""time""
""fullscreenenter"",""5"",""40150""
","
","
","""event"",""trial"",""time""
""fullscreenenter"",""5"",""40150""
","
","330.5","","48","","","3000","1","","","images/earth.jpg","images/rocket1","images/rocket2","null","images/rocket1","","1","real","null","2","","",""
"d3-animate-choice","184","760361","0.0-76.0-1.16","42","738","20","Female","false","false","true","true","""event"",""trial"",""time""
""fullscreenenter"",""5"",""40150""
","
","
","""event"",""trial"",""time""
""fullscreenenter"",""5"",""40150""
","
","623","","48","","","3000","1","","","images/redplanet1.jpg","images/alien2","images/alien1","images/rocket1","images/alien2","images/t.png","2","real","false","2","rare","1","2022-02-10 18:41:02.061"
"two-step-fixation","185","761364","0.0-76.0-2.16","42","738","20","Female","false","false","true","true","""event"",""trial"",""time""
""fullscreenenter"",""5"",""40150""
","
","
","""event"",""trial"",""time""
""fullscreenenter"",""5"",""40150""
","
","","images/earth.jpg","","","","","","","","","","","","","","fixation","","","","","",""
"d3-animate-choice","186","763689","0.0-76.0-0.17","42","738","20","Female","false","false","true","true","""event"",""trial"",""time""
""fullscreenenter"",""5"",""40150""
","
","
","""event"",""trial"",""time""
""fullscreenenter"",""5"",""40150""
","
","321","","49","","","3000","1","","","images/earth.jpg","images/rocket1","images/rocket2","null","images/rocket2","","1","real","null","1","","",""
"d3-animate-choice","187","766709","0.0-76.0-1.17","42","738","20","Female","false","false","true","true","""event"",""trial"",""time""
""fullscreenenter"",""5"",""40150""
","
","
","""event"",""trial"",""time""
""fullscreenenter"",""5"",""40150""
","
","1016.6000000238419","","48","","","3000","1","","","images/redplanet1.jpg","images/alien2","images/alien1","images/rocket2","images/alien2","images/t.png","2","real","true","2","common","1","2022-02-10 18:41:08.409"
"two-step-fixation","188","767712","0.0-76.0-2.17","42","738","20","Female","false","false","true","true","""event"",""trial"",""time""
""fullscreenenter"",""5"",""40150""
","
","
","""event"",""trial"",""time""
""fullscreenenter"",""5"",""40150""
","
","","images/earth.jpg","","","","","","","","","","","","","","fixation","","","","","",""
"d3-animate-choice","189","770180","0.0-76.0-0.18","42","738","20","Female","false","false","true","true","""event"",""trial"",""time""
""fullscreenenter"",""5"",""40150""
","
","
","""event"",""trial"",""time""
""fullscreenenter"",""5"",""40150""
","
","463.59999999403954","","49","","","3000","1","","","images/earth.jpg","images/rocket1","images/rocket2","null","images/rocket2","","1","real","null","1","","",""
"d3-animate-choice","190","772985","0.0-76.0-1.18","42","738","20","Female","false","false","true","true","""event"",""trial"",""time""
""fullscreenenter"",""5"",""40150""
","
","
","""event"",""trial"",""time""
""fullscreenenter"",""5"",""40150""
","
","801.5999999940395","","49","","","3000","1","","","images/purpleplanet.jpg","images/alien4","images/alien3","images/rocket2","images/alien3","images/nothing.png","2","real","false","1","rare","0","2022-02-10 18:41:14.685"
"two-step-fixation","191","773992","0.0-76.0-2.18","42","738","20","Female","false","false","true","true","""event"",""trial"",""time""
""fullscreenenter"",""5"",""40150""
","
","
","""event"",""trial"",""time""
""fullscreenenter"",""5"",""40150""
","
","","images/earth.jpg","","","","","","","","","","","","","","fixation","","","","","",""
"d3-animate-choice","192","776327","0.0-76.0-0.19","42","738","20","Female","false","false","true","true","""event"",""trial"",""time""
""fullscreenenter"",""5"",""40150""
","
","
","""event"",""trial"",""time""
""fullscreenenter"",""5"",""40150""
","
","331","","49","","","3000","1","","","images/earth.jpg","images/rocket1","images/rocket2","null","images/rocket2","","1","real","null","1","","",""
"d3-animate-choice","193","779102","0.0-76.0-1.19","42","738","20","Female","false","false","true","true","""event"",""trial"",""time""
""fullscreenenter"",""5"",""40150""
","
","
","""event"",""trial"",""time""
""fullscreenenter"",""5"",""40150""
","
","770.5","","48","","","3000","1","","","images/redplanet1.jpg","images/alien2","images/alien1","images/rocket2","images/alien2","images/t.png","2","real","true","2","common","1","2022-02-10 18:41:20.802"
"two-step-fixation","194","780106","0.0-76.0-2.19","42","738","20","Female","false","false","true","true","""event"",""trial"",""time""
""fullscreenenter"",""5"",""40150""
","
","
","""event"",""trial"",""time""
""fullscreenenter"",""5"",""40150""
","
","","images/earth.jpg","","","","","","","","","","","","","","fixation","","","","","",""
"d3-animate-choice","195","782441","0.0-76.0-0.20","42","738","20","Female","false","false","true","true","""event"",""trial"",""time""
""fullscreenenter"",""5"",""40150""
","
","
","""event"",""trial"",""time""
""fullscreenenter"",""5"",""40150""
","
","330.30000001192093","","48","","","3000","1","","","images/earth.jpg","images/rocket1","images/rocket2","null","images/rocket1","","1","real","null","2","","",""
"d3-animate-choice","196","785006","0.0-76.0-1.20","42","738","20","Female","false","false","true","true","""event"",""trial"",""time""
""fullscreenenter"",""5"",""40150""
","
","
","""event"",""trial"",""time""
""fullscreenenter"",""5"",""40150""
","
","562.3000000119209","","49","","","3000","1","","","images/purpleplanet.jpg","images/alien4","images/alien3","images/rocket1","images/alien3","images/t.png","2","real","true","1","common","1","2022-02-10 18:41:26.707"
"two-step-fixation","197","786009","0.0-76.0-2.20","42","738","20","Female","false","false","true","true","""event"",""trial"",""time""
""fullscreenenter"",""5"",""40150""
","
","
","""event"",""trial"",""time""
""fullscreenenter"",""5"",""40150""
","
","","images/earth.jpg","","","","","","","","","","","","","","fixation","","","","","",""
"d3-animate-choice","198","788526","0.0-76.0-0.21","42","738","20","Female","false","false","true","true","""event"",""trial"",""time""
""fullscreenenter"",""5"",""40150""
","
","
","""event"",""trial"",""time""
""fullscreenenter"",""5"",""40150""
","
","510.80000001192093","","49","","","3000","1","","","images/earth.jpg","images/rocket1","images/rocket2","null","images/rocket2","","1","real","null","1","","",""
"d3-animate-choice","199","791230","0.0-76.0-1.21","42","738","20","Female","false","false","true","true","""event"",""trial"",""time""
""fullscreenenter"",""5"",""40150""
","
","
","""event"",""trial"",""time""
""fullscreenenter"",""5"",""40150""
","
","700.5","","48","","","3000","1","","","images/redplanet1.jpg","images/alien2","images/alien1","images/rocket2","images/alien2","images/t.png","2","real","true","2","common","1","2022-02-10 18:41:32.931"
"two-step-fixation","200","792233","0.0-76.0-2.21","42","738","20","Female","false","false","true","true","""event"",""trial"",""time""
""fullscreenenter"",""5"",""40150""
","
","
","""event"",""trial"",""time""
""fullscreenenter"",""5"",""40150""
","
","","images/earth.jpg","","","","","","","","","","","","","","fixation","","","","","",""
"d3-animate-choice","201","794743","0.0-76.0-0.22","42","738","20","Female","false","false","true","true","""event"",""trial"",""time""
""fullscreenenter"",""5"",""40150""
","
","
","""event"",""trial"",""time""
""fullscreenenter"",""5"",""40150""
","
","507.10000002384186","","48","","","3000","1","","","images/earth.jpg","images/rocket1","images/rocket2","null","images/rocket1","","1","real","null","2","","",""
"d3-animate-choice","202","797465","0.0-76.0-1.22","42","738","20","Female","false","false","true","true","""event"",""trial"",""time""
""fullscreenenter"",""5"",""40150""
","
","
","""event"",""trial"",""time""
""fullscreenenter"",""5"",""40150""
","
","717.9000000059605","","48","","","3000","1","","","images/purpleplanet.jpg","images/alien4","images/alien3","images/rocket1","images/alien4","images/t.png","2","real","true","2","common","1","2022-02-10 18:41:39.165"
"two-step-fixation","203","798468","0.0-76.0-2.22","42","738","20","Female","false","false","true","true","""event"",""trial"",""time""
""fullscreenenter"",""5"",""40150""
","
","
","""event"",""trial"",""time""
""fullscreenenter"",""5"",""40150""
","
","","images/earth.jpg","","","","","","","","","","","","","","fixation","","","","","",""
"d3-animate-choice","204","800844","0.0-76.0-0.23","42","738","20","Female","false","false","true","true","""event"",""trial"",""time""
""fullscreenenter"",""5"",""40150""
","
","
","""event"",""trial"",""time""
""fullscreenenter"",""5"",""40150""
","
","373.09999999403954","","49","","","3000","1","","","images/earth.jpg","images/rocket1","images/rocket2","null","images/rocket2","","1","real","null","1","","",""
"d3-animate-choice","205","804102","0.0-76.0-1.23","42","738","20","Female","false","false","true","true","""event"",""trial"",""time""
""fullscreenenter"",""5"",""40150""
","
","
","""event"",""trial"",""time""
""fullscreenenter"",""5"",""40150""
","
","1255.5999999940395","","48","","","3000","1","","","images/purpleplanet.jpg","images/alien4","images/alien3","images/rocket2","images/alien4","images/t.png","2","real","false","2","rare","1","2022-02-10 18:41:45.802"
"two-step-fixation","206","805108","0.0-76.0-2.23","42","738","20","Female","false","false","true","true","""event"",""trial"",""time""
""fullscreenenter"",""5"",""40150""
","
","
","""event"",""trial"",""time""
""fullscreenenter"",""5"",""40150""
","
","","images/earth.jpg","","","","","","","","","","","","","","fixation","","","","","",""
"d3-animate-choice","207","807459","0.0-76.0-0.24","42","738","20","Female","false","false","true","true","""event"",""trial"",""time""
""fullscreenenter"",""5"",""40150""
","
","
","""event"",""trial"",""time""
""fullscreenenter"",""5"",""40150""
","
","348.40000000596046","","49","","","3000","1","","","images/earth.jpg","images/rocket1","images/rocket2","null","images/rocket2","","1","real","null","1","","",""
"d3-animate-choice","208","810419","0.0-76.0-1.24","42","738","20","Female","false","false","true","true","""event"",""trial"",""time""
""fullscreenenter"",""5"",""40150""
","
","
","""event"",""trial"",""time""
""fullscreenenter"",""5"",""40150""
","
","954.9000000059605","","48","","","3000","1","","","images/redplanet1.jpg","images/alien2","images/alien1","images/rocket2","images/alien2","images/t.png","2","real","true","2","common","1","2022-02-10 18:41:52.119"
"two-step-fixation","209","811422","0.0-76.0-2.24","42","738","20","Female","false","false","true","true","""event"",""trial"",""time""
""fullscreenenter"",""5"",""40150""
","
","
","""event"",""trial"",""time""
""fullscreenenter"",""5"",""40150""
","
","","images/earth.jpg","","","","","","","","","","","","","","fixation","","","","","",""
"d3-animate-choice","210","813790","0.0-76.0-0.25","42","738","20","Female","false","false","true","true","""event"",""trial"",""time""
""fullscreenenter"",""5"",""40150""
","
","
","""event"",""trial"",""time""
""fullscreenenter"",""5"",""40150""
","
","362.80000001192093","","49","","","3000","1","","","images/earth.jpg","images/rocket1","images/rocket2","null","images/rocket2","","1","real","null","1","","",""
"d3-animate-choice","211","816708","0.0-76.0-1.25","42","738","20","Female","false","false","true","true","""event"",""trial"",""time""
""fullscreenenter"",""5"",""40150""
","
","
","""event"",""trial"",""time""
""fullscreenenter"",""5"",""40150""
","
","911.5999999940395","","48","","","3000","1","","","images/redplanet1.jpg","images/alien2","images/alien1","images/rocket2","images/alien2","images/t.png","2","real","true","2","common","1","2022-02-10 18:41:58.408"
"two-step-fixation","212","817710","0.0-76.0-2.25","42","738","20","Female","false","false","true","true","""event"",""trial"",""time""
""fullscreenenter"",""5"",""40150""
","
","
","""event"",""trial"",""time""
""fullscreenenter"",""5"",""40150""
","
","","images/earth.jpg","","","","","","","","","","","","","","fixation","","","","","",""
"d3-animate-choice","213","820089","0.0-76.0-0.26","42","738","20","Female","false","false","true","true","""event"",""trial"",""time""
""fullscreenenter"",""5"",""40150""
","
","
","""event"",""trial"",""time""
""fullscreenenter"",""5"",""40150""
","
","375.60000002384186","","48","","","3000","1","","","images/earth.jpg","images/rocket1","images/rocket2","null","images/rocket1","","1","real","null","2","","",""
"d3-animate-choice","214","822756","0.0-76.0-1.26","42","738","20","Female","false","false","true","true","""event"",""trial"",""time""
""fullscreenenter"",""5"",""40150""
","
","
","""event"",""trial"",""time""
""fullscreenenter"",""5"",""40150""
","
","662.6999999880791","","49","","","3000","1","","","images/purpleplanet.jpg","images/alien4","images/alien3","images/rocket1","images/alien3","images/t.png","2","real","true","1","common","1","2022-02-10 18:42:04.456"
"two-step-fixation","215","823758","0.0-76.0-2.26","42","738","20","Female","false","false","true","true","""event"",""trial"",""time""
""fullscreenenter"",""5"",""40150""
","
","
","""event"",""trial"",""time""
""fullscreenenter"",""5"",""40150""
","
","","images/earth.jpg","","","","","","","","","","","","","","fixation","","","","","",""
"d3-animate-choice","216","826112","0.0-76.0-0.27","42","738","20","Female","false","false","true","true","""event"",""trial"",""time""
""fullscreenenter"",""5"",""40150""
","
","
","""event"",""trial"",""time""
""fullscreenenter"",""5"",""40150""
","
","350.5","","49","","","3000","1","","","images/earth.jpg","images/rocket1","images/rocket2","null","images/rocket2","","1","real","null","1","","",""
"d3-animate-choice","217","828665","0.0-76.0-1.27","42","738","20","Female","false","false","true","true","""event"",""trial"",""time""
""fullscreenenter"",""5"",""40150""
","
","
","""event"",""trial"",""time""
""fullscreenenter"",""5"",""40150""
","
","549.5","","48","","","3000","1","","","images/redplanet1.jpg","images/alien2","images/alien1","images/rocket2","images/alien2","images/t.png","2","real","true","2","common","1","2022-02-10 18:42:10.365"
"two-step-fixation","218","829668","0.0-76.0-2.27","42","738","20","Female","false","false","true","true","""event"",""trial"",""time""
""fullscreenenter"",""5"",""40150""
","
","
","""event"",""trial"",""time""
""fullscreenenter"",""5"",""40150""
","
","","images/earth.jpg","","","","","","","","","","","","","","fixation","","","","","",""
"d3-animate-choice","219","831852","0.0-76.0-0.28","42","738","20","Female","false","false","true","true","""event"",""trial"",""time""
""fullscreenenter"",""5"",""40150""
","
","
","""event"",""trial"",""time""
""fullscreenenter"",""5"",""40150""
","
","179.59999999403954","","49","","","3000","1","","","images/earth.jpg","images/rocket1","images/rocket2","null","images/rocket2","","1","real","null","1","","",""
"d3-animate-choice","220","834679","0.0-76.0-1.28","42","738","20","Female","false","false","true","true","""event"",""trial"",""time""
""fullscreenenter"",""5"",""40150""
","
","
","""event"",""trial"",""time""
""fullscreenenter"",""5"",""40150""
","
","823.0999999940395","","48","","","3000","1","","","images/redplanet1.jpg","images/alien2","images/alien1","images/rocket2","images/alien2","images/t.png","2","real","true","2","common","1","2022-02-10 18:42:16.379"
"two-step-fixation","221","835683","0.0-76.0-2.28","42","738","20","Female","false","false","true","true","""event"",""trial"",""time""
""fullscreenenter"",""5"",""40150""
","
","
","""event"",""trial"",""time""
""fullscreenenter"",""5"",""40150""
","
","","images/earth.jpg","","","","","","","","","","","","","","fixation","","","","","",""
"d3-animate-choice","222","838015","0.0-76.0-0.29","42","738","20","Female","false","false","true","true","""event"",""trial"",""time""
""fullscreenenter"",""5"",""40150""
","
","
","""event"",""trial"",""time""
""fullscreenenter"",""5"",""40150""
","
","328.5","","49","","","3000","1","","","images/earth.jpg","images/rocket1","images/rocket2","null","images/rocket2","","1","real","null","1","","",""
"d3-animate-choice","223","840918","0.0-76.0-1.29","42","738","20","Female","false","false","true","true","""event"",""trial"",""time""
""fullscreenenter"",""5"",""40150""
","
","
","""event"",""trial"",""time""
""fullscreenenter"",""5"",""40150""
","
","899.8000000119209","","49","","","3000","1","","","images/purpleplanet.jpg","images/alien4","images/alien3","images/rocket2","images/alien3","images/t.png","2","real","false","1","rare","1","2022-02-10 18:42:22.618"
"two-step-fixation","224","841924","0.0-76.0-2.29","42","738","20","Female","false","false","true","true","""event"",""trial"",""time""
""fullscreenenter"",""5"",""40150""
","
","
","""event"",""trial"",""time""
""fullscreenenter"",""5"",""40150""
","
","","images/earth.jpg","","","","","","","","","","","","","","fixation","","","","","",""
"d3-animate-choice","225","844265","0.0-76.0-0.30","42","738","20","Female","false","false","true","true","""event"",""trial"",""time""
""fullscreenenter"",""5"",""40150""
","
","
","""event"",""trial"",""time""
""fullscreenenter"",""5"",""40150""
","
","338.5","","49","","","3000","1","","","images/earth.jpg","images/rocket1","images/rocket2","null","images/rocket2","","1","real","null","1","","",""
"d3-animate-choice","226","846943","0.0-76.0-1.30","42","738","20","Female","false","false","true","true","""event"",""trial"",""time""
""fullscreenenter"",""5"",""40150""
","
","
","""event"",""trial"",""time""
""fullscreenenter"",""5"",""40150""
","
","672.5","","48","","","3000","1","","","images/redplanet1.jpg","images/alien2","images/alien1","images/rocket2","images/alien2","images/t.png","2","real","true","2","common","1","2022-02-10 18:42:28.643"
"two-step-fixation","227","847945","0.0-76.0-2.30","42","738","20","Female","false","false","true","true","""event"",""trial"",""time""
""fullscreenenter"",""5"",""40150""
","
","
","""event"",""trial"",""time""
""fullscreenenter"",""5"",""40150""
","
","","images/earth.jpg","","","","","","","","","","","","","","fixation","","","","","",""
"d3-animate-choice","228","850348","0.0-76.0-0.31","42","738","20","Female","false","false","true","true","""event"",""trial"",""time""
""fullscreenenter"",""5"",""40150""
","
","
","""event"",""trial"",""time""
""fullscreenenter"",""5"",""40150""
","
","398.59999999403954","","48","","","3000","1","","","images/earth.jpg","images/rocket1","images/rocket2","null","images/rocket1","","1","real","null","2","","",""
"d3-animate-choice","229","852889","0.0-76.0-1.31","42","738","20","Female","false","false","true","true","""event"",""trial"",""time""
""fullscreenenter"",""5"",""40150""
","
","
","""event"",""trial"",""time""
""fullscreenenter"",""5"",""40150""
","
","537.0999999940395","","48","","","3000","1","","","images/purpleplanet.jpg","images/alien4","images/alien3","images/rocket1","images/alien4","images/t.png","2","real","true","2","common","1","2022-02-10 18:42:34.589"
"two-step-fixation","230","853893","0.0-76.0-2.31","42","738","20","Female","false","false","true","true","""event"",""trial"",""time""
""fullscreenenter"",""5"",""40150""
","
","
","""event"",""trial"",""time""
""fullscreenenter"",""5"",""40150""
","
","","images/earth.jpg","","","","","","","","","","","","","","fixation","","","","","",""
"d3-animate-choice","231","856322","0.0-76.0-0.32","42","738","20","Female","false","false","true","true","""event"",""trial"",""time""
""fullscreenenter"",""5"",""40150""
","
","
","""event"",""trial"",""time""
""fullscreenenter"",""5"",""40150""
","
","423.59999999403954","","49","","","3000","1","","","images/earth.jpg","images/rocket1","images/rocket2","null","images/rocket2","","1","real","null","1","","",""
"d3-animate-choice","232","858980","0.0-76.0-1.32","42","738","20","Female","false","false","true","true","""event"",""trial"",""time""
""fullscreenenter"",""5"",""40150""
","
","
","""event"",""trial"",""time""
""fullscreenenter"",""5"",""40150""
","
","654.5","","48","","","3000","1","","","images/redplanet1.jpg","images/alien2","images/alien1","images/rocket2","images/alien2","images/t.png","2","real","true","2","common","1","2022-02-10 18:42:40.680"
"two-step-fixation","233","859983","0.0-76.0-2.32","42","738","20","Female","false","false","true","true","""event"",""trial"",""time""
""fullscreenenter"",""5"",""40150""
","
","
","""event"",""trial"",""time""
""fullscreenenter"",""5"",""40150""
","
","","images/earth.jpg","","","","","","","","","","","","","","fixation","","","","","",""
"d3-animate-choice","234","862385","0.0-76.0-0.33","42","738","20","Female","false","false","true","true","""event"",""trial"",""time""
""fullscreenenter"",""5"",""40150""
","
","
","""event"",""trial"",""time""
""fullscreenenter"",""5"",""40150""
","
","397.80000001192093","","49","","","3000","1","","","images/earth.jpg","images/rocket1","images/rocket2","null","images/rocket2","","1","real","null","1","","",""
"d3-animate-choice","235","864980","0.0-76.0-1.33","42","738","20","Female","false","false","true","true","""event"",""trial"",""time""
""fullscreenenter"",""5"",""40150""
","
","
","""event"",""trial"",""time""
""fullscreenenter"",""5"",""40150""
","
","591.2999999821186","","48","","","3000","1","","","images/redplanet1.jpg","images/alien2","images/alien1","images/rocket2","images/alien2","images/nothing.png","2","real","true","2","common","0","2022-02-10 18:42:46.680"
"two-step-fixation","236","865984","0.0-76.0-2.33","42","738","20","Female","false","false","true","true","""event"",""trial"",""time""
""fullscreenenter"",""5"",""40150""
","
","
","""event"",""trial"",""time""
""fullscreenenter"",""5"",""40150""
","
","","images/earth.jpg","","","","","","","","","","","","","","fixation","","","","","",""
"d3-animate-choice","237","868527","0.0-76.0-0.34","42","738","20","Female","false","false","true","true","""event"",""trial"",""time""
""fullscreenenter"",""5"",""40150""
","
","
","""event"",""trial"",""time""
""fullscreenenter"",""5"",""40150""
","
","537.5","","49","","","3000","1","","","images/earth.jpg","images/rocket1","images/rocket2","null","images/rocket2","","1","real","null","1","","",""
"d3-animate-choice","238","870990","0.0-76.0-1.34","42","738","20","Female","false","false","true","true","""event"",""trial"",""time""
""fullscreenenter"",""5"",""40150""
","
","
","""event"",""trial"",""time""
""fullscreenenter"",""5"",""40150""
","
","457.2999999821186","","48","","","3000","1","","","images/redplanet1.jpg","images/alien2","images/alien1","images/rocket2","images/alien2","images/nothing.png","2","real","true","2","common","0","2022-02-10 18:42:52.691"
"two-step-fixation","239","871993","0.0-76.0-2.34","42","738","20","Female","false","false","true","true","""event"",""trial"",""time""
""fullscreenenter"",""5"",""40150""
","
","
","""event"",""trial"",""time""
""fullscreenenter"",""5"",""40150""
","
","","images/earth.jpg","","","","","","","","","","","","","","fixation","","","","","",""
"d3-animate-choice","240","874382","0.0-76.0-0.35","42","738","20","Female","false","false","true","true","""event"",""trial"",""time""
""fullscreenenter"",""5"",""40150""
","
","
","""event"",""trial"",""time""
""fullscreenenter"",""5"",""40150""
","
","384","","48","","","3000","1","","","images/earth.jpg","images/rocket1","images/rocket2","null","images/rocket1","","1","real","null","2","","",""
"d3-animate-choice","241","877006","0.0-76.0-1.35","42","738","20","Female","false","false","true","true","""event"",""trial"",""time""
""fullscreenenter"",""5"",""40150""
","
","
","""event"",""trial"",""time""
""fullscreenenter"",""5"",""40150""
","
","617.2999999821186","","48","","","3000","1","","","images/redplanet1.jpg","images/alien2","images/alien1","images/rocket1","images/alien2","images/nothing.png","2","real","false","2","rare","0","2022-02-10 18:42:58.706"
"two-step-fixation","242","878009","0.0-76.0-2.35","42","738","20","Female","false","false","true","true","""event"",""trial"",""time""
""fullscreenenter"",""5"",""40150""
","
","
","""event"",""trial"",""time""
""fullscreenenter"",""5"",""40150""
","
","","images/earth.jpg","","","","","","","","","","","","","","fixation","","","","","",""
"d3-animate-choice","243","880356","0.0-76.0-0.36","42","738","20","Female","false","false","true","true","""event"",""trial"",""time""
""fullscreenenter"",""5"",""40150""
","
","
","""event"",""trial"",""time""
""fullscreenenter"",""5"",""40150""
","
","341.7999999821186","","49","","","3000","1","","","images/earth.jpg","images/rocket1","images/rocket2","null","images/rocket2","","1","real","null","1","","",""
"d3-animate-choice","244","883427","0.0-76.0-1.36","42","738","20","Female","false","false","true","true","""event"",""trial"",""time""
""fullscreenenter"",""5"",""40150""
","
","
","""event"",""trial"",""time""
""fullscreenenter"",""5"",""40150""
","
","1068.0999999940395","","48","","","3000","1","","","images/purpleplanet.jpg","images/alien4","images/alien3","images/rocket2","images/alien4","images/nothing.png","2","real","false","2","rare","0","2022-02-10 18:43:05.127"
"two-step-fixation","245","884430","0.0-76.0-2.36","42","738","20","Female","false","false","true","true","""event"",""trial"",""time""
""fullscreenenter"",""5"",""40150""
","
","
","""event"",""trial"",""time""
""fullscreenenter"",""5"",""40150""
","
","","images/earth.jpg","","","","","","","","","","","","","","fixation","","","","","",""
"d3-animate-choice","246","886858","0.0-76.0-0.37","42","738","20","Female","false","false","true","true","""event"",""trial"",""time""
""fullscreenenter"",""5"",""40150""
","
","
","""event"",""trial"",""time""
""fullscreenenter"",""5"",""40150""
","
","424.09999999403954","","49","","","3000","1","","","images/earth.jpg","images/rocket1","images/rocket2","null","images/rocket2","","1","real","null","1","","",""
"d3-animate-choice","247","889535","0.0-76.0-1.37","42","738","20","Female","false","false","true","true","""event"",""trial"",""time""
""fullscreenenter"",""5"",""40150""
","
","
","""event"",""trial"",""time""
""fullscreenenter"",""5"",""40150""
","
