"trial_type","trial_index","time_elapsed","internal_node_id","participant_id","subject_id","age","gender","rocket_sides","red_planet_first_rocket","red_display_order","purple_display_order","interactions","blur_events","focus_events","fullscreenenter_events","fullscreenexit_events","rt","stimulus","key_press","button_pressed","success","duration","valid_pressed","rts","keys","planet_text","right_text","left_text","center_text","chosen_text","reward_text","trial_stage","practice_trial","transition_type","choice","transition","reward","timestamp"
"pavlovia","0","2","0.0-0.0","3909","7250","22","Male","true","false","false","true","
","
","
","
","
","","","","","","","","","","","","","","","","","","","","","",""
"html-keyboard-response","1","940","0.0-1.0","3909","7250","22","Male","true","false","false","true","
","
","
","
","
","937.0999999996275","Welcome! Press the space bar to begin.","32","","","","","","","","","","","","","","","","","","",""
"audio-keyboard-response","2","2544","0.0-2.0","3909","7250","22","Male","true","false","false","true","
","
","
","
","
","1371","audio/beep_loop.wav","32","","","","","","","","","","","","","","","","","","",""
"audio-button-response","3","4042","0.0-3.0","3909","7250","22","Male","true","false","false","true","
","
","
","
","
","NaN","audio/fish.mp3","","1","","","","","","","","","","","","","","","","","",""
"audio-button-response","4","7629","0.0-4.0","3909","7250","22","Male","true","false","false","true","""event"",""trial"",""time""
""fullscreenenter"",""5"",""10420""
","
","
","""event"",""trial"",""time""
""fullscreenenter"",""5"",""10420""
","
","NaN","audio/tiger.mp3","","4","","","","","","","","","","","","","","","","","",""
"fullscreen","5","11382","0.0-5.0","3909","7250","22","Male","true","false","false","true","""event"",""trial"",""time""
""fullscreenenter"",""5"",""10420""
","
","
","""event"",""trial"",""time""
""fullscreenenter"",""5"",""10420""
","
","","","","","true","","","","","","","","","","","","","","","","",""
"d3-instructions","6","22000","0.0-6.0","3909","7250","22","Male","true","false","false","true","""event"",""trial"",""time""
""fullscreenenter"",""5"",""10420""
","
","
","""event"",""trial"",""time""
""fullscreenenter"",""5"",""10420""
","
","","","","","","","","","","","","","","","","","","","","","",""
"d3-instructions","7","34455","0.0-7.0","3909","7250","22","Male","true","false","false","true","""event"",""trial"",""time""
""fullscreenenter"",""5"",""10420""
","
","
","""event"",""trial"",""time""
""fullscreenenter"",""5"",""10420""
","
","","","","","","","","","","","","","","","","","","","","","",""
"d3-instructions","8","39847","0.0-8.0","3909","7250","22","Male","true","false","false","true","""event"",""trial"",""time""
""fullscreenenter"",""5"",""10420""
","
","
","""event"",""trial"",""time""
""fullscreenenter"",""5"",""10420""
","
","","","","","","","","","","","","","","","","","","","","","",""
"d3-instructions","9","44262","0.0-9.0","3909","7250","22","Male","true","false","false","true","""event"",""trial"",""time""
""fullscreenenter"",""5"",""10420""
","
","
","""event"",""trial"",""time""
""fullscreenenter"",""5"",""10420""
","
","","","","","","","","","","","","","","","","","","","","","",""
"d3-instructions","10","50236","0.0-10.0","3909","7250","22","Male","true","false","false","true","""event"",""trial"",""time""
""fullscreenenter"",""5"",""10420""
","
","
","""event"",""trial"",""time""
""fullscreenenter"",""5"",""10420""
","
","","","","","","","","","","","","","","","","","","","","","",""
"d3-animate-choice","11","52608","0.0-11.0","3909","7250","22","Male","true","false","false","true","""event"",""trial"",""time""
""fullscreenenter"",""5"",""10420""
","
","
","""event"",""trial"",""time""
""fullscreenenter"",""5"",""10420""
","
","361.19999999925494","","48","","","3000","1","962","49","images/tutgreenplanet.jpg","images/tutalien1","images/tutalien2","null","images/tutalien1","","NA","practice","null","","","",""
"d3-animate-choice","12","54976","0.0-12.0","3909","7250","22","Male","true","false","false","true","""event"",""trial"",""time""
""fullscreenenter"",""5"",""10420""
","
","
","""event"",""trial"",""time""
""fullscreenenter"",""5"",""10420""
","
","359.09999999962747","","49","","","3000","1","","","images/tutgreenplanet.jpg","images/tutalien1","images/tutalien2","null","images/tutalien2","","NA","practice","null","","","",""
"d3-animate-choice","13","57360","0.0-13.0","3909","7250","22","Male","true","false","false","true","""event"",""trial"",""time""
""fullscreenenter"",""5"",""10420""
","
","
","""event"",""trial"",""time""
""fullscreenenter"",""5"",""10420""
","
","375.80000000074506","","48","","","3000","1","","","images/tutgreenplanet.jpg","images/tutalien1","images/tutalien2","null","images/tutalien1","","NA","practice","null","","","",""
"d3-animate-choice","14","59804","0.0-14.0","3909","7250","22","Male","true","false","false","true","""event"",""trial"",""time""
""fullscreenenter"",""5"",""10420""
","
","
","""event"",""trial"",""time""
""fullscreenenter"",""5"",""10420""
","
","429.1000000014901","","49","","","3000","1","","","images/tutgreenplanet.jpg","images/tutalien1","images/tutalien2","null","images/tutalien2","","NA","practice","null","","","",""
"d3-instructions","15","66017","0.0-15.0","3909","7250","22","Male","true","false","false","true","""event"",""trial"",""time""
""fullscreenenter"",""5"",""10420""
","
","
","""event"",""trial"",""time""
""fullscreenenter"",""5"",""10420""
","
","","","","","","","","","","","","","","","","","","","","","",""
"d3-instructions","16","72365","0.0-16.0","3909","7250","22","Male","true","false","false","true","""event"",""trial"",""time""
""fullscreenenter"",""5"",""10420""
","
","
","""event"",""trial"",""time""
""fullscreenenter"",""5"",""10420""
","
","","","","","","","","","","","","","","","","","","","","","",""
"d3-instructions","17","77677","0.0-17.0","3909","7250","22","Male","true","false","false","true","""event"",""trial"",""time""
""fullscreenenter"",""5"",""10420""
","
","
","""event"",""trial"",""time""
""fullscreenenter"",""5"",""10420""
","
","","","","","","","","","","","","","","","","","","","","","",""
"d3-instructions","18","81004","0.0-18.0","3909","7250","22","Male","true","false","false","true","""event"",""trial"",""time""
""fullscreenenter"",""5"",""10420""
","
","
","""event"",""trial"",""time""
""fullscreenenter"",""5"",""10420""
","
","","","","","","","","","","","","","","","","","","","","","",""
"d3-instructions","19","85759","0.0-19.0","3909","7250","22","Male","true","false","false","true","""event"",""trial"",""time""
""fullscreenenter"",""5"",""10420""
","
","
","""event"",""trial"",""time""
""fullscreenenter"",""5"",""10420""
","
","","","","","","","","","","","","","","","","","","","","","",""
"d3-animate-choice","20","88535","0.0-20.0","3909","7250","22","Male","true","false","false","true","""event"",""trial"",""time""
""fullscreenenter"",""5"",""10420""
","
","
","""event"",""trial"",""time""
""fullscreenenter"",""5"",""10420""
","
","767.5","","49","","","3000","1","2577.4000000003725","49","images/tutyellowplanet.jpg","null","images/tutalien3","null","images/tutalien3","images/t.png","NA","practice","null","","","",""
"d3-animate-choice","21","90745","0.0-21.0","3909","7250","22","Male","true","false","false","true","""event"",""trial"",""time""
""fullscreenenter"",""5"",""10420""
","
","
","""event"",""trial"",""time""
""fullscreenenter"",""5"",""10420""
","
","192.19999999925494","","49","","","3000","1","","","images/tutyellowplanet.jpg","null","images/tutalien3","null","images/tutalien3","images/t.png","NA","practice","null","","","",""
"d3-animate-choice","22","92781","0.0-22.0","3909","7250","22","Male","true","false","false","true","""event"",""trial"",""time""
""fullscreenenter"",""5"",""10420""
","
","
","""event"",""trial"",""time""
""fullscreenenter"",""5"",""10420""
","
","27.699999999254942","","49","","","3000","1","","","images/tutyellowplanet.jpg","null","images/tutalien3","null","images/tutalien3","images/t.png","NA","practice","null","","","",""
"d3-animate-choice","23","94994","0.0-23.0","3909","7250","22","Male","true","false","false","true","""event"",""trial"",""time""
""fullscreenenter"",""5"",""10420""
","
","
","""event"",""trial"",""time""
""fullscreenenter"",""5"",""10420""
","
","199.59999999962747","","49","","","3000","1","","","images/tutyellowplanet.jpg","null","images/tutalien3","null","images/tutalien3","images/nothing.png","NA","practice","null","","","",""
"d3-animate-choice","24","97125","0.0-24.0","3909","7250","22","Male","true","false","false","true","""event"",""trial"",""time""
""fullscreenenter"",""5"",""10420""
","
","
","""event"",""trial"",""time""
""fullscreenenter"",""5"",""10420""
","
","119.20000000111759","","49","","","3000","1","","","images/tutyellowplanet.jpg","null","images/tutalien3","null","images/tutalien3","images/t.png","NA","practice","null","","","",""
"d3-animate-choice","25","99338","0.0-25.0","3909","7250","22","Male","true","false","false","true","""event"",""trial"",""time""
""fullscreenenter"",""5"",""10420""
","
","
","""event"",""trial"",""time""
""fullscreenenter"",""5"",""10420""
","
","193.2999999988824","","49","","","3000","1","","","images/tutyellowplanet.jpg","null","images/tutalien3","null","images/tutalien3","images/nothing.png","NA","practice","null","","","",""
"d3-animate-choice","26","101351","0.0-26.0","3909","7250","22","Male","true","false","false","true","""event"",""trial"",""time""
""fullscreenenter"",""5"",""10420""
","
","
","""event"",""trial"",""time""
""fullscreenenter"",""5"",""10420""
","
","2.299999998882413","","49","","","3000","1","2001.0999999996275","49","images/tutyellowplanet.jpg","null","images/tutalien3","null","images/tutalien3","images/nothing.png","NA","practice","null","","","",""
"d3-animate-choice","27","103794","0.0-27.0","3909","7250","22","Male","true","false","false","true","""event"",""trial"",""time""
""fullscreenenter"",""5"",""10420""
","
","
","""event"",""trial"",""time""
""fullscreenenter"",""5"",""10420""
","
","438.2000000011176","","49","","","3000","1","","","images/tutyellowplanet.jpg","null","images/tutalien3","null","images/tutalien3","images/nothing.png","NA","practice","null","","","",""
"d3-animate-choice","28","106033","0.0-28.0","3909","7250","22","Male","true","false","false","true","""event"",""trial"",""time""
""fullscreenenter"",""5"",""10420""
","
","
","""event"",""trial"",""time""
""fullscreenenter"",""5"",""10420""
","
","218.7000000011176","","49","","","3000","1","","","images/tutyellowplanet.jpg","null","images/tutalien3","null","images/tutalien3","images/t.png","NA","practice","null","","","",""
"d3-animate-choice","29","108306","0.0-29.0","3909","7250","22","Male","true","false","false","true","""event"",""trial"",""time""
""fullscreenenter"",""5"",""10420""
","
","
","""event"",""trial"",""time""
""fullscreenenter"",""5"",""10420""
","
","269","","49","","","3000","1","","","images/tutyellowplanet.jpg","null","images/tutalien3","null","images/tutalien3","images/nothing.png","NA","practice","null","","","",""
"d3-instructions","30","111764","0.0-30.0","3909","7250","22","Male","true","false","false","true","""event"",""trial"",""time""
""fullscreenenter"",""5"",""10420""
","
","
","""event"",""trial"",""time""
""fullscreenenter"",""5"",""10420""
","
","","","","","","","","","","","","","","","","","","","","","",""
"d3-instructions","31","117007","0.0-31.0","3909","7250","22","Male","true","false","false","true","""event"",""trial"",""time""
""fullscreenenter"",""5"",""10420""
","
","
","""event"",""trial"",""time""
""fullscreenenter"",""5"",""10420""
","
","","","","","","","","","","","","","","","","","","","","","",""
"d3-instructions","32","119933","0.0-32.0","3909","7250","22","Male","true","false","false","true","""event"",""trial"",""time""
""fullscreenenter"",""5"",""10420""
","
","
","""event"",""trial"",""time""
""fullscreenenter"",""5"",""10420""
","
","","","","","","","","","","","","","","","","","","","","","",""
"d3-instructions","33","122002","0.0-33.0","3909","7250","22","Male","true","false","false","true","""event"",""trial"",""time""
""fullscreenenter"",""5"",""10420""
","
","
","""event"",""trial"",""time""
""fullscreenenter"",""5"",""10420""
","
","","","","","","","","","","","","","","","","","","","","","",""
"d3-animate-choice","34","124755","0.0-34.0","3909","7250","22","Male","true","false","false","true","""event"",""trial"",""time""
""fullscreenenter"",""5"",""10420""
","
","
","""event"",""trial"",""time""
""fullscreenenter"",""5"",""10420""
","
","747.3000000007451","","48","","","3000","1","","","images/tutgreenplanet.jpg","images/tutalien1","images/tutalien2","null","images/tutalien1","images/nothing.png","NA","practice","null","","","",""
"d3-animate-choice","35","127211","0.0-35.0","3909","7250","22","Male","true","false","false","true","""event"",""trial"",""time""
""fullscreenenter"",""5"",""10420""
","
","
","""event"",""trial"",""time""
""fullscreenenter"",""5"",""10420""
","
","450.30000000074506","","49","","","3000","1","","","images/tutgreenplanet.jpg","images/tutalien1","images/tutalien2","null","images/tutalien2","images/t.png","NA","practice","null","","","",""
"d3-animate-choice","36","129488","0.0-36.0","3909","7250","22","Male","true","false","false","true","""event"",""trial"",""time""
""fullscreenenter"",""5"",""10420""
","
","
","""event"",""trial"",""time""
""fullscreenenter"",""5"",""10420""
","
","270.59999999962747","","48","","","3000","1","","","images/tutgreenplanet.jpg","images/tutalien1","images/tutalien2","null","images/tutalien1","images/nothing.png","NA","practice","null","","","",""
"d3-animate-choice","37","131728","0.0-37.0","3909","7250","22","Male","true","false","false","true","""event"",""trial"",""time""
""fullscreenenter"",""5"",""10420""
","
","
","""event"",""trial"",""time""
""fullscreenenter"",""5"",""10420""
","
","227.2000000011176","","49","","","3000","1","","","images/tutgreenplanet.jpg","images/tutalien1","images/tutalien2","null","images/tutalien2","images/t.png","NA","practice","null","","","",""
"d3-animate-choice","38","133990","0.0-38.0","3909","7250","22","Male","true","false","false","true","""event"",""trial"",""time""
""fullscreenenter"",""5"",""10420""
","
","
","""event"",""trial"",""time""
""fullscreenenter"",""5"",""10420""
","
","256.09999999962747","","48","","","3000","1","","","images/tutgreenplanet.jpg","images/tutalien1","images/tutalien2","null","images/tutalien1","images/nothing.png","NA","practice","null","","","",""
"d3-animate-choice","39","136228","0.0-39.0","3909","7250","22","Male","true","false","false","true","""event"",""trial"",""time""
""fullscreenenter"",""5"",""10420""
","
","
","""event"",""trial"",""time""
""fullscreenenter"",""5"",""10420""
","
","230.19999999925494","","49","","","3000","1","","","images/tutgreenplanet.jpg","images/tutalien1","images/tutalien2","null","images/tutalien2","images/t.png","NA","practice","null","","","",""
"d3-animate-choice","40","138376","0.0-40.0","3909","7250","22","Male","true","false","false","true","""event"",""trial"",""time""
""fullscreenenter"",""5"",""10420""
","
","
","""event"",""trial"",""time""
""fullscreenenter"",""5"",""10420""
","
","144","","49","","","3000","1","","","images/tutgreenplanet.jpg","images/tutalien1","images/tutalien2","null","images/tutalien2","images/t.png","NA","practice","null","","","",""
"d3-animate-choice","41","140591","0.0-41.0","3909","7250","22","Male","true","false","false","true","""event"",""trial"",""time""
""fullscreenenter"",""5"",""10420""
","
","
","""event"",""trial"",""time""
""fullscreenenter"",""5"",""10420""
","
","207.90000000037253","","49","","","3000","1","","","images/tutgreenplanet.jpg","images/tutalien1","images/tutalien2","null","images/tutalien2","images/t.png","NA","practice","null","","","",""
"d3-animate-choice","42","143078","0.0-42.0","3909","7250","22","Male","true","false","false","true","""event"",""trial"",""time""
""fullscreenenter"",""5"",""10420""
","
","
","""event"",""trial"",""time""
""fullscreenenter"",""5"",""10420""
","
","481.5","","49","","","3000","1","","","images/tutgreenplanet.jpg","images/tutalien1","images/tutalien2","null","images/tutalien2","images/t.png","NA","practice","null","","","",""
"d3-animate-choice","43","145318","0.0-43.0","3909","7250","22","Male","true","false","false","true","""event"",""trial"",""time""
""fullscreenenter"",""5"",""10420""
","
","
","""event"",""trial"",""time""
""fullscreenenter"",""5"",""10420""
","
","237.5","","49","","","3000","1","","","images/tutgreenplanet.jpg","images/tutalien1","images/tutalien2","null","images/tutalien2","images/t.png","NA","practice","null","","","",""
"d3-instructions","44","151519","0.0-44.0","3909","7250","22","Male","true","false","false","true","""event"",""trial"",""time""
""fullscreenenter"",""5"",""10420""
","
","
","""event"",""trial"",""time""
""fullscreenenter"",""5"",""10420""
","
","","","","","","","","","","","","","","","","","","","","","",""
"d3-instructions","45","154591","0.0-45.0","3909","7250","22","Male","true","false","false","true","""event"",""trial"",""time""
""fullscreenenter"",""5"",""10420""
","
","
","""event"",""trial"",""time""
""fullscreenenter"",""5"",""10420""
","
","","","","","","","","","","","","","","","","","","","","","",""
"d3-instructions","46","158834","0.0-46.0","3909","7250","22","Male","true","false","false","true","""event"",""trial"",""time""
""fullscreenenter"",""5"",""10420""
","
","
","""event"",""trial"",""time""
""fullscreenenter"",""5"",""10420""
","
","","","","","","","","","","","","","","","","","","","","","",""
"d3-instructions","47","165518","0.0-47.0","3909","7250","22","Male","true","false","false","true","""event"",""trial"",""time""
""fullscreenenter"",""5"",""10420""
","
","
","""event"",""trial"",""time""
""fullscreenenter"",""5"",""10420""
","
","","","","","","","","","","","","","","","","","","","","","",""
"d3-instructions","48","169461","0.0-48.0","3909","7250","22","Male","true","false","false","true","""event"",""trial"",""time""
""fullscreenenter"",""5"",""10420""
","
","
","""event"",""trial"",""time""
""fullscreenenter"",""5"",""10420""
","
","","","","","","","","","","","","","","","","","","","","","",""
"d3-instructions","49","172824","0.0-49.0","3909","7250","22","Male","true","false","false","true","""event"",""trial"",""time""
""fullscreenenter"",""5"",""10420""
","
","
","""event"",""trial"",""time""
""fullscreenenter"",""5"",""10420""
","
","","","","","","","","","","","","","","","","","","","","","",""
"d3-instructions","50","175725","0.0-50.0","3909","7250","22","Male","true","false","false","true","""event"",""trial"",""time""
""fullscreenenter"",""5"",""10420""
","
","
","""event"",""trial"",""time""
""fullscreenenter"",""5"",""10420""
","
","","","","","","","","","","","","","","","","","","","","","",""
"d3-instructions","51","177968","0.0-51.0","3909","7250","22","Male","true","false","false","true","""event"",""trial"",""time""
""fullscreenenter"",""5"",""10420""
","
","
","""event"",""trial"",""time""
""fullscreenenter"",""5"",""10420""
","
","","","","","","","","","","","","","","","","","","","","","",""
"d3-instructions","52","179878","0.0-52.0","3909","7250","22","Male","true","false","false","true","""event"",""trial"",""time""
""fullscreenenter"",""5"",""10420""
","
","
","""event"",""trial"",""time""
""fullscreenenter"",""5"",""10420""
","
","","","","","","","","","","","","","","","","","","","","","",""
"d3-instructions","53","186576","0.0-53.0","3909","7250","22","Male","true","false","false","true","""event"",""trial"",""time""
""fullscreenenter"",""5"",""10420""
","
","
","""event"",""trial"",""time""
""fullscreenenter"",""5"",""10420""
","
","","","","","","","","","","","","","","","","","","","","","",""
"d3-instructions","54","191725","0.0-54.0","3909","7250","22","Male","true","false","false","true","""event"",""trial"",""time""
""fullscreenenter"",""5"",""10420""
","
","
","""event"",""trial"",""time""
""fullscreenenter"",""5"",""10420""
","
","","","","","","","","","","","","","","","","","","","","","",""
"d3-instructions","55","194743","0.0-55.0","3909","7250","22","Male","true","false","false","true","""event"",""trial"",""time""
""fullscreenenter"",""5"",""10420""
","
","
","""event"",""trial"",""time""
""fullscreenenter"",""5"",""10420""
","
","","","","","","","","","","","","","","","","","","","","","",""
"d3-instructions","56","196779","0.0-56.0","3909","7250","22","Male","true","false","false","true","""event"",""trial"",""time""
""fullscreenenter"",""5"",""10420""
","
","
","""event"",""trial"",""time""
""fullscreenenter"",""5"",""10420""
","
","","","","","","","","","","","","","","","","","","","","","",""
"d3-instructions","57","199433","0.0-57.0","3909","7250","22","Male","true","false","false","true","""event"",""trial"",""time""
""fullscreenenter"",""5"",""10420""
","
","
","""event"",""trial"",""time""
""fullscreenenter"",""5"",""10420""
","
","","","","","","","","","","","","","","","","","","","","","",""
"d3-instructions","58","202743","0.0-58.0","3909","7250","22","Male","true","false","false","true","""event"",""trial"",""time""
""fullscreenenter"",""5"",""10420""
","
","
","""event"",""trial"",""time""
""fullscreenenter"",""5"",""10420""
","
","","","","","","","","","","","","","","","","","","","","","",""
"d3-instructions","59","204816","0.0-59.0","3909","7250","22","Male","true","false","false","true","""event"",""trial"",""time""
""fullscreenenter"",""5"",""10420""
","
","
","""event"",""trial"",""time""
""fullscreenenter"",""5"",""10420""
","
","","","","","","","","","","","","","","","","","","","","","",""
"d3-instructions","60","207068","0.0-60.0","3909","7250","22","Male","true","false","false","true","""event"",""trial"",""time""
""fullscreenenter"",""5"",""10420""
","
","
","""event"",""trial"",""time""
""fullscreenenter"",""5"",""10420""
","
","","","","","","","","","","","","","","","","","","","","","",""
"d3-animate-choice","61","209664","0.0-61.0-0.0","3909","7250","22","Male","true","false","false","true","""event"",""trial"",""time""
""fullscreenenter"",""5"",""10420""
","
","
","""event"",""trial"",""time""
""fullscreenenter"",""5"",""10420""
","
","588.5","","49","","","3000","1","","","images/earth.jpg","images/tutrocket2","images/tutrocket1","null","images/tutrocket1","","1","practice","null","1","","",""
"d3-animate-choice","62","212497","0.0-61.0-1.0","3909","7250","22","Male","true","false","false","true","""event"",""trial"",""time""
""fullscreenenter"",""5"",""10420""
","
","
","""event"",""trial"",""time""
""fullscreenenter"",""5"",""10420""
","
","825.8000000007451","","49","","","3000","1","","","images/tutyellowplanet.jpg","images/tutalien4","images/tutalien3","images/tutrocket1","images/tutalien3","images/t.png","2","practice","true","1","common","1","2023-03-07 23:02:28.417"
"two-step-fixation","63","213504","0.0-61.0-2.0","3909","7250","22","Male","true","false","false","true","""event"",""trial"",""time""
""fullscreenenter"",""5"",""10420""
","
","
","""event"",""trial"",""time""
""fullscreenenter"",""5"",""10420""
","
","","images/earth.jpg","","","","","","","","","","","","","","fixation","","","","","",""
"d3-animate-choice","64","216354","0.0-61.0-0.1","3909","7250","22","Male","true","false","false","true","""event"",""trial"",""time""
""fullscreenenter"",""5"",""10420""
","
","
","""event"",""trial"",""time""
""fullscreenenter"",""5"",""10420""
","
","844","","49","","","3000","1","","","images/earth.jpg","images/tutrocket2","images/tutrocket1","null","images/tutrocket1","","1","practice","null","1","","",""
"d3-animate-choice","65","219349","0.0-61.0-1.1","3909","7250","22","Male","true","false","false","true","""event"",""trial"",""time""
""fullscreenenter"",""5"",""10420""
","
","
","""event"",""trial"",""time""
""fullscreenenter"",""5"",""10420""
","
","983","","48","","","3000","1","","","images/tutgreenplanet.jpg","images/tutalien2","images/tutalien1","images/tutrocket1","images/tutalien2","images/nothing.png","2","practice","false","2","rare","0","2023-03-07 23:02:35.268"
"two-step-fixation","66","220367","0.0-61.0-2.1","3909","7250","22","Male","true","false","false","true","""event"",""trial"",""time""
""fullscreenenter"",""5"",""10420""
","
","
","""event"",""trial"",""time""
""fullscreenenter"",""5"",""10420""
","
","","images/earth.jpg","","","","","","","","","","","","","","fixation","","","","","",""
"d3-animate-choice","67","222730","0.0-61.0-0.2","3909","7250","22","Male","true","false","false","true","""event"",""trial"",""time""
""fullscreenenter"",""5"",""10420""
","
","
","""event"",""trial"",""time""
""fullscreenenter"",""5"",""10420""
","
","348.80000000074506","","49","","","3000","1","","","images/earth.jpg","images/tutrocket2","images/tutrocket1","null","images/tutrocket1","","1","practice","null","1","","",""
"d3-animate-choice","68","225165","0.0-61.0-1.2","3909","7250","22","Male","true","false","false","true","""event"",""trial"",""time""
""fullscreenenter"",""5"",""10420""
","
","
","""event"",""trial"",""time""
""fullscreenenter"",""5"",""10420""
","
","422.40000000037253","","49","","","3000","1","","","images/tutyellowplanet.jpg","images/tutalien4","images/tutalien3","images/tutrocket1","images/tutalien3","images/t.png","2","practice","true","1","common","1","2023-03-07 23:02:41.085"
"two-step-fixation","69","226171","0.0-61.0-2.2","3909","7250","22","Male","true","false","false","true","""event"",""trial"",""time""
""fullscreenenter"",""5"",""10420""
","
","
","""event"",""trial"",""time""
""fullscreenenter"",""5"",""10420""
","
","","images/earth.jpg","","","","","","","","","","","","","","fixation","","","","","",""
"d3-animate-choice","70","228525","0.0-61.0-0.3","3909","7250","22","Male","true","false","false","true","""event"",""trial"",""time""
""fullscreenenter"",""5"",""10420""
","
","
","""event"",""trial"",""time""
""fullscreenenter"",""5"",""10420""
","
","347.30000000074506","","49","","","3000","1","","","images/earth.jpg","images/tutrocket2","images/tutrocket1","null","images/tutrocket1","","1","practice","null","1","","",""
"d3-animate-choice","71","230858","0.0-61.0-1.3","3909","7250","22","Male","true","false","false","true","""event"",""trial"",""time""
""fullscreenenter"",""5"",""10420""
","
","
","""event"",""trial"",""time""
""fullscreenenter"",""5"",""10420""
","
","327.7999999988824","","49","","","3000","1","","","images/tutyellowplanet.jpg","images/tutalien4","images/tutalien3","images/tutrocket1","images/tutalien3","images/nothing.png","2","practice","true","1","common","0","2023-03-07 23:02:46.777"
"two-step-fixation","72","231860","0.0-61.0-2.3","3909","7250","22","Male","true","false","false","true","""event"",""trial"",""time""
""fullscreenenter"",""5"",""10420""
","
","
","""event"",""trial"",""time""
""fullscreenenter"",""5"",""10420""
","
","","images/earth.jpg","","","","","","","","","","","","","","fixation","","","","","",""
"d3-animate-choice","73","234172","0.0-61.0-0.4","3909","7250","22","Male","true","false","false","true","""event"",""trial"",""time""
""fullscreenenter"",""5"",""10420""
","
","
","""event"",""trial"",""time""
""fullscreenenter"",""5"",""10420""
","
","305.7999999988824","","49","","","3000","1","","","images/earth.jpg","images/tutrocket2","images/tutrocket1","null","images/tutrocket1","","1","practice","null","1","","",""
"d3-animate-choice","74","236771","0.0-61.0-1.4","3909","7250","22","Male","true","false","false","true","""event"",""trial"",""time""
""fullscreenenter"",""5"",""10420""
","
","
","""event"",""trial"",""time""
""fullscreenenter"",""5"",""10420""
","
","592.6999999992549","","49","","","3000","1","","","images/tutyellowplanet.jpg","images/tutalien4","images/tutalien3","images/tutrocket1","images/tutalien3","images/t.png","2","practice","true","1","common","1","2023-03-07 23:02:52.690"
"two-step-fixation","75","237774","0.0-61.0-2.4","3909","7250","22","Male","true","false","false","true","""event"",""trial"",""time""
""fullscreenenter"",""5"",""10420""
","
","
","""event"",""trial"",""time""
""fullscreenenter"",""5"",""10420""
","
","","images/earth.jpg","","","","","","","","","","","","","","fixation","","","","","",""
"d3-animate-choice","76","240299","0.0-61.0-0.5","3909","7250","22","Male","true","false","false","true","""event"",""trial"",""time""
""fullscreenenter"",""5"",""10420""
","
","
","""event"",""trial"",""time""
""fullscreenenter"",""5"",""10420""
","
","522.0999999996275","","49","","","3000","1","","","images/earth.jpg","images/tutrocket2","images/tutrocket1","null","images/tutrocket1","","1","practice","null","1","","",""
"d3-animate-choice","77","242772","0.0-61.0-1.5","3909","7250","22","Male","true","false","false","true","""event"",""trial"",""time""
""fullscreenenter"",""5"",""10420""
","
","
","""event"",""trial"",""time""
""fullscreenenter"",""5"",""10420""
","
","466.8999999985099","","49","","","3000","1","","","images/tutyellowplanet.jpg","images/tutalien4","images/tutalien3","images/tutrocket1","images/tutalien3","images/nothing.png","2","practice","true","1","common","0","2023-03-07 23:02:58.691"
"two-step-fixation","78","243779","0.0-61.0-2.5","3909","7250","22","Male","true","false","false","true","""event"",""trial"",""time""
""fullscreenenter"",""5"",""10420""
","
","
","""event"",""trial"",""time""
""fullscreenenter"",""5"",""10420""
","
","","images/earth.jpg","","","","","","","","","","","","","","fixation","","","","","",""
"d3-animate-choice","79","246069","0.0-61.0-0.6","3909","7250","22","Male","true","false","false","true","""event"",""trial"",""time""
""fullscreenenter"",""5"",""10420""
","
","
","""event"",""trial"",""time""
""fullscreenenter"",""5"",""10420""
","
","284.30000000074506","","48","","","3000","1","","","images/earth.jpg","images/tutrocket2","images/tutrocket1","null","images/tutrocket2","","1","practice","null","2","","",""
"d3-animate-choice","80","248433","0.0-61.0-1.6","3909","7250","22","Male","true","false","false","true","""event"",""trial"",""time""
""fullscreenenter"",""5"",""10420""
","
","
","""event"",""trial"",""time""
""fullscreenenter"",""5"",""10420""
","
","360.2000000011176","","48","","","3000","1","","","images/tutgreenplanet.jpg","images/tutalien2","images/tutalien1","images/tutrocket2","images/tutalien2","images/nothing.png","2","practice","true","2","common","0","2023-03-07 23:03:04.352"
"two-step-fixation","81","249439","0.0-61.0-2.6","3909","7250","22","Male","true","false","false","true","""event"",""trial"",""time""
""fullscreenenter"",""5"",""10420""
","
","
","""event"",""trial"",""time""
""fullscreenenter"",""5"",""10420""
","
","","images/earth.jpg","","","","","","","","","","","","","","fixation","","","","","",""
"d3-animate-choice","82","251863","0.0-61.0-0.7","3909","7250","22","Male","true","false","false","true","""event"",""trial"",""time""
""fullscreenenter"",""5"",""10420""
","
","
","""event"",""trial"",""time""
""fullscreenenter"",""5"",""10420""
","
","416.7999999988824","","49","","","3000","1","","","images/earth.jpg","images/tutrocket2","images/tutrocket1","null","images/tutrocket1","","1","practice","null","1","","",""
"d3-animate-choice","83","254380","0.0-61.0-1.7","3909","7250","22","Male","true","false","false","true","""event"",""trial"",""time""
""fullscreenenter"",""5"",""10420""
","
","
","""event"",""trial"",""time""
""fullscreenenter"",""5"",""10420""
","
","510.90000000037253","","49","","","3000","1","","","images/tutgreenplanet.jpg","images/tutalien2","images/tutalien1","images/tutrocket1","images/tutalien1","images/nothing.png","2","practice","false","1","rare","0","2023-03-07 23:03:10.299"
"two-step-fixation","84","255386","0.0-61.0-2.7","3909","7250","22","Male","true","false","false","true","""event"",""trial"",""time""
""fullscreenenter"",""5"",""10420""
","
","
","""event"",""trial"",""time""
""fullscreenenter"",""5"",""10420""
","
","","images/earth.jpg","","","","","","","","","","","","","","fixation","","","","","",""
"d3-animate-choice","85","257630","0.0-61.0-0.8","3909","7250","22","Male","true","false","false","true","""event"",""trial"",""time""
""fullscreenenter"",""5"",""10420""
","
","
","""event"",""trial"",""time""
""fullscreenenter"",""5"",""10420""
","
","236.80000000074506","","49","","","3000","1","","","images/earth.jpg","images/tutrocket2","images/tutrocket1","null","images/tutrocket1","","1","practice","null","1","","",""
"d3-animate-choice","86","260271","0.0-61.0-1.8","3909","7250","22","Male","true","false","false","true","""event"",""trial"",""time""
""fullscreenenter"",""5"",""10420""
","
","
","""event"",""trial"",""time""
""fullscreenenter"",""5"",""10420""
","
","634.9000000003725","","49","","","3000","1","","","images/tutyellowplanet.jpg","images/tutalien4","images/tutalien3","images/tutrocket1","images/tutalien3","images/t.png","2","practice","true","1","common","1","2023-03-07 23:03:16.190"
"two-step-fixation","87","261276","0.0-61.0-2.8","3909","7250","22","Male","true","false","false","true","""event"",""trial"",""time""
""fullscreenenter"",""5"",""10420""
","
","
","""event"",""trial"",""time""
""fullscreenenter"",""5"",""10420""
","
","","images/earth.jpg","","","","","","","","","","","","","","fixation","","","","","",""
"d3-animate-choice","88","263613","0.0-61.0-0.9","3909","7250","22","Male","true","false","false","true","""event"",""trial"",""time""
""fullscreenenter"",""5"",""10420""
","
","
","""event"",""trial"",""time""
""fullscreenenter"",""5"",""10420""
","
","330.2999999988824","","49","","","3000","1","","","images/earth.jpg","images/tutrocket2","images/tutrocket1","null","images/tutrocket1","","1","practice","null","1","","",""
"d3-animate-choice","89","266057","0.0-61.0-1.9","3909","7250","22","Male","true","false","false","true","""event"",""trial"",""time""
""fullscreenenter"",""5"",""10420""
","
","
","""event"",""trial"",""time""
""fullscreenenter"",""5"",""10420""
","
","438.30000000074506","","49","","","3000","1","","","images/tutgreenplanet.jpg","images/tutalien2","images/tutalien1","images/tutrocket1","images/tutalien1","images/nothing.png","2","practice","false","1","rare","0","2023-03-07 23:03:21.976"
"two-step-fixation","90","267063","0.0-61.0-2.9","3909","7250","22","Male","true","false","false","true","""event"",""trial"",""time""
""fullscreenenter"",""5"",""10420""
","
","
","""event"",""trial"",""time""
""fullscreenenter"",""5"",""10420""
","
","","images/earth.jpg","","","","","","","","","","","","","","fixation","","","","","",""
"d3-animate-choice","91","269554","0.0-61.0-0.10","3909","7250","22","Male","true","false","false","true","""event"",""trial"",""time""
""fullscreenenter"",""5"",""10420""
","
","
","""event"",""trial"",""time""
""fullscreenenter"",""5"",""10420""
","
","485.2000000011176","","49","","","3000","1","","","images/earth.jpg","images/tutrocket2","images/tutrocket1","null","images/tutrocket1","","1","practice","null","1","","",""
"d3-animate-choice","92","271991","0.0-61.0-1.10","3909","7250","22","Male","true","false","false","true","""event"",""trial"",""time""
""fullscreenenter"",""5"",""10420""
","
","
","""event"",""trial"",""time""
""fullscreenenter"",""5"",""10420""
","
","430.30000000074506","","49","","","3000","1","","","images/tutyellowplanet.jpg","images/tutalien4","images/tutalien3","images/tutrocket1","images/tutalien3","images/nothing.png","2","practice","true","1","common","0","2023-03-07 23:03:27.910"
"two-step-fixation","93","272994","0.0-61.0-2.10","3909","7250","22","Male","true","false","false","true","""event"",""trial"",""time""
""fullscreenenter"",""5"",""10420""
","
","
","""event"",""trial"",""time""
""fullscreenenter"",""5"",""10420""
","
","","images/earth.jpg","","","","","","","","","","","","","","fixation","","","","","",""
"d3-animate-choice","94","275303","0.0-61.0-0.11","3909","7250","22","Male","true","false","false","true","""event"",""trial"",""time""
""fullscreenenter"",""5"",""10420""
","
","
","""event"",""trial"",""time""
""fullscreenenter"",""5"",""10420""
","
","303","","49","","","3000","1","","","images/earth.jpg","images/tutrocket2","images/tutrocket1","null","images/tutrocket1","","1","practice","null","1","","",""
"d3-animate-choice","95","278431","0.0-61.0-1.11","3909","7250","22","Male","true","false","false","true","""event"",""trial"",""time""
""fullscreenenter"",""5"",""10420""
","
","
","""event"",""trial"",""time""
""fullscreenenter"",""5"",""10420""
","
","1125.3999999985099","","48","","","3000","1","","","images/tutgreenplanet.jpg","images/tutalien2","images/tutalien1","images/tutrocket1","images/tutalien2","images/nothing.png","2","practice","false","2","rare","0","2023-03-07 23:03:34.350"
"two-step-fixation","96","279437","0.0-61.0-2.11","3909","7250","22","Male","true","false","false","true","""event"",""trial"",""time""
""fullscreenenter"",""5"",""10420""
","
","
","""event"",""trial"",""time""
""fullscreenenter"",""5"",""10420""
","
","","images/earth.jpg","","","","","","","","","","","","","","fixation","","","","","",""
"d3-animate-choice","97","281762","0.0-61.0-0.12","3909","7250","22","Male","true","false","false","true","""event"",""trial"",""time""
""fullscreenenter"",""5"",""10420""
","
","
","""event"",""trial"",""time""
""fullscreenenter"",""5"",""10420""
","
","317.7999999988824","","49","","","3000","1","","","images/earth.jpg","images/tutrocket2","images/tutrocket1","null","images/tutrocket1","","1","practice","null","1","","",""
"d3-animate-choice","98","284689","0.0-61.0-1.12","3909","7250","22","Male","true","false","false","true","""event"",""trial"",""time""
""fullscreenenter"",""5"",""10420""
","
","
","""event"",""trial"",""time""
""fullscreenenter"",""5"",""10420""
","
","920.8999999985099","","48","","","3000","1","","","images/tutyellowplanet.jpg","images/tutalien4","images/tutalien3","images/tutrocket1","images/tutalien4","images/nothing.png","2","practice","true","2","common","0","2023-03-07 23:03:40.608"
"two-step-fixation","99","285694","0.0-61.0-2.12","3909","7250","22","Male","true","false","false","true","""event"",""trial"",""time""
""fullscreenenter"",""5"",""10420""
","
","
","""event"",""trial"",""time""
""fullscreenenter"",""5"",""10420""
","
","","images/earth.jpg","","","","","","","","","","","","","","fixation","","","","","",""
"d3-animate-choice","100","287968","0.0-61.0-0.13","3909","7250","22","Male","true","false","false","true","""event"",""trial"",""time""
""fullscreenenter"",""5"",""10420""
","
","
","""event"",""trial"",""time""
""fullscreenenter"",""5"",""10420""
","
","266.09999999962747","","49","","","3000","1","","","images/earth.jpg","images/tutrocket2","images/tutrocket1","null","images/tutrocket1","","1","practice","null","1","","",""
"d3-animate-choice","101","290278","0.0-61.0-1.13","3909","7250","22","Male","true","false","false","true","""event"",""trial"",""time""
""fullscreenenter"",""5"",""10420""
","
","
","""event"",""trial"",""time""
""fullscreenenter"",""5"",""10420""
","
","304.19999999925494","","49","","","3000","1","","","images/tutyellowplanet.jpg","images/tutalien4","images/tutalien3","images/tutrocket1","images/tutalien3","images/nothing.png","2","practice","true","1","common","0","2023-03-07 23:03:46.198"
"two-step-fixation","102","291285","0.0-61.0-2.13","3909","7250","22","Male","true","false","false","true","""event"",""trial"",""time""
""fullscreenenter"",""5"",""10420""
","
","
","""event"",""trial"",""time""
""fullscreenenter"",""5"",""10420""
","
","","images/earth.jpg","","","","","","","","","","","","","","fixation","","","","","",""
"d3-animate-choice","103","293662","0.0-61.0-0.14","3909","7250","22","Male","true","false","false","true","""event"",""trial"",""time""
""fullscreenenter"",""5"",""10420""
","
","
","""event"",""trial"",""time""
""fullscreenenter"",""5"",""10420""
","
","371.5","","49","","","3000","1","","","images/earth.jpg","images/tutrocket2","images/tutrocket1","null","images/tutrocket1","","1","practice","null","1","","",""
"d3-animate-choice","104","296010","0.0-61.0-1.14","3909","7250","22","Male","true","false","false","true","""event"",""trial"",""time""
""fullscreenenter"",""5"",""10420""
","
","
","""event"",""trial"",""time""
""fullscreenenter"",""5"",""10420""
","
","341","","49","","","3000","1","","","images/tutgreenplanet.jpg","images/tutalien2","images/tutalien1","images/tutrocket1","images/tutalien1","images/t.png","2","practice","false","1","rare","1","2023-03-07 23:03:51.929"
"two-step-fixation","105","297016","0.0-61.0-2.14","3909","7250","22","Male","true","false","false","true","""event"",""trial"",""time""
""fullscreenenter"",""5"",""10420""
","
","
","""event"",""trial"",""time""
""fullscreenenter"",""5"",""10420""
","
","","images/earth.jpg","","","","","","","","","","","","","","fixation","","","","","",""
"d3-animate-choice","106","299257","0.0-61.0-0.15","3909","7250","22","Male","true","false","false","true","""event"",""trial"",""time""
""fullscreenenter"",""5"",""10420""
","
","
","""event"",""trial"",""time""
""fullscreenenter"",""5"",""10420""
","
","233.80000000074506","","48","","","3000","1","","","images/earth.jpg","images/tutrocket2","images/tutrocket1","null","images/tutrocket2","","1","practice","null","2","","",""
"d3-animate-choice","107","301708","0.0-61.0-1.15","3909","7250","22","Male","true","false","false","true","""event"",""trial"",""time""
""fullscreenenter"",""5"",""10420""
","
","
","""event"",""trial"",""time""
""fullscreenenter"",""5"",""10420""
","
","446.5","","49","","","3000","1","","","images/tutgreenplanet.jpg","images/tutalien2","images/tutalien1","images/tutrocket2","images/tutalien1","images/t.png","2","practice","true","1","common","1","2023-03-07 23:03:57.628"
"two-step-fixation","108","302714","0.0-61.0-2.15","3909","7250","22","Male","true","false","false","true","""event"",""trial"",""time""
""fullscreenenter"",""5"",""10420""
","
","
","""event"",""trial"",""time""
""fullscreenenter"",""5"",""10420""
","
","","images/earth.jpg","","","","","","","","","","","","","","fixation","","","","","",""
"d3-animate-choice","109","305027","0.0-61.0-0.16","3909","7250","22","Male","true","false","false","true","""event"",""trial"",""time""
""fullscreenenter"",""5"",""10420""
","
","
","""event"",""trial"",""time""
""fullscreenenter"",""5"",""10420""
","
","308.30000000074506","","48","","","3000","1","","","images/earth.jpg","images/tutrocket2","images/tutrocket1","null","images/tutrocket2","","1","practice","null","2","","",""
"d3-animate-choice","110","307454","0.0-61.0-1.16","3909","7250","22","Male","true","false","false","true","""event"",""trial"",""time""
""fullscreenenter"",""5"",""10420""
","
","
","""event"",""trial"",""time""
""fullscreenenter"",""5"",""10420""
","
","423.30000000074506","","49","","","3000","1","","","images/tutgreenplanet.jpg","images/tutalien2","images/tutalien1","images/tutrocket2","images/tutalien1","images/nothing.png","2","practice","true","1","common","0","2023-03-07 23:04:03.373"
"two-step-fixation","111","308460","0.0-61.0-2.16","3909","7250","22","Male","true","false","false","true","""event"",""trial"",""time""
""fullscreenenter"",""5"",""10420""
","
","
","""event"",""trial"",""time""
""fullscreenenter"",""5"",""10420""
","
","","images/earth.jpg","","","","","","","","","","","","","","fixation","","","","","",""
"d3-animate-choice","112","310719","0.0-61.0-0.17","3909","7250","22","Male","true","false","false","true","""event"",""trial"",""time""
""fullscreenenter"",""5"",""10420""
","
","
","""event"",""trial"",""time""
""fullscreenenter"",""5"",""10420""
","
","252.5","","48","","","3000","1","1006.7999999988824","48","images/earth.jpg","images/tutrocket2","images/tutrocket1","null","images/tutrocket2","","1","practice","null","2","","",""
"d3-animate-choice","113","313805","0.0-61.0-1.17","3909","7250","22","Male","true","false","false","true","""event"",""trial"",""time""
""fullscreenenter"",""5"",""10420""
","
","
","""event"",""trial"",""time""
""fullscreenenter"",""5"",""10420""
","
","447.40000000037253","","50","","","3000","1","1077.7999999988824","48","images/tutyellowplanet.jpg","images/tutalien4","images/tutalien3","images/tutrocket2","images/tutalien4","images/t.png","2","practice","false","","rare","1","2023-03-07 23:04:09.724"
"two-step-fixation","114","314811","0.0-61.0-2.17","3909","7250","22","Male","true","false","false","true","""event"",""trial"",""time""
""fullscreenenter"",""5"",""10420""
","
","
","""event"",""trial"",""time""
""fullscreenenter"",""5"",""10420""
","
","","images/earth.jpg","","","","","","","","","","","","","","fixation","","","","","",""
"d3-animate-choice","115","317125","0.0-61.0-0.18","3909","7250","22","Male","true","false","false","true","""event"",""trial"",""time""
""fullscreenenter"",""5"",""10420""
","
","
","""event"",""trial"",""time""
""fullscreenenter"",""5"",""10420""
","
","306.80000000074506","","49","","","3000","1","","","images/earth.jpg","images/tutrocket2","images/tutrocket1","null","images/tutrocket1","","1","practice","null","1","","",""
"d3-animate-choice","116","319474","0.0-61.0-1.18","3909","7250","22","Male","true","false","false","true","""event"",""trial"",""time""
""fullscreenenter"",""5"",""10420""
","
","
","""event"",""trial"",""time""
""fullscreenenter"",""5"",""10420""
","
","343.59999999962747","","48","","","3000","1","","","images/tutgreenplanet.jpg","images/tutalien2","images/tutalien1","images/tutrocket1","images/tutalien2","images/nothing.png","2","practice","false","2","rare","0","2023-03-07 23:04:15.394"
"two-step-fixation","117","320480","0.0-61.0-2.18","3909","7250","22","Male","true","false","false","true","""event"",""trial"",""time""
""fullscreenenter"",""5"",""10420""
","
","
","""event"",""trial"",""time""
""fullscreenenter"",""5"",""10420""
","
","","images/earth.jpg","","","","","","","","","","","","","","fixation","","","","","",""
"d3-animate-choice","118","323296","0.0-61.0-0.19","3909","7250","22","Male","true","false","false","true","""event"",""trial"",""time""
""fullscreenenter"",""5"",""10420""
","
","
","""event"",""trial"",""time""
""fullscreenenter"",""5"",""10420""
","
","809","","49","","","3000","1","","","images/earth.jpg","images/tutrocket2","images/tutrocket1","null","images/tutrocket1","","1","practice","null","1","","",""
"d3-animate-choice","119","325659","0.0-61.0-1.19","3909","7250","22","Male","true","false","false","true","""event"",""trial"",""time""
""fullscreenenter"",""5"",""10420""
","
","
","""event"",""trial"",""time""
""fullscreenenter"",""5"",""10420""
","
","356.7000000011176","","48","","","3000","1","","","images/tutyellowplanet.jpg","images/tutalien4","images/tutalien3","images/tutrocket1","images/tutalien4","images/t.png","2","practice","true","2","common","1","2023-03-07 23:04:21.578"
"two-step-fixation","120","326666","0.0-61.0-2.19","3909","7250","22","Male","true","false","false","true","""event"",""trial"",""time""
""fullscreenenter"",""5"",""10420""
","
","
","""event"",""trial"",""time""
""fullscreenenter"",""5"",""10420""
","
","","images/earth.jpg","","","","","","","","","","","","","","fixation","","","","","",""
"d3-instructions","121","329696","0.0-62.0","3909","7250","22","Male","true","false","false","true","""event"",""trial"",""time""
""fullscreenenter"",""5"",""10420""
","
","
","""event"",""trial"",""time""
""fullscreenenter"",""5"",""10420""
","
","","","","","","","","","","","","","","","","","","","","","",""
"audio-keyboard-response","122","331901","0.0-63.0","3909","7250","22","Male","true","false","false","true","""event"",""trial"",""time""
""fullscreenenter"",""5"",""10420""
","
","
","""event"",""trial"",""time""
""fullscreenenter"",""5"",""10420""
","
","2200","audio/instructions/treasure_feedback.wav","32","","","","","","","","","","","","","","","","","","",""
"d3-instructions","123","338702","0.0-64.0","3909","7250","22","Male","true","false","false","true","""event"",""trial"",""time""
""fullscreenenter"",""5"",""10420""
","
","
","""event"",""trial"",""time""
""fullscreenenter"",""5"",""10420""
","
","","","","","","","","","","","","","","","","","","","","","",""
"d3-instructions","124","342062","0.0-65.0","3909","7250","22","Male","true","false","false","true","""event"",""trial"",""time""
""fullscreenenter"",""5"",""10420""
","
","
","""event"",""trial"",""time""
""fullscreenenter"",""5"",""10420""
","
","","","","","","","","","","","","","","","","","","","","","",""
"d3-instructions","125","357329","0.0-66.0","3909","7250","22","Male","true","false","false","true","""event"",""trial"",""time""
""fullscreenenter"",""5"",""10420""
","
","
","""event"",""trial"",""time""
""fullscreenenter"",""5"",""10420""
","
","","","","","","","","","","","","","","","","","","","","","",""
"d3-instructions","126","362144","0.0-67.0","3909","7250","22","Male","true","false","false","true","""event"",""trial"",""time""
""fullscreenenter"",""5"",""10420""
","
","
","""event"",""trial"",""time""
""fullscreenenter"",""5"",""10420""
","
","","","","","","","","","","","","","","","","","","","","","",""
"d3-instructions","127","364114","0.0-68.0","3909","7250","22","Male","true","false","false","true","""event"",""trial"",""time""
""fullscreenenter"",""5"",""10420""
","
","
","""event"",""trial"",""time""
""fullscreenenter"",""5"",""10420""
","
","","","","","","","","","","","","","","","","","","","","","",""
"instructions-quiz","128","365787","0.0-69.0","3909","7250","22","Male","true","false","false","true","""event"",""trial"",""time""
""fullscreenenter"",""5"",""10420""
","
","
","""event"",""trial"",""time""
""fullscreenenter"",""5"",""10420""
","
","1671.5999999996275","audio/quiz/Q1_Prompt.wav","","1","","","","","","","","","","","","","","","","","",""
"audio-keyboard-response","129","366897","0.0-70.0","3909","7250","22","Male","true","false","false","true","""event"",""trial"",""time""
""fullscreenenter"",""5"",""10420""
","
","
","""event"",""trial"",""time""
""fullscreenenter"",""5"",""10420""
","
","1099","audio/quiz/Q1_Correct.wav","32","","","","","","","","","","","","","","","","","","",""
"instructions-quiz","130","370337","0.0-71.0","3909","7250","22","Male","true","false","false","true","""event"",""trial"",""time""
""fullscreenenter"",""5"",""10420""
","
","
","""event"",""trial"",""time""
""fullscreenenter"",""5"",""10420""
","
","3438.2999999988824","audio/quiz/Q2_Prompt.wav","","1","","","","","","","","","","","","","","","","","",""
"audio-keyboard-response","131","371880","0.0-72.0","3909","7250","22","Male","true","false","false","true","""event"",""trial"",""time""
""fullscreenenter"",""5"",""10420""
","
","
","""event"",""trial"",""time""
""fullscreenenter"",""5"",""10420""
","
","1539","audio/quiz/Q2_Incorrect.wav","32","","","","","","","","","","","","","","","","","","",""
"instructions-quiz","132","374412","0.0-73.0","3909","7250","22","Male","true","false","false","true","""event"",""trial"",""time""
""fullscreenenter"",""5"",""10420""
","
","
","""event"",""trial"",""time""
""fullscreenenter"",""5"",""10420""
","
","2529.5","audio/quiz/Q3_Prompt.wav","","1","","","","","","","","","","","","","","","","","",""
"audio-keyboard-response","133","374839","0.0-74.0","3909","7250","22","Male","true","false","false","true","""event"",""trial"",""time""
""fullscreenenter"",""5"",""10420""
","
","
","""event"",""trial"",""time""
""fullscreenenter"",""5"",""10420""
","
","429","audio/quiz/Q3_Correct.wav","32","","","","","","","","","","","","","","","","","","",""
"d3-instructions","134","377974","0.0-75.0","3909","7250","22","Male","true","false","false","true","""event"",""trial"",""time""
""fullscreenenter"",""5"",""10420""
","
","
","""event"",""trial"",""time""
""fullscreenenter"",""5"",""10420""
","
","","","","","","","","","","","","","","","","","","","","","",""
"pavlovia","135","377978","0.0-76.0","3909","7250","22","Male","true","false","false","true","""event"",""trial"",""time""
""fullscreenenter"",""5"",""10420""
","
","
","""event"",""trial"",""time""
""fullscreenenter"",""5"",""10420""
","
","","","","","","","","","","","","","","","","","","","","","",""
"d3-animate-choice","136","381019","0.0-77.0-0.0","3909","7250","22","Male","true","false","false","true","""event"",""trial"",""time""
""fullscreenenter"",""5"",""10420""
","
","
","""event"",""trial"",""time""
""fullscreenenter"",""5"",""10420""
","
","1034.0999999996275","","49","","","3000","1","","","images/earth.jpg","images/rocket2","images/rocket1","null","images/rocket1","","1","real","null","1","","",""
"d3-animate-choice","137","383462","0.0-77.0-1.0","3909","7250","22","Male","true","false","false","true","""event"",""trial"",""time""
""fullscreenenter"",""5"",""10420""
","
","
","""event"",""trial"",""time""
""fullscreenenter"",""5"",""10420""
","
","436.69999999925494","","49","","","3000","1","","","images/purpleplanet.jpg","images/alien4","images/alien3","images/rocket1","images/alien3","images/nothing.png","2","real","true","1","common","0","2023-03-07 23:05:19.382"
"two-step-fixation","138","384469","0.0-77.0-2.0","3909","7250","22","Male","true","false","false","true","""event"",""trial"",""time""
""fullscreenenter"",""5"",""10420""
","
","
","""event"",""trial"",""time""
""fullscreenenter"",""5"",""10420""
","
","","images/earth.jpg","","","","","","","","","","","","","","fixation","","","","","",""
"d3-animate-choice","139","386904","0.0-77.0-0.1","3909","7250","22","Male","true","false","false","true","""event"",""trial"",""time""
""fullscreenenter"",""5"",""10420""
","
","
","""event"",""trial"",""time""
""fullscreenenter"",""5"",""10420""
","
","428.59999999962747","","49","","","3000","1","","","images/earth.jpg","images/rocket2","images/rocket1","null","images/rocket1","","1","real","null","1","","",""
"d3-animate-choice","140","389301","0.0-77.0-1.1","3909","7250","22","Male","true","false","false","true","""event"",""trial"",""time""
""fullscreenenter"",""5"",""10420""
","
","
","""event"",""trial"",""time""
""fullscreenenter"",""5"",""10420""
","
","390.90000000037253","","48","","","3000","1","","","images/purpleplanet.jpg","images/alien4","images/alien3","images/rocket1","images/alien4","images/t.png","2","real","true","2","common","1","2023-03-07 23:05:25.220"
"two-step-fixation","141","390307","0.0-77.0-2.1","3909","7250","22","Male","true","false","false","true","""event"",""trial"",""time""
""fullscreenenter"",""5"",""10420""
","
","
","""event"",""trial"",""time""
""fullscreenenter"",""5"",""10420""
","
","","images/earth.jpg","","","","","","","","","","","","","","fixation","","","","","",""
"d3-animate-choice","142","392917","0.0-77.0-0.2","3909","7250","22","Male","true","false","false","true","""event"",""trial"",""time""
""fullscreenenter"",""5"",""10420""
","
","
","""event"",""trial"",""time""
""fullscreenenter"",""5"",""10420""
","
","603.3000000007451","","49","","","3000","1","","","images/earth.jpg","images/rocket2","images/rocket1","null","images/rocket1","","1","real","null","1","","",""
"d3-animate-choice","143","396398","0.0-77.0-1.2","3909","7250","22","Male","true","false","false","true","""event"",""trial"",""time""
""fullscreenenter"",""5"",""10420""
","
","
","""event"",""trial"",""time""
""fullscreenenter"",""5"",""10420""
","
","1472.5","","49","","","3000","1","","","images/redplanet1.jpg","images/alien2","images/alien1","images/rocket1","images/alien1","images/nothing.png","2","real","false","1","rare","0","2023-03-07 23:05:32.317"
"two-step-fixation","144","397404","0.0-77.0-2.2","3909","7250","22","Male","true","false","false","true","""event"",""trial"",""time""
""fullscreenenter"",""5"",""10420""
","
","
","""event"",""trial"",""time""
""fullscreenenter"",""5"",""10420""
","
","","images/earth.jpg","","","","","","","","","","","","","","fixation","","","","","",""
"d3-animate-choice","145","399865","0.0-77.0-0.3","3909","7250","22","Male","true","false","false","true","""event"",""trial"",""time""
""fullscreenenter"",""5"",""10420""
","
","
","""event"",""trial"",""time""
""fullscreenenter"",""5"",""10420""
","
","455","","49","","","3000","1","","","images/earth.jpg","images/rocket2","images/rocket1","null","images/rocket1","","1","real","null","1","","",""
"d3-animate-choice","146","402456","0.0-77.0-1.3","3909","7250","22","Male","true","false","false","true","""event"",""trial"",""time""
""fullscreenenter"",""5"",""10420""
","
","
","""event"",""trial"",""time""
""fullscreenenter"",""5"",""10420""
","
","585","","48","","","3000","1","","","images/purpleplanet.jpg","images/alien4","images/alien3","images/rocket1","images/alien4","images/t.png","2","real","true","2","common","1","2023-03-07 23:05:38.375"
"two-step-fixation","147","403462","0.0-77.0-2.3","3909","7250","22","Male","true","false","false","true","""event"",""trial"",""time""
""fullscreenenter"",""5"",""10420""
","
","
","""event"",""trial"",""time""
""fullscreenenter"",""5"",""10420""
","
","","images/earth.jpg","","","","","","","","","","","","","","fixation","","","","","",""
"d3-animate-choice","148","405729","0.0-77.0-0.4","3909","7250","22","Male","true","false","false","true","""event"",""trial"",""time""
""fullscreenenter"",""5"",""10420""
","
","
","""event"",""trial"",""time""
""fullscreenenter"",""5"",""10420""
","
","260.6000000014901","","49","","","3000","1","","","images/earth.jpg","images/rocket2","images/rocket1","null","images/rocket1","","1","real","null","1","","",""
"d3-animate-choice","149","408178","0.0-77.0-1.4","3909","7250","22","Male","true","false","false","true","""event"",""trial"",""time""
""fullscreenenter"",""5"",""10420""
","
","
","""event"",""trial"",""time""
""fullscreenenter"",""5"",""10420""
","
","444.2000000011176","","48","","","3000","1","","","images/purpleplanet.jpg","images/alien4","images/alien3","images/rocket1","images/alien4","images/t.png","2","real","true","2","common","1","2023-03-07 23:05:44.097"
"two-step-fixation","150","409184","0.0-77.0-2.4","3909","7250","22","Male","true","false","false","true","""event"",""trial"",""time""
""fullscreenenter"",""5"",""10420""
","
","
","""event"",""trial"",""time""
""fullscreenenter"",""5"",""10420""
","
","","images/earth.jpg","","","","","","","","","","","","","","fixation","","","","","",""
"d3-animate-choice","151","411444","0.0-77.0-0.5","3909","7250","22","Male","true","false","false","true","""event"",""trial"",""time""
""fullscreenenter"",""5"",""10420""
","
","
","""event"",""trial"",""time""
""fullscreenenter"",""5"",""10420""
","
","254","","49","","","3000","1","","","images/earth.jpg","images/rocket2","images/rocket1","null","images/rocket1","","1","real","null","1","","",""
"d3-animate-choice","152","413933","0.0-77.0-1.5","3909","7250","22","Male","true","false","false","true","""event"",""trial"",""time""
""fullscreenenter"",""5"",""10420""
","
","
","""event"",""trial"",""time""
""fullscreenenter"",""5"",""10420""
","
","482","","48","","","3000","1","","","images/purpleplanet.jpg","images/alien4","images/alien3","images/rocket1","images/alien4","images/nothing.png","2","real","true","2","common","0","2023-03-07 23:05:49.852"
"two-step-fixation","153","414939","0.0-77.0-2.5","3909","7250","22","Male","true","false","false","true","""event"",""trial"",""time""
""fullscreenenter"",""5"",""10420""
","
","
","""event"",""trial"",""time""
""fullscreenenter"",""5"",""10420""
","
","","images/earth.jpg","","","","","","","","","","","","","","fixation","","","","","",""
"d3-animate-choice","154","417282","0.0-77.0-0.6","3909","7250","22","Male","true","false","false","true","""event"",""trial"",""time""
""fullscreenenter"",""5"",""10420""
","
","
","""event"",""trial"",""time""
""fullscreenenter"",""5"",""10420""
","
","337.6000000014901","","49","","","3000","1","","","images/earth.jpg","images/rocket2","images/rocket1","null","images/rocket1","","1","real","null","1","","",""
"d3-animate-choice","155","419666","0.0-77.0-1.6","3909","7250","22","Male","true","false","false","true","""event"",""trial"",""time""
""fullscreenenter"",""5"",""10420""
","
","
","""event"",""trial"",""time""
""fullscreenenter"",""5"",""10420""
","
","377.90000000037253","","48","","","3000","1","","","images/purpleplanet.jpg","images/alien4","images/alien3","images/rocket1","images/alien4","images/nothing.png","2","real","true","2","common","0","2023-03-07 23:05:55.585"
"two-step-fixation","156","420672","0.0-77.0-2.6","3909","7250","22","Male","true","false","false","true","""event"",""trial"",""time""
""fullscreenenter"",""5"",""10420""
","
","
","""event"",""trial"",""time""
""fullscreenenter"",""5"",""10420""
","
","","images/earth.jpg","","","","","","","","","","","","","","fixation","","","","","",""
"d3-animate-choice","157","423325","0.0-77.0-0.7","3909","7250","22","Male","true","false","false","true","""event"",""trial"",""time""
""fullscreenenter"",""5"",""10420""
","
","
","""event"",""trial"",""time""
""fullscreenenter"",""5"",""10420""
","
","646.3000000007451","","49","","","3000","1","","","images/earth.jpg","images/rocket2","images/rocket1","null","images/rocket1","","1","real","null","1","","",""
"d3-animate-choice","158","426723","0.0-77.0-1.7","3909","7250","22","Male","true","false","false","true","""event"",""trial"",""time""
""fullscreenenter"",""5"",""10420""
","
","
","""event"",""trial"",""time""
""fullscreenenter"",""5"",""10420""
","
","1394.9000000003725","","48","","","3000","1","","","images/redplanet1.jpg","images/alien2","images/alien1","images/rocket1","images/alien2","images/t.png","2","real","false","2","rare","1","2023-03-07 23:06:02.642"
"two-step-fixation","159","427726","0.0-77.0-2.7","3909","7250","22","Male","true","false","false","true","""event"",""trial"",""time""
""fullscreenenter"",""5"",""10420""
","
","
","""event"",""trial"",""time""
""fullscreenenter"",""5"",""10420""
","
","","images/earth.jpg","","","","","","","","","","","","","","fixation","","","","","",""
"d3-animate-choice","160","431114","0.0-77.0-0.8","3909","7250","22","Male","true","false","false","true","""event"",""trial"",""time""
""fullscreenenter"",""5"",""10420""
","
","
","""event"",""trial"",""time""
""fullscreenenter"",""5"",""10420""
","
","289.59999999962747","","50","","","3000","1","1385","48","images/earth.jpg","images/rocket2","images/rocket1","null","images/rocket2","","1","real","null","","","",""
"d3-animate-choice","161","434284","0.0-77.0-1.8","3909","7250","22","Male","true","false","false","true","""event"",""trial"",""time""
""fullscreenenter"",""5"",""10420""
","
","
","""event"",""trial"",""time""
""fullscreenenter"",""5"",""10420""
","
","1164.4000000003725","","49","","","3000","1","","","images/purpleplanet.jpg","images/alien4","images/alien3","images/rocket2","images/alien3","images/nothing.png","2","real","false","1","rare","0","2023-03-07 23:06:10.203"
"two-step-fixation","162","435290","0.0-77.0-2.8","3909","7250","22","Male","true","false","false","true","""event"",""trial"",""time""
""fullscreenenter"",""5"",""10420""
","
","
","""event"",""trial"",""time""
""fullscreenenter"",""5"",""10420""
","
","","images/earth.jpg","","","","","","","","","","","","","","fixation","","","","","",""
"d3-animate-choice","163","437576","0.0-77.0-0.9","3909","7250","22","Male","true","false","false","true","""event"",""trial"",""time""
""fullscreenenter"",""5"",""10420""
","
","
","""event"",""trial"",""time""
""fullscreenenter"",""5"",""10420""
","
","277.7000000011176","","48","","","3000","1","","","images/earth.jpg","images/rocket2","images/rocket1","null","images/rocket2","","1","real","null","2","","",""
"d3-animate-choice","164","440956","0.0-77.0-1.9","3909","7250","22","Male","true","false","false","true","""event"",""trial"",""time""
""fullscreenenter"",""5"",""10420""
","
","
","""event"",""trial"",""time""
""fullscreenenter"",""5"",""10420""
","
","1373.5999999996275","","48","","","3000","1","","","images/purpleplanet.jpg","images/alien4","images/alien3","images/rocket2","images/alien4","images/t.png","2","real","false","2","rare","1","2023-03-07 23:06:16.875"
"two-step-fixation","165","441961","0.0-77.0-2.9","3909","7250","22","Male","true","false","false","true","""event"",""trial"",""time""
""fullscreenenter"",""5"",""10420""
","
","
","""event"",""trial"",""time""
""fullscreenenter"",""5"",""10420""
","
","","images/earth.jpg","","","","","","","","","","","","","","fixation","","","","","",""
"d3-animate-choice","166","444673","0.0-77.0-0.10","3909","7250","22","Male","true","false","false","true","""event"",""trial"",""time""
""fullscreenenter"",""5"",""10420""
","
","
","""event"",""trial"",""time""
""fullscreenenter"",""5"",""10420""
","
","703.5999999996275","","48","","","3000","1","","","images/earth.jpg","images/rocket2","images/rocket1","null","images/rocket2","","1","real","null","2","","",""
"d3-animate-choice","167","447391","0.0-77.0-1.10","3909","7250","22","Male","true","false","false","true","""event"",""trial"",""time""
""fullscreenenter"",""5"",""10420""
","
","
","""event"",""trial"",""time""
""fullscreenenter"",""5"",""10420""
","
","710.7000000011176","","48","","","3000","1","","","images/redplanet1.jpg","images/alien2","images/alien1","images/rocket2","images/alien2","images/t.png","2","real","true","2","common","1","2023-03-07 23:06:23.310"
"two-step-fixation","168","448396","0.0-77.0-2.10","3909","7250","22","Male","true","false","false","true","""event"",""trial"",""time""
""fullscreenenter"",""5"",""10420""
","
","
","""event"",""trial"",""time""
""fullscreenenter"",""5"",""10420""
","
","","images/earth.jpg","","","","","","","","","","","","","","fixation","","","","","",""
"d3-animate-choice","169","450729","0.0-77.0-0.11","3909","7250","22","Male","true","false","false","true","""event"",""trial"",""time""
""fullscreenenter"",""5"",""10420""
","
","
","""event"",""trial"",""time""
""fullscreenenter"",""5"",""10420""
","
","326.40000000037253","","48","","","3000","1","","","images/earth.jpg","images/rocket2","images/rocket1","null","images/rocket2","","1","real","null","2","","",""
"d3-animate-choice","170","453170","0.0-77.0-1.11","3909","7250","22","Male","true","false","false","true","""event"",""trial"",""time""
""fullscreenenter"",""5"",""10420""
","
","
","""event"",""trial"",""time""
""fullscreenenter"",""5"",""10420""
","
","435","","48","","","3000","1","","","images/redplanet1.jpg","images/alien2","images/alien1","images/rocket2","images/alien2","images/t.png","2","real","true","2","common","1","2023-03-07 23:06:29.089"
"two-step-fixation","171","454172","0.0-77.0-2.11","3909","7250","22","Male","true","false","false","true","""event"",""trial"",""time""
""fullscreenenter"",""5"",""10420""
","
","
","""event"",""trial"",""time""
""fullscreenenter"",""5"",""10420""
","
","","images/earth.jpg","","","","","","","","","","","","","","fixation","","","","","",""
"d3-animate-choice","172","456410","0.0-77.0-0.12","3909","7250","22","Male","true","false","false","true","""event"",""trial"",""time""
""fullscreenenter"",""5"",""10420""
","
","
","""event"",""trial"",""time""
""fullscreenenter"",""5"",""10420""
","
","232.89999999850988","","48","","","3000","1","","","images/earth.jpg","images/rocket2","images/rocket1","null","images/rocket2","","1","real","null","2","","",""
"d3-animate-choice","173","458747","0.0-77.0-1.12","3909","7250","22","Male","true","false","false","true","""event"",""trial"",""time""
""fullscreenenter"",""5"",""10420""
","
","
","""event"",""trial"",""time""
""fullscreenenter"",""5"",""10420""
","
","331","","48","","","3000","1","","","images/redplanet1.jpg","images/alien2","images/alien1","images/rocket2","images/alien2","images/t.png","2","real","true","2","common","1","2023-03-07 23:06:34.666"
"two-step-fixation","174","459753","0.0-77.0-2.12","3909","7250","22","Male","true","false","false","true","""event"",""trial"",""time""
""fullscreenenter"",""5"",""10420""
","
","
","""event"",""trial"",""time""
""fullscreenenter"",""5"",""10420""
","
","","images/earth.jpg","","","","","","","","","","","","","","fixation","","","","","",""
"d3-animate-choice","175","462121","0.0-77.0-0.13","3909","7250","22","Male","true","false","false","true","""event"",""trial"",""time""
""fullscreenenter"",""5"",""10420""
","
","
","""event"",""trial"",""time""
""fullscreenenter"",""5"",""10420""
","
","366.2000000011176","","48","","","3000","1","","","images/earth.jpg","images/rocket2","images/rocket1","null","images/rocket2","","1","real","null","2","","",""
"d3-animate-choice","176","465244","0.0-77.0-1.13","3909","7250","22","Male","true","false","false","true","""event"",""trial"",""time""
""fullscreenenter"",""5"",""10420""
","
","
","""event"",""trial"",""time""
""fullscreenenter"",""5"",""10420""
","
","1116.699999999255","","49","","","3000","1","","","images/purpleplanet.jpg","images/alien4","images/alien3","images/rocket2","images/alien3","images/t.png","2","real","false","1","rare","1","2023-03-07 23:06:41.163"
"two-step-fixation","177","466251","0.0-77.0-2.13","3909","7250","22","Male","true","false","false","true","""event"",""trial"",""time""
""fullscreenenter"",""5"",""10420""
","
","
","""event"",""trial"",""time""
""fullscreenenter"",""5"",""10420""
","
","","images/earth.jpg","","","","","","","","","","","","","","fixation","","","","","",""
"d3-animate-choice","178","468571","0.0-77.0-0.14","3909","7250","22","Male","true","false","false","true","""event"",""trial"",""time""
""fullscreenenter"",""5"",""10420""
","
","
","""event"",""trial"",""time""
""fullscreenenter"",""5"",""10420""
","
","314.09999999962747","","48","","","3000","1","","","images/earth.jpg","images/rocket2","images/rocket1","null","images/rocket2","","1","real","null","2","","",""
"d3-animate-choice","179","470981","0.0-77.0-1.14","3909","7250","22","Male","true","false","false","true","""event"",""trial"",""time""
""fullscreenenter"",""5"",""10420""
","
","
","""event"",""trial"",""time""
""fullscreenenter"",""5"",""10420""
","
","407.6000000014901","","48","","","3000","1","","","images/redplanet1.jpg","images/alien2","images/alien1","images/rocket2","images/alien2","images/nothing.png","2","real","true","2","common","0","2023-03-07 23:06:46.901"
"two-step-fixation","180","471988","0.0-77.0-2.14","3909","7250","22","Male","true","false","false","true","""event"",""trial"",""time""
""fullscreenenter"",""5"",""10420""
","
","
","""event"",""trial"",""time""
""fullscreenenter"",""5"",""10420""
","
","","images/earth.jpg","","","","","","","","","","","","","","fixation","","","","","",""
"d3-animate-choice","181","474621","0.0-77.0-0.15","3909","7250","22","Male","true","false","false","true","""event"",""trial"",""time""
""fullscreenenter"",""5"",""10420""
","
","
","""event"",""trial"",""time""
""fullscreenenter"",""5"",""10420""
","
","626.7000000011176","","49","","","3000","1","","","images/earth.jpg","images/rocket2","images/rocket1","null","images/rocket1","","1","real","null","1","","",""
"d3-animate-choice","182","476961","0.0-77.0-1.15","3909","7250","22","Male","true","false","false","true","""event"",""trial"",""time""
""fullscreenenter"",""5"",""10420""
","
","
","""event"",""trial"",""time""
""fullscreenenter"",""5"",""10420""
","
","334.09999999962747","","49","","","3000","1","","","images/purpleplanet.jpg","images/alien4","images/alien3","images/rocket1","images/alien3","images/nothing.png","2","real","true","1","common","0","2023-03-07 23:06:52.881"
"two-step-fixation","183","477968","0.0-77.0-2.15","3909","7250","22","Male","true","false","false","true","""event"",""trial"",""time""
""fullscreenenter"",""5"",""10420""
","
","
","""event"",""trial"",""time""
""fullscreenenter"",""5"",""10420""
","
","","images/earth.jpg","","","","","","","","","","","","","","fixation","","","","","",""
"d3-animate-choice","184","480257","0.0-77.0-0.16","3909","7250","22","Male","true","false","false","true","""event"",""trial"",""time""
""fullscreenenter"",""5"",""10420""
","
","
","""event"",""trial"",""time""
""fullscreenenter"",""5"",""10420""
","
","286","","49","","","3000","1","","","images/earth.jpg","images/rocket2","images/rocket1","null","images/rocket1","","1","real","null","1","","",""
"d3-animate-choice","185","482535","0.0-77.0-1.16","3909","7250","22","Male","true","false","false","true","""event"",""trial"",""time""
""fullscreenenter"",""5"",""10420""
","
","
","""event"",""trial"",""time""
""fullscreenenter"",""5"",""10420""
","
","272.8999999985099","","48","","","3000","1","","","images/purpleplanet.jpg","images/alien4","images/alien3","images/rocket1","images/alien4","images/t.png","2","real","true","2","common","1","2023-03-07 23:06:58.454"
"two-step-fixation","186","483539","0.0-77.0-2.16","3909","7250","22","Male","true","false","false","true","""event"",""trial"",""time""
""fullscreenenter"",""5"",""10420""
","
","
","""event"",""trial"",""time""
""fullscreenenter"",""5"",""10420""
","
","","images/earth.jpg","","","","","","","","","","","","","","fixation","","","","","",""
"d3-animate-choice","187","485818","0.0-77.0-0.17","3909","7250","22","Male","true","false","false","true","""event"",""trial"",""time""
""fullscreenenter"",""5"",""10420""
","
","
","""event"",""trial"",""time""
""fullscreenenter"",""5"",""10420""
","
","272.69999999925494","","49","","","3000","1","","","images/earth.jpg","images/rocket2","images/rocket1","null","images/rocket1","","1","real","null","1","","",""
"d3-animate-choice","188","488149","0.0-77.0-1.17","3909","7250","22","Male","true","false","false","true","""event"",""trial"",""time""
""fullscreenenter"",""5"",""10420""
","
","
","""event"",""trial"",""time""
""fullscreenenter"",""5"",""10420""
","
","324.80000000074506","","48","","","3000","1","","","images/purpleplanet.jpg","images/alien4","images/alien3","images/rocket1","images/alien4","images/nothing.png","2","real","true","2","common","0","2023-03-07 23:07:04.068"
"two-step-fixation","189","489155","0.0-77.0-2.17","3909","7250","22","Male","true","false","false","true","""event"",""trial"",""time""
""fullscreenenter"",""5"",""10420""
","
","
","""event"",""trial"",""time""
""fullscreenenter"",""5"",""10420""
","
","","images/earth.jpg","","","","","","","","","","","","","","fixation","","","","","",""
"d3-animate-choice","190","491496","0.0-77.0-0.18","3909","7250","22","Male","true","false","false","true","""event"",""trial"",""time""
""fullscreenenter"",""5"",""10420""
","
","
","""event"",""trial"",""time""
""fullscreenenter"",""5"",""10420""
","
","334","","49","","","3000","1","","","images/earth.jpg","images/rocket2","images/rocket1","null","images/rocket1","","1","real","null","1","","",""
"d3-animate-choice","191","494793","0.0-77.0-1.18","3909","7250","22","Male","true","false","false","true","""event"",""trial"",""time""
""fullscreenenter"",""5"",""10420""
","
","
","""event"",""trial"",""time""
""fullscreenenter"",""5"",""10420""
","
","1291.2999999988824","","49","","","3000","1","","","images/redplanet1.jpg","images/alien2","images/alien1","images/rocket1","images/alien1","images/nothing.png","2","real","false","1","rare","0","2023-03-07 23:07:10.712"
"two-step-fixation","192","495797","0.0-77.0-2.18","3909","7250","22","Male","true","false","false","true","""event"",""trial"",""time""
""fullscreenenter"",""5"",""10420""
","
","
","""event"",""trial"",""time""
""fullscreenenter"",""5"",""10420""
","
","","images/earth.jpg","","","","","","","","","","","","","","fixation","","","","","",""
"d3-animate-choice","193","498900","0.0-77.0-0.19","3909","7250","22","Male","true","false","false","true","""event"",""trial"",""time""
""fullscreenenter"",""5"",""10420""
","
","
","""event"",""trial"",""time""
""fullscreenenter"",""5"",""10420""
","
","246.7999999988824","","50","","","3000","1","1096","49","images/earth.jpg","images/rocket2","images/rocket1","null","images/rocket1","","1","real","null","","","",""
"d3-animate-choice","194","501260","0.0-77.0-1.19","3909","7250","22","Male","true","false","false","true","""event"",""trial"",""time""
""fullscreenenter"",""5"",""10420""
","
","
","""event"",""trial"",""time""
""fullscreenenter"",""5"",""10420""
","
","354.2999999988824","","48","","","3000","1","","","images/purpleplanet.jpg","images/alien4","images/alien3","images/rocket1","images/alien4","images/t.png","2","real","true","2","common","1","2023-03-07 23:07:17.179"
"two-step-fixation","195","502265","0.0-77.0-2.19","3909","7250","22","Male","true","false","false","true","""event"",""trial"",""time""
""fullscreenenter"",""5"",""10420""
","
","
","""event"",""trial"",""time""
""fullscreenenter"",""5"",""10420""
","
","","images/earth.jpg","","","","","","","","","","","","","","fixation","","","","","",""
"d3-animate-choice","196","504601","0.0-77.0-0.20","3909","7250","22","Male","true","false","false","true","""event"",""trial"",""time""
""fullscreenenter"",""5"",""10420""
","
","
","""event"",""trial"",""time""
""fullscreenenter"",""5"",""10420""
","
","332.5","","49","","","3000","1","1831.2999999988824","48","images/earth.jpg","images/rocket2","images/rocket1","null","images/rocket1","","1","real","null","1","","",""
"d3-animate-choice","197","506996","0.0-77.0-1.20","3909","7250","22","Male","true","false","false","true","""event"",""trial"",""time""
""fullscreenenter"",""5"",""10420""
","
","
","""event"",""trial"",""time""
""fullscreenenter"",""5"",""10420""
","
","388.69999999925494","","48","","","3000","1","","","images/purpleplanet.jpg","images/alien4","images/alien3","images/rocket1","images/alien4","images/t.png","2","real","true","2","common","1","2023-03-07 23:07:22.915"
"two-step-fixation","198","508002","0.0-77.0-2.20","3909","7250","22","Male","true","false","false","true","""event"",""trial"",""time""
""fullscreenenter"",""5"",""10420""
","
","
","""event"",""trial"",""time""
""fullscreenenter"",""5"",""10420""
","
","","images/earth.jpg","","","","","","","","","","","","","","fixation","","","","","",""
"d3-animate-choice","199","510354","0.0-77.0-0.21","3909","7250","22","Male","true","false","false","true","""event"",""trial"",""time""
""fullscreenenter"",""5"",""10420""
","
","
","""event"",""trial"",""time""
""fullscreenenter"",""5"",""10420""
","
","344.69999999925494","","49","","","3000","1","","","images/earth.jpg","images/rocket2","images/rocket1","null","images/rocket1","","1","real","null","1","","",""
"d3-animate-choice","200","512758","0.0-77.0-1.21","3909","7250","22","Male","true","false","false","true","""event"",""trial"",""time""
""fullscreenenter"",""5"",""10420""
","
","
","""event"",""trial"",""time""
""fullscreenenter"",""5"",""10420""
","
","398","","48","","","3000","1","","","images/purpleplanet.jpg","images/alien4","images/alien3","images/rocket1","images/alien4","images/t.png","2","real","true","2","common","1","2023-03-07 23:07:28.677"
"two-step-fixation","201","513763","0.0-77.0-2.21","3909","7250","22","Male","true","false","false","true","""event"",""trial"",""time""
""fullscreenenter"",""5"",""10420""
","
","
","""event"",""trial"",""time""
""fullscreenenter"",""5"",""10420""
","
","","images/earth.jpg","","","","","","","","","","","","","","fixation","","","","","",""
"d3-animate-choice","202","516030","0.0-77.0-0.22","3909","7250","22","Male","true","false","false","true","""event"",""trial"",""time""
""fullscreenenter"",""5"",""10420""
","
","
","""event"",""trial"",""time""
""fullscreenenter"",""5"",""10420""
","
","261.30000000074506","","49","","","3000","1","","","images/earth.jpg","images/rocket2","images/rocket1","null","images/rocket1","","1","real","null","1","","",""
"d3-animate-choice","203","518495","0.0-77.0-1.22","3909","7250","22","Male","true","false","false","true","""event"",""trial"",""time""
""fullscreenenter"",""5"",""10420""
","
","
","""event"",""trial"",""time""
""fullscreenenter"",""5"",""10420""
","
","462","","48","","","3000","1","","","images/purpleplanet.jpg","images/alien4","images/alien3","images/rocket1","images/alien4","images/t.png","2","real","true","2","common","1","2023-03-07 23:07:34.414"
"two-step-fixation","204","519501","0.0-77.0-2.22","3909","7250","22","Male","true","false","false","true","""event"",""trial"",""time""
""fullscreenenter"",""5"",""10420""
","
","
","""event"",""trial"",""time""
""fullscreenenter"",""5"",""10420""
","
","","images/earth.jpg","","","","","","","","","","","","","","fixation","","","","","",""
"d3-animate-choice","205","521843","0.0-77.0-0.23","3909","7250","22","Male","true","false","false","true","""event"",""trial"",""time""
""fullscreenenter"",""5"",""10420""
","
","
","""event"",""trial"",""time""
""fullscreenenter"",""5"",""10420""
","
","335.5","","49","","","3000","1","","","images/earth.jpg","images/rocket2","images/rocket1","null","images/rocket1","","1","real","null","1","","",""
"d3-animate-choice","206","524909","0.0-77.0-1.23","3909","7250","22","Male","true","false","false","true","""event"",""trial"",""time""
""fullscreenenter"",""5"",""10420""
","
","
","""event"",""trial"",""time""
""fullscreenenter"",""5"",""10420""
","
","1060.6000000014901","","49","","","3000","1","","","images/redplanet1.jpg","images/alien2","images/alien1","images/rocket1","images/alien1","images/t.png","2","real","false","1","rare","1","2023-03-07 23:07:40.828"
"two-step-fixation","207","525915","0.0-77.0-2.23","3909","7250","22","Male","true","false","false","true","""event"",""trial"",""time""
""fullscreenenter"",""5"",""10420""
","
","
","""event"",""trial"",""time""
""fullscreenenter"",""5"",""10420""
","
","","images/earth.jpg","","","","","","","","","","","","","","fixation","","","","","",""
"d3-animate-choice","208","528331","0.0-77.0-0.24","3909","7250","22","Male","true","false","false","true","""event"",""trial"",""time""
""fullscreenenter"",""5"",""10420""
","
","
","""event"",""trial"",""time""
""fullscreenenter"",""5"",""10420""
","
","409.2000000011176","","49","","","3000","1","","","images/earth.jpg","images/rocket2","images/rocket1","null","images/rocket1","","1","real","null","1","","",""
"d3-animate-choice","209","531278","0.0-77.0-1.24","3909","7250","22","Male","true","false","false","true","""event"",""trial"",""time""
""fullscreenenter"",""5"",""10420""
","
","
","""event"",""trial"",""time""
""fullscreenenter"",""5"",""10420""
","
","944.7999999988824","","49","","","3000","1","","","images/redplanet1.jpg","images/alien2","images/alien1","images/rocket1","images/alien1","images/t.png","2","real","false","1","rare","1","2023-03-07 23:07:47.197"
"two-step-fixation","210","532283","0.0-77.0-2.24","3909","7250","22","Male","true","false","false","true","""event"",""trial"",""time""
""fullscreenenter"",""5"",""10420""
","
","
","""event"",""trial"",""time""
""fullscreenenter"",""5"",""10420""
","
","","images/earth.jpg","","","","","","","","","","","","","","fixation","","","","","",""
"d3-animate-choice","211","534585","0.0-77.0-0.25","3909","7250","22","Male","true","false","false","true","""event"",""trial"",""time""
""fullscreenenter"",""5"",""10420""
","
","
","""event"",""trial"",""time""
""fullscreenenter"",""5"",""10420""
","
","295.30000000074506","","48","","","3000","1","","","images/earth.jpg","images/rocket2","images/rocket1","null","images/rocket2","","1","real","null","2","","",""
"d3-animate-choice","212","537170","0.0-77.0-1.25","3909","7250","22","Male","true","false","false","true","""event"",""trial"",""time""
""fullscreenenter"",""5"",""10420""
","
","
","""event"",""trial"",""time""
""fullscreenenter"",""5"",""10420""
","
","581.6000000014901","","49","","","3000","1","","","images/redplanet1.jpg","images/alien2","images/alien1","images/rocket2","images/alien1","images/nothing.png","2","real","true","1","common","0","2023-03-07 23:07:53.089"
"two-step-fixation","213","538173","0.0-77.0-2.25","3909","7250","22","Male","true","false","false","true","""event"",""trial"",""time""
""fullscreenenter"",""5"",""10420""
","
","
","""event"",""trial"",""time""
""fullscreenenter"",""5"",""10420""
","
","","images/earth.jpg","","","","","","","","","","","","","","fixation","","","","","",""
"d3-animate-choice","214","540426","0.0-77.0-0.26","3909","7250","22","Male","true","false","false","true","""event"",""trial"",""time""
""fullscreenenter"",""5"",""10420""
","
","
","""event"",""trial"",""time""
""fullscreenenter"",""5"",""10420""
","
","248.40000000037253","","49","","","3000","1","","","images/earth.jpg","images/rocket2","images/rocket1","null","images/rocket1","","1","real","null","1","","",""
"d3-animate-choice","215","543584","0.0-77.0-1.26","3909","7250","22","Male","true","false","false","true","""event"",""trial"",""time""
""fullscreenenter"",""5"",""10420""
","
","
","""event"",""trial"",""time""
""fullscreenenter"",""5"",""10420""
","
","1154.2999999988824","","49","","","3000","1","","","images/redplanet1.jpg","images/alien2","images/alien1","images/rocket1","images/alien1","images/nothing.png","2","real","false","1","rare","0","2023-03-07 23:07:59.503"
"two-step-fixation","216","544588","0.0-77.0-2.26","3909","7250","22","Male","true","false","false","true","""event"",""trial"",""time""
""fullscreenenter"",""5"",""10420""
","
","
","""event"",""trial"",""time""
""fullscreenenter"",""5"",""10420""
","
","","images/earth.jpg","","","","","","","","","","","","","","fixation","","","","","",""
"d3-animate-choice","217","546853","0.0-77.0-0.27","3909","7250","22","Male","true","false","false","true","""event"",""trial"",""time""
""fullscreenenter"",""5"",""10420""
","
","
","""event"",""trial"",""time""
""fullscreenenter"",""5"",""10420""
","
","258.59999999962747","","49","","","3000","1","","","images/earth.jpg","images/rocket2","images/rocket1","null","images/rocket1","","1","real","null","1","","",""
"d3-animate-choice","218","549276","0.0-77.0-1.27","3909","7250","22","Male","true","false","false","true","""event"",""trial"",""time""
""fullscreenenter"",""5"",""10420""
","
","
","""event"",""trial"",""time""
""fullscreenenter"",""5"",""10420""
","
","419.5","","48","","","3000","1","","","images/purpleplanet.jpg","images/alien4","images/alien3","images/rocket1","images/alien4","images/nothing.png","2","real","true","2","common","0","2023-03-07 23:08:05.195"
"two-step-fixation","219","550282","0.0-77.0-2.27","3909","7250","22","Male","true","false","false","true","""event"",""trial"",""time""
""fullscreenenter"",""5"",""10420""
","
","
","""event"",""trial"",""time""
""fullscreenenter"",""5"",""10420""
","
","","images/earth.jpg","","","","","","","","","","","","","","fixation","","","","","",""
"d3-animate-choice","220","552743","0.0-77.0-0.28","3909","7250","22","Male","true","false","false","true","""event"",""trial"",""time""
""fullscreenenter"",""5"",""10420""
","
","
","""event"",""trial"",""time""
""fullscreenenter"",""5"",""10420""
","
","455","","49","","","3000","1","","","images/earth.jpg","images/rocket2","images/rocket1","null","images/rocket1","","1","real","null","1","","",""
"d3-animate-choice","221","555401","0.0-77.0-1.28","3909","7250","22","Male","true","false","false","true","""event"",""trial"",""time""
""fullscreenenter"",""5"",""10420""
","
","
","""event"",""trial"",""time""
""fullscreenenter"",""5"",""10420""
","
","652.1999999992549","","48","","","3000","1","","","images/purpleplanet.jpg","images/alien4","images/alien3","images/rocket1","images/alien4","images/t.png","2","real","true","2","common","1","2023-03-07 23:08:11.321"
"two-step-fixation","222","556405","0.0-77.0-2.28","3909","7250","22","Male","true","false","false","true","""event"",""trial"",""time""
""fullscreenenter"",""5"",""10420""
","
","
","""event"",""trial"",""time""
""fullscreenenter"",""5"",""10420""
","
","","images/earth.jpg","","","","","","","","","","","","","","fixation","","","","","",""
"d3-animate-choice","223","559097","0.0-77.0-0.29","3909","7250","22","Male","true","false","false","true","""event"",""trial"",""time""
""fullscreenenter"",""5"",""10420""
","
","
","""event"",""trial"",""time""
""fullscreenenter"",""5"",""10420""
","
","686.0999999996275","","49","","","3000","1","","","images/earth.jpg","images/rocket2","images/rocket1","null","images/rocket1","","1","real","null","1","","",""
"d3-animate-choice","224","561524","0.0-77.0-1.29","3909","7250","22","Male","true","false","false","true","""event"",""trial"",""time""
""fullscreenenter"",""5"",""10420""
","
","
","""event"",""trial"",""time""
""fullscreenenter"",""5"",""10420""
","
","424.2999999988824","","48","","","3000","1","","","images/purpleplanet.jpg","images/alien4","images/alien3","images/rocket1","images/alien4","images/t.png","2","real","true","2","common","1","2023-03-07 23:08:17.444"
"two-step-fixation","225","562530","0.0-77.0-2.29","3909","7250","22","Male","true","false","false","true","""event"",""trial"",""time""
""fullscreenenter"",""5"",""10420""
","
","
","""event"",""trial"",""time""
""fullscreenenter"",""5"",""10420""
","
","","images/earth.jpg","","","","","","","","","","","","","","fixation","","","","","",""
"d3-animate-choice","226","565305","0.0-77.0-0.30","3909","7250","22","Male","true","false","false","true","""event"",""trial"",""time""
""fullscreenenter"",""5"",""10420""
","
","
","""event"",""trial"",""time""
""fullscreenenter"",""5"",""10420""
","
","771.8000000007451","","49","","","3000","1","","","images/earth.jpg","images/rocket2","images/rocket1","null","images/rocket1","","1","real","null","1","","",""
"d3-animate-choice","227","567955","0.0-77.0-1.30","3909","7250","22","Male","true","false","false","true","""event"",""trial"",""time""
""fullscreenenter"",""5"",""10420""
","
","
","""event"",""trial"",""time""
""fullscreenenter"",""5"",""10420""
","
","643.2999999988824","","48","","","3000","1","","","images/purpleplanet.jpg","images/alien4","images/alien3","images/rocket1","images/alien4","images/t.png","2","real","true","2","common","1","2023-03-07 23:08:23.874"
"two-step-fixation","228","568962","0.0-77.0-2.30","3909","7250","22","Male","true","false","false","true","""event"",""trial"",""time""
""fullscreenenter"",""5"",""10420""
","
","
","""event"",""trial"",""time""
""fullscreenenter"",""5"",""10420""
","
","","images/earth.jpg","","","","","","","","","","","","","","fixation","","","","","",""
"d3-animate-choice","229","571224","0.0-77.0-0.31","3909","7250","22","Male","true","false","false","true","""event"",""trial"",""time""
""fullscreenenter"",""5"",""10420""
","
","
","""event"",""trial"",""time""
""fullscreenenter"",""5"",""10420""
","
","255.59999999962747","","49","","","3000","1","","","images/earth.jpg","images/rocket2","images/rocket1","null","images/rocket1","","1","real","null","1","","",""
"d3-animate-choice","230","573674","0.0-77.0-1.31","3909","7250","22","Male","true","false","false","true","""event"",""trial"",""time""
""fullscreenenter"",""5"",""10420""
","
","
","""event"",""trial"",""time""
""fullscreenenter"",""5"",""10420""
","
","446.7000000011176","","48","","","3000","1","","","images/purpleplanet.jpg","images/alien4","images/alien3","images/rocket1","images/alien4","images/t.png","2","real","true","2","common","1","2023-03-07 23:08:29.593"
"two-step-fixation","231","574680","0.0-77.0-2.31","3909","7250","22","Male","true","false","false","true","""event"",""trial"",""time""
""fullscreenenter"",""5"",""10420""
","
","
","""event"",""trial"",""time""
""fullscreenenter"",""5"",""10420""
","
","","images/earth.jpg","","","","","","","","","","","","","","fixation","","","","","",""
"d3-animate-choice","232","577124","0.0-77.0-0.32","3909","7250","22","Male","true","false","false","true","""event"",""trial"",""time""
""fullscreenenter"",""5"",""10420""
","
","
","""event"",""trial"",""time""
""fullscreenenter"",""5"",""10420""
","
","437.8999999985099","","49","","","3000","1","","","images/earth.jpg","images/rocket2","images/rocket1","null","images/rocket1","","1","real","null","1","","",""
"d3-animate-choice","233","579884","0.0-77.0-1.32","3909","7250","22","Male","true","false","false","true","""event"",""trial"",""time""
""fullscreenenter"",""5"",""10420""
","
","
","""event"",""trial"",""time""
""fullscreenenter"",""5"",""10420""
","
","753.1999999992549","","48","","","3000","1","","","images/purpleplanet.jpg","images/alien4","images/alien3","images/rocket1","images/alien4","images/t.png","2","real","true","2","common","1","2023-03-07 23:08:35.803"
"two-step-fixation","234","580890","0.0-77.0-2.32","3909","7250","22","Male","true","false","false","true","""event"",""trial"",""time""
""fullscreenenter"",""5"",""10420""
","
","
","""event"",""trial"",""time""
""fullscreenenter"",""5"",""10420""
","
","","images/earth.jpg","","","","","","","","","","","","","","fixation","","","","","",""
"d3-animate-choice","235","583389","0.0-77.0-0.33","3909","7250","22","Male","true","false","false","true","""event"",""trial"",""time""
""fullscreenenter"",""5"",""10420""
","
","
","""event"",""trial"",""time""
""fullscreenenter"",""5"",""10420""
","
","492.19999999925494","","49","","","3000","1","","","images/earth.jpg","images/rocket2","images/rocket1","null","images/rocket1","","1","real","null","1","","",""
"d3-animate-choice","236","585660","0.0-77.0-1.33","3909","7250","22","Male","true","false","false","true","""event"",""trial"",""time""
""fullscreenenter"",""5"",""10420""
","
","
","""event"",""trial"",""time""
""fullscreenenter"",""5"",""10420""
","
","266.2999999988824","","48","","","3000","1","","","images/purpleplanet.jpg","images/alien4","images/alien3","images/rocket1","images/alien4","images/t.png","2","real","true","2","common","1","2023-03-07 23:08:41.579"
"two-step-fixation","237","586663","0.0-77.0-2.33","3909","7250","22","Male","true","false","false","true","""event"",""trial"",""time""
""fullscreenenter"",""5"",""10420""
","
","
","""event"",""trial"",""time""
""fullscreenenter"",""5"",""10420""
","
","","images/earth.jpg","","","","","","","","","","","","","","fixation","","","","","",""
"d3-animate-choice","238","589003","0.0-77.0-0.34","3909","7250","22","Male","true","false","false","true","""event"",""trial"",""time""
""fullscreenenter"",""5"",""10420""
","
","
","""event"",""trial"",""time""
""fullscreenenter"",""5"",""10420""
","
","336","","49","","","3000","1","","","images/earth.jpg","images/rocket2","images/rocket1","null","images/rocket1","","1","real","null","1","","",""
"d3-animate-choice","239","591401","0.0-77.0-1.34","3909","7250","22","Male","true","false","false","true","""event"",""trial"",""time""
""fullscreenenter"",""5"",""10420""
","
","
","""event"",""trial"",""time""
""fullscreenenter"",""5"",""10420""
","
","391.30000000074506","","48","","","3000","1","","","images/purpleplanet.jpg","images/alien4","images/alien3","images/rocket1","images/alien4","images/nothing.png","2","real","true","2","common","0","2023-03-07 23:08:47.320"
"two-step-fixation","240","592407","0.0-77.0-2.34","3909","7250","22","Male","true","false","false","true","""event"",""trial"",""time""
""fullscreenenter"",""5"",""10420""
","
","
","""event"",""trial"",""time""
""fullscreenenter"",""5"",""10420""
","
","","images/earth.jpg","","","","","","","","","","","","","","fixation","","","","","",""
"d3-animate-choice","241","594727","0.0-77.0-0.35","3909","7250","22","Male","true","false","false","true","""event"",""trial"",""time""
""fullscreenenter"",""5"",""10420""
","
","
","""event"",""trial"",""time""
""fullscreenenter"",""5"",""10420""
","
","312.40000000037253","","49","","","3000","1","","","images/earth.jpg","images/rocket2","images/rocket1","null","images/rocket1","","1","real","null","1","","",""
"d3-animate-choice","242","597072","0.0-77.0-1.35","3909","7250","22","Male","true","false","false","true","""event"",""trial"",""time""
""fullscreenenter"",""5"",""10420""
","
","
","""event"",""trial"",""time""
""fullscreenenter"",""5"",""10420""
","
","340.09999999962747","","48","","","3000","1","","","images/purpleplanet.jpg","images/alien4","images/alien3","images/rocket1","images/alien4","images/t.png","2","real","true","2","common","1","2023-03-07 23:08:52.991"
"two-step-fixation","243","598078","0.0-77.0-2.35","3909","7250","22","Male","true","false","false","true","""event"",""trial"",""time""
""fullscreenenter"",""5"",""10420""
","
","
","""event"",""trial"",""time""
""fullscreenenter"",""5"",""10420""
","
","","images/earth.jpg","","","","","","","","","","","","","","fixation","","","","","",""
"d3-animate-choice","244","600588","0.0-77.0-0.36","3909","7250","22","Male","true","false","false","true","""event"",""trial"",""time""
""fullscreenenter"",""5"",""10420""
","
","
","""event"",""trial"",""time""
""fullscreenenter"",""5"",""10420""
","
","502.7000000011176","","49","","","3000","1","","","images/earth.jpg","images/rocket2","images/rocket1","null","images/rocket1","","1","real","null","1","","",""
"d3-animate-choice","245","603057","0.0-77.0-1.36","3909","7250","22","Male","true","false","false","true","""event"",""trial"",""time""
""fullscreenenter"",""5"",""10420""
","
","
","""event"",""trial"",""time""
""fullscreenenter"",""5"",""10420""
","
","463.1000000014901","","48","","","3000","1","","","images/purpleplanet.jpg","images/alien4","images/alien3","images/rocket1","images/alien4","images/t.png","2","real","true","2","common","1","2023-03-07 23:08:58.976"
"two-step-fixation","246","604060","0.0-77.0-2.36","3909","7250","22","Male","true","false","false","true","""event"",""trial"",""time""
""fullscreenenter"",""5"",""10420""
","
","
","""event"",""trial"",""time""
""fullscreenenter"",""5"",""10420""
","
","","images/earth.jpg","","","","","","","","","","","","","","fixation","","","","","",""
