"trial_type","trial_index","time_elapsed","internal_node_id","participant_id","subject_id","age","gender","rocket_sides","red_planet_first_rocket","red_display_order","purple_display_order","interactions","blur_events","focus_events","fullscreenenter_events","fullscreenexit_events","rt","stimulus","key_press","button_pressed","success","duration","valid_pressed","rts","keys","planet_text","right_text","left_text","center_text","chosen_text","reward_text","trial_stage","practice_trial","transition_type","choice","transition","reward","timestamp"
"pavlovia","0","4","0.0-0.0","1249","1350","16","Female","false","true","true","true","
","
","
","
","
","","","","","","","","","","","","","","","","","","","","","",""
"html-keyboard-response","1","2008","0.0-1.0","1249","1350","16","Female","false","true","true","true","
","
","
","
","
","2002.7999999970198","Welcome! Press the space bar to begin.","32","","","","","","","","","","","","","","","","","","",""
"audio-keyboard-response","2","5201","0.0-2.0","1249","1350","16","Female","false","true","true","true","
","
","
","
","
","3099","audio/beep_loop.wav","32","","","","","","","","","","","","","","","","","","",""
"audio-button-response","3","7301","0.0-3.0","1249","1350","16","Female","false","true","true","true","
","
","
","
","
","NaN","audio/fish.mp3","","1","","","","","","","","","","","","","","","","","",""
"audio-button-response","4","10010","0.0-4.0","1249","1350","16","Female","false","true","true","true","""event"",""trial"",""time""
""fullscreenenter"",""5"",""13201""
","
","
","""event"",""trial"",""time""
""fullscreenenter"",""5"",""13201""
","
","NaN","audio/tiger.mp3","","4","","","","","","","","","","","","","","","","","",""
"fullscreen","5","14147","0.0-5.0","1249","1350","16","Female","false","true","true","true","""event"",""trial"",""time""
""fullscreenenter"",""5"",""13201""
","
","
","""event"",""trial"",""time""
""fullscreenenter"",""5"",""13201""
","
","","","","","true","","","","","","","","","","","","","","","","",""
"d3-instructions","6","24925","0.0-6.0","1249","1350","16","Female","false","true","true","true","""event"",""trial"",""time""
""fullscreenenter"",""5"",""13201""
","
","
","""event"",""trial"",""time""
""fullscreenenter"",""5"",""13201""
","
","","","","","","","","","","","","","","","","","","","","","",""
"d3-instructions","7","31831","0.0-7.0","1249","1350","16","Female","false","true","true","true","""event"",""trial"",""time""
""fullscreenenter"",""5"",""13201""
","
","
","""event"",""trial"",""time""
""fullscreenenter"",""5"",""13201""
","
","","","","","","","","","","","","","","","","","","","","","",""
"d3-instructions","8","38200","0.0-8.0","1249","1350","16","Female","false","true","true","true","""event"",""trial"",""time""
""fullscreenenter"",""5"",""13201""
","
","
","""event"",""trial"",""time""
""fullscreenenter"",""5"",""13201""
","
","","","","","","","","","","","","","","","","","","","","","",""
"d3-instructions","9","44963","0.0-9.0","1249","1350","16","Female","false","true","true","true","""event"",""trial"",""time""
""fullscreenenter"",""5"",""13201""
","
","
","""event"",""trial"",""time""
""fullscreenenter"",""5"",""13201""
","
","","","","","","","","","","","","","","","","","","","","","",""
"d3-instructions","10","62364","0.0-10.0","1249","1350","16","Female","false","true","true","true","""event"",""trial"",""time""
""fullscreenenter"",""5"",""13201""
","
","
","""event"",""trial"",""time""
""fullscreenenter"",""5"",""13201""
","
","","","","","","","","","","","","","","","","","","","","","",""
"d3-animate-choice","11","65352","0.0-11.0","1249","1350","16","Female","false","true","true","true","""event"",""trial"",""time""
""fullscreenenter"",""5"",""13201""
","
","
","""event"",""trial"",""time""
""fullscreenenter"",""5"",""13201""
","
","982.6000000014901","","49","","","3000","1","2180.3000000044703","32","images/tutgreenplanet.jpg","images/tutalien1","images/tutalien2","null","images/tutalien2","","NA","practice","null","","","",""
"d3-animate-choice","12","68241","0.0-12.0","1249","1350","16","Female","false","true","true","true","""event"",""trial"",""time""
""fullscreenenter"",""5"",""13201""
","
","
","""event"",""trial"",""time""
""fullscreenenter"",""5"",""13201""
","
","886.3000000044703","","48","","","3000","1","","","images/tutgreenplanet.jpg","images/tutalien1","images/tutalien2","null","images/tutalien1","","NA","practice","null","","","",""
"d3-animate-choice","13","70988","0.0-13.0","1249","1350","16","Female","false","true","true","true","""event"",""trial"",""time""
""fullscreenenter"",""5"",""13201""
","
","
","""event"",""trial"",""time""
""fullscreenenter"",""5"",""13201""
","
","743.4000000059605","","49","","","3000","1","2208.4000000059605","48","images/tutgreenplanet.jpg","images/tutalien1","images/tutalien2","null","images/tutalien2","","NA","practice","null","","","",""
"d3-animate-choice","14","73310","0.0-14.0","1249","1350","16","Female","false","true","true","true","""event"",""trial"",""time""
""fullscreenenter"",""5"",""13201""
","
","
","""event"",""trial"",""time""
""fullscreenenter"",""5"",""13201""
","
","318.6000000014901","","48","","","3000","1","","","images/tutgreenplanet.jpg","images/tutalien1","images/tutalien2","null","images/tutalien1","","NA","practice","null","","","",""
"d3-instructions","15","79646","0.0-15.0","1249","1350","16","Female","false","true","true","true","""event"",""trial"",""time""
""fullscreenenter"",""5"",""13201""
","
","
","""event"",""trial"",""time""
""fullscreenenter"",""5"",""13201""
","
","","","","","","","","","","","","","","","","","","","","","",""
"d3-instructions","16","84120","0.0-16.0","1249","1350","16","Female","false","true","true","true","""event"",""trial"",""time""
""fullscreenenter"",""5"",""13201""
","
","
","""event"",""trial"",""time""
""fullscreenenter"",""5"",""13201""
","
","","","","","","","","","","","","","","","","","","","","","",""
"d3-instructions","17","91302","0.0-17.0","1249","1350","16","Female","false","true","true","true","""event"",""trial"",""time""
""fullscreenenter"",""5"",""13201""
","
","
","""event"",""trial"",""time""
""fullscreenenter"",""5"",""13201""
","
","","","","","","","","","","","","","","","","","","","","","",""
"d3-instructions","18","98001","0.0-18.0","1249","1350","16","Female","false","true","true","true","""event"",""trial"",""time""
""fullscreenenter"",""5"",""13201""
","
","
","""event"",""trial"",""time""
""fullscreenenter"",""5"",""13201""
","
","","","","","","","","","","","","","","","","","","","","","",""
"d3-instructions","19","105962","0.0-19.0","1249","1350","16","Female","false","true","true","true","""event"",""trial"",""time""
""fullscreenenter"",""5"",""13201""
","
","
","""event"",""trial"",""time""
""fullscreenenter"",""5"",""13201""
","
","","","","","","","","","","","","","","","","","","","","","",""
"d3-animate-choice","20","108770","0.0-20.0","1249","1350","16","Female","false","true","true","true","""event"",""trial"",""time""
""fullscreenenter"",""5"",""13201""
","
","
","""event"",""trial"",""time""
""fullscreenenter"",""5"",""13201""
","
","804.5","","49","","","3000","1","","","images/tutyellowplanet.jpg","null","images/tutalien3","null","images/tutalien3","images/t.png","NA","practice","null","","","",""
"d3-animate-choice","21","111427","0.0-21.0","1249","1350","16","Female","false","true","true","true","""event"",""trial"",""time""
""fullscreenenter"",""5"",""13201""
","
","
","""event"",""trial"",""time""
""fullscreenenter"",""5"",""13201""
","
","650.6000000014901","","49","","","3000","1","","","images/tutyellowplanet.jpg","null","images/tutalien3","null","images/tutalien3","images/nothing.png","NA","practice","null","","","",""
"d3-animate-choice","22","113677","0.0-22.0","1249","1350","16","Female","false","true","true","true","""event"",""trial"",""time""
""fullscreenenter"",""5"",""13201""
","
","
","""event"",""trial"",""time""
""fullscreenenter"",""5"",""13201""
","
","247.19999999552965","","49","","","3000","1","","","images/tutyellowplanet.jpg","null","images/tutalien3","null","images/tutalien3","images/nothing.png","NA","practice","null","","","",""
"d3-animate-choice","23","115965","0.0-23.0","1249","1350","16","Female","false","true","true","true","""event"",""trial"",""time""
""fullscreenenter"",""5"",""13201""
","
","
","""event"",""trial"",""time""
""fullscreenenter"",""5"",""13201""
","
","285.79999999701977","","49","","","3000","1","","","images/tutyellowplanet.jpg","null","images/tutalien3","null","images/tutalien3","images/t.png","NA","practice","null","","","",""
"d3-animate-choice","24","118230","0.0-24.0","1249","1350","16","Female","false","true","true","true","""event"",""trial"",""time""
""fullscreenenter"",""5"",""13201""
","
","
","""event"",""trial"",""time""
""fullscreenenter"",""5"",""13201""
","
","261.70000000298023","","49","","","3000","1","","","images/tutyellowplanet.jpg","null","images/tutalien3","null","images/tutalien3","images/t.png","NA","practice","null","","","",""
"d3-animate-choice","25","120464","0.0-25.0","1249","1350","16","Female","false","true","true","true","""event"",""trial"",""time""
""fullscreenenter"",""5"",""13201""
","
","
","""event"",""trial"",""time""
""fullscreenenter"",""5"",""13201""
","
","231.69999999552965","","49","","","3000","1","","","images/tutyellowplanet.jpg","null","images/tutalien3","null","images/tutalien3","images/t.png","NA","practice","null","","","",""
"d3-animate-choice","26","122637","0.0-26.0","1249","1350","16","Female","false","true","true","true","""event"",""trial"",""time""
""fullscreenenter"",""5"",""13201""
","
","
","""event"",""trial"",""time""
""fullscreenenter"",""5"",""13201""
","
","170.90000000596046","","49","","","3000","1","","","images/tutyellowplanet.jpg","null","images/tutalien3","null","images/tutalien3","images/t.png","NA","practice","null","","","",""
"d3-animate-choice","27","124861","0.0-27.0","1249","1350","16","Female","false","true","true","true","""event"",""trial"",""time""
""fullscreenenter"",""5"",""13201""
","
","
","""event"",""trial"",""time""
""fullscreenenter"",""5"",""13201""
","
","221.19999999552965","","49","","","3000","1","","","images/tutyellowplanet.jpg","null","images/tutalien3","null","images/tutalien3","images/t.png","NA","practice","null","","","",""
"d3-animate-choice","28","127119","0.0-28.0","1249","1350","16","Female","false","true","true","true","""event"",""trial"",""time""
""fullscreenenter"",""5"",""13201""
","
","
","""event"",""trial"",""time""
""fullscreenenter"",""5"",""13201""
","
","256","","49","","","3000","1","","","images/tutyellowplanet.jpg","null","images/tutalien3","null","images/tutalien3","images/t.png","NA","practice","null","","","",""
"d3-animate-choice","29","129319","0.0-29.0","1249","1350","16","Female","false","true","true","true","""event"",""trial"",""time""
""fullscreenenter"",""5"",""13201""
","
","
","""event"",""trial"",""time""
""fullscreenenter"",""5"",""13201""
","
","195.39999999850988","","49","","","3000","1","","","images/tutyellowplanet.jpg","null","images/tutalien3","null","images/tutalien3","images/t.png","NA","practice","null","","","",""
"d3-instructions","30","131831","0.0-30.0","1249","1350","16","Female","false","true","true","true","""event"",""trial"",""time""
""fullscreenenter"",""5"",""13201""
","
","
","""event"",""trial"",""time""
""fullscreenenter"",""5"",""13201""
","
","","","","","","","","","","","","","","","","","","","","","",""
"d3-instructions","31","139788","0.0-31.0","1249","1350","16","Female","false","true","true","true","""event"",""trial"",""time""
""fullscreenenter"",""5"",""13201""
","
","
","""event"",""trial"",""time""
""fullscreenenter"",""5"",""13201""
","
","","","","","","","","","","","","","","","","","","","","","",""
"d3-instructions","32","144442","0.0-32.0","1249","1350","16","Female","false","true","true","true","""event"",""trial"",""time""
""fullscreenenter"",""5"",""13201""
","
","
","""event"",""trial"",""time""
""fullscreenenter"",""5"",""13201""
","
","","","","","","","","","","","","","","","","","","","","","",""
"d3-instructions","33","147503","0.0-33.0","1249","1350","16","Female","false","true","true","true","""event"",""trial"",""time""
""fullscreenenter"",""5"",""13201""
","
","
","""event"",""trial"",""time""
""fullscreenenter"",""5"",""13201""
","
","","","","","","","","","","","","","","","","","","","","","",""
"d3-animate-choice","34","150343","0.0-34.0","1249","1350","16","Female","false","true","true","true","""event"",""trial"",""time""
""fullscreenenter"",""5"",""13201""
","
","
","""event"",""trial"",""time""
""fullscreenenter"",""5"",""13201""
","
","837.4000000059605","","49","","","3000","1","","","images/tutgreenplanet.jpg","images/tutalien1","images/tutalien2","null","images/tutalien2","images/t.png","NA","practice","null","","","",""
"d3-animate-choice","35","152744","0.0-35.0","1249","1350","16","Female","false","true","true","true","""event"",""trial"",""time""
""fullscreenenter"",""5"",""13201""
","
","
","""event"",""trial"",""time""
""fullscreenenter"",""5"",""13201""
","
","398.6000000014901","","49","","","3000","1","","","images/tutgreenplanet.jpg","images/tutalien1","images/tutalien2","null","images/tutalien2","images/t.png","NA","practice","null","","","",""
"d3-animate-choice","36","155002","0.0-36.0","1249","1350","16","Female","false","true","true","true","""event"",""trial"",""time""
""fullscreenenter"",""5"",""13201""
","
","
","""event"",""trial"",""time""
""fullscreenenter"",""5"",""13201""
","
","251.20000000298023","","49","","","3000","1","1796.2000000029802","49","images/tutgreenplanet.jpg","images/tutalien1","images/tutalien2","null","images/tutalien2","images/t.png","NA","practice","null","","","",""
"d3-animate-choice","37","157255","0.0-37.0","1249","1350","16","Female","false","true","true","true","""event"",""trial"",""time""
""fullscreenenter"",""5"",""13201""
","
","
","""event"",""trial"",""time""
""fullscreenenter"",""5"",""13201""
","
","250.5","","49","","","3000","1","","","images/tutgreenplanet.jpg","images/tutalien1","images/tutalien2","null","images/tutalien2","images/t.png","NA","practice","null","","","",""
"d3-animate-choice","38","159498","0.0-38.0","1249","1350","16","Female","false","true","true","true","""event"",""trial"",""time""
""fullscreenenter"",""5"",""13201""
","
","
","""event"",""trial"",""time""
""fullscreenenter"",""5"",""13201""
","
","240.39999999850988","","49","","","3000","1","","","images/tutgreenplanet.jpg","images/tutalien1","images/tutalien2","null","images/tutalien2","images/t.png","NA","practice","null","","","",""
"d3-animate-choice","39","161686","0.0-39.0","1249","1350","16","Female","false","true","true","true","""event"",""trial"",""time""
""fullscreenenter"",""5"",""13201""
","
","
","""event"",""trial"",""time""
""fullscreenenter"",""5"",""13201""
","
","185.69999999552965","","49","","","3000","1","","","images/tutgreenplanet.jpg","images/tutalien1","images/tutalien2","null","images/tutalien2","images/t.png","NA","practice","null","","","",""
"d3-animate-choice","40","163732","0.0-40.0","1249","1350","16","Female","false","true","true","true","""event"",""trial"",""time""
""fullscreenenter"",""5"",""13201""
","
","
","""event"",""trial"",""time""
""fullscreenenter"",""5"",""13201""
","
","43.099999994039536","","49","","","3000","1","1508","49","images/tutgreenplanet.jpg","images/tutalien1","images/tutalien2","null","images/tutalien2","images/t.png","NA","practice","null","","","",""
"d3-animate-choice","41","165850","0.0-41.0","1249","1350","16","Female","false","true","true","true","""event"",""trial"",""time""
""fullscreenenter"",""5"",""13201""
","
","
","""event"",""trial"",""time""
""fullscreenenter"",""5"",""13201""
","
","114.70000000298023","","49","","","3000","1","1561.3999999985099","49","images/tutgreenplanet.jpg","images/tutalien1","images/tutalien2","null","images/tutalien2","images/t.png","NA","practice","null","","","",""
"d3-animate-choice","42","168099","0.0-42.0","1249","1350","16","Female","false","true","true","true","""event"",""trial"",""time""
""fullscreenenter"",""5"",""13201""
","
","
","""event"",""trial"",""time""
""fullscreenenter"",""5"",""13201""
","
","246.79999999701977","","49","","","3000","1","1649.6999999955297,2114.7999999970198","49,49","images/tutgreenplanet.jpg","images/tutalien1","images/tutalien2","null","images/tutalien2","images/t.png","NA","practice","null","","","",""
"d3-animate-choice","43","170238","0.0-43.0","1249","1350","16","Female","false","true","true","true","""event"",""trial"",""time""
""fullscreenenter"",""5"",""13201""
","
","
","""event"",""trial"",""time""
""fullscreenenter"",""5"",""13201""
","
","136.80000000447035","","49","","","3000","1","","","images/tutgreenplanet.jpg","images/tutalien1","images/tutalien2","null","images/tutalien2","images/t.png","NA","practice","null","","","",""
"d3-instructions","44","176029","0.0-44.0","1249","1350","16","Female","false","true","true","true","""event"",""trial"",""time""
""fullscreenenter"",""5"",""13201""
","
","
","""event"",""trial"",""time""
""fullscreenenter"",""5"",""13201""
","
","","","","","","","","","","","","","","","","","","","","","",""
"d3-instructions","45","178172","0.0-45.0","1249","1350","16","Female","false","true","true","true","""event"",""trial"",""time""
""fullscreenenter"",""5"",""13201""
","
","
","""event"",""trial"",""time""
""fullscreenenter"",""5"",""13201""
","
","","","","","","","","","","","","","","","","","","","","","",""
"d3-instructions","46","182100","0.0-46.0","1249","1350","16","Female","false","true","true","true","""event"",""trial"",""time""
""fullscreenenter"",""5"",""13201""
","
","
","""event"",""trial"",""time""
""fullscreenenter"",""5"",""13201""
","
","","","","","","","","","","","","","","","","","","","","","",""
"d3-instructions","47","192749","0.0-47.0","1249","1350","16","Female","false","true","true","true","""event"",""trial"",""time""
""fullscreenenter"",""5"",""13201""
","
","
","""event"",""trial"",""time""
""fullscreenenter"",""5"",""13201""
","
","","","","","","","","","","","","","","","","","","","","","",""
"d3-instructions","48","200099","0.0-48.0","1249","1350","16","Female","false","true","true","true","""event"",""trial"",""time""
""fullscreenenter"",""5"",""13201""
","
","
","""event"",""trial"",""time""
""fullscreenenter"",""5"",""13201""
","
","","","","","","","","","","","","","","","","","","","","","",""
"d3-instructions","49","209141","0.0-49.0","1249","1350","16","Female","false","true","true","true","""event"",""trial"",""time""
""fullscreenenter"",""5"",""13201""
","
","
","""event"",""trial"",""time""
""fullscreenenter"",""5"",""13201""
","
","","","","","","","","","","","","","","","","","","","","","",""
"d3-instructions","50","213758","0.0-50.0","1249","1350","16","Female","false","true","true","true","""event"",""trial"",""time""
""fullscreenenter"",""5"",""13201""
","
","
","""event"",""trial"",""time""
""fullscreenenter"",""5"",""13201""
","
","","","","","","","","","","","","","","","","","","","","","",""
"d3-instructions","51","215587","0.0-51.0","1249","1350","16","Female","false","true","true","true","""event"",""trial"",""time""
""fullscreenenter"",""5"",""13201""
","
","
","""event"",""trial"",""time""
""fullscreenenter"",""5"",""13201""
","
","","","","","","","","","","","","","","","","","","","","","",""
"d3-instructions","52","216762","0.0-52.0","1249","1350","16","Female","false","true","true","true","""event"",""trial"",""time""
""fullscreenenter"",""5"",""13201""
","
","
","""event"",""trial"",""time""
""fullscreenenter"",""5"",""13201""
","
","","","","","","","","","","","","","","","","","","","","","",""
"d3-instructions","53","223456","0.0-53.0","1249","1350","16","Female","false","true","true","true","""event"",""trial"",""time""
""fullscreenenter"",""5"",""13201""
","
","
","""event"",""trial"",""time""
""fullscreenenter"",""5"",""13201""
","
","","","","","","","","","","","","","","","","","","","","","",""
"d3-instructions","54","232903","0.0-54.0","1249","1350","16","Female","false","true","true","true","""event"",""trial"",""time""
""fullscreenenter"",""5"",""13201""
","
","
","""event"",""trial"",""time""
""fullscreenenter"",""5"",""13201""
","
","","","","","","","","","","","","","","","","","","","","","",""
"d3-instructions","55","238092","0.0-55.0","1249","1350","16","Female","false","true","true","true","""event"",""trial"",""time""
""fullscreenenter"",""5"",""13201""
","
","
","""event"",""trial"",""time""
""fullscreenenter"",""5"",""13201""
","
","","","","","","","","","","","","","","","","","","","","","",""
"d3-instructions","56","245861","0.0-56.0","1249","1350","16","Female","false","true","true","true","""event"",""trial"",""time""
""fullscreenenter"",""5"",""13201""
","
","
","""event"",""trial"",""time""
""fullscreenenter"",""5"",""13201""
","
","","","","","","","","","","","","","","","","","","","","","",""
"d3-instructions","57","250034","0.0-57.0","1249","1350","16","Female","false","true","true","true","""event"",""trial"",""time""
""fullscreenenter"",""5"",""13201""
","
","
","""event"",""trial"",""time""
""fullscreenenter"",""5"",""13201""
","
","","","","","","","","","","","","","","","","","","","","","",""
"d3-instructions","58","254227","0.0-58.0","1249","1350","16","Female","false","true","true","true","""event"",""trial"",""time""
""fullscreenenter"",""5"",""13201""
","
","
","""event"",""trial"",""time""
""fullscreenenter"",""5"",""13201""
","
","","","","","","","","","","","","","","","","","","","","","",""
"d3-instructions","59","256129","0.0-59.0","1249","1350","16","Female","false","true","true","true","""event"",""trial"",""time""
""fullscreenenter"",""5"",""13201""
","
","
","""event"",""trial"",""time""
""fullscreenenter"",""5"",""13201""
","
","","","","","","","","","","","","","","","","","","","","","",""
"d3-instructions","60","258244","0.0-60.0","1249","1350","16","Female","false","true","true","true","""event"",""trial"",""time""
""fullscreenenter"",""5"",""13201""
","
","
","""event"",""trial"",""time""
""fullscreenenter"",""5"",""13201""
","
","","","","","","","","","","","","","","","","","","","","","",""
"d3-animate-choice","61","261315","0.0-61.0-0.0","1249","1350","16","Female","false","true","true","true","""event"",""trial"",""time""
""fullscreenenter"",""5"",""13201""
","
","
","""event"",""trial"",""time""
""fullscreenenter"",""5"",""13201""
","
","1064.6000000014901","","49","","","3000","1","","","images/earth.jpg","images/tutrocket1","images/tutrocket2","null","images/tutrocket2","","1","practice","null","1","","",""
"d3-animate-choice","62","265321","0.0-61.0-1.0","1249","1350","16","Female","false","true","true","true","""event"",""trial"",""time""
""fullscreenenter"",""5"",""13201""
","
","
","""event"",""trial"",""time""
""fullscreenenter"",""5"",""13201""
","
","null","","null","","","3000","0","","","images/tutyellowplanet.jpg","images/tutalien4","images/tutalien3","images/tutrocket2","","","2","practice","true","","common","0","2022-04-15 01:32:27.182"
"two-step-fixation","63","266325","0.0-61.0-2.0","1249","1350","16","Female","false","true","true","true","""event"",""trial"",""time""
""fullscreenenter"",""5"",""13201""
","
","
","""event"",""trial"",""time""
""fullscreenenter"",""5"",""13201""
","
","","images/earth.jpg","","","","","","","","","","","","","","fixation","","","","","",""
"d3-animate-choice","64","269067","0.0-61.0-0.1","1249","1350","16","Female","false","true","true","true","""event"",""trial"",""time""
""fullscreenenter"",""5"",""13201""
","
","
","""event"",""trial"",""time""
""fullscreenenter"",""5"",""13201""
","
","738","","48","","","3000","1","","","images/earth.jpg","images/tutrocket1","images/tutrocket2","null","images/tutrocket1","","1","practice","null","2","","",""
"d3-animate-choice","65","273074","0.0-61.0-1.1","1249","1350","16","Female","false","true","true","true","""event"",""trial"",""time""
""fullscreenenter"",""5"",""13201""
","
","
","""event"",""trial"",""time""
""fullscreenenter"",""5"",""13201""
","
","null","","null","","","3000","0","","","images/tutgreenplanet.jpg","images/tutalien2","images/tutalien1","images/tutrocket1","","","2","practice","true","","common","0","2022-04-15 01:32:34.934"
"two-step-fixation","66","274076","0.0-61.0-2.1","1249","1350","16","Female","false","true","true","true","""event"",""trial"",""time""
""fullscreenenter"",""5"",""13201""
","
","
","""event"",""trial"",""time""
""fullscreenenter"",""5"",""13201""
","
","","images/earth.jpg","","","","","","","","","","","","","","fixation","","","","","",""
"d3-animate-choice","67","276364","0.0-61.0-0.2","1249","1350","16","Female","false","true","true","true","""event"",""trial"",""time""
""fullscreenenter"",""5"",""13201""
","
","
","""event"",""trial"",""time""
""fullscreenenter"",""5"",""13201""
","
","285.09999999403954","","49","","","3000","1","","","images/earth.jpg","images/tutrocket1","images/tutrocket2","null","images/tutrocket2","","1","practice","null","1","","",""
"d3-animate-choice","68","280368","0.0-61.0-1.2","1249","1350","16","Female","false","true","true","true","""event"",""trial"",""time""
""fullscreenenter"",""5"",""13201""
","
","
","""event"",""trial"",""time""
""fullscreenenter"",""5"",""13201""
","
","null","","null","","","3000","0","","","images/tutgreenplanet.jpg","images/tutalien2","images/tutalien1","images/tutrocket2","","","2","practice","false","","rare","0","2022-04-15 01:32:42.228"
"two-step-fixation","69","281371","0.0-61.0-2.2","1249","1350","16","Female","false","true","true","true","""event"",""trial"",""time""
""fullscreenenter"",""5"",""13201""
","
","
","""event"",""trial"",""time""
""fullscreenenter"",""5"",""13201""
","
","","images/earth.jpg","","","","","","","","","","","","","","fixation","","","","","",""
"d3-animate-choice","70","283722","0.0-61.0-0.3","1249","1350","16","Female","false","true","true","true","""event"",""trial"",""time""
""fullscreenenter"",""5"",""13201""
","
","
","""event"",""trial"",""time""
""fullscreenenter"",""5"",""13201""
","
","348.70000000298023","","49","","","3000","1","","","images/earth.jpg","images/tutrocket1","images/tutrocket2","null","images/tutrocket2","","1","practice","null","1","","",""
"d3-animate-choice","71","287727","0.0-61.0-1.3","1249","1350","16","Female","false","true","true","true","""event"",""trial"",""time""
""fullscreenenter"",""5"",""13201""
","
","
","""event"",""trial"",""time""
""fullscreenenter"",""5"",""13201""
","
","null","","null","","","3000","0","","","images/tutyellowplanet.jpg","images/tutalien4","images/tutalien3","images/tutrocket2","","","2","practice","true","","common","0","2022-04-15 01:32:49.587"
"two-step-fixation","72","288729","0.0-61.0-2.3","1249","1350","16","Female","false","true","true","true","""event"",""trial"",""time""
""fullscreenenter"",""5"",""13201""
","
","
","""event"",""trial"",""time""
""fullscreenenter"",""5"",""13201""
","
","","images/earth.jpg","","","","","","","","","","","","","","fixation","","","","","",""
"d3-animate-choice","73","290989","0.0-61.0-0.4","1249","1350","16","Female","false","true","true","true","""event"",""trial"",""time""
""fullscreenenter"",""5"",""13201""
","
","
","""event"",""trial"",""time""
""fullscreenenter"",""5"",""13201""
","
","256.09999999403954","","48","","","3000","1","","","images/earth.jpg","images/tutrocket1","images/tutrocket2","null","images/tutrocket1","","1","practice","null","2","","",""
"d3-animate-choice","74","294998","0.0-61.0-1.4","1249","1350","16","Female","false","true","true","true","""event"",""trial"",""time""
""fullscreenenter"",""5"",""13201""
","
","
","""event"",""trial"",""time""
""fullscreenenter"",""5"",""13201""
","
","null","","null","","","3000","0","","","images/tutyellowplanet.jpg","images/tutalien4","images/tutalien3","images/tutrocket1","","","2","practice","false","","rare","0","2022-04-15 01:32:56.858"
"two-step-fixation","75","296002","0.0-61.0-2.4","1249","1350","16","Female","false","true","true","true","""event"",""trial"",""time""
""fullscreenenter"",""5"",""13201""
","
","
","""event"",""trial"",""time""
""fullscreenenter"",""5"",""13201""
","
","","images/earth.jpg","","","","","","","","","","","","","","fixation","","","","","",""
"d3-animate-choice","76","298338","0.0-61.0-0.5","1249","1350","16","Female","false","true","true","true","""event"",""trial"",""time""
""fullscreenenter"",""5"",""13201""
","
","
","""event"",""trial"",""time""
""fullscreenenter"",""5"",""13201""
","
","331","","48","","","3000","1","","","images/earth.jpg","images/tutrocket1","images/tutrocket2","null","images/tutrocket1","","1","practice","null","2","","",""
"d3-animate-choice","77","302343","0.0-61.0-1.5","1249","1350","16","Female","false","true","true","true","""event"",""trial"",""time""
""fullscreenenter"",""5"",""13201""
","
","
","""event"",""trial"",""time""
""fullscreenenter"",""5"",""13201""
","
","null","","null","","","3000","0","","","images/tutgreenplanet.jpg","images/tutalien2","images/tutalien1","images/tutrocket1","","","2","practice","true","","common","0","2022-04-15 01:33:04.203"
"two-step-fixation","78","303345","0.0-61.0-2.5","1249","1350","16","Female","false","true","true","true","""event"",""trial"",""time""
""fullscreenenter"",""5"",""13201""
","
","
","""event"",""trial"",""time""
""fullscreenenter"",""5"",""13201""
","
","","images/earth.jpg","","","","","","","","","","","","","","fixation","","","","","",""
"d3-animate-choice","79","305661","0.0-61.0-0.6","1249","1350","16","Female","false","true","true","true","""event"",""trial"",""time""
""fullscreenenter"",""5"",""13201""
","
","
","""event"",""trial"",""time""
""fullscreenenter"",""5"",""13201""
","
","310.8999999985099","","48","","","3000","1","","","images/earth.jpg","images/tutrocket1","images/tutrocket2","null","images/tutrocket1","","1","practice","null","2","","",""
"d3-animate-choice","80","309670","0.0-61.0-1.6","1249","1350","16","Female","false","true","true","true","""event"",""trial"",""time""
""fullscreenenter"",""5"",""13201""
","
","
","""event"",""trial"",""time""
""fullscreenenter"",""5"",""13201""
","
","null","","null","","","3000","0","","","images/tutgreenplanet.jpg","images/tutalien2","images/tutalien1","images/tutrocket1","","","2","practice","true","","common","0","2022-04-15 01:33:11.530"
"two-step-fixation","81","310675","0.0-61.0-2.6","1249","1350","16","Female","false","true","true","true","""event"",""trial"",""time""
""fullscreenenter"",""5"",""13201""
","
","
","""event"",""trial"",""time""
""fullscreenenter"",""5"",""13201""
","
","","images/earth.jpg","","","","","","","","","","","","","","fixation","","","","","",""
"d3-animate-choice","82","313025","0.0-61.0-0.7","1249","1350","16","Female","false","true","true","true","""event"",""trial"",""time""
""fullscreenenter"",""5"",""13201""
","
","
","""event"",""trial"",""time""
""fullscreenenter"",""5"",""13201""
","
","342","","49","","","3000","1","","","images/earth.jpg","images/tutrocket1","images/tutrocket2","null","images/tutrocket2","","1","practice","null","1","","",""
"d3-animate-choice","83","317034","0.0-61.0-1.7","1249","1350","16","Female","false","true","true","true","""event"",""trial"",""time""
""fullscreenenter"",""5"",""13201""
","
","
","""event"",""trial"",""time""
""fullscreenenter"",""5"",""13201""
","
","null","","null","","","3000","0","","","images/tutyellowplanet.jpg","images/tutalien4","images/tutalien3","images/tutrocket2","","","2","practice","true","","common","0","2022-04-15 01:33:18.894"
"two-step-fixation","84","318040","0.0-61.0-2.7","1249","1350","16","Female","false","true","true","true","""event"",""trial"",""time""
""fullscreenenter"",""5"",""13201""
","
","
","""event"",""trial"",""time""
""fullscreenenter"",""5"",""13201""
","
","","images/earth.jpg","","","","","","","","","","","","","","fixation","","","","","",""
"d3-animate-choice","85","320328","0.0-61.0-0.8","1249","1350","16","Female","false","true","true","true","""event"",""trial"",""time""
""fullscreenenter"",""5"",""13201""
","
","
","""event"",""trial"",""time""
""fullscreenenter"",""5"",""13201""
","
","282.29999999701977","","49","","","3000","1","","","images/earth.jpg","images/tutrocket1","images/tutrocket2","null","images/tutrocket2","","1","practice","null","1","","",""
"d3-animate-choice","86","324337","0.0-61.0-1.8","1249","1350","16","Female","false","true","true","true","""event"",""trial"",""time""
""fullscreenenter"",""5"",""13201""
","
","
","""event"",""trial"",""time""
""fullscreenenter"",""5"",""13201""
","
","null","","null","","","3000","0","","","images/tutyellowplanet.jpg","images/tutalien4","images/tutalien3","images/tutrocket2","","","2","practice","true","","common","0","2022-04-15 01:33:26.197"
"two-step-fixation","87","325342","0.0-61.0-2.8","1249","1350","16","Female","false","true","true","true","""event"",""trial"",""time""
""fullscreenenter"",""5"",""13201""
","
","
","""event"",""trial"",""time""
""fullscreenenter"",""5"",""13201""
","
","","images/earth.jpg","","","","","","","","","","","","","","fixation","","","","","",""
"d3-animate-choice","88","327571","0.0-61.0-0.9","1249","1350","16","Female","false","true","true","true","""event"",""trial"",""time""
""fullscreenenter"",""5"",""13201""
","
","
","""event"",""trial"",""time""
""fullscreenenter"",""5"",""13201""
","
","222.79999999701977","","48","","","3000","1","","","images/earth.jpg","images/tutrocket1","images/tutrocket2","null","images/tutrocket1","","1","practice","null","2","","",""
"d3-animate-choice","89","331577","0.0-61.0-1.9","1249","1350","16","Female","false","true","true","true","""event"",""trial"",""time""
""fullscreenenter"",""5"",""13201""
","
","
","""event"",""trial"",""time""
""fullscreenenter"",""5"",""13201""
","
","null","","null","","","3000","0","","","images/tutgreenplanet.jpg","images/tutalien2","images/tutalien1","images/tutrocket1","","","2","practice","true","","common","0","2022-04-15 01:33:33.437"
"two-step-fixation","90","332580","0.0-61.0-2.9","1249","1350","16","Female","false","true","true","true","""event"",""trial"",""time""
""fullscreenenter"",""5"",""13201""
","
","
","""event"",""trial"",""time""
""fullscreenenter"",""5"",""13201""
","
","","images/earth.jpg","","","","","","","","","","","","","","fixation","","","","","",""
"d3-animate-choice","91","334942","0.0-61.0-0.10","1249","1350","16","Female","false","true","true","true","""event"",""trial"",""time""
""fullscreenenter"",""5"",""13201""
","
","
","""event"",""trial"",""time""
""fullscreenenter"",""5"",""13201""
","
","357.19999999552965","","48","","","3000","1","","","images/earth.jpg","images/tutrocket1","images/tutrocket2","null","images/tutrocket1","","1","practice","null","2","","",""
"d3-animate-choice","92","338952","0.0-61.0-1.10","1249","1350","16","Female","false","true","true","true","""event"",""trial"",""time""
""fullscreenenter"",""5"",""13201""
","
","
","""event"",""trial"",""time""
""fullscreenenter"",""5"",""13201""
","
","null","","null","","","3000","0","","","images/tutyellowplanet.jpg","images/tutalien4","images/tutalien3","images/tutrocket1","","","2","practice","false","","rare","0","2022-04-15 01:33:40.812"
"two-step-fixation","93","339957","0.0-61.0-2.10","1249","1350","16","Female","false","true","true","true","""event"",""trial"",""time""
""fullscreenenter"",""5"",""13201""
","
","
","""event"",""trial"",""time""
""fullscreenenter"",""5"",""13201""
","
","","images/earth.jpg","","","","","","","","","","","","","","fixation","","","","","",""
"d3-animate-choice","94","342195","0.0-61.0-0.11","1249","1350","16","Female","false","true","true","true","""event"",""trial"",""time""
""fullscreenenter"",""5"",""13201""
","
","
","""event"",""trial"",""time""
""fullscreenenter"",""5"",""13201""
","
","231.80000000447035","","49","","","3000","1","","","images/earth.jpg","images/tutrocket1","images/tutrocket2","null","images/tutrocket2","","1","practice","null","1","","",""
"d3-animate-choice","95","346201","0.0-61.0-1.11","1249","1350","16","Female","false","true","true","true","""event"",""trial"",""time""
""fullscreenenter"",""5"",""13201""
","
","
","""event"",""trial"",""time""
""fullscreenenter"",""5"",""13201""
","
","null","","null","","","3000","0","","","images/tutyellowplanet.jpg","images/tutalien4","images/tutalien3","images/tutrocket2","","","2","practice","true","","common","0","2022-04-15 01:33:48.061"
"two-step-fixation","96","347205","0.0-61.0-2.11","1249","1350","16","Female","false","true","true","true","""event"",""trial"",""time""
""fullscreenenter"",""5"",""13201""
","
","
","""event"",""trial"",""time""
""fullscreenenter"",""5"",""13201""
","
","","images/earth.jpg","","","","","","","","","","","","","","fixation","","","","","",""
"d3-animate-choice","97","349573","0.0-61.0-0.12","1249","1350","16","Female","false","true","true","true","""event"",""trial"",""time""
""fullscreenenter"",""5"",""13201""
","
","
","""event"",""trial"",""time""
""fullscreenenter"",""5"",""13201""
","
","364","","49","","","3000","1","","","images/earth.jpg","images/tutrocket1","images/tutrocket2","null","images/tutrocket2","","1","practice","null","1","","",""
"d3-animate-choice","98","353577","0.0-61.0-1.12","1249","1350","16","Female","false","true","true","true","""event"",""trial"",""time""
""fullscreenenter"",""5"",""13201""
","
","
","""event"",""trial"",""time""
""fullscreenenter"",""5"",""13201""
","
","null","","null","","","3000","0","","","images/tutyellowplanet.jpg","images/tutalien4","images/tutalien3","images/tutrocket2","","","2","practice","true","","common","0","2022-04-15 01:33:55.437"
"two-step-fixation","99","354581","0.0-61.0-2.12","1249","1350","16","Female","false","true","true","true","""event"",""trial"",""time""
""fullscreenenter"",""5"",""13201""
","
","
","""event"",""trial"",""time""
""fullscreenenter"",""5"",""13201""
","
","","images/earth.jpg","","","","","","","","","","","","","","fixation","","","","","",""
"d3-animate-choice","100","356875","0.0-61.0-0.13","1249","1350","16","Female","false","true","true","true","""event"",""trial"",""time""
""fullscreenenter"",""5"",""13201""
","
","
","""event"",""trial"",""time""
""fullscreenenter"",""5"",""13201""
","
","289.90000000596046","","48","","","3000","1","","","images/earth.jpg","images/tutrocket1","images/tutrocket2","null","images/tutrocket1","","1","practice","null","2","","",""
"d3-animate-choice","101","360879","0.0-61.0-1.13","1249","1350","16","Female","false","true","true","true","""event"",""trial"",""time""
""fullscreenenter"",""5"",""13201""
","
","
","""event"",""trial"",""time""
""fullscreenenter"",""5"",""13201""
","
","null","","null","","","3000","0","","","images/tutyellowplanet.jpg","images/tutalien4","images/tutalien3","images/tutrocket1","","","2","practice","false","","rare","0","2022-04-15 01:34:02.739"
"two-step-fixation","102","361884","0.0-61.0-2.13","1249","1350","16","Female","false","true","true","true","""event"",""trial"",""time""
""fullscreenenter"",""5"",""13201""
","
","
","""event"",""trial"",""time""
""fullscreenenter"",""5"",""13201""
","
","","images/earth.jpg","","","","","","","","","","","","","","fixation","","","","","",""
"d3-animate-choice","103","364231","0.0-61.0-0.14","1249","1350","16","Female","false","true","true","true","""event"",""trial"",""time""
""fullscreenenter"",""5"",""13201""
","
","
","""event"",""trial"",""time""
""fullscreenenter"",""5"",""13201""
","
","342.69999999552965","","49","","","3000","1","","","images/earth.jpg","images/tutrocket1","images/tutrocket2","null","images/tutrocket2","","1","practice","null","1","","",""
"d3-animate-choice","104","368236","0.0-61.0-1.14","1249","1350","16","Female","false","true","true","true","""event"",""trial"",""time""
""fullscreenenter"",""5"",""13201""
","
","
","""event"",""trial"",""time""
""fullscreenenter"",""5"",""13201""
","
","null","","null","","","3000","0","","","images/tutgreenplanet.jpg","images/tutalien2","images/tutalien1","images/tutrocket2","","","2","practice","false","","rare","0","2022-04-15 01:34:10.096"
"two-step-fixation","105","369239","0.0-61.0-2.14","1249","1350","16","Female","false","true","true","true","""event"",""trial"",""time""
""fullscreenenter"",""5"",""13201""
","
","
","""event"",""trial"",""time""
""fullscreenenter"",""5"",""13201""
","
","","images/earth.jpg","","","","","","","","","","","","","","fixation","","","","","",""
"d3-animate-choice","106","371908","0.0-61.0-0.15","1249","1350","16","Female","false","true","true","true","""event"",""trial"",""time""
""fullscreenenter"",""5"",""13201""
","
","
","""event"",""trial"",""time""
""fullscreenenter"",""5"",""13201""
","
","663.7000000029802","","49","","","3000","1","","","images/earth.jpg","images/tutrocket1","images/tutrocket2","null","images/tutrocket2","","1","practice","null","1","","",""
"d3-animate-choice","107","375913","0.0-61.0-1.15","1249","1350","16","Female","false","true","true","true","""event"",""trial"",""time""
""fullscreenenter"",""5"",""13201""
","
","
","""event"",""trial"",""time""
""fullscreenenter"",""5"",""13201""
","
","null","","null","","","3000","0","","","images/tutyellowplanet.jpg","images/tutalien4","images/tutalien3","images/tutrocket2","","","2","practice","true","","common","0","2022-04-15 01:34:17.773"
"two-step-fixation","108","376916","0.0-61.0-2.15","1249","1350","16","Female","false","true","true","true","""event"",""trial"",""time""
""fullscreenenter"",""5"",""13201""
","
","
","""event"",""trial"",""time""
""fullscreenenter"",""5"",""13201""
","
","","images/earth.jpg","","","","","","","","","","","","","","fixation","","","","","",""
"d3-animate-choice","109","379258","0.0-61.0-0.16","1249","1350","16","Female","false","true","true","true","""event"",""trial"",""time""
""fullscreenenter"",""5"",""13201""
","
","
","""event"",""trial"",""time""
""fullscreenenter"",""5"",""13201""
","
","336.69999999552965","","49","","","3000","1","","","images/earth.jpg","images/tutrocket1","images/tutrocket2","null","images/tutrocket2","","1","practice","null","1","","",""
"d3-animate-choice","110","383266","0.0-61.0-1.16","1249","1350","16","Female","false","true","true","true","""event"",""trial"",""time""
""fullscreenenter"",""5"",""13201""
","
","
","""event"",""trial"",""time""
""fullscreenenter"",""5"",""13201""
","
","null","","null","","","3000","0","","","images/tutyellowplanet.jpg","images/tutalien4","images/tutalien3","images/tutrocket2","","","2","practice","true","","common","0","2022-04-15 01:34:25.126"
"two-step-fixation","111","384273","0.0-61.0-2.16","1249","1350","16","Female","false","true","true","true","""event"",""trial"",""time""
""fullscreenenter"",""5"",""13201""
","
","
","""event"",""trial"",""time""
""fullscreenenter"",""5"",""13201""
","
","","images/earth.jpg","","","","","","","","","","","","","","fixation","","","","","",""
"d3-animate-choice","112","386633","0.0-61.0-0.17","1249","1350","16","Female","false","true","true","true","""event"",""trial"",""time""
""fullscreenenter"",""5"",""13201""
","
","
","""event"",""trial"",""time""
""fullscreenenter"",""5"",""13201""
","
","355.79999999701977","","49","","","3000","1","","","images/earth.jpg","images/tutrocket1","images/tutrocket2","null","images/tutrocket2","","1","practice","null","1","","",""
"d3-animate-choice","113","390642","0.0-61.0-1.17","1249","1350","16","Female","false","true","true","true","""event"",""trial"",""time""
""fullscreenenter"",""5"",""13201""
","
","
","""event"",""trial"",""time""
""fullscreenenter"",""5"",""13201""
","
","null","","null","","","3000","0","","","images/tutyellowplanet.jpg","images/tutalien4","images/tutalien3","images/tutrocket2","","","2","practice","true","","common","0","2022-04-15 01:34:32.502"
"two-step-fixation","114","391647","0.0-61.0-2.17","1249","1350","16","Female","false","true","true","true","""event"",""trial"",""time""
""fullscreenenter"",""5"",""13201""
","
","
","""event"",""trial"",""time""
""fullscreenenter"",""5"",""13201""
","
","","images/earth.jpg","","","","","","","","","","","","","","fixation","","","","","",""
"d3-animate-choice","115","394031","0.0-61.0-0.18","1249","1350","16","Female","false","true","true","true","""event"",""trial"",""time""
""fullscreenenter"",""5"",""13201""
","
","
","""event"",""trial"",""time""
""fullscreenenter"",""5"",""13201""
","
","377.5","","48","","","3000","1","","","images/earth.jpg","images/tutrocket1","images/tutrocket2","null","images/tutrocket1","","1","practice","null","2","","",""
"d3-animate-choice","116","398036","0.0-61.0-1.18","1249","1350","16","Female","false","true","true","true","""event"",""trial"",""time""
""fullscreenenter"",""5"",""13201""
","
","
","""event"",""trial"",""time""
""fullscreenenter"",""5"",""13201""
","
","null","","null","","","3000","0","","","images/tutyellowplanet.jpg","images/tutalien4","images/tutalien3","images/tutrocket1","","","2","practice","false","","rare","0","2022-04-15 01:34:39.896"
"two-step-fixation","117","399039","0.0-61.0-2.18","1249","1350","16","Female","false","true","true","true","""event"",""trial"",""time""
""fullscreenenter"",""5"",""13201""
","
","
","""event"",""trial"",""time""
""fullscreenenter"",""5"",""13201""
","
","","images/earth.jpg","","","","","","","","","","","","","","fixation","","","","","",""
"d3-animate-choice","118","401562","0.0-61.0-0.19","1249","1350","16","Female","false","true","true","true","""event"",""trial"",""time""
""fullscreenenter"",""5"",""13201""
","
","
","""event"",""trial"",""time""
""fullscreenenter"",""5"",""13201""
","
","519.2999999970198","","48","","","3000","1","1810.0999999940395,2123.2999999970198","48,48","images/earth.jpg","images/tutrocket1","images/tutrocket2","null","images/tutrocket1","","1","practice","null","2","","",""
"d3-animate-choice","119","404000","0.0-61.0-1.19","1249","1350","16","Female","false","true","true","true","""event"",""trial"",""time""
""fullscreenenter"",""5"",""13201""
","
","
","""event"",""trial"",""time""
""fullscreenenter"",""5"",""13201""
","
","432.19999999552965","","48","","","3000","1","","","images/tutyellowplanet.jpg","images/tutalien4","images/tutalien3","images/tutrocket1","images/tutalien4","images/nothing.png","2","practice","false","2","rare","0","2022-04-15 01:34:45.861"
"two-step-fixation","120","405007","0.0-61.0-2.19","1249","1350","16","Female","false","true","true","true","""event"",""trial"",""time""
""fullscreenenter"",""5"",""13201""
","
","
","""event"",""trial"",""time""
""fullscreenenter"",""5"",""13201""
","
","","images/earth.jpg","","","","","","","","","","","","","","fixation","","","","","",""
"d3-instructions","121","409618","0.0-62.0","1249","1350","16","Female","false","true","true","true","""event"",""trial"",""time""
""fullscreenenter"",""5"",""13201""
","
","
","""event"",""trial"",""time""
""fullscreenenter"",""5"",""13201""
","
","","","","","","","","","","","","","","","","","","","","","",""
"audio-keyboard-response","122","411940","0.0-63.0","1249","1350","16","Female","false","true","true","true","""event"",""trial"",""time""
""fullscreenenter"",""5"",""13201""
","
","
","""event"",""trial"",""time""
""fullscreenenter"",""5"",""13201""
","
","2320","audio/instructions/treasure_feedback.wav","32","","","","","","","","","","","","","","","","","","",""
"d3-instructions","123","419765","0.0-64.0","1249","1350","16","Female","false","true","true","true","""event"",""trial"",""time""
""fullscreenenter"",""5"",""13201""
","
","
","""event"",""trial"",""time""
""fullscreenenter"",""5"",""13201""
","
","","","","","","","","","","","","","","","","","","","","","",""
"d3-instructions","124","433692","0.0-65.0","1249","1350","16","Female","false","true","true","true","""event"",""trial"",""time""
""fullscreenenter"",""5"",""13201""
","
","
","""event"",""trial"",""time""
""fullscreenenter"",""5"",""13201""
","
","","","","","","","","","","","","","","","","","","","","","",""
"d3-instructions","125","456224","0.0-66.0","1249","1350","16","Female","false","true","true","true","""event"",""trial"",""time""
""fullscreenenter"",""5"",""13201""
","
","
","""event"",""trial"",""time""
""fullscreenenter"",""5"",""13201""
","
","","","","","","","","","","","","","","","","","","","","","",""
"d3-instructions","126","468486","0.0-67.0","1249","1350","16","Female","false","true","true","true","""event"",""trial"",""time""
""fullscreenenter"",""5"",""13201""
","
","
","""event"",""trial"",""time""
""fullscreenenter"",""5"",""13201""
","
","","","","","","","","","","","","","","","","","","","","","",""
"d3-instructions","127","471973","0.0-68.0","1249","1350","16","Female","false","true","true","true","""event"",""trial"",""time""
""fullscreenenter"",""5"",""13201""
","
","
","""event"",""trial"",""time""
""fullscreenenter"",""5"",""13201""
","
","","","","","","","","","","","","","","","","","","","","","",""
"instructions-quiz","128","475596","0.0-69.0","1249","1350","16","Female","false","true","true","true","""event"",""trial"",""time""
""fullscreenenter"",""5"",""13201""
","
","
","""event"",""trial"",""time""
""fullscreenenter"",""5"",""13201""
","
","3622","audio/quiz/Q1_Prompt.wav","","1","","","","","","","","","","","","","","","","","",""
"audio-keyboard-response","129","476952","0.0-70.0","1249","1350","16","Female","false","true","true","true","""event"",""trial"",""time""
""fullscreenenter"",""5"",""13201""
","
","
","""event"",""trial"",""time""
""fullscreenenter"",""5"",""13201""
","
","1355","audio/quiz/Q1_Correct.wav","66","","","","","","","","","","","","","","","","","","",""
"instructions-quiz","130","481503","0.0-71.0","1249","1350","16","Female","false","true","true","true","""event"",""trial"",""time""
""fullscreenenter"",""5"",""13201""
","
","
","""event"",""trial"",""time""
""fullscreenenter"",""5"",""13201""
","
","4550.10000000149","audio/quiz/Q2_Prompt.wav","","0","","","","","","","","","","","","","","","","","",""
"audio-keyboard-response","131","484487","0.0-72.0","1249","1350","16","Female","false","true","true","true","""event"",""trial"",""time""
""fullscreenenter"",""5"",""13201""
","
","
","""event"",""trial"",""time""
""fullscreenenter"",""5"",""13201""
","
","2981","audio/quiz/Q2_Correct.wav","32","","","","","","","","","","","","","","","","","","",""
"instructions-quiz","132","487380","0.0-73.0","1249","1350","16","Female","false","true","true","true","""event"",""trial"",""time""
""fullscreenenter"",""5"",""13201""
","
","
","""event"",""trial"",""time""
""fullscreenenter"",""5"",""13201""
","
","2891.2000000029802","audio/quiz/Q3_Prompt.wav","","1","","","","","","","","","","","","","","","","","",""
"audio-keyboard-response","133","487832","0.0-74.0","1249","1350","16","Female","false","true","true","true","""event"",""trial"",""time""
""fullscreenenter"",""5"",""13201""
","
","
","""event"",""trial"",""time""
""fullscreenenter"",""5"",""13201""
","
","453","audio/quiz/Q3_Correct.wav","32","","","","","","","","","","","","","","","","","","",""
"d3-instructions","134","496319","0.0-75.0","1249","1350","16","Female","false","true","true","true","""event"",""trial"",""time""
""fullscreenenter"",""5"",""13201""
","
","
","""event"",""trial"",""time""
""fullscreenenter"",""5"",""13201""
","
","","","","","","","","","","","","","","","","","","","","","",""
"d3-animate-choice","135","499315","0.0-76.0-0.0","1249","1350","16","Female","false","true","true","true","""event"",""trial"",""time""
""fullscreenenter"",""5"",""13201""
","
","
","""event"",""trial"",""time""
""fullscreenenter"",""5"",""13201""
","
","992.8999999985099","","49","","","3000","1","","","images/earth.jpg","images/rocket1","images/rocket2","null","images/rocket2","","1","real","null","1","","",""
"d3-animate-choice","136","502054","0.0-76.0-1.0","1249","1350","16","Female","false","true","true","true","""event"",""trial"",""time""
""fullscreenenter"",""5"",""13201""
","
","
","""event"",""trial"",""time""
""fullscreenenter"",""5"",""13201""
","
","735.9000000059605","","49","","","3000","1","","","images/redplanet1.jpg","images/alien2","images/alien1","images/rocket2","images/alien1","images/nothing.png","2","real","false","1","rare","0","2022-04-15 01:36:23.914"
"two-step-fixation","137","503057","0.0-76.0-2.0","1249","1350","16","Female","false","true","true","true","""event"",""trial"",""time""
""fullscreenenter"",""5"",""13201""
","
","
","""event"",""trial"",""time""
""fullscreenenter"",""5"",""13201""
","
","","images/earth.jpg","","","","","","","","","","","","","","fixation","","","","","",""
"d3-animate-choice","138","505733","0.0-76.0-0.1","1249","1350","16","Female","false","true","true","true","""event"",""trial"",""time""
""fullscreenenter"",""5"",""13201""
","
","
","""event"",""trial"",""time""
""fullscreenenter"",""5"",""13201""
","
","672.5","","49","","","3000","1","","","images/earth.jpg","images/rocket1","images/rocket2","null","images/rocket2","","1","real","null","1","","",""
"d3-animate-choice","139","508810","0.0-76.0-1.1","1249","1350","16","Female","false","true","true","true","""event"",""trial"",""time""
""fullscreenenter"",""5"",""13201""
","
","
","""event"",""trial"",""time""
""fullscreenenter"",""5"",""13201""
","
","1075","","49","","","3000","1","","","images/purpleplanet.jpg","images/alien4","images/alien3","images/rocket2","images/alien3","images/nothing.png","2","real","true","1","common","0","2022-04-15 01:36:30.670"
"two-step-fixation","140","509814","0.0-76.0-2.1","1249","1350","16","Female","false","true","true","true","""event"",""trial"",""time""
""fullscreenenter"",""5"",""13201""
","
","
","""event"",""trial"",""time""
""fullscreenenter"",""5"",""13201""
","
","","images/earth.jpg","","","","","","","","","","","","","","fixation","","","","","",""
"d3-animate-choice","141","512237","0.0-76.0-0.2","1249","1350","16","Female","false","true","true","true","""event"",""trial"",""time""
""fullscreenenter"",""5"",""13201""
","
","
","""event"",""trial"",""time""
""fullscreenenter"",""5"",""13201""
","
","420.5","","49","","","3000","1","","","images/earth.jpg","images/rocket1","images/rocket2","null","images/rocket2","","1","real","null","1","","",""
"d3-animate-choice","142","515556","0.0-76.0-1.2","1249","1350","16","Female","false","true","true","true","""event"",""trial"",""time""
""fullscreenenter"",""5"",""13201""
","
","
","""event"",""trial"",""time""
""fullscreenenter"",""5"",""13201""
","
","783.6999999955297","","50","","","3000","1","1313.6999999955297","48","images/purpleplanet.jpg","images/alien4","images/alien3","images/rocket2","images/alien4","images/t.png","2","real","true","","common","1","2022-04-15 01:36:37.416"
"two-step-fixation","143","516558","0.0-76.0-2.2","1249","1350","16","Female","false","true","true","true","""event"",""trial"",""time""
""fullscreenenter"",""5"",""13201""
","
","
","""event"",""trial"",""time""
""fullscreenenter"",""5"",""13201""
","
","","images/earth.jpg","","","","","","","","","","","","","","fixation","","","","","",""
"d3-animate-choice","144","519086","0.0-76.0-0.3","1249","1350","16","Female","false","true","true","true","""event"",""trial"",""time""
""fullscreenenter"",""5"",""13201""
","
","
","""event"",""trial"",""time""
""fullscreenenter"",""5"",""13201""
","
","524.1999999955297","","49","","","3000","1","","","images/earth.jpg","images/rocket1","images/rocket2","null","images/rocket2","","1","real","null","1","","",""
"d3-animate-choice","145","521447","0.0-76.0-1.3","1249","1350","16","Female","false","true","true","true","""event"",""trial"",""time""
""fullscreenenter"",""5"",""13201""
","
","
","""event"",""trial"",""time""
""fullscreenenter"",""5"",""13201""
","
","358.09999999403954","","48","","","3000","1","","","images/purpleplanet.jpg","images/alien4","images/alien3","images/rocket2","images/alien4","images/t.png","2","real","true","2","common","1","2022-04-15 01:36:43.307"
"two-step-fixation","146","522449","0.0-76.0-2.3","1249","1350","16","Female","false","true","true","true","""event"",""trial"",""time""
""fullscreenenter"",""5"",""13201""
","
","
","""event"",""trial"",""time""
""fullscreenenter"",""5"",""13201""
","
","","images/earth.jpg","","","","","","","","","","","","","","fixation","","","","","",""
"d3-animate-choice","147","524714","0.0-76.0-0.4","1249","1350","16","Female","false","true","true","true","""event"",""trial"",""time""
""fullscreenenter"",""5"",""13201""
","
","
","""event"",""trial"",""time""
""fullscreenenter"",""5"",""13201""
","
","261.30000000447035","","49","","","3000","1","","","images/earth.jpg","images/rocket1","images/rocket2","null","images/rocket2","","1","real","null","1","","",""
"d3-animate-choice","148","527087","0.0-76.0-1.4","1249","1350","16","Female","false","true","true","true","""event"",""trial"",""time""
""fullscreenenter"",""5"",""13201""
","
","
","""event"",""trial"",""time""
""fullscreenenter"",""5"",""13201""
","
","370.29999999701977","","48","","","3000","1","","","images/purpleplanet.jpg","images/alien4","images/alien3","images/rocket2","images/alien4","images/t.png","2","real","true","2","common","1","2022-04-15 01:36:48.947"
"two-step-fixation","149","528092","0.0-76.0-2.4","1249","1350","16","Female","false","true","true","true","""event"",""trial"",""time""
""fullscreenenter"",""5"",""13201""
","
","
","""event"",""trial"",""time""
""fullscreenenter"",""5"",""13201""
","
","","images/earth.jpg","","","","","","","","","","","","","","fixation","","","","","",""
"d3-animate-choice","150","530458","0.0-76.0-0.5","1249","1350","16","Female","false","true","true","true","""event"",""trial"",""time""
""fullscreenenter"",""5"",""13201""
","
","
","""event"",""trial"",""time""
""fullscreenenter"",""5"",""13201""
","
","361.90000000596046","","49","","","3000","1","","","images/earth.jpg","images/rocket1","images/rocket2","null","images/rocket2","","1","real","null","1","","",""
"d3-animate-choice","151","532981","0.0-76.0-1.5","1249","1350","16","Female","false","true","true","true","""event"",""trial"",""time""
""fullscreenenter"",""5"",""13201""
","
","
","""event"",""trial"",""time""
""fullscreenenter"",""5"",""13201""
","
","518.3999999985099","","48","","","3000","1","","","images/purpleplanet.jpg","images/alien4","images/alien3","images/rocket2","images/alien4","images/t.png","2","real","true","2","common","1","2022-04-15 01:36:54.841"
"two-step-fixation","152","533985","0.0-76.0-2.5","1249","1350","16","Female","false","true","true","true","""event"",""trial"",""time""
""fullscreenenter"",""5"",""13201""
","
","
","""event"",""trial"",""time""
""fullscreenenter"",""5"",""13201""
","
","","images/earth.jpg","","","","","","","","","","","","","","fixation","","","","","",""
"d3-animate-choice","153","536042","0.0-76.0-0.6","1249","1350","16","Female","false","true","true","true","""event"",""trial"",""time""
""fullscreenenter"",""5"",""13201""
","
","
","""event"",""trial"",""time""
""fullscreenenter"",""5"",""13201""
","
","49.399999998509884","","49","","","3000","1","","","images/earth.jpg","images/rocket1","images/rocket2","null","images/rocket2","","1","real","null","1","","",""
"d3-animate-choice","154","539300","0.0-76.0-1.6","1249","1350","16","Female","false","true","true","true","""event"",""trial"",""time""
""fullscreenenter"",""5"",""13201""
","
","
","""event"",""trial"",""time""
""fullscreenenter"",""5"",""13201""
","
","1251.6000000014901","","48","","","3000","1","","","images/redplanet1.jpg","images/alien2","images/alien1","images/rocket2","images/alien2","images/t.png","2","real","false","2","rare","1","2022-04-15 01:37:01.160"
"two-step-fixation","155","540308","0.0-76.0-2.6","1249","1350","16","Female","false","true","true","true","""event"",""trial"",""time""
""fullscreenenter"",""5"",""13201""
","
","
","""event"",""trial"",""time""
""fullscreenenter"",""5"",""13201""
","
","","images/earth.jpg","","","","","","","","","","","","","","fixation","","","","","",""
"d3-animate-choice","156","542604","0.0-76.0-0.7","1249","1350","16","Female","false","true","true","true","""event"",""trial"",""time""
""fullscreenenter"",""5"",""13201""
","
","
","""event"",""trial"",""time""
""fullscreenenter"",""5"",""13201""
","
","291.8999999985099","","49","","","3000","1","","","images/earth.jpg","images/rocket1","images/rocket2","null","images/rocket2","","1","real","null","1","","",""
"d3-animate-choice","157","545039","0.0-76.0-1.7","1249","1350","16","Female","false","true","true","true","""event"",""trial"",""time""
""fullscreenenter"",""5"",""13201""
","
","
","""event"",""trial"",""time""
""fullscreenenter"",""5"",""13201""
","
","429.19999999552965","","48","","","3000","1","","","images/redplanet1.jpg","images/alien2","images/alien1","images/rocket2","images/alien2","images/t.png","2","real","false","2","rare","1","2022-04-15 01:37:06.899"
"two-step-fixation","158","546047","0.0-76.0-2.7","1249","1350","16","Female","false","true","true","true","""event"",""trial"",""time""
""fullscreenenter"",""5"",""13201""
","
","
","""event"",""trial"",""time""
""fullscreenenter"",""5"",""13201""
","
","","images/earth.jpg","","","","","","","","","","","","","","fixation","","","","","",""
"d3-animate-choice","159","548164","0.0-76.0-0.8","1249","1350","16","Female","false","true","true","true","""event"",""trial"",""time""
""fullscreenenter"",""5"",""13201""
","
","
","""event"",""trial"",""time""
""fullscreenenter"",""5"",""13201""
","
","112.10000000149012","","49","","","3000","1","","","images/earth.jpg","images/rocket1","images/rocket2","null","images/rocket2","","1","real","null","1","","",""
"d3-animate-choice","160","550581","0.0-76.0-1.8","1249","1350","16","Female","false","true","true","true","""event"",""trial"",""time""
""fullscreenenter"",""5"",""13201""
","
","
","""event"",""trial"",""time""
""fullscreenenter"",""5"",""13201""
","
","412.5","","48","","","3000","1","","","images/purpleplanet.jpg","images/alien4","images/alien3","images/rocket2","images/alien4","images/t.png","2","real","true","2","common","1","2022-04-15 01:37:12.441"
"two-step-fixation","161","551586","0.0-76.0-2.8","1249","1350","16","Female","false","true","true","true","""event"",""trial"",""time""
""fullscreenenter"",""5"",""13201""
","
","
","""event"",""trial"",""time""
""fullscreenenter"",""5"",""13201""
","
","","images/earth.jpg","","","","","","","","","","","","","","fixation","","","","","",""
"d3-animate-choice","162","554122","0.0-76.0-0.9","1249","1350","16","Female","false","true","true","true","""event"",""trial"",""time""
""fullscreenenter"",""5"",""13201""
","
","
","""event"",""trial"",""time""
""fullscreenenter"",""5"",""13201""
","
","532.3999999985099","","49","","","3000","1","","","images/earth.jpg","images/rocket1","images/rocket2","null","images/rocket2","","1","real","null","1","","",""
"d3-animate-choice","163","556501","0.0-76.0-1.9","1249","1350","16","Female","false","true","true","true","""event"",""trial"",""time""
""fullscreenenter"",""5"",""13201""
","
","
","""event"",""trial"",""time""
""fullscreenenter"",""5"",""13201""
","
","373.1000000014901","","48","","","3000","1","","","images/purpleplanet.jpg","images/alien4","images/alien3","images/rocket2","images/alien4","images/t.png","2","real","true","2","common","1","2022-04-15 01:37:18.361"
"two-step-fixation","164","557509","0.0-76.0-2.9","1249","1350","16","Female","false","true","true","true","""event"",""trial"",""time""
""fullscreenenter"",""5"",""13201""
","
","
","""event"",""trial"",""time""
""fullscreenenter"",""5"",""13201""
","
","","images/earth.jpg","","","","","","","","","","","","","","fixation","","","","","",""
"d3-animate-choice","165","559547","0.0-76.0-0.10","1249","1350","16","Female","false","true","true","true","""event"",""trial"",""time""
""fullscreenenter"",""5"",""13201""
","
","
","""event"",""trial"",""time""
""fullscreenenter"",""5"",""13201""
","
","33","","49","","","3000","1","","","images/earth.jpg","images/rocket1","images/rocket2","null","images/rocket2","","1","real","null","1","","",""
"d3-animate-choice","166","562016","0.0-76.0-1.10","1249","1350","16","Female","false","true","true","true","""event"",""trial"",""time""
""fullscreenenter"",""5"",""13201""
","
","
","""event"",""trial"",""time""
""fullscreenenter"",""5"",""13201""
","
","461.79999999701977","","48","","","3000","1","","","images/purpleplanet.jpg","images/alien4","images/alien3","images/rocket2","images/alien4","images/t.png","2","real","true","2","common","1","2022-04-15 01:37:23.876"
"two-step-fixation","167","563024","0.0-76.0-2.10","1249","1350","16","Female","false","true","true","true","""event"",""trial"",""time""
""fullscreenenter"",""5"",""13201""
","
","
","""event"",""trial"",""time""
""fullscreenenter"",""5"",""13201""
","
","","images/earth.jpg","","","","","","","","","","","","","","fixation","","","","","",""
"d3-animate-choice","168","565072","0.0-76.0-0.11","1249","1350","16","Female","false","true","true","true","""event"",""trial"",""time""
""fullscreenenter"",""5"",""13201""
","
","
","""event"",""trial"",""time""
""fullscreenenter"",""5"",""13201""
","
","39.70000000298023","","49","","","3000","1","","","images/earth.jpg","images/rocket1","images/rocket2","null","images/rocket2","","1","real","null","1","","",""
"d3-animate-choice","169","567442","0.0-76.0-1.11","1249","1350","16","Female","false","true","true","true","""event"",""trial"",""time""
""fullscreenenter"",""5"",""13201""
","
","
","""event"",""trial"",""time""
""fullscreenenter"",""5"",""13201""
","
","366.09999999403954","","48","","","3000","1","","","images/redplanet1.jpg","images/alien2","images/alien1","images/rocket2","images/alien2","images/t.png","2","real","false","2","rare","1","2022-04-15 01:37:29.302"
"two-step-fixation","170","568446","0.0-76.0-2.11","1249","1350","16","Female","false","true","true","true","""event"",""trial"",""time""
""fullscreenenter"",""5"",""13201""
","
","
","""event"",""trial"",""time""
""fullscreenenter"",""5"",""13201""
","
","","images/earth.jpg","","","","","","","","","","","","","","fixation","","","","","",""
"d3-animate-choice","171","570834","0.0-76.0-0.12","1249","1350","16","Female","false","true","true","true","""event"",""trial"",""time""
""fullscreenenter"",""5"",""13201""
","
","
","""event"",""trial"",""time""
""fullscreenenter"",""5"",""13201""
","
","383.20000000298023","","49","","","3000","1","","","images/earth.jpg","images/rocket1","images/rocket2","null","images/rocket2","","1","real","null","1","","",""
"d3-animate-choice","172","573285","0.0-76.0-1.12","1249","1350","16","Female","false","true","true","true","""event"",""trial"",""time""
""fullscreenenter"",""5"",""13201""
","
","
","""event"",""trial"",""time""
""fullscreenenter"",""5"",""13201""
","
","444.30000000447035","","48","","","3000","1","","","images/purpleplanet.jpg","images/alien4","images/alien3","images/rocket2","images/alien4","images/t.png","2","real","true","2","common","1","2022-04-15 01:37:35.145"
"two-step-fixation","173","574293","0.0-76.0-2.12","1249","1350","16","Female","false","true","true","true","""event"",""trial"",""time""
""fullscreenenter"",""5"",""13201""
","
","
","""event"",""trial"",""time""
""fullscreenenter"",""5"",""13201""
","
","","images/earth.jpg","","","","","","","","","","","","","","fixation","","","","","",""
"d3-animate-choice","174","576544","0.0-76.0-0.13","1249","1350","16","Female","false","true","true","true","""event"",""trial"",""time""
""fullscreenenter"",""5"",""13201""
","
","
","""event"",""trial"",""time""
""fullscreenenter"",""5"",""13201""
","
","244.70000000298023","","49","","","3000","1","","","images/earth.jpg","images/rocket1","images/rocket2","null","images/rocket2","","1","real","null","1","","",""
"d3-animate-choice","175","578897","0.0-76.0-1.13","1249","1350","16","Female","false","true","true","true","""event"",""trial"",""time""
""fullscreenenter"",""5"",""13201""
","
","
","""event"",""trial"",""time""
""fullscreenenter"",""5"",""13201""
","
","348.6000000014901","","48","","","3000","1","","","images/purpleplanet.jpg","images/alien4","images/alien3","images/rocket2","images/alien4","images/nothing.png","2","real","true","2","common","0","2022-04-15 01:37:40.757"
"two-step-fixation","176","579904","0.0-76.0-2.13","1249","1350","16","Female","false","true","true","true","""event"",""trial"",""time""
""fullscreenenter"",""5"",""13201""
","
","
","""event"",""trial"",""time""
""fullscreenenter"",""5"",""13201""
","
","","images/earth.jpg","","","","","","","","","","","","","","fixation","","","","","",""
"d3-animate-choice","177","582139","0.0-76.0-0.14","1249","1350","16","Female","false","true","true","true","""event"",""trial"",""time""
""fullscreenenter"",""5"",""13201""
","
","
","""event"",""trial"",""time""
""fullscreenenter"",""5"",""13201""
","
","226.5","","49","","","3000","1","","","images/earth.jpg","images/rocket1","images/rocket2","null","images/rocket2","","1","real","null","1","","",""
"d3-animate-choice","178","584571","0.0-76.0-1.14","1249","1350","16","Female","false","true","true","true","""event"",""trial"",""time""
""fullscreenenter"",""5"",""13201""
","
","
","""event"",""trial"",""time""
""fullscreenenter"",""5"",""13201""
","
","428.1000000014901","","48","","","3000","1","","","images/redplanet1.jpg","images/alien2","images/alien1","images/rocket2","images/alien2","images/nothing.png","2","real","false","2","rare","0","2022-04-15 01:37:46.431"
"two-step-fixation","179","585575","0.0-76.0-2.14","1249","1350","16","Female","false","true","true","true","""event"",""trial"",""time""
""fullscreenenter"",""5"",""13201""
","
","
","""event"",""trial"",""time""
""fullscreenenter"",""5"",""13201""
","
","","images/earth.jpg","","","","","","","","","","","","","","fixation","","","","","",""
"d3-animate-choice","180","587637","0.0-76.0-0.15","1249","1350","16","Female","false","true","true","true","""event"",""trial"",""time""
""fullscreenenter"",""5"",""13201""
","
","
","""event"",""trial"",""time""
""fullscreenenter"",""5"",""13201""
","
","56.100000001490116","","49","","","3000","1","","","images/earth.jpg","images/rocket1","images/rocket2","null","images/rocket2","","1","real","null","1","","",""
"d3-animate-choice","181","589978","0.0-76.0-1.15","1249","1350","16","Female","false","true","true","true","""event"",""trial"",""time""
""fullscreenenter"",""5"",""13201""
","
","
","""event"",""trial"",""time""
""fullscreenenter"",""5"",""13201""
","
","336.6000000014901","","48","","","3000","1","","","images/purpleplanet.jpg","images/alien4","images/alien3","images/rocket2","images/alien4","images/t.png","2","real","true","2","common","1","2022-04-15 01:37:51.838"
"two-step-fixation","182","590983","0.0-76.0-2.15","1249","1350","16","Female","false","true","true","true","""event"",""trial"",""time""
""fullscreenenter"",""5"",""13201""
","
","
","""event"",""trial"",""time""
""fullscreenenter"",""5"",""13201""
","
","","images/earth.jpg","","","","","","","","","","","","","","fixation","","","","","",""
"d3-animate-choice","183","593349","0.0-76.0-0.16","1249","1350","16","Female","false","true","true","true","""event"",""trial"",""time""
""fullscreenenter"",""5"",""13201""
","
","
","""event"",""trial"",""time""
""fullscreenenter"",""5"",""13201""
","
","362.70000000298023","","49","","","3000","1","","","images/earth.jpg","images/rocket1","images/rocket2","null","images/rocket2","","1","real","null","1","","",""
"d3-animate-choice","184","595782","0.0-76.0-1.16","1249","1350","16","Female","false","true","true","true","""event"",""trial"",""time""
""fullscreenenter"",""5"",""13201""
","
","
","""event"",""trial"",""time""
""fullscreenenter"",""5"",""13201""
","
","429.30000000447035","","48","","","3000","1","","","images/purpleplanet.jpg","images/alien4","images/alien3","images/rocket2","images/alien4","images/nothing.png","2","real","true","2","common","0","2022-04-15 01:37:57.642"
"two-step-fixation","185","596786","0.0-76.0-2.16","1249","1350","16","Female","false","true","true","true","""event"",""trial"",""time""
""fullscreenenter"",""5"",""13201""
","
","
","""event"",""trial"",""time""
""fullscreenenter"",""5"",""13201""
","
","","images/earth.jpg","","","","","","","","","","","","","","fixation","","","","","",""
"d3-animate-choice","186","599088","0.0-76.0-0.17","1249","1350","16","Female","false","true","true","true","""event"",""trial"",""time""
""fullscreenenter"",""5"",""13201""
","
","
","""event"",""trial"",""time""
""fullscreenenter"",""5"",""13201""
","
","298","","49","","","3000","1","","","images/earth.jpg","images/rocket1","images/rocket2","null","images/rocket2","","1","real","null","1","","",""
"d3-animate-choice","187","601472","0.0-76.0-1.17","1249","1350","16","Female","false","true","true","true","""event"",""trial"",""time""
""fullscreenenter"",""5"",""13201""
","
","
","""event"",""trial"",""time""
""fullscreenenter"",""5"",""13201""
","
","379.8999999985099","","48","","","3000","1","","","images/purpleplanet.jpg","images/alien4","images/alien3","images/rocket2","images/alien4","images/t.png","2","real","true","2","common","1","2022-04-15 01:38:03.332"
"two-step-fixation","188","602476","0.0-76.0-2.17","1249","1350","16","Female","false","true","true","true","""event"",""trial"",""time""
""fullscreenenter"",""5"",""13201""
","
","
","""event"",""trial"",""time""
""fullscreenenter"",""5"",""13201""
","
","","images/earth.jpg","","","","","","","","","","","","","","fixation","","","","","",""
"d3-animate-choice","189","604736","0.0-76.0-0.18","1249","1350","16","Female","false","true","true","true","""event"",""trial"",""time""
""fullscreenenter"",""5"",""13201""
","
","
","""event"",""trial"",""time""
""fullscreenenter"",""5"",""13201""
","
","252.20000000298023","","49","","","3000","1","","","images/earth.jpg","images/rocket1","images/rocket2","null","images/rocket2","","1","real","null","1","","",""
"d3-animate-choice","190","607505","0.0-76.0-1.18","1249","1350","16","Female","false","true","true","true","""event"",""trial"",""time""
""fullscreenenter"",""5"",""13201""
","
","
","""event"",""trial"",""time""
""fullscreenenter"",""5"",""13201""
","
","762.3000000044703","","48","","","3000","1","","","images/redplanet1.jpg","images/alien2","images/alien1","images/rocket2","images/alien2","images/t.png","2","real","false","2","rare","1","2022-04-15 01:38:09.365"
"two-step-fixation","191","608512","0.0-76.0-2.18","1249","1350","16","Female","false","true","true","true","""event"",""trial"",""time""
""fullscreenenter"",""5"",""13201""
","
","
","""event"",""trial"",""time""
""fullscreenenter"",""5"",""13201""
","
","","images/earth.jpg","","","","","","","","","","","","","","fixation","","","","","",""
"d3-animate-choice","192","611200","0.0-76.0-0.19","1249","1350","16","Female","false","true","true","true","""event"",""trial"",""time""
""fullscreenenter"",""5"",""13201""
","
","
","""event"",""trial"",""time""
""fullscreenenter"",""5"",""13201""
","
","325.1000000014901","","50","","","3000","1","682.7000000029802","48","images/earth.jpg","images/rocket1","images/rocket2","null","images/rocket1","","1","real","null","","","",""
"d3-animate-choice","193","613558","0.0-76.0-1.19","1249","1350","16","Female","false","true","true","true","""event"",""trial"",""time""
""fullscreenenter"",""5"",""13201""
","
","
","""event"",""trial"",""time""
""fullscreenenter"",""5"",""13201""
","
","350.1000000014901","","48","","","3000","1","","","images/redplanet1.jpg","images/alien2","images/alien1","images/rocket1","images/alien2","images/t.png","2","real","true","2","common","1","2022-04-15 01:38:15.418"
"two-step-fixation","194","614566","0.0-76.0-2.19","1249","1350","16","Female","false","true","true","true","""event"",""trial"",""time""
""fullscreenenter"",""5"",""13201""
","
","
","""event"",""trial"",""time""
""fullscreenenter"",""5"",""13201""
","
","","images/earth.jpg","","","","","","","","","","","","","","fixation","","","","","",""
"d3-animate-choice","195","616830","0.0-76.0-0.20","1249","1350","16","Female","false","true","true","true","""event"",""trial"",""time""
""fullscreenenter"",""5"",""13201""
","
","
","""event"",""trial"",""time""
""fullscreenenter"",""5"",""13201""
","
","259.80000000447035","","48","","","3000","1","","","images/earth.jpg","images/rocket1","images/rocket2","null","images/rocket1","","1","real","null","2","","",""
"d3-animate-choice","196","619270","0.0-76.0-1.20","1249","1350","16","Female","false","true","true","true","""event"",""trial"",""time""
""fullscreenenter"",""5"",""13201""
","
","
","""event"",""trial"",""time""
""fullscreenenter"",""5"",""13201""
","
","435.8999999985099","","48","","","3000","1","","","images/redplanet1.jpg","images/alien2","images/alien1","images/rocket1","images/alien2","images/t.png","2","real","true","2","common","1","2022-04-15 01:38:21.130"
"two-step-fixation","197","620277","0.0-76.0-2.20","1249","1350","16","Female","false","true","true","true","""event"",""trial"",""time""
""fullscreenenter"",""5"",""13201""
","
","
","""event"",""trial"",""time""
""fullscreenenter"",""5"",""13201""
","
","","images/earth.jpg","","","","","","","","","","","","","","fixation","","","","","",""
"d3-animate-choice","198","622571","0.0-76.0-0.21","1249","1350","16","Female","false","true","true","true","""event"",""trial"",""time""
""fullscreenenter"",""5"",""13201""
","
","
","""event"",""trial"",""time""
""fullscreenenter"",""5"",""13201""
","
","285.90000000596046","","48","","","3000","1","","","images/earth.jpg","images/rocket1","images/rocket2","null","images/rocket1","","1","real","null","2","","",""
"d3-animate-choice","199","624858","0.0-76.0-1.21","1249","1350","16","Female","false","true","true","true","""event"",""trial"",""time""
""fullscreenenter"",""5"",""13201""
","
","
","""event"",""trial"",""time""
""fullscreenenter"",""5"",""13201""
","
","282.30000000447035","","48","","","3000","1","","","images/purpleplanet.jpg","images/alien4","images/alien3","images/rocket1","images/alien4","images/nothing.png","2","real","false","2","rare","0","2022-04-15 01:38:26.718"
"two-step-fixation","200","625862","0.0-76.0-2.21","1249","1350","16","Female","false","true","true","true","""event"",""trial"",""time""
""fullscreenenter"",""5"",""13201""
","
","
","""event"",""trial"",""time""
""fullscreenenter"",""5"",""13201""
","
","","images/earth.jpg","","","","","","","","","","","","","","fixation","","","","","",""
"d3-animate-choice","201","628188","0.0-76.0-0.22","1249","1350","16","Female","false","true","true","true","""event"",""trial"",""time""
""fullscreenenter"",""5"",""13201""
","
","
","""event"",""trial"",""time""
""fullscreenenter"",""5"",""13201""
","
","319.6000000014901","","48","","","3000","1","582.3000000044703","48","images/earth.jpg","images/rocket1","images/rocket2","null","images/rocket1","","1","real","null","2","","",""
"d3-animate-choice","202","630605","0.0-76.0-1.22","1249","1350","16","Female","false","true","true","true","""event"",""trial"",""time""
""fullscreenenter"",""5"",""13201""
","
","
","""event"",""trial"",""time""
""fullscreenenter"",""5"",""13201""
","
","413.70000000298023","","48","","","3000","1","","","images/redplanet1.jpg","images/alien2","images/alien1","images/rocket1","images/alien2","images/t.png","2","real","true","2","common","1","2022-04-15 01:38:32.466"
"two-step-fixation","203","631610","0.0-76.0-2.22","1249","1350","16","Female","false","true","true","true","""event"",""trial"",""time""
""fullscreenenter"",""5"",""13201""
","
","
","""event"",""trial"",""time""
""fullscreenenter"",""5"",""13201""
","
","","images/earth.jpg","","","","","","","","","","","","","","fixation","","","","","",""
"d3-animate-choice","204","633734","0.0-76.0-0.23","1249","1350","16","Female","false","true","true","true","""event"",""trial"",""time""
""fullscreenenter"",""5"",""13201""
","
","
","""event"",""trial"",""time""
""fullscreenenter"",""5"",""13201""
","
","118","","48","","","3000","1","","","images/earth.jpg","images/rocket1","images/rocket2","null","images/rocket1","","1","real","null","2","","",""
"d3-animate-choice","205","636233","0.0-76.0-1.23","1249","1350","16","Female","false","true","true","true","""event"",""trial"",""time""
""fullscreenenter"",""5"",""13201""
","
","
","""event"",""trial"",""time""
""fullscreenenter"",""5"",""13201""
","
","494.59999999403954","","48","","","3000","1","","","images/purpleplanet.jpg","images/alien4","images/alien3","images/rocket1","images/alien4","images/nothing.png","2","real","false","2","rare","0","2022-04-15 01:38:38.093"
"two-step-fixation","206","637238","0.0-76.0-2.23","1249","1350","16","Female","false","true","true","true","""event"",""trial"",""time""
""fullscreenenter"",""5"",""13201""
","
","
","""event"",""trial"",""time""
""fullscreenenter"",""5"",""13201""
","
","","images/earth.jpg","","","","","","","","","","","","","","fixation","","","","","",""
"d3-animate-choice","207","639532","0.0-76.0-0.24","1249","1350","16","Female","false","true","true","true","""event"",""trial"",""time""
""fullscreenenter"",""5"",""13201""
","
","
","""event"",""trial"",""time""
""fullscreenenter"",""5"",""13201""
","
","286.69999999552965","","48","","","3000","1","","","images/earth.jpg","images/rocket1","images/rocket2","null","images/rocket1","","1","real","null","2","","",""
"d3-animate-choice","208","642094","0.0-76.0-1.24","1249","1350","16","Female","false","true","true","true","""event"",""trial"",""time""
""fullscreenenter"",""5"",""13201""
","
","
","""event"",""trial"",""time""
""fullscreenenter"",""5"",""13201""
","
","558.1000000014901","","48","","","3000","1","","","images/redplanet1.jpg","images/alien2","images/alien1","images/rocket1","images/alien2","images/t.png","2","real","true","2","common","1","2022-04-15 01:38:43.955"
"two-step-fixation","209","643100","0.0-76.0-2.24","1249","1350","16","Female","false","true","true","true","""event"",""trial"",""time""
""fullscreenenter"",""5"",""13201""
","
","
","""event"",""trial"",""time""
""fullscreenenter"",""5"",""13201""
","
","","images/earth.jpg","","","","","","","","","","","","","","fixation","","","","","",""
"d3-animate-choice","210","645382","0.0-76.0-0.25","1249","1350","16","Female","false","true","true","true","""event"",""trial"",""time""
""fullscreenenter"",""5"",""13201""
","
","
","""event"",""trial"",""time""
""fullscreenenter"",""5"",""13201""
","
","277.5","","48","","","3000","1","","","images/earth.jpg","images/rocket1","images/rocket2","null","images/rocket1","","1","real","null","2","","",""
"d3-animate-choice","211","647889","0.0-76.0-1.25","1249","1350","16","Female","false","true","true","true","""event"",""trial"",""time""
""fullscreenenter"",""5"",""13201""
","
","
","""event"",""trial"",""time""
""fullscreenenter"",""5"",""13201""
","
","503.19999999552965","","48","","","3000","1","","","images/redplanet1.jpg","images/alien2","images/alien1","images/rocket1","images/alien2","images/nothing.png","2","real","true","2","common","0","2022-04-15 01:38:49.749"
"two-step-fixation","212","648893","0.0-76.0-2.25","1249","1350","16","Female","false","true","true","true","""event"",""trial"",""time""
""fullscreenenter"",""5"",""13201""
","
","
","""event"",""trial"",""time""
""fullscreenenter"",""5"",""13201""
","
","","images/earth.jpg","","","","","","","","","","","","","","fixation","","","","","",""
"d3-animate-choice","213","651180","0.0-76.0-0.26","1249","1350","16","Female","false","true","true","true","""event"",""trial"",""time""
""fullscreenenter"",""5"",""13201""
","
","
","""event"",""trial"",""time""
""fullscreenenter"",""5"",""13201""
","
","278.70000000298023","","48","","","3000","1","","","images/earth.jpg","images/rocket1","images/rocket2","null","images/rocket1","","1","real","null","2","","",""
"d3-animate-choice","214","653868","0.0-76.0-1.26","1249","1350","16","Female","false","true","true","true","""event"",""trial"",""time""
""fullscreenenter"",""5"",""13201""
","
","
","""event"",""trial"",""time""
""fullscreenenter"",""5"",""13201""
","
","684","","49","","","3000","1","","","images/purpleplanet.jpg","images/alien4","images/alien3","images/rocket1","images/alien3","images/nothing.png","2","real","false","1","rare","0","2022-04-15 01:38:55.728"
"two-step-fixation","215","654872","0.0-76.0-2.26","1249","1350","16","Female","false","true","true","true","""event"",""trial"",""time""
""fullscreenenter"",""5"",""13201""
","
","
","""event"",""trial"",""time""
""fullscreenenter"",""5"",""13201""
","
","","images/earth.jpg","","","","","","","","","","","","","","fixation","","","","","",""
"d3-animate-choice","216","657221","0.0-76.0-0.27","1249","1350","16","Female","false","true","true","true","""event"",""trial"",""time""
""fullscreenenter"",""5"",""13201""
","
","
","""event"",""trial"",""time""
""fullscreenenter"",""5"",""13201""
","
","344.70000000298023","","48","","","3000","1","","","images/earth.jpg","images/rocket1","images/rocket2","null","images/rocket1","","1","real","null","2","","",""
"d3-animate-choice","217","659736","0.0-76.0-1.27","1249","1350","16","Female","false","true","true","true","""event"",""trial"",""time""
""fullscreenenter"",""5"",""13201""
","
","
","""event"",""trial"",""time""
""fullscreenenter"",""5"",""13201""
","
","511.3999999985099","","48","","","3000","1","","","images/redplanet1.jpg","images/alien2","images/alien1","images/rocket1","images/alien2","images/nothing.png","2","real","true","2","common","0","2022-04-15 01:39:01.596"
"two-step-fixation","218","660743","0.0-76.0-2.27","1249","1350","16","Female","false","true","true","true","""event"",""trial"",""time""
""fullscreenenter"",""5"",""13201""
","
","
","""event"",""trial"",""time""
""fullscreenenter"",""5"",""13201""
","
","","images/earth.jpg","","","","","","","","","","","","","","fixation","","","","","",""
"d3-animate-choice","219","663287","0.0-76.0-0.28","1249","1350","16","Female","false","true","true","true","""event"",""trial"",""time""
""fullscreenenter"",""5"",""13201""
","
","
","""event"",""trial"",""time""
""fullscreenenter"",""5"",""13201""
","
","539.6000000014901","","48","","","3000","1","","","images/earth.jpg","images/rocket1","images/rocket2","null","images/rocket1","","1","real","null","2","","",""
"d3-animate-choice","220","665860","0.0-76.0-1.28","1249","1350","16","Female","false","true","true","true","""event"",""trial"",""time""
""fullscreenenter"",""5"",""13201""
","
","
","""event"",""trial"",""time""
""fullscreenenter"",""5"",""13201""
","
","569.6999999955297","","48","","","3000","1","","","images/redplanet1.jpg","images/alien2","images/alien1","images/rocket1","images/alien2","images/t.png","2","real","true","2","common","1","2022-04-15 01:39:07.720"
"two-step-fixation","221","666864","0.0-76.0-2.28","1249","1350","16","Female","false","true","true","true","""event"",""trial"",""time""
""fullscreenenter"",""5"",""13201""
","
","
","""event"",""trial"",""time""
""fullscreenenter"",""5"",""13201""
","
","","images/earth.jpg","","","","","","","","","","","","","","fixation","","","","","",""
"d3-animate-choice","222","669175","0.0-76.0-0.29","1249","1350","16","Female","false","true","true","true","""event"",""trial"",""time""
""fullscreenenter"",""5"",""13201""
","
","
","""event"",""trial"",""time""
""fullscreenenter"",""5"",""13201""
","
","302.1000000014901","","48","","","3000","1","","","images/earth.jpg","images/rocket1","images/rocket2","null","images/rocket1","","1","real","null","2","","",""
"d3-animate-choice","223","671602","0.0-76.0-1.29","1249","1350","16","Female","false","true","true","true","""event"",""trial"",""time""
""fullscreenenter"",""5"",""13201""
","
","
","""event"",""trial"",""time""
""fullscreenenter"",""5"",""13201""
","
","420.8999999985099","","48","","","3000","1","","","images/redplanet1.jpg","images/alien2","images/alien1","images/rocket1","images/alien2","images/nothing.png","2","real","true","2","common","0","2022-04-15 01:39:13.462"
"two-step-fixation","224","672606","0.0-76.0-2.29","1249","1350","16","Female","false","true","true","true","""event"",""trial"",""time""
""fullscreenenter"",""5"",""13201""
","
","
","""event"",""trial"",""time""
""fullscreenenter"",""5"",""13201""
","
","","images/earth.jpg","","","","","","","","","","","","","","fixation","","","","","",""
"d3-animate-choice","225","674917","0.0-76.0-0.30","1249","1350","16","Female","false","true","true","true","""event"",""trial"",""time""
""fullscreenenter"",""5"",""13201""
","
","
","""event"",""trial"",""time""
""fullscreenenter"",""5"",""13201""
","
","306.5","","48","","","3000","1","","","images/earth.jpg","images/rocket1","images/rocket2","null","images/rocket1","","1","real","null","2","","",""
"d3-animate-choice","226","677346","0.0-76.0-1.30","1249","1350","16","Female","false","true","true","true","""event"",""trial"",""time""
""fullscreenenter"",""5"",""13201""
","
","
","""event"",""trial"",""time""
""fullscreenenter"",""5"",""13201""
","
","425.09999999403954","","49","","","3000","1","","","images/purpleplanet.jpg","images/alien4","images/alien3","images/rocket1","images/alien3","images/nothing.png","2","real","false","1","rare","0","2022-04-15 01:39:19.207"
"two-step-fixation","227","678351","0.0-76.0-2.30","1249","1350","16","Female","false","true","true","true","""event"",""trial"",""time""
""fullscreenenter"",""5"",""13201""
","
","
","""event"",""trial"",""time""
""fullscreenenter"",""5"",""13201""
","
","","images/earth.jpg","","","","","","","","","","","","","","fixation","","","","","",""
"d3-animate-choice","228","680691","0.0-76.0-0.31","1249","1350","16","Female","false","true","true","true","""event"",""trial"",""time""
""fullscreenenter"",""5"",""13201""
","
","
","""event"",""trial"",""time""
""fullscreenenter"",""5"",""13201""
","
","335.59999999403954","","48","","","3000","1","","","images/earth.jpg","images/rocket1","images/rocket2","null","images/rocket1","","1","real","null","2","","",""
"d3-animate-choice","229","683975","0.0-76.0-1.31","1249","1350","16","Female","false","true","true","true","""event"",""trial"",""time""
""fullscreenenter"",""5"",""13201""
","
","
","""event"",""trial"",""time""
""fullscreenenter"",""5"",""13201""
","
","1279","","48","","","3000","1","","","images/purpleplanet.jpg","images/alien4","images/alien3","images/rocket1","images/alien4","images/t.png","2","real","false","2","rare","1","2022-04-15 01:39:25.835"
"two-step-fixation","230","684980","0.0-76.0-2.31","1249","1350","16","Female","false","true","true","true","""event"",""trial"",""time""
""fullscreenenter"",""5"",""13201""
","
","
","""event"",""trial"",""time""
""fullscreenenter"",""5"",""13201""
","
","","images/earth.jpg","","","","","","","","","","","","","","fixation","","","","","",""
"d3-animate-choice","231","687325","0.0-76.0-0.32","1249","1350","16","Female","false","true","true","true","""event"",""trial"",""time""
""fullscreenenter"",""5"",""13201""
","
","
","""event"",""trial"",""time""
""fullscreenenter"",""5"",""13201""
","
","335.5","","48","","","3000","1","","","images/earth.jpg","images/rocket1","images/rocket2","null","images/rocket1","","1","real","null","2","","",""
"d3-animate-choice","232","689953","0.0-76.0-1.32","1249","1350","16","Female","false","true","true","true","""event"",""trial"",""time""
""fullscreenenter"",""5"",""13201""
","
","
","""event"",""trial"",""time""
""fullscreenenter"",""5"",""13201""
","
","624","","48","","","3000","1","","","images/purpleplanet.jpg","images/alien4","images/alien3","images/rocket1","images/alien4","images/nothing.png","2","real","false","2","rare","0","2022-04-15 01:39:31.813"
"two-step-fixation","233","690957","0.0-76.0-2.32","1249","1350","16","Female","false","true","true","true","""event"",""trial"",""time""
""fullscreenenter"",""5"",""13201""
","
","
","""event"",""trial"",""time""
""fullscreenenter"",""5"",""13201""
","
","","images/earth.jpg","","","","","","","","","","","","","","fixation","","","","","",""
"d3-animate-choice","234","693245","0.0-76.0-0.33","1249","1350","16","Female","false","true","true","true","""event"",""trial"",""time""
""fullscreenenter"",""5"",""13201""
","
","
","""event"",""trial"",""time""
""fullscreenenter"",""5"",""13201""
","
","283.69999999552965","","48","","","3000","1","","","images/earth.jpg","images/rocket1","images/rocket2","null","images/rocket1","","1","real","null","2","","",""
"d3-animate-choice","235","696083","0.0-76.0-1.33","1249","1350","16","Female","false","true","true","true","""event"",""trial"",""time""
""fullscreenenter"",""5"",""13201""
","
","
","""event"",""trial"",""time""
""fullscreenenter"",""5"",""13201""
","
","834.7999999970198","","49","","","3000","1","","","images/redplanet1.jpg","images/alien2","images/alien1","images/rocket1","images/alien1","images/t.png","2","real","true","1","common","1","2022-04-15 01:39:37.943"
"two-step-fixation","236","697087","0.0-76.0-2.33","1249","1350","16","Female","false","true","true","true","""event"",""trial"",""time""
""fullscreenenter"",""5"",""13201""
","
","
","""event"",""trial"",""time""
""fullscreenenter"",""5"",""13201""
","
","","images/earth.jpg","","","","","","","","","","","","","","fixation","","","","","",""
"d3-animate-choice","237","699429","0.0-76.0-0.34","1249","1350","16","Female","false","true","true","true","""event"",""trial"",""time""
""fullscreenenter"",""5"",""13201""
","
","
","""event"",""trial"",""time""
""fullscreenenter"",""5"",""13201""
","
","336.79999999701977","","48","","","3000","1","","","images/earth.jpg","images/rocket1","images/rocket2","null","images/rocket1","","1","real","null","2","","",""
"d3-animate-choice","238","701966","0.0-76.0-1.34","1249","1350","16","Female","false","true","true","true","""event"",""trial"",""time""
""fullscreenenter"",""5"",""13201""
","
","
","""event"",""trial"",""time""
""fullscreenenter"",""5"",""13201""
","
","533.6000000014901","","49","","","3000","1","","","images/redplanet1.jpg","images/alien2","images/alien1","images/rocket1","images/alien1","images/t.png","2","real","true","1","common","1","2022-04-15 01:39:43.827"
"two-step-fixation","239","702970","0.0-76.0-2.34","1249","1350","16","Female","false","true","true","true","""event"",""trial"",""time""
""fullscreenenter"",""5"",""13201""
","
","
","""event"",""trial"",""time""
""fullscreenenter"",""5"",""13201""
","
","","images/earth.jpg","","","","","","","","","","","","","","fixation","","","","","",""
"d3-animate-choice","240","705328","0.0-76.0-0.35","1249","1350","16","Female","false","true","true","true","""event"",""trial"",""time""
""fullscreenenter"",""5"",""13201""
","
","
","""event"",""trial"",""time""
""fullscreenenter"",""5"",""13201""
","
","353.5","","48","","","3000","1","","","images/earth.jpg","images/rocket1","images/rocket2","null","images/rocket1","","1","real","null","2","","",""
"d3-animate-choice","241","707807","0.0-76.0-1.35","1249","1350","16","Female","false","true","true","true","""event"",""trial"",""time""
""fullscreenenter"",""5"",""13201""
","
","
","""event"",""trial"",""time""
""fullscreenenter"",""5"",""13201""
","
","474.8999999985099","","49","","","3000","1","","","images/redplanet1.jpg","images/alien2","images/alien1","images/rocket1","images/alien1","images/t.png","2","real","true","1","common","1","2022-04-15 01:39:49.667"
"two-step-fixation","242","708812","0.0-76.0-2.35","1249","1350","16","Female","false","true","true","true","""event"",""trial"",""time""
""fullscreenenter"",""5"",""13201""
","
","
","""event"",""trial"",""time""
""fullscreenenter"",""5"",""13201""
","
","","images/earth.jpg","","","","","","","","","","","","","","fixation","","","","","",""
"d3-animate-choice","243","710885","0.0-76.0-0.36","1249","1350","16","Female","false","true","true","true","""event"",""trial"",""time""
""fullscreenenter"",""5"",""13201""
","
","
","""event"",""trial"",""time""
""fullscreenenter"",""5"",""13201""
","
","71","","48","","","3000","1","","","images/earth.jpg","images/rocket1","images/rocket2","null","images/rocket1","","1","real","null","2","","",""
"d3-animate-choice","244","713226","0.0-76.0-1.36","1249","1350","16","Female","false","true","true","true","""event"",""trial"",""time""
""fullscreenenter"",""5"",""13201""
","
","
","""event"",""trial"",""time""
""fullscreenenter"",""5"",""13201""
","
","336.29999999701977","","49","","","3000","1","","","images/redplanet1.jpg","images/alien2","images/alien1","images/rocket1","images/alien1","images/t.png","2","real","true","1","common","1","2022-04-15 01:39:55.086"
"two-step-fixation","245","714232","0.0-76.0-2.36","1249","1350","16","Female","false","true","true","true","""event"",""trial"",""time""
""fullscreenenter"",""5"",""13201""
","
","
","""event"",""trial"",""time""
""fullscreenenter"",""5"",""13201""
","
","","images/earth.jpg","","","","","","","","","","","","","","fixation","","","","","",""
"d3-animate-choice","246","716296","0.0-76.0-0.37","1249","1350","16","Female","false","true","true","true","""event"",""trial"",""time""
""fullscreenenter"",""5"",""13201""
","
","
","""event"",""trial"",""time""
""fullscreenenter"",""5"",""13201""
","
","57.79999999701977","","48","","","3000","1","","","images/earth.jpg","images/rocket1","images/rocket2","null","images/rocket1","","1","real","null","2","","",""
"d3-animate-choice","247","718603","0.0-76.0-1.37","1249","1350","16","Female","false","true","true","true","""event"",""trial"",""time""
""fullscreenenter"",""5"",""13201""
","
","
","""event"",""trial"",""time""
""fullscreenenter"",""5"",""13201""
","
