trial_type,trial_index,time_elapsed,internal_node_id,participant_id,subject_id,age,gender,rocket_sides,red_planet_first_rocket,red_display_order,purple_display_order,interactions,blur_events,focus_events,fullscreenenter_events,fullscreenexit_events,rt,stimulus,key_press,button_pressed,success,duration,valid_pressed,rts,keys,planet_text,right_text,left_text,center_text,chosen_text,reward_text,trial_stage,practice_trial,transition_type,choice,transition,reward,timestamp
pavlovia,0,4,0.0-0.0,1245,1218,25,Male,FALSE,TRUE,FALSE,TRUE,"
","
","
","
","
",,,,,,,,,,,,,,,,,,,,,,
html-keyboard-response,1,1551,0.0-1.0,1245,1218,25,Male,FALSE,TRUE,FALSE,TRUE,"
","
","
","
","
",1546.3,Welcome! Press the space bar to begin.,32,,,,,,,,,,,,,,,,,,,
audio-keyboard-response,2,7873,0.0-2.0,1245,1218,25,Male,FALSE,TRUE,FALSE,TRUE,"
","
","
","
","
",6200,audio/beep_loop.wav,32,,,,,,,,,,,,,,,,,,,
audio-button-response,3,12251,0.0-3.0,1245,1218,25,Male,FALSE,TRUE,FALSE,TRUE,"
","
","
","
","
",NaN,audio/fish.mp3,,1,,,,,,,,,,,,,,,,,,
audio-button-response,4,14690,0.0-4.0,1245,1218,25,Male,FALSE,TRUE,FALSE,TRUE,"""event"",""trial"",""time""
""fullscreenenter"",""5"",""17939""
","
","
","""event"",""trial"",""time""
""fullscreenenter"",""5"",""17939""
","
",NaN,audio/tiger.mp3,,4,,,,,,,,,,,,,,,,,,
fullscreen,5,18913,0.0-5.0,1245,1218,25,Male,FALSE,TRUE,FALSE,TRUE,"""event"",""trial"",""time""
""fullscreenenter"",""5"",""17939""
","
","
","""event"",""trial"",""time""
""fullscreenenter"",""5"",""17939""
","
",,,,,TRUE,,,,,,,,,,,,,,,,,
d3-instructions,6,34196,0.0-6.0,1245,1218,25,Male,FALSE,TRUE,FALSE,TRUE,"""event"",""trial"",""time""
""fullscreenenter"",""5"",""17939""
","
","
","""event"",""trial"",""time""
""fullscreenenter"",""5"",""17939""
","
",,,,,,,,,,,,,,,,,,,,,,
d3-instructions,7,43524,0.0-7.0,1245,1218,25,Male,FALSE,TRUE,FALSE,TRUE,"""event"",""trial"",""time""
""fullscreenenter"",""5"",""17939""
","
","
","""event"",""trial"",""time""
""fullscreenenter"",""5"",""17939""
","
",,,,,,,,,,,,,,,,,,,,,,
d3-instructions,8,53802,0.0-8.0,1245,1218,25,Male,FALSE,TRUE,FALSE,TRUE,"""event"",""trial"",""time""
""fullscreenenter"",""5"",""17939""
","
","
","""event"",""trial"",""time""
""fullscreenenter"",""5"",""17939""
","
",,,,,,,,,,,,,,,,,,,,,,
d3-instructions,9,70982,0.0-9.0,1245,1218,25,Male,FALSE,TRUE,FALSE,TRUE,"""event"",""trial"",""time""
""fullscreenenter"",""5"",""17939""
","
","
","""event"",""trial"",""time""
""fullscreenenter"",""5"",""17939""
","
",,,,,,,,,,,,,,,,,,,,,,
d3-instructions,10,92153,0.0-10.0,1245,1218,25,Male,FALSE,TRUE,FALSE,TRUE,"""event"",""trial"",""time""
""fullscreenenter"",""5"",""17939""
","
","
","""event"",""trial"",""time""
""fullscreenenter"",""5"",""17939""
","
",,,,,,,,,,,,,,,,,,,,,,
d3-animate-choice,11,95438,0.0-11.0,1245,1218,25,Male,FALSE,TRUE,FALSE,TRUE,"""event"",""trial"",""time""
""fullscreenenter"",""5"",""17939""
","
","
","""event"",""trial"",""time""
""fullscreenenter"",""5"",""17939""
","
",1277.5,,49,,,3000,1,2205.6,48,images/tutgreenplanet.jpg,images/tutalien1,images/tutalien2,null,images/tutalien2,,NA,practice,null,,,,
d3-animate-choice,12,97516,0.0-12.0,1245,1218,25,Male,FALSE,TRUE,FALSE,TRUE,"""event"",""trial"",""time""
""fullscreenenter"",""5"",""17939""
","
","
","""event"",""trial"",""time""
""fullscreenenter"",""5"",""17939""
","
",72.2,,48,,,3000,1,,,images/tutgreenplanet.jpg,images/tutalien1,images/tutalien2,null,images/tutalien1,,NA,practice,null,,,,
d3-animate-choice,13,99938,0.0-13.0,1245,1218,25,Male,FALSE,TRUE,FALSE,TRUE,"""event"",""trial"",""time""
""fullscreenenter"",""5"",""17939""
","
","
","""event"",""trial"",""time""
""fullscreenenter"",""5"",""17939""
","
",418.7,,48,,,3000,1,,,images/tutgreenplanet.jpg,images/tutalien1,images/tutalien2,null,images/tutalien1,,NA,practice,null,,,,
d3-animate-choice,14,102317,0.0-14.0,1245,1218,25,Male,FALSE,TRUE,FALSE,TRUE,"""event"",""trial"",""time""
""fullscreenenter"",""5"",""17939""
","
","
","""event"",""trial"",""time""
""fullscreenenter"",""5"",""17939""
","
",373.3,,49,,,3000,1,,,images/tutgreenplanet.jpg,images/tutalien1,images/tutalien2,null,images/tutalien2,,NA,practice,null,,,,
d3-instructions,15,110586,0.0-15.0,1245,1218,25,Male,FALSE,TRUE,FALSE,TRUE,"""event"",""trial"",""time""
""fullscreenenter"",""5"",""17939""
","
","
","""event"",""trial"",""time""
""fullscreenenter"",""5"",""17939""
","
",,,,,,,,,,,,,,,,,,,,,,
d3-instructions,16,117222,0.0-16.0,1245,1218,25,Male,FALSE,TRUE,FALSE,TRUE,"""event"",""trial"",""time""
""fullscreenenter"",""5"",""17939""
","
","
","""event"",""trial"",""time""
""fullscreenenter"",""5"",""17939""
","
",,,,,,,,,,,,,,,,,,,,,,
d3-instructions,17,127070,0.0-17.0,1245,1218,25,Male,FALSE,TRUE,FALSE,TRUE,"""event"",""trial"",""time""
""fullscreenenter"",""5"",""17939""
","
","
","""event"",""trial"",""time""
""fullscreenenter"",""5"",""17939""
","
",,,,,,,,,,,,,,,,,,,,,,
d3-instructions,18,142924,0.0-18.0,1245,1218,25,Male,FALSE,TRUE,FALSE,TRUE,"""event"",""trial"",""time""
""fullscreenenter"",""5"",""17939""
","
","
","""event"",""trial"",""time""
""fullscreenenter"",""5"",""17939""
","
",,,,,,,,,,,,,,,,,,,,,,
d3-instructions,19,156837,0.0-19.0,1245,1218,25,Male,FALSE,TRUE,FALSE,TRUE,"""event"",""trial"",""time""
""fullscreenenter"",""5"",""17939""
","
","
","""event"",""trial"",""time""
""fullscreenenter"",""5"",""17939""
","
",,,,,,,,,,,,,,,,,,,,,,
d3-animate-choice,20,160010,0.0-20.0,1245,1218,25,Male,FALSE,TRUE,FALSE,TRUE,"""event"",""trial"",""time""
""fullscreenenter"",""5"",""17939""
","
","
","""event"",""trial"",""time""
""fullscreenenter"",""5"",""17939""
","
",1166.2,,49,,,3000,1,,,images/tutyellowplanet.jpg,null,images/tutalien3,null,images/tutalien3,images/t.png,NA,practice,null,,,,
d3-animate-choice,21,162431,0.0-21.0,1245,1218,25,Male,FALSE,TRUE,FALSE,TRUE,"""event"",""trial"",""time""
""fullscreenenter"",""5"",""17939""
","
","
","""event"",""trial"",""time""
""fullscreenenter"",""5"",""17939""
","
",417,,49,,,3000,1,,,images/tutyellowplanet.jpg,null,images/tutalien3,null,images/tutalien3,images/t.png,NA,practice,null,,,,
d3-animate-choice,22,164761,0.0-22.0,1245,1218,25,Male,FALSE,TRUE,FALSE,TRUE,"""event"",""trial"",""time""
""fullscreenenter"",""5"",""17939""
","
","
","""event"",""trial"",""time""
""fullscreenenter"",""5"",""17939""
","
",323.9,,49,,,3000,1,,,images/tutyellowplanet.jpg,null,images/tutalien3,null,images/tutalien3,images/t.png,NA,practice,null,,,,
d3-animate-choice,23,167104,0.0-23.0,1245,1218,25,Male,FALSE,TRUE,FALSE,TRUE,"""event"",""trial"",""time""
""fullscreenenter"",""5"",""17939""
","
","
","""event"",""trial"",""time""
""fullscreenenter"",""5"",""17939""
","
",337.6,,49,,,3000,1,,,images/tutyellowplanet.jpg,null,images/tutalien3,null,images/tutalien3,images/t.png,NA,practice,null,,,,
d3-animate-choice,24,169502,0.0-24.0,1245,1218,25,Male,FALSE,TRUE,FALSE,TRUE,"""event"",""trial"",""time""
""fullscreenenter"",""5"",""17939""
","
","
","""event"",""trial"",""time""
""fullscreenenter"",""5"",""17939""
","
",394.8,,49,,,3000,1,,,images/tutyellowplanet.jpg,null,images/tutalien3,null,images/tutalien3,images/t.png,NA,practice,null,,,,
d3-animate-choice,25,171916,0.0-25.0,1245,1218,25,Male,FALSE,TRUE,FALSE,TRUE,"""event"",""trial"",""time""
""fullscreenenter"",""5"",""17939""
","
","
","""event"",""trial"",""time""
""fullscreenenter"",""5"",""17939""
","
",413,,49,,,3000,1,2245,49,images/tutyellowplanet.jpg,null,images/tutalien3,null,images/tutalien3,images/t.png,NA,practice,null,,,,
d3-animate-choice,26,174439,0.0-26.0,1245,1218,25,Male,FALSE,TRUE,FALSE,TRUE,"""event"",""trial"",""time""
""fullscreenenter"",""5"",""17939""
","
","
","""event"",""trial"",""time""
""fullscreenenter"",""5"",""17939""
","
",517.4,,49,,,3000,1,,,images/tutyellowplanet.jpg,null,images/tutalien3,null,images/tutalien3,images/t.png,NA,practice,null,,,,
d3-animate-choice,27,176943,0.0-27.0,1245,1218,25,Male,FALSE,TRUE,FALSE,TRUE,"""event"",""trial"",""time""
""fullscreenenter"",""5"",""17939""
","
","
","""event"",""trial"",""time""
""fullscreenenter"",""5"",""17939""
","
",498.7,,49,,,3000,1,,,images/tutyellowplanet.jpg,null,images/tutalien3,null,images/tutalien3,images/t.png,NA,practice,null,,,,
d3-animate-choice,28,179358,0.0-28.0,1245,1218,25,Male,FALSE,TRUE,FALSE,TRUE,"""event"",""trial"",""time""
""fullscreenenter"",""5"",""17939""
","
","
","""event"",""trial"",""time""
""fullscreenenter"",""5"",""17939""
","
",409.4,,49,,,3000,1,,,images/tutyellowplanet.jpg,null,images/tutalien3,null,images/tutalien3,images/t.png,NA,practice,null,,,,
d3-animate-choice,29,181744,0.0-29.0,1245,1218,25,Male,FALSE,TRUE,FALSE,TRUE,"""event"",""trial"",""time""
""fullscreenenter"",""5"",""17939""
","
","
","""event"",""trial"",""time""
""fullscreenenter"",""5"",""17939""
","
",380.5,,49,,,3000,1,,,images/tutyellowplanet.jpg,null,images/tutalien3,null,images/tutalien3,images/t.png,NA,practice,null,,,,
d3-instructions,30,190355,0.0-30.0,1245,1218,25,Male,FALSE,TRUE,FALSE,TRUE,"""event"",""trial"",""time""
""fullscreenenter"",""5"",""17939""
","
","
","""event"",""trial"",""time""
""fullscreenenter"",""5"",""17939""
","
",,,,,,,,,,,,,,,,,,,,,,
d3-instructions,31,202670,0.0-31.0,1245,1218,25,Male,FALSE,TRUE,FALSE,TRUE,"""event"",""trial"",""time""
""fullscreenenter"",""5"",""17939""
","
","
","""event"",""trial"",""time""
""fullscreenenter"",""5"",""17939""
","
",,,,,,,,,,,,,,,,,,,,,,
d3-instructions,32,212418,0.0-32.0,1245,1218,25,Male,FALSE,TRUE,FALSE,TRUE,"""event"",""trial"",""time""
""fullscreenenter"",""5"",""17939""
","
","
","""event"",""trial"",""time""
""fullscreenenter"",""5"",""17939""
","
",,,,,,,,,,,,,,,,,,,,,,
d3-instructions,33,223038,0.0-33.0,1245,1218,25,Male,FALSE,TRUE,FALSE,TRUE,"""event"",""trial"",""time""
""fullscreenenter"",""5"",""17939""
","
","
","""event"",""trial"",""time""
""fullscreenenter"",""5"",""17939""
","
",,,,,,,,,,,,,,,,,,,,,,
d3-animate-choice,34,226354,0.0-34.0,1245,1218,25,Male,FALSE,TRUE,FALSE,TRUE,"""event"",""trial"",""time""
""fullscreenenter"",""5"",""17939""
","
","
","""event"",""trial"",""time""
""fullscreenenter"",""5"",""17939""
","
",1310,,49,,,3000,1,,,images/tutgreenplanet.jpg,images/tutalien1,images/tutalien2,null,images/tutalien2,images/t.png,NA,practice,null,,,,
d3-animate-choice,35,228681,0.0-35.0,1245,1218,25,Male,FALSE,TRUE,FALSE,TRUE,"""event"",""trial"",""time""
""fullscreenenter"",""5"",""17939""
","
","
","""event"",""trial"",""time""
""fullscreenenter"",""5"",""17939""
","
",322.1,,49,,,3000,1,,,images/tutgreenplanet.jpg,images/tutalien1,images/tutalien2,null,images/tutalien2,images/t.png,NA,practice,null,,,,
d3-animate-choice,36,230997,0.0-36.0,1245,1218,25,Male,FALSE,TRUE,FALSE,TRUE,"""event"",""trial"",""time""
""fullscreenenter"",""5"",""17939""
","
","
","""event"",""trial"",""time""
""fullscreenenter"",""5"",""17939""
","
",313.8,,49,,,3000,1,,,images/tutgreenplanet.jpg,images/tutalien1,images/tutalien2,null,images/tutalien2,images/nothing.png,NA,practice,null,,,,
d3-animate-choice,37,233354,0.0-37.0,1245,1218,25,Male,FALSE,TRUE,FALSE,TRUE,"""event"",""trial"",""time""
""fullscreenenter"",""5"",""17939""
","
","
","""event"",""trial"",""time""
""fullscreenenter"",""5"",""17939""
","
",350.3,,48,,,3000,1,,,images/tutgreenplanet.jpg,images/tutalien1,images/tutalien2,null,images/tutalien1,images/nothing.png,NA,practice,null,,,,
d3-animate-choice,38,235752,0.0-38.0,1245,1218,25,Male,FALSE,TRUE,FALSE,TRUE,"""event"",""trial"",""time""
""fullscreenenter"",""5"",""17939""
","
","
","""event"",""trial"",""time""
""fullscreenenter"",""5"",""17939""
","
",394.1,,48,,,3000,1,,,images/tutgreenplanet.jpg,images/tutalien1,images/tutalien2,null,images/tutalien1,images/nothing.png,NA,practice,null,,,,
d3-animate-choice,39,238074,0.0-39.0,1245,1218,25,Male,FALSE,TRUE,FALSE,TRUE,"""event"",""trial"",""time""
""fullscreenenter"",""5"",""17939""
","
","
","""event"",""trial"",""time""
""fullscreenenter"",""5"",""17939""
","
",316.1,,49,,,3000,1,,,images/tutgreenplanet.jpg,images/tutalien1,images/tutalien2,null,images/tutalien2,images/t.png,NA,practice,null,,,,
d3-animate-choice,40,240417,0.0-40.0,1245,1218,25,Male,FALSE,TRUE,FALSE,TRUE,"""event"",""trial"",""time""
""fullscreenenter"",""5"",""17939""
","
","
","""event"",""trial"",""time""
""fullscreenenter"",""5"",""17939""
","
",337.8,,49,,,3000,1,1817.8,49,images/tutgreenplanet.jpg,images/tutalien1,images/tutalien2,null,images/tutalien2,images/t.png,NA,practice,null,,,,
d3-animate-choice,41,242903,0.0-41.0,1245,1218,25,Male,FALSE,TRUE,FALSE,TRUE,"""event"",""trial"",""time""
""fullscreenenter"",""5"",""17939""
","
","
","""event"",""trial"",""time""
""fullscreenenter"",""5"",""17939""
","
",482.6,,49,,,3000,1,,,images/tutgreenplanet.jpg,images/tutalien1,images/tutalien2,null,images/tutalien2,images/t.png,NA,practice,null,,,,
d3-animate-choice,42,245353,0.0-42.0,1245,1218,25,Male,FALSE,TRUE,FALSE,TRUE,"""event"",""trial"",""time""
""fullscreenenter"",""5"",""17939""
","
","
","""event"",""trial"",""time""
""fullscreenenter"",""5"",""17939""
","
",444.2,,49,,,3000,1,,,images/tutgreenplanet.jpg,images/tutalien1,images/tutalien2,null,images/tutalien2,images/t.png,NA,practice,null,,,,
d3-animate-choice,43,247878,0.0-43.0,1245,1218,25,Male,FALSE,TRUE,FALSE,TRUE,"""event"",""trial"",""time""
""fullscreenenter"",""5"",""17939""
","
","
","""event"",""trial"",""time""
""fullscreenenter"",""5"",""17939""
","
",523.2,,49,,,3000,1,,,images/tutgreenplanet.jpg,images/tutalien1,images/tutalien2,null,images/tutalien2,images/t.png,NA,practice,null,,,,
d3-instructions,44,261625,0.0-44.0,1245,1218,25,Male,FALSE,TRUE,FALSE,TRUE,"""event"",""trial"",""time""
""fullscreenenter"",""5"",""17939""
","
","
","""event"",""trial"",""time""
""fullscreenenter"",""5"",""17939""
","
",,,,,,,,,,,,,,,,,,,,,,
d3-instructions,45,388455,0.0-45.0,1245,1218,25,Male,FALSE,TRUE,FALSE,TRUE,"""event"",""trial"",""time""
""fullscreenenter"",""5"",""17939""
","
","
","""event"",""trial"",""time""
""fullscreenenter"",""5"",""17939""
","
",,,,,,,,,,,,,,,,,,,,,,
d3-instructions,46,393711,0.0-46.0,1245,1218,25,Male,FALSE,TRUE,FALSE,TRUE,"""event"",""trial"",""time""
""fullscreenenter"",""5"",""17939""
","
","
","""event"",""trial"",""time""
""fullscreenenter"",""5"",""17939""
","
",,,,,,,,,,,,,,,,,,,,,,
d3-instructions,47,410450,0.0-47.0,1245,1218,25,Male,FALSE,TRUE,FALSE,TRUE,"""event"",""trial"",""time""
""fullscreenenter"",""5"",""17939""
","
","
","""event"",""trial"",""time""
""fullscreenenter"",""5"",""17939""
","
",,,,,,,,,,,,,,,,,,,,,,
d3-instructions,48,417074,0.0-48.0,1245,1218,25,Male,FALSE,TRUE,FALSE,TRUE,"""event"",""trial"",""time""
""fullscreenenter"",""5"",""17939""
","
","
","""event"",""trial"",""time""
""fullscreenenter"",""5"",""17939""
","
",,,,,,,,,,,,,,,,,,,,,,
d3-instructions,49,429249,0.0-49.0,1245,1218,25,Male,FALSE,TRUE,FALSE,TRUE,"""event"",""trial"",""time""
""fullscreenenter"",""5"",""17939""
","
","
","""event"",""trial"",""time""
""fullscreenenter"",""5"",""17939""
","
",,,,,,,,,,,,,,,,,,,,,,
d3-instructions,50,450110,0.0-50.0,1245,1218,25,Male,FALSE,TRUE,FALSE,TRUE,"""event"",""trial"",""time""
""fullscreenenter"",""5"",""17939""
","
","
","""event"",""trial"",""time""
""fullscreenenter"",""5"",""17939""
","
",,,,,,,,,,,,,,,,,,,,,,
d3-instructions,51,452790,0.0-51.0,1245,1218,25,Male,FALSE,TRUE,FALSE,TRUE,"""event"",""trial"",""time""
""fullscreenenter"",""5"",""17939""
","
","
","""event"",""trial"",""time""
""fullscreenenter"",""5"",""17939""
","
",,,,,,,,,,,,,,,,,,,,,,
d3-instructions,52,454342,0.0-52.0,1245,1218,25,Male,FALSE,TRUE,FALSE,TRUE,"""event"",""trial"",""time""
""fullscreenenter"",""5"",""17939""
","
","
","""event"",""trial"",""time""
""fullscreenenter"",""5"",""17939""
","
",,,,,,,,,,,,,,,,,,,,,,
d3-instructions,53,494704,0.0-53.0,1245,1218,25,Male,FALSE,TRUE,FALSE,TRUE,"""event"",""trial"",""time""
""fullscreenenter"",""5"",""17939""
","
","
","""event"",""trial"",""time""
""fullscreenenter"",""5"",""17939""
","
",,,,,,,,,,,,,,,,,,,,,,
d3-instructions,54,507626,0.0-54.0,1245,1218,25,Male,FALSE,TRUE,FALSE,TRUE,"""event"",""trial"",""time""
""fullscreenenter"",""5"",""17939""
","
","
","""event"",""trial"",""time""
""fullscreenenter"",""5"",""17939""
","
",,,,,,,,,,,,,,,,,,,,,,
d3-instructions,55,518076,0.0-55.0,1245,1218,25,Male,FALSE,TRUE,FALSE,TRUE,"""event"",""trial"",""time""
""fullscreenenter"",""5"",""17939""
","
","
","""event"",""trial"",""time""
""fullscreenenter"",""5"",""17939""
","
",,,,,,,,,,,,,,,,,,,,,,
d3-instructions,56,526689,0.0-56.0,1245,1218,25,Male,FALSE,TRUE,FALSE,TRUE,"""event"",""trial"",""time""
""fullscreenenter"",""5"",""17939""
","
","
","""event"",""trial"",""time""
""fullscreenenter"",""5"",""17939""
","
",,,,,,,,,,,,,,,,,,,,,,
d3-instructions,57,537153,0.0-57.0,1245,1218,25,Male,FALSE,TRUE,FALSE,TRUE,"""event"",""trial"",""time""
""fullscreenenter"",""5"",""17939""
","
","
","""event"",""trial"",""time""
""fullscreenenter"",""5"",""17939""
","
",,,,,,,,,,,,,,,,,,,,,,
d3-instructions,58,548673,0.0-58.0,1245,1218,25,Male,FALSE,TRUE,FALSE,TRUE,"""event"",""trial"",""time""
""fullscreenenter"",""5"",""17939""
","
","
","""event"",""trial"",""time""
""fullscreenenter"",""5"",""17939""
","
",,,,,,,,,,,,,,,,,,,,,,
d3-instructions,59,553344,0.0-59.0,1245,1218,25,Male,FALSE,TRUE,FALSE,TRUE,"""event"",""trial"",""time""
""fullscreenenter"",""5"",""17939""
","
","
","""event"",""trial"",""time""
""fullscreenenter"",""5"",""17939""
","
",,,,,,,,,,,,,,,,,,,,,,
d3-instructions,60,560547,0.0-60.0,1245,1218,25,Male,FALSE,TRUE,FALSE,TRUE,"""event"",""trial"",""time""
""fullscreenenter"",""5"",""17939""
","
","
","""event"",""trial"",""time""
""fullscreenenter"",""5"",""17939""
","
",,,,,,,,,,,,,,,,,,,,,,
d3-animate-choice,61,563038,0.0-61.0-0.0,1245,1218,25,Male,FALSE,TRUE,FALSE,TRUE,"""event"",""trial"",""time""
""fullscreenenter"",""5"",""17939""
","
","
","""event"",""trial"",""time""
""fullscreenenter"",""5"",""17939""
","
",486.2,,49,,,3000,1,,,images/earth.jpg,images/tutrocket1,images/tutrocket2,null,images/tutrocket2,,1,practice,null,1,,,
d3-animate-choice,62,565805,0.0-61.0-1.0,1245,1218,25,Male,FALSE,TRUE,FALSE,TRUE,"""event"",""trial"",""time""
""fullscreenenter"",""5"",""17939""
","
","
","""event"",""trial"",""time""
""fullscreenenter"",""5"",""17939""
","
",762.2,,48,,,3000,1,,,images/tutyellowplanet.jpg,images/tutalien4,images/tutalien3,images/tutrocket2,images/tutalien4,images/nothing.png,2,practice,TRUE,2,common,0,09:43.4
two-step-fixation,63,566810,0.0-61.0-2.0,1245,1218,25,Male,FALSE,TRUE,FALSE,TRUE,"""event"",""trial"",""time""
""fullscreenenter"",""5"",""17939""
","
","
","""event"",""trial"",""time""
""fullscreenenter"",""5"",""17939""
","
",,images/earth.jpg,,,,,,,,,,,,,,fixation,,,,,,
d3-animate-choice,64,569291,0.0-61.0-0.1,1245,1218,25,Male,FALSE,TRUE,FALSE,TRUE,"""event"",""trial"",""time""
""fullscreenenter"",""5"",""17939""
","
","
","""event"",""trial"",""time""
""fullscreenenter"",""5"",""17939""
","
",479.8,,48,,,3000,1,,,images/earth.jpg,images/tutrocket1,images/tutrocket2,null,images/tutrocket1,,1,practice,null,2,,,
d3-animate-choice,65,571645,0.0-61.0-1.1,1245,1218,25,Male,FALSE,TRUE,FALSE,TRUE,"""event"",""trial"",""time""
""fullscreenenter"",""5"",""17939""
","
","
","""event"",""trial"",""time""
""fullscreenenter"",""5"",""17939""
","
",349.4,,49,,,3000,1,,,images/tutgreenplanet.jpg,images/tutalien2,images/tutalien1,images/tutrocket1,images/tutalien1,images/nothing.png,2,practice,TRUE,1,common,0,09:49.2
two-step-fixation,66,572647,0.0-61.0-2.1,1245,1218,25,Male,FALSE,TRUE,FALSE,TRUE,"""event"",""trial"",""time""
""fullscreenenter"",""5"",""17939""
","
","
","""event"",""trial"",""time""
""fullscreenenter"",""5"",""17939""
","
",,images/earth.jpg,,,,,,,,,,,,,,fixation,,,,,,
d3-animate-choice,67,574928,0.0-61.0-0.2,1245,1218,25,Male,FALSE,TRUE,FALSE,TRUE,"""event"",""trial"",""time""
""fullscreenenter"",""5"",""17939""
","
","
","""event"",""trial"",""time""
""fullscreenenter"",""5"",""17939""
","
",274.2,,48,,,3000,1,,,images/earth.jpg,images/tutrocket1,images/tutrocket2,null,images/tutrocket1,,1,practice,null,2,,,
d3-animate-choice,68,577308,0.0-61.0-1.2,1245,1218,25,Male,FALSE,TRUE,FALSE,TRUE,"""event"",""trial"",""time""
""fullscreenenter"",""5"",""17939""
","
","
","""event"",""trial"",""time""
""fullscreenenter"",""5"",""17939""
","
",376.8,,48,,,3000,1,,,images/tutyellowplanet.jpg,images/tutalien4,images/tutalien3,images/tutrocket1,images/tutalien4,images/t.png,2,practice,FALSE,2,rare,1,09:54.9
two-step-fixation,69,578312,0.0-61.0-2.2,1245,1218,25,Male,FALSE,TRUE,FALSE,TRUE,"""event"",""trial"",""time""
""fullscreenenter"",""5"",""17939""
","
","
","""event"",""trial"",""time""
""fullscreenenter"",""5"",""17939""
","
",,images/earth.jpg,,,,,,,,,,,,,,fixation,,,,,,
d3-animate-choice,70,580582,0.0-61.0-0.3,1245,1218,25,Male,FALSE,TRUE,FALSE,TRUE,"""event"",""trial"",""time""
""fullscreenenter"",""5"",""17939""
","
","
","""event"",""trial"",""time""
""fullscreenenter"",""5"",""17939""
","
",264.9,,49,,,3000,1,,,images/earth.jpg,images/tutrocket1,images/tutrocket2,null,images/tutrocket2,,1,practice,null,1,,,
d3-animate-choice,71,582900,0.0-61.0-1.3,1245,1218,25,Male,FALSE,TRUE,FALSE,TRUE,"""event"",""trial"",""time""
""fullscreenenter"",""5"",""17939""
","
","
","""event"",""trial"",""time""
""fullscreenenter"",""5"",""17939""
","
",314.5,,48,,,3000,1,,,images/tutyellowplanet.jpg,images/tutalien4,images/tutalien3,images/tutrocket2,images/tutalien4,images/t.png,2,practice,TRUE,2,common,1,10:00.5
two-step-fixation,72,583902,0.0-61.0-2.3,1245,1218,25,Male,FALSE,TRUE,FALSE,TRUE,"""event"",""trial"",""time""
""fullscreenenter"",""5"",""17939""
","
","
","""event"",""trial"",""time""
""fullscreenenter"",""5"",""17939""
","
",,images/earth.jpg,,,,,,,,,,,,,,fixation,,,,,,
d3-animate-choice,73,586253,0.0-61.0-0.4,1245,1218,25,Male,FALSE,TRUE,FALSE,TRUE,"""event"",""trial"",""time""
""fullscreenenter"",""5"",""17939""
","
","
","""event"",""trial"",""time""
""fullscreenenter"",""5"",""17939""
","
",346.7,,49,,,3000,1,,,images/earth.jpg,images/tutrocket1,images/tutrocket2,null,images/tutrocket2,,1,practice,null,1,,,
d3-animate-choice,74,588540,0.0-61.0-1.4,1245,1218,25,Male,FALSE,TRUE,FALSE,TRUE,"""event"",""trial"",""time""
""fullscreenenter"",""5"",""17939""
","
","
","""event"",""trial"",""time""
""fullscreenenter"",""5"",""17939""
","
",283.5,,49,,,3000,1,,,images/tutyellowplanet.jpg,images/tutalien4,images/tutalien3,images/tutrocket2,images/tutalien3,images/nothing.png,2,practice,TRUE,1,common,0,10:06.1
two-step-fixation,75,589541,0.0-61.0-2.4,1245,1218,25,Male,FALSE,TRUE,FALSE,TRUE,"""event"",""trial"",""time""
""fullscreenenter"",""5"",""17939""
","
","
","""event"",""trial"",""time""
""fullscreenenter"",""5"",""17939""
","
",,images/earth.jpg,,,,,,,,,,,,,,fixation,,,,,,
d3-animate-choice,76,591815,0.0-61.0-0.5,1245,1218,25,Male,FALSE,TRUE,FALSE,TRUE,"""event"",""trial"",""time""
""fullscreenenter"",""5"",""17939""
","
","
","""event"",""trial"",""time""
""fullscreenenter"",""5"",""17939""
","
",267.3,,49,,,3000,1,,,images/earth.jpg,images/tutrocket1,images/tutrocket2,null,images/tutrocket2,,1,practice,null,1,,,
d3-animate-choice,77,594381,0.0-61.0-1.5,1245,1218,25,Male,FALSE,TRUE,FALSE,TRUE,"""event"",""trial"",""time""
""fullscreenenter"",""5"",""17939""
","
","
","""event"",""trial"",""time""
""fullscreenenter"",""5"",""17939""
","
",561.2,,48,,,3000,1,,,images/tutgreenplanet.jpg,images/tutalien2,images/tutalien1,images/tutrocket2,images/tutalien2,images/t.png,2,practice,FALSE,2,rare,1,10:11.9
two-step-fixation,78,595387,0.0-61.0-2.5,1245,1218,25,Male,FALSE,TRUE,FALSE,TRUE,"""event"",""trial"",""time""
""fullscreenenter"",""5"",""17939""
","
","
","""event"",""trial"",""time""
""fullscreenenter"",""5"",""17939""
","
",,images/earth.jpg,,,,,,,,,,,,,,fixation,,,,,,
d3-animate-choice,79,598150,0.0-61.0-0.6,1245,1218,25,Male,FALSE,TRUE,FALSE,TRUE,"""event"",""trial"",""time""
""fullscreenenter"",""5"",""17939""
","
","
","""event"",""trial"",""time""
""fullscreenenter"",""5"",""17939""
","
",756.7,,48,,,3000,1,,,images/earth.jpg,images/tutrocket1,images/tutrocket2,null,images/tutrocket1,,1,practice,null,2,,,
d3-animate-choice,80,600476,0.0-61.0-1.6,1245,1218,25,Male,FALSE,TRUE,FALSE,TRUE,"""event"",""trial"",""time""
""fullscreenenter"",""5"",""17939""
","
","
","""event"",""trial"",""time""
""fullscreenenter"",""5"",""17939""
","
",320.8,,49,,,3000,1,,,images/tutgreenplanet.jpg,images/tutalien2,images/tutalien1,images/tutrocket1,images/tutalien1,images/t.png,2,practice,TRUE,1,common,1,10:18.0
two-step-fixation,81,601480,0.0-61.0-2.6,1245,1218,25,Male,FALSE,TRUE,FALSE,TRUE,"""event"",""trial"",""time""
""fullscreenenter"",""5"",""17939""
","
","
","""event"",""trial"",""time""
""fullscreenenter"",""5"",""17939""
","
",,images/earth.jpg,,,,,,,,,,,,,,fixation,,,,,,
d3-animate-choice,82,603770,0.0-61.0-0.7,1245,1218,25,Male,FALSE,TRUE,FALSE,TRUE,"""event"",""trial"",""time""
""fullscreenenter"",""5"",""17939""
","
","
","""event"",""trial"",""time""
""fullscreenenter"",""5"",""17939""
","
",286.5,,48,,,3000,1,,,images/earth.jpg,images/tutrocket1,images/tutrocket2,null,images/tutrocket1,,1,practice,null,2,,,
d3-animate-choice,83,606234,0.0-61.0-1.7,1245,1218,25,Male,FALSE,TRUE,FALSE,TRUE,"""event"",""trial"",""time""
""fullscreenenter"",""5"",""17939""
","
","
","""event"",""trial"",""time""
""fullscreenenter"",""5"",""17939""
","
",459.8,,49,,,3000,1,,,images/tutgreenplanet.jpg,images/tutalien2,images/tutalien1,images/tutrocket1,images/tutalien1,images/nothing.png,2,practice,TRUE,1,common,0,10:23.8
two-step-fixation,84,607238,0.0-61.0-2.7,1245,1218,25,Male,FALSE,TRUE,FALSE,TRUE,"""event"",""trial"",""time""
""fullscreenenter"",""5"",""17939""
","
","
","""event"",""trial"",""time""
""fullscreenenter"",""5"",""17939""
","
",,images/earth.jpg,,,,,,,,,,,,,,fixation,,,,,,
d3-animate-choice,85,609641,0.0-61.0-0.8,1245,1218,25,Male,FALSE,TRUE,FALSE,TRUE,"""event"",""trial"",""time""
""fullscreenenter"",""5"",""17939""
","
","
","""event"",""trial"",""time""
""fullscreenenter"",""5"",""17939""
","
",400.8,,48,,,3000,1,,,images/earth.jpg,images/tutrocket1,images/tutrocket2,null,images/tutrocket1,,1,practice,null,2,,,
d3-animate-choice,86,612178,0.0-61.0-1.8,1245,1218,25,Male,FALSE,TRUE,FALSE,TRUE,"""event"",""trial"",""time""
""fullscreenenter"",""5"",""17939""
","
","
","""event"",""trial"",""time""
""fullscreenenter"",""5"",""17939""
","
",532.5,,48,,,3000,1,,,images/tutgreenplanet.jpg,images/tutalien2,images/tutalien1,images/tutrocket1,images/tutalien2,images/nothing.png,2,practice,TRUE,2,common,0,10:29.7
two-step-fixation,87,613180,0.0-61.0-2.8,1245,1218,25,Male,FALSE,TRUE,FALSE,TRUE,"""event"",""trial"",""time""
""fullscreenenter"",""5"",""17939""
","
","
","""event"",""trial"",""time""
""fullscreenenter"",""5"",""17939""
","
",,images/earth.jpg,,,,,,,,,,,,,,fixation,,,,,,
d3-animate-choice,88,615458,0.0-61.0-0.9,1245,1218,25,Male,FALSE,TRUE,FALSE,TRUE,"""event"",""trial"",""time""
""fullscreenenter"",""5"",""17939""
","
","
","""event"",""trial"",""time""
""fullscreenenter"",""5"",""17939""
","
",274,,49,,,3000,1,,,images/earth.jpg,images/tutrocket1,images/tutrocket2,null,images/tutrocket2,,1,practice,null,1,,,
d3-animate-choice,89,617778,0.0-61.0-1.9,1245,1218,25,Male,FALSE,TRUE,FALSE,TRUE,"""event"",""trial"",""time""
""fullscreenenter"",""5"",""17939""
","
","
","""event"",""trial"",""time""
""fullscreenenter"",""5"",""17939""
","
",315.7,,49,,,3000,1,,,images/tutyellowplanet.jpg,images/tutalien4,images/tutalien3,images/tutrocket2,images/tutalien3,images/nothing.png,2,practice,TRUE,1,common,0,10:35.3
two-step-fixation,90,618781,0.0-61.0-2.9,1245,1218,25,Male,FALSE,TRUE,FALSE,TRUE,"""event"",""trial"",""time""
""fullscreenenter"",""5"",""17939""
","
","
","""event"",""trial"",""time""
""fullscreenenter"",""5"",""17939""
","
",,images/earth.jpg,,,,,,,,,,,,,,fixation,,,,,,
d3-animate-choice,91,620992,0.0-61.0-0.10,1245,1218,25,Male,FALSE,TRUE,FALSE,TRUE,"""event"",""trial"",""time""
""fullscreenenter"",""5"",""17939""
","
","
","""event"",""trial"",""time""
""fullscreenenter"",""5"",""17939""
","
",209,,49,,,3000,1,,,images/earth.jpg,images/tutrocket1,images/tutrocket2,null,images/tutrocket2,,1,practice,null,1,,,
d3-animate-choice,92,623608,0.0-61.0-1.10,1245,1218,25,Male,FALSE,TRUE,FALSE,TRUE,"""event"",""trial"",""time""
""fullscreenenter"",""5"",""17939""
","
","
","""event"",""trial"",""time""
""fullscreenenter"",""5"",""17939""
","
",613.2,,48,,,3000,1,,,images/tutgreenplanet.jpg,images/tutalien2,images/tutalien1,images/tutrocket2,images/tutalien2,images/nothing.png,2,practice,FALSE,2,rare,0,10:41.2
two-step-fixation,93,624612,0.0-61.0-2.10,1245,1218,25,Male,FALSE,TRUE,FALSE,TRUE,"""event"",""trial"",""time""
""fullscreenenter"",""5"",""17939""
","
","
","""event"",""trial"",""time""
""fullscreenenter"",""5"",""17939""
","
",,images/earth.jpg,,,,,,,,,,,,,,fixation,,,,,,
d3-animate-choice,94,626864,0.0-61.0-0.11,1245,1218,25,Male,FALSE,TRUE,FALSE,TRUE,"""event"",""trial"",""time""
""fullscreenenter"",""5"",""17939""
","
","
","""event"",""trial"",""time""
""fullscreenenter"",""5"",""17939""
","
",249.6,,49,,,3000,1,,,images/earth.jpg,images/tutrocket1,images/tutrocket2,null,images/tutrocket2,,1,practice,null,1,,,
d3-animate-choice,95,629378,0.0-61.0-1.11,1245,1218,25,Male,FALSE,TRUE,FALSE,TRUE,"""event"",""trial"",""time""
""fullscreenenter"",""5"",""17939""
","
","
","""event"",""trial"",""time""
""fullscreenenter"",""5"",""17939""
","
",508.5,,49,,,3000,1,,,images/tutgreenplanet.jpg,images/tutalien2,images/tutalien1,images/tutrocket2,images/tutalien1,images/nothing.png,2,practice,FALSE,1,rare,0,10:46.9
two-step-fixation,96,630382,0.0-61.0-2.11,1245,1218,25,Male,FALSE,TRUE,FALSE,TRUE,"""event"",""trial"",""time""
""fullscreenenter"",""5"",""17939""
","
","
","""event"",""trial"",""time""
""fullscreenenter"",""5"",""17939""
","
",,images/earth.jpg,,,,,,,,,,,,,,fixation,,,,,,
d3-animate-choice,97,632826,0.0-61.0-0.12,1245,1218,25,Male,FALSE,TRUE,FALSE,TRUE,"""event"",""trial"",""time""
""fullscreenenter"",""5"",""17939""
","
","
","""event"",""trial"",""time""
""fullscreenenter"",""5"",""17939""
","
",440.1,,48,,,3000,1,,,images/earth.jpg,images/tutrocket1,images/tutrocket2,null,images/tutrocket1,,1,practice,null,2,,,
d3-animate-choice,98,635281,0.0-61.0-1.12,1245,1218,25,Male,FALSE,TRUE,FALSE,TRUE,"""event"",""trial"",""time""
""fullscreenenter"",""5"",""17939""
","
","
","""event"",""trial"",""time""
""fullscreenenter"",""5"",""17939""
","
",451.2,,49,,,3000,1,,,images/tutgreenplanet.jpg,images/tutalien2,images/tutalien1,images/tutrocket1,images/tutalien1,images/nothing.png,2,practice,TRUE,1,common,0,10:52.8
two-step-fixation,99,636286,0.0-61.0-2.12,1245,1218,25,Male,FALSE,TRUE,FALSE,TRUE,"""event"",""trial"",""time""
""fullscreenenter"",""5"",""17939""
","
","
","""event"",""trial"",""time""
""fullscreenenter"",""5"",""17939""
","
",,images/earth.jpg,,,,,,,,,,,,,,fixation,,,,,,
d3-animate-choice,100,638503,0.0-61.0-0.13,1245,1218,25,Male,FALSE,TRUE,FALSE,TRUE,"""event"",""trial"",""time""
""fullscreenenter"",""5"",""17939""
","
","
","""event"",""trial"",""time""
""fullscreenenter"",""5"",""17939""
","
",215.6,,49,,,3000,1,,,images/earth.jpg,images/tutrocket1,images/tutrocket2,null,images/tutrocket2,,1,practice,null,1,,,
d3-animate-choice,101,641025,0.0-61.0-1.13,1245,1218,25,Male,FALSE,TRUE,FALSE,TRUE,"""event"",""trial"",""time""
""fullscreenenter"",""5"",""17939""
","
","
","""event"",""trial"",""time""
""fullscreenenter"",""5"",""17939""
","
",517.6,,49,,,3000,1,,,images/tutyellowplanet.jpg,images/tutalien4,images/tutalien3,images/tutrocket2,images/tutalien3,images/nothing.png,2,practice,TRUE,1,common,0,10:58.6
two-step-fixation,102,642027,0.0-61.0-2.13,1245,1218,25,Male,FALSE,TRUE,FALSE,TRUE,"""event"",""trial"",""time""
""fullscreenenter"",""5"",""17939""
","
","
","""event"",""trial"",""time""
""fullscreenenter"",""5"",""17939""
","
",,images/earth.jpg,,,,,,,,,,,,,,fixation,,,,,,
d3-animate-choice,103,644290,0.0-61.0-0.14,1245,1218,25,Male,FALSE,TRUE,FALSE,TRUE,"""event"",""trial"",""time""
""fullscreenenter"",""5"",""17939""
","
","
","""event"",""trial"",""time""
""fullscreenenter"",""5"",""17939""
","
",258.5,,49,,,3000,1,,,images/earth.jpg,images/tutrocket1,images/tutrocket2,null,images/tutrocket2,,1,practice,null,1,,,
d3-animate-choice,104,646716,0.0-61.0-1.14,1245,1218,25,Male,FALSE,TRUE,FALSE,TRUE,"""event"",""trial"",""time""
""fullscreenenter"",""5"",""17939""
","
","
","""event"",""trial"",""time""
""fullscreenenter"",""5"",""17939""
","
",418.5,,48,,,3000,1,,,images/tutyellowplanet.jpg,images/tutalien4,images/tutalien3,images/tutrocket2,images/tutalien4,images/t.png,2,practice,TRUE,2,common,1,11:04.3
two-step-fixation,105,647720,0.0-61.0-2.14,1245,1218,25,Male,FALSE,TRUE,FALSE,TRUE,"""event"",""trial"",""time""
""fullscreenenter"",""5"",""17939""
","
","
","""event"",""trial"",""time""
""fullscreenenter"",""5"",""17939""
","
",,images/earth.jpg,,,,,,,,,,,,,,fixation,,,,,,
d3-animate-choice,106,650040,0.0-61.0-0.15,1245,1218,25,Male,FALSE,TRUE,FALSE,TRUE,"""event"",""trial"",""time""
""fullscreenenter"",""5"",""17939""
","
","
","""event"",""trial"",""time""
""fullscreenenter"",""5"",""17939""
","
",316.5,,49,,,3000,1,,,images/earth.jpg,images/tutrocket1,images/tutrocket2,null,images/tutrocket2,,1,practice,null,1,,,
d3-animate-choice,107,652456,0.0-61.0-1.15,1245,1218,25,Male,FALSE,TRUE,FALSE,TRUE,"""event"",""trial"",""time""
""fullscreenenter"",""5"",""17939""
","
","
","""event"",""trial"",""time""
""fullscreenenter"",""5"",""17939""
","
",412.3,,48,,,3000,1,,,images/tutyellowplanet.jpg,images/tutalien4,images/tutalien3,images/tutrocket2,images/tutalien4,images/nothing.png,2,practice,TRUE,2,common,0,11:10.0
two-step-fixation,108,653458,0.0-61.0-2.15,1245,1218,25,Male,FALSE,TRUE,FALSE,TRUE,"""event"",""trial"",""time""
""fullscreenenter"",""5"",""17939""
","
","
","""event"",""trial"",""time""
""fullscreenenter"",""5"",""17939""
","
",,images/earth.jpg,,,,,,,,,,,,,,fixation,,,,,,
d3-animate-choice,109,655807,0.0-61.0-0.16,1245,1218,25,Male,FALSE,TRUE,FALSE,TRUE,"""event"",""trial"",""time""
""fullscreenenter"",""5"",""17939""
","
","
","""event"",""trial"",""time""
""fullscreenenter"",""5"",""17939""
","
",346.6,,49,,,3000,1,,,images/earth.jpg,images/tutrocket1,images/tutrocket2,null,images/tutrocket2,,1,practice,null,1,,,
d3-animate-choice,110,658136,0.0-61.0-1.16,1245,1218,25,Male,FALSE,TRUE,FALSE,TRUE,"""event"",""trial"",""time""
""fullscreenenter"",""5"",""17939""
","
","
","""event"",""trial"",""time""
""fullscreenenter"",""5"",""17939""
","
",325.3,,49,,,3000,1,,,images/tutgreenplanet.jpg,images/tutalien2,images/tutalien1,images/tutrocket2,images/tutalien1,images/t.png,2,practice,FALSE,1,rare,1,11:15.7
two-step-fixation,111,659138,0.0-61.0-2.16,1245,1218,25,Male,FALSE,TRUE,FALSE,TRUE,"""event"",""trial"",""time""
""fullscreenenter"",""5"",""17939""
","
","
","""event"",""trial"",""time""
""fullscreenenter"",""5"",""17939""
","
",,images/earth.jpg,,,,,,,,,,,,,,fixation,,,,,,
d3-animate-choice,112,661472,0.0-61.0-0.17,1245,1218,25,Male,FALSE,TRUE,FALSE,TRUE,"""event"",""trial"",""time""
""fullscreenenter"",""5"",""17939""
","
","
","""event"",""trial"",""time""
""fullscreenenter"",""5"",""17939""
","
",330.5,,48,,,3000,1,,,images/earth.jpg,images/tutrocket1,images/tutrocket2,null,images/tutrocket1,,1,practice,null,2,,,
d3-animate-choice,113,663951,0.0-61.0-1.17,1245,1218,25,Male,FALSE,TRUE,FALSE,TRUE,"""event"",""trial"",""time""
""fullscreenenter"",""5"",""17939""
","
","
","""event"",""trial"",""time""
""fullscreenenter"",""5"",""17939""
","
",475.7,,49,,,3000,1,,,images/tutyellowplanet.jpg,images/tutalien4,images/tutalien3,images/tutrocket1,images/tutalien3,images/t.png,2,practice,FALSE,1,rare,1,11:21.5
two-step-fixation,114,664955,0.0-61.0-2.17,1245,1218,25,Male,FALSE,TRUE,FALSE,TRUE,"""event"",""trial"",""time""
""fullscreenenter"",""5"",""17939""
","
","
","""event"",""trial"",""time""
""fullscreenenter"",""5"",""17939""
","
",,images/earth.jpg,,,,,,,,,,,,,,fixation,,,,,,
d3-animate-choice,115,667289,0.0-61.0-0.18,1245,1218,25,Male,FALSE,TRUE,FALSE,TRUE,"""event"",""trial"",""time""
""fullscreenenter"",""5"",""17939""
","
","
","""event"",""trial"",""time""
""fullscreenenter"",""5"",""17939""
","
",329.4,,48,,,3000,1,,,images/earth.jpg,images/tutrocket1,images/tutrocket2,null,images/tutrocket1,,1,practice,null,2,,,
d3-animate-choice,116,669735,0.0-61.0-1.18,1245,1218,25,Male,FALSE,TRUE,FALSE,TRUE,"""event"",""trial"",""time""
""fullscreenenter"",""5"",""17939""
","
","
","""event"",""trial"",""time""
""fullscreenenter"",""5"",""17939""
","
",443,,49,,,3000,1,,,images/tutgreenplanet.jpg,images/tutalien2,images/tutalien1,images/tutrocket1,images/tutalien1,images/t.png,2,practice,TRUE,1,common,1,11:27.3
two-step-fixation,117,670737,0.0-61.0-2.18,1245,1218,25,Male,FALSE,TRUE,FALSE,TRUE,"""event"",""trial"",""time""
""fullscreenenter"",""5"",""17939""
","
","
","""event"",""trial"",""time""
""fullscreenenter"",""5"",""17939""
","
",,images/earth.jpg,,,,,,,,,,,,,,fixation,,,,,,
d3-animate-choice,118,672975,0.0-61.0-0.19,1245,1218,25,Male,FALSE,TRUE,FALSE,TRUE,"""event"",""trial"",""time""
""fullscreenenter"",""5"",""17939""
","
","
","""event"",""trial"",""time""
""fullscreenenter"",""5"",""17939""
","
",235.3,,48,,,3000,1,,,images/earth.jpg,images/tutrocket1,images/tutrocket2,null,images/tutrocket1,,1,practice,null,2,,,
d3-animate-choice,119,675311,0.0-61.0-1.19,1245,1218,25,Male,FALSE,TRUE,FALSE,TRUE,"""event"",""trial"",""time""
""fullscreenenter"",""5"",""17939""
","
","
","""event"",""trial"",""time""
""fullscreenenter"",""5"",""17939""
","
",332.7,,49,,,3000,1,,,images/tutgreenplanet.jpg,images/tutalien2,images/tutalien1,images/tutrocket1,images/tutalien1,images/nothing.png,2,practice,TRUE,1,common,0,11:32.9
two-step-fixation,120,676313,0.0-61.0-2.19,1245,1218,25,Male,FALSE,TRUE,FALSE,TRUE,"""event"",""trial"",""time""
""fullscreenenter"",""5"",""17939""
","
","
","""event"",""trial"",""time""
""fullscreenenter"",""5"",""17939""
","
",,images/earth.jpg,,,,,,,,,,,,,,fixation,,,,,,
d3-instructions,121,744158,0.0-62.0,1245,1218,25,Male,FALSE,TRUE,FALSE,TRUE,"""event"",""trial"",""time""
""fullscreenenter"",""5"",""17939""
","
","
","""event"",""trial"",""time""
""fullscreenenter"",""5"",""17939""
","
",,,,,,,,,,,,,,,,,,,,,,
audio-keyboard-response,122,747630,0.0-63.0,1245,1218,25,Male,FALSE,TRUE,FALSE,TRUE,"""event"",""trial"",""time""
""fullscreenenter"",""5"",""17939""
","
","
","""event"",""trial"",""time""
""fullscreenenter"",""5"",""17939""
","
",3355,audio/instructions/treasure_feedback.wav,32,,,,,,,,,,,,,,,,,,,
d3-instructions,123,767741,0.0-64.0,1245,1218,25,Male,FALSE,TRUE,FALSE,TRUE,"""event"",""trial"",""time""
""fullscreenenter"",""5"",""17939""
","
","
","""event"",""trial"",""time""
""fullscreenenter"",""5"",""17939""
","
",,,,,,,,,,,,,,,,,,,,,,
d3-instructions,124,783697,0.0-65.0,1245,1218,25,Male,FALSE,TRUE,FALSE,TRUE,"""event"",""trial"",""time""
""fullscreenenter"",""5"",""17939""
","
","
","""event"",""trial"",""time""
""fullscreenenter"",""5"",""17939""
","
",,,,,,,,,,,,,,,,,,,,,,
d3-instructions,125,808351,0.0-66.0,1245,1218,25,Male,FALSE,TRUE,FALSE,TRUE,"""event"",""trial"",""time""
""fullscreenenter"",""5"",""17939""
","
","
","""event"",""trial"",""time""
""fullscreenenter"",""5"",""17939""
","
",,,,,,,,,,,,,,,,,,,,,,
d3-instructions,126,885411,0.0-67.0,1245,1218,25,Male,FALSE,TRUE,FALSE,TRUE,"""event"",""trial"",""time""
""fullscreenenter"",""5"",""17939""
","
","
","""event"",""trial"",""time""
""fullscreenenter"",""5"",""17939""
","
",,,,,,,,,,,,,,,,,,,,,,
d3-instructions,127,893459,0.0-68.0,1245,1218,25,Male,FALSE,TRUE,FALSE,TRUE,"""event"",""trial"",""time""
""fullscreenenter"",""5"",""17939""
","
","
","""event"",""trial"",""time""
""fullscreenenter"",""5"",""17939""
","
",,,,,,,,,,,,,,,,,,,,,,
instructions-quiz,128,896621,0.0-69.0,1245,1218,25,Male,FALSE,TRUE,FALSE,TRUE,"""event"",""trial"",""time""
""fullscreenenter"",""5"",""17939""
","
","
","""event"",""trial"",""time""
""fullscreenenter"",""5"",""17939""
","
",3159.4,audio/quiz/Q1_Prompt.wav,,1,,,,,,,,,,,,,,,,,,
audio-keyboard-response,129,905790,0.0-70.0,1245,1218,25,Male,FALSE,TRUE,FALSE,TRUE,"""event"",""trial"",""time""
""fullscreenenter"",""5"",""17939""
","
","
","""event"",""trial"",""time""
""fullscreenenter"",""5"",""17939""
","
",null,audio/quiz/Q1_Correct.wav,null,,,,,,,,,,,,,,,,,,,
instructions-quiz,130,908948,0.0-71.0,1245,1218,25,Male,FALSE,TRUE,FALSE,TRUE,"""event"",""trial"",""time""
""fullscreenenter"",""5"",""17939""
","
","
","""event"",""trial"",""time""
""fullscreenenter"",""5"",""17939""
","
",3155,audio/quiz/Q2_Prompt.wav,,0,,,,,,,,,,,,,,,,,,
audio-keyboard-response,131,921818,0.0-72.0,1245,1218,25,Male,FALSE,TRUE,FALSE,TRUE,"""event"",""trial"",""time""
""fullscreenenter"",""5"",""17939""
","
","
","""event"",""trial"",""time""
""fullscreenenter"",""5"",""17939""
","
",null,audio/quiz/Q2_Correct.wav,null,,,,,,,,,,,,,,,,,,,
instructions-quiz,132,928788,0.0-73.0,1245,1218,25,Male,FALSE,TRUE,FALSE,TRUE,"""event"",""trial"",""time""
""fullscreenenter"",""5"",""17939""
","
","
","""event"",""trial"",""time""
""fullscreenenter"",""5"",""17939""
","
",6968.2,audio/quiz/Q3_Prompt.wav,,1,,,,,,,,,,,,,,,,,,
audio-keyboard-response,133,934588,0.0-74.0,1245,1218,25,Male,FALSE,TRUE,FALSE,TRUE,"""event"",""trial"",""time""
""fullscreenenter"",""5"",""17939""
","
","
","""event"",""trial"",""time""
""fullscreenenter"",""5"",""17939""
","
",null,audio/quiz/Q3_Correct.wav,null,,,,,,,,,,,,,,,,,,,
d3-instructions,134,958109,0.0-75.0,1245,1218,25,Male,FALSE,TRUE,FALSE,TRUE,"""event"",""trial"",""time""
""fullscreenenter"",""5"",""17939""
","
","
","""event"",""trial"",""time""
""fullscreenenter"",""5"",""17939""
","
",,,,,,,,,,,,,,,,,,,,,,
d3-animate-choice,135,961191,0.0-76.0-0.0,1245,1218,25,Male,FALSE,TRUE,FALSE,TRUE,"""event"",""trial"",""time""
""fullscreenenter"",""5"",""17939""
","
","
","""event"",""trial"",""time""
""fullscreenenter"",""5"",""17939""
","
",1076.8,,49,,,3000,1,,,images/earth.jpg,images/rocket1,images/rocket2,null,images/rocket2,,1,real,null,1,,,
d3-animate-choice,136,963612,0.0-76.0-1.0,1245,1218,25,Male,FALSE,TRUE,FALSE,TRUE,"""event"",""trial"",""time""
""fullscreenenter"",""5"",""17939""
","
","
","""event"",""trial"",""time""
""fullscreenenter"",""5"",""17939""
","
",418.8,,49,,,3000,1,,,images/purpleplanet.jpg,images/alien4,images/alien3,images/rocket2,images/alien3,images/t.png,2,real,TRUE,1,common,1,16:21.2
two-step-fixation,137,964615,0.0-76.0-2.0,1245,1218,25,Male,FALSE,TRUE,FALSE,TRUE,"""event"",""trial"",""time""
""fullscreenenter"",""5"",""17939""
","
","
","""event"",""trial"",""time""
""fullscreenenter"",""5"",""17939""
","
",,images/earth.jpg,,,,,,,,,,,,,,fixation,,,,,,
d3-animate-choice,138,967158,0.0-76.0-0.1,1245,1218,25,Male,FALSE,TRUE,FALSE,TRUE,"""event"",""trial"",""time""
""fullscreenenter"",""5"",""17939""
","
","
","""event"",""trial"",""time""
""fullscreenenter"",""5"",""17939""
","
",538.6,,49,,,3000,1,,,images/earth.jpg,images/rocket1,images/rocket2,null,images/rocket2,,1,real,null,1,,,
d3-animate-choice,139,969683,0.0-76.0-1.1,1245,1218,25,Male,FALSE,TRUE,FALSE,TRUE,"""event"",""trial"",""time""
""fullscreenenter"",""5"",""17939""
","
","
","""event"",""trial"",""time""
""fullscreenenter"",""5"",""17939""
","
",523,,49,,,3000,1,,,images/redplanet1.jpg,images/alien2,images/alien1,images/rocket2,images/alien1,images/nothing.png,2,real,FALSE,1,rare,0,16:27.2
two-step-fixation,140,970686,0.0-76.0-2.1,1245,1218,25,Male,FALSE,TRUE,FALSE,TRUE,"""event"",""trial"",""time""
""fullscreenenter"",""5"",""17939""
","
","
","""event"",""trial"",""time""
""fullscreenenter"",""5"",""17939""
","
",,images/earth.jpg,,,,,,,,,,,,,,fixation,,,,,,
d3-animate-choice,141,972991,0.0-76.0-0.2,1245,1218,25,Male,FALSE,TRUE,FALSE,TRUE,"""event"",""trial"",""time""
""fullscreenenter"",""5"",""17939""
","
","
","""event"",""trial"",""time""
""fullscreenenter"",""5"",""17939""
","
",299.9,,48,,,3000,1,,,images/earth.jpg,images/rocket1,images/rocket2,null,images/rocket1,,1,real,null,2,,,
d3-animate-choice,142,975424,0.0-76.0-1.2,1245,1218,25,Male,FALSE,TRUE,FALSE,TRUE,"""event"",""trial"",""time""
""fullscreenenter"",""5"",""17939""
","
","
","""event"",""trial"",""time""
""fullscreenenter"",""5"",""17939""
","
",426,,48,,,3000,1,,,images/redplanet1.jpg,images/alien2,images/alien1,images/rocket1,images/alien2,images/t.png,2,real,TRUE,2,common,1,16:33.0
two-step-fixation,143,976426,0.0-76.0-2.2,1245,1218,25,Male,FALSE,TRUE,FALSE,TRUE,"""event"",""trial"",""time""
""fullscreenenter"",""5"",""17939""
","
","
","""event"",""trial"",""time""
""fullscreenenter"",""5"",""17939""
","
",,images/earth.jpg,,,,,,,,,,,,,,fixation,,,,,,
d3-animate-choice,144,978844,0.0-76.0-0.3,1245,1218,25,Male,FALSE,TRUE,FALSE,TRUE,"""event"",""trial"",""time""
""fullscreenenter"",""5"",""17939""
","
","
","""event"",""trial"",""time""
""fullscreenenter"",""5"",""17939""
","
",416.1,,48,,,3000,1,,,images/earth.jpg,images/rocket1,images/rocket2,null,images/rocket1,,1,real,null,2,,,
d3-animate-choice,145,981239,0.0-76.0-1.3,1245,1218,25,Male,FALSE,TRUE,FALSE,TRUE,"""event"",""trial"",""time""
""fullscreenenter"",""5"",""17939""
","
","
","""event"",""trial"",""time""
""fullscreenenter"",""5"",""17939""
","
",389.5,,48,,,3000,1,,,images/redplanet1.jpg,images/alien2,images/alien1,images/rocket1,images/alien2,images/t.png,2,real,TRUE,2,common,1,16:38.8
two-step-fixation,146,982243,0.0-76.0-2.3,1245,1218,25,Male,FALSE,TRUE,FALSE,TRUE,"""event"",""trial"",""time""
""fullscreenenter"",""5"",""17939""
","
","
","""event"",""trial"",""time""
""fullscreenenter"",""5"",""17939""
","
",,images/earth.jpg,,,,,,,,,,,,,,fixation,,,,,,
d3-animate-choice,147,984614,0.0-76.0-0.4,1245,1218,25,Male,FALSE,TRUE,FALSE,TRUE,"""event"",""trial"",""time""
""fullscreenenter"",""5"",""17939""
","
","
","""event"",""trial"",""time""
""fullscreenenter"",""5"",""17939""
","
",367,,48,,,3000,1,,,images/earth.jpg,images/rocket1,images/rocket2,null,images/rocket1,,1,real,null,2,,,
d3-animate-choice,148,987279,0.0-76.0-1.4,1245,1218,25,Male,FALSE,TRUE,FALSE,TRUE,"""event"",""trial"",""time""
""fullscreenenter"",""5"",""17939""
","
","
","""event"",""trial"",""time""
""fullscreenenter"",""5"",""17939""
","
",658.6,,48,,,3000,1,,,images/redplanet1.jpg,images/alien2,images/alien1,images/rocket1,images/alien2,images/t.png,2,real,TRUE,2,common,1,16:44.8
two-step-fixation,149,988282,0.0-76.0-2.4,1245,1218,25,Male,FALSE,TRUE,FALSE,TRUE,"""event"",""trial"",""time""
""fullscreenenter"",""5"",""17939""
","
","
","""event"",""trial"",""time""
""fullscreenenter"",""5"",""17939""
","
",,images/earth.jpg,,,,,,,,,,,,,,fixation,,,,,,
d3-animate-choice,150,990556,0.0-76.0-0.5,1245,1218,25,Male,FALSE,TRUE,FALSE,TRUE,"""event"",""trial"",""time""
""fullscreenenter"",""5"",""17939""
","
","
","""event"",""trial"",""time""
""fullscreenenter"",""5"",""17939""
","
",270.3,,49,,,3000,1,,,images/earth.jpg,images/rocket1,images/rocket2,null,images/rocket2,,1,real,null,1,,,
d3-animate-choice,151,992926,0.0-76.0-1.5,1245,1218,25,Male,FALSE,TRUE,FALSE,TRUE,"""event"",""trial"",""time""
""fullscreenenter"",""5"",""17939""
","
","
","""event"",""trial"",""time""
""fullscreenenter"",""5"",""17939""
","
",364.2,,49,,,3000,1,,,images/redplanet1.jpg,images/alien2,images/alien1,images/rocket2,images/alien1,images/t.png,2,real,FALSE,1,rare,1,16:50.5
two-step-fixation,152,993931,0.0-76.0-2.5,1245,1218,25,Male,FALSE,TRUE,FALSE,TRUE,"""event"",""trial"",""time""
""fullscreenenter"",""5"",""17939""
","
","
","""event"",""trial"",""time""
""fullscreenenter"",""5"",""17939""
","
",,images/earth.jpg,,,,,,,,,,,,,,fixation,,,,,,
d3-animate-choice,153,996223,0.0-76.0-0.6,1245,1218,25,Male,FALSE,TRUE,FALSE,TRUE,"""event"",""trial"",""time""
""fullscreenenter"",""5"",""17939""
","
","
","""event"",""trial"",""time""
""fullscreenenter"",""5"",""17939""
","
",286.6,,49,,,3000,1,,,images/earth.jpg,images/rocket1,images/rocket2,null,images/rocket2,,1,real,null,1,,,
d3-animate-choice,154,998685,0.0-76.0-1.6,1245,1218,25,Male,FALSE,TRUE,FALSE,TRUE,"""event"",""trial"",""time""
""fullscreenenter"",""5"",""17939""
","
","
","""event"",""trial"",""time""
""fullscreenenter"",""5"",""17939""
","
",456.9,,48,,,3000,1,,,images/redplanet1.jpg,images/alien2,images/alien1,images/rocket2,images/alien2,images/t.png,2,real,FALSE,2,rare,1,16:56.2
two-step-fixation,155,999689,0.0-76.0-2.6,1245,1218,25,Male,FALSE,TRUE,FALSE,TRUE,"""event"",""trial"",""time""
""fullscreenenter"",""5"",""17939""
","
","
","""event"",""trial"",""time""
""fullscreenenter"",""5"",""17939""
","
",,images/earth.jpg,,,,,,,,,,,,,,fixation,,,,,,
d3-animate-choice,156,1001962,0.0-76.0-0.7,1245,1218,25,Male,FALSE,TRUE,FALSE,TRUE,"""event"",""trial"",""time""
""fullscreenenter"",""5"",""17939""
","
","
","""event"",""trial"",""time""
""fullscreenenter"",""5"",""17939""
","
",270.9,,49,,,3000,1,,,images/earth.jpg,images/rocket1,images/rocket2,null,images/rocket2,,1,real,null,1,,,
d3-animate-choice,157,1004460,0.0-76.0-1.7,1245,1218,25,Male,FALSE,TRUE,FALSE,TRUE,"""event"",""trial"",""time""
""fullscreenenter"",""5"",""17939""
","
","
","""event"",""trial"",""time""
""fullscreenenter"",""5"",""17939""
","
",493.6,,49,,,3000,1,,,images/purpleplanet.jpg,images/alien4,images/alien3,images/rocket2,images/alien3,images/t.png,2,real,TRUE,1,common,1,17:02.0
two-step-fixation,158,1005465,0.0-76.0-2.7,1245,1218,25,Male,FALSE,TRUE,FALSE,TRUE,"""event"",""trial"",""time""
""fullscreenenter"",""5"",""17939""
","
","
","""event"",""trial"",""time""
""fullscreenenter"",""5"",""17939""
","
",,images/earth.jpg,,,,,,,,,,,,,,fixation,,,,,,
d3-animate-choice,159,1007763,0.0-76.0-0.8,1245,1218,25,Male,FALSE,TRUE,FALSE,TRUE,"""event"",""trial"",""time""
""fullscreenenter"",""5"",""17939""
","
","
","""event"",""trial"",""time""
""fullscreenenter"",""5"",""17939""
","
",296.2,,49,,,3000,1,,,images/earth.jpg,images/rocket1,images/rocket2,null,images/rocket2,,1,real,null,1,,,
d3-animate-choice,160,1010116,0.0-76.0-1.8,1245,1218,25,Male,FALSE,TRUE,FALSE,TRUE,"""event"",""trial"",""time""
""fullscreenenter"",""5"",""17939""
","
","
","""event"",""trial"",""time""
""fullscreenenter"",""5"",""17939""
","
",348.7,,48,,,3000,1,,,images/purpleplanet.jpg,images/alien4,images/alien3,images/rocket2,images/alien4,images/t.png,2,real,TRUE,2,common,1,17:07.7
two-step-fixation,161,1011124,0.0-76.0-2.8,1245,1218,25,Male,FALSE,TRUE,FALSE,TRUE,"""event"",""trial"",""time""
""fullscreenenter"",""5"",""17939""
","
","
","""event"",""trial"",""time""
""fullscreenenter"",""5"",""17939""
","
",,images/earth.jpg,,,,,,,,,,,,,,fixation,,,,,,
d3-animate-choice,162,1013538,0.0-76.0-0.9,1245,1218,25,Male,FALSE,TRUE,FALSE,TRUE,"""event"",""trial"",""time""
""fullscreenenter"",""5"",""17939""
","
","
","""event"",""trial"",""time""
""fullscreenenter"",""5"",""17939""
","
",411.7,,49,,,3000,1,,,images/earth.jpg,images/rocket1,images/rocket2,null,images/rocket2,,1,real,null,1,,,
d3-animate-choice,163,1016012,0.0-76.0-1.9,1245,1218,25,Male,FALSE,TRUE,FALSE,TRUE,"""event"",""trial"",""time""
""fullscreenenter"",""5"",""17939""
","
","
","""event"",""trial"",""time""
""fullscreenenter"",""5"",""17939""
","
",470.2,,48,,,3000,1,,,images/purpleplanet.jpg,images/alien4,images/alien3,images/rocket2,images/alien4,images/t.png,2,real,TRUE,2,common,1,17:13.6
two-step-fixation,164,1017015,0.0-76.0-2.9,1245,1218,25,Male,FALSE,TRUE,FALSE,TRUE,"""event"",""trial"",""time""
""fullscreenenter"",""5"",""17939""
","
","
","""event"",""trial"",""time""
""fullscreenenter"",""5"",""17939""
","
",,images/earth.jpg,,,,,,,,,,,,,,fixation,,,,,,
d3-animate-choice,165,1019403,0.0-76.0-0.10,1245,1218,25,Male,FALSE,TRUE,FALSE,TRUE,"""event"",""trial"",""time""
""fullscreenenter"",""5"",""17939""
","
","
","""event"",""trial"",""time""
""fullscreenenter"",""5"",""17939""
","
",385.5,,49,,,3000,1,,,images/earth.jpg,images/rocket1,images/rocket2,null,images/rocket2,,1,real,null,1,,,
d3-animate-choice,166,1021764,0.0-76.0-1.10,1245,1218,25,Male,FALSE,TRUE,FALSE,TRUE,"""event"",""trial"",""time""
""fullscreenenter"",""5"",""17939""
","
","
","""event"",""trial"",""time""
""fullscreenenter"",""5"",""17939""
","
",356.8,,48,,,3000,1,,,images/redplanet1.jpg,images/alien2,images/alien1,images/rocket2,images/alien2,images/t.png,2,real,FALSE,2,rare,1,17:19.3
two-step-fixation,167,1022766,0.0-76.0-2.10,1245,1218,25,Male,FALSE,TRUE,FALSE,TRUE,"""event"",""trial"",""time""
""fullscreenenter"",""5"",""17939""
","
","
","""event"",""trial"",""time""
""fullscreenenter"",""5"",""17939""
","
",,images/earth.jpg,,,,,,,,,,,,,,fixation,,,,,,
d3-animate-choice,168,1025091,0.0-76.0-0.11,1245,1218,25,Male,FALSE,TRUE,FALSE,TRUE,"""event"",""trial"",""time""
""fullscreenenter"",""5"",""17939""
","
","
","""event"",""trial"",""time""
""fullscreenenter"",""5"",""17939""
","
",321.5,,49,,,3000,1,,,images/earth.jpg,images/rocket1,images/rocket2,null,images/rocket2,,1,real,null,1,,,
d3-animate-choice,169,1027558,0.0-76.0-1.11,1245,1218,25,Male,FALSE,TRUE,FALSE,TRUE,"""event"",""trial"",""time""
""fullscreenenter"",""5"",""17939""
","
","
","""event"",""trial"",""time""
""fullscreenenter"",""5"",""17939""
","
",460.3,,48,,,3000,1,,,images/purpleplanet.jpg,images/alien4,images/alien3,images/rocket2,images/alien4,images/t.png,2,real,TRUE,2,common,1,17:25.1
two-step-fixation,170,1028562,0.0-76.0-2.11,1245,1218,25,Male,FALSE,TRUE,FALSE,TRUE,"""event"",""trial"",""time""
""fullscreenenter"",""5"",""17939""
","
","
","""event"",""trial"",""time""
""fullscreenenter"",""5"",""17939""
","
",,images/earth.jpg,,,,,,,,,,,,,,fixation,,,,,,
d3-animate-choice,171,1030868,0.0-76.0-0.12,1245,1218,25,Male,FALSE,TRUE,FALSE,TRUE,"""event"",""trial"",""time""
""fullscreenenter"",""5"",""17939""
","
","
","""event"",""trial"",""time""
""fullscreenenter"",""5"",""17939""
","
",302.4,,49,,,3000,1,,,images/earth.jpg,images/rocket1,images/rocket2,null,images/rocket2,,1,real,null,1,,,
d3-animate-choice,172,1033450,0.0-76.0-1.12,1245,1218,25,Male,FALSE,TRUE,FALSE,TRUE,"""event"",""trial"",""time""
""fullscreenenter"",""5"",""17939""
","
","
","""event"",""trial"",""time""
""fullscreenenter"",""5"",""17939""
","
",578.5,,48,,,3000,1,,,images/purpleplanet.jpg,images/alien4,images/alien3,images/rocket2,images/alien4,images/t.png,2,real,TRUE,2,common,1,17:31.0
two-step-fixation,173,1034451,0.0-76.0-2.12,1245,1218,25,Male,FALSE,TRUE,FALSE,TRUE,"""event"",""trial"",""time""
""fullscreenenter"",""5"",""17939""
","
","
","""event"",""trial"",""time""
""fullscreenenter"",""5"",""17939""
","
",,images/earth.jpg,,,,,,,,,,,,,,fixation,,,,,,
d3-animate-choice,174,1036842,0.0-76.0-0.13,1245,1218,25,Male,FALSE,TRUE,FALSE,TRUE,"""event"",""trial"",""time""
""fullscreenenter"",""5"",""17939""
","
","
","""event"",""trial"",""time""
""fullscreenenter"",""5"",""17939""
","
",388.8,,49,,,3000,1,,,images/earth.jpg,images/rocket1,images/rocket2,null,images/rocket2,,1,real,null,1,,,
d3-animate-choice,175,1039214,0.0-76.0-1.13,1245,1218,25,Male,FALSE,TRUE,FALSE,TRUE,"""event"",""trial"",""time""
""fullscreenenter"",""5"",""17939""
","
","
","""event"",""trial"",""time""
""fullscreenenter"",""5"",""17939""
","
",364.9,,48,,,3000,1,,,images/purpleplanet.jpg,images/alien4,images/alien3,images/rocket2,images/alien4,images/t.png,2,real,TRUE,2,common,1,17:36.8
two-step-fixation,176,1040218,0.0-76.0-2.13,1245,1218,25,Male,FALSE,TRUE,FALSE,TRUE,"""event"",""trial"",""time""
""fullscreenenter"",""5"",""17939""
","
","
","""event"",""trial"",""time""
""fullscreenenter"",""5"",""17939""
","
",,images/earth.jpg,,,,,,,,,,,,,,fixation,,,,,,
d3-animate-choice,177,1042580,0.0-76.0-0.14,1245,1218,25,Male,FALSE,TRUE,FALSE,TRUE,"""event"",""trial"",""time""
""fullscreenenter"",""5"",""17939""
","
","
","""event"",""trial"",""time""
""fullscreenenter"",""5"",""17939""
","
",357.8,,49,,,3000,1,,,images/earth.jpg,images/rocket1,images/rocket2,null,images/rocket2,,1,real,null,1,,,
d3-animate-choice,178,1044945,0.0-76.0-1.14,1245,1218,25,Male,FALSE,TRUE,FALSE,TRUE,"""event"",""trial"",""time""
""fullscreenenter"",""5"",""17939""
","
","
","""event"",""trial"",""time""
""fullscreenenter"",""5"",""17939""
","
",362.4,,48,,,3000,1,,,images/purpleplanet.jpg,images/alien4,images/alien3,images/rocket2,images/alien4,images/t.png,2,real,TRUE,2,common,1,17:42.5
two-step-fixation,179,1045947,0.0-76.0-2.14,1245,1218,25,Male,FALSE,TRUE,FALSE,TRUE,"""event"",""trial"",""time""
""fullscreenenter"",""5"",""17939""
","
","
","""event"",""trial"",""time""
""fullscreenenter"",""5"",""17939""
","
",,images/earth.jpg,,,,,,,,,,,,,,fixation,,,,,,
d3-animate-choice,180,1048298,0.0-76.0-0.15,1245,1218,25,Male,FALSE,TRUE,FALSE,TRUE,"""event"",""trial"",""time""
""fullscreenenter"",""5"",""17939""
","
","
","""event"",""trial"",""time""
""fullscreenenter"",""5"",""17939""
","
",347.4,,48,,,3000,1,,,images/earth.jpg,images/rocket1,images/rocket2,null,images/rocket1,,1,real,null,2,,,
d3-animate-choice,181,1050817,0.0-76.0-1.15,1245,1218,25,Male,FALSE,TRUE,FALSE,TRUE,"""event"",""trial"",""time""
""fullscreenenter"",""5"",""17939""
","
","
","""event"",""trial"",""time""
""fullscreenenter"",""5"",""17939""
","
",516.8,,48,,,3000,1,,,images/purpleplanet.jpg,images/alien4,images/alien3,images/rocket1,images/alien4,images/t.png,2,real,FALSE,2,rare,1,17:48.4
two-step-fixation,182,1051820,0.0-76.0-2.15,1245,1218,25,Male,FALSE,TRUE,FALSE,TRUE,"""event"",""trial"",""time""
""fullscreenenter"",""5"",""17939""
","
","
","""event"",""trial"",""time""
""fullscreenenter"",""5"",""17939""
","
",,images/earth.jpg,,,,,,,,,,,,,,fixation,,,,,,
d3-animate-choice,183,1054121,0.0-76.0-0.16,1245,1218,25,Male,FALSE,TRUE,FALSE,TRUE,"""event"",""trial"",""time""
""fullscreenenter"",""5"",""17939""
","
","
","""event"",""trial"",""time""
""fullscreenenter"",""5"",""17939""
","
",299.7,,48,,,3000,1,,,images/earth.jpg,images/rocket1,images/rocket2,null,images/rocket1,,1,real,null,2,,,
d3-animate-choice,184,1056746,0.0-76.0-1.16,1245,1218,25,Male,FALSE,TRUE,FALSE,TRUE,"""event"",""trial"",""time""
""fullscreenenter"",""5"",""17939""
","
","
","""event"",""trial"",""time""
""fullscreenenter"",""5"",""17939""
","
",620.7,,48,,,3000,1,,,images/purpleplanet.jpg,images/alien4,images/alien3,images/rocket1,images/alien4,images/t.png,2,real,FALSE,2,rare,1,17:54.3
two-step-fixation,185,1057748,0.0-76.0-2.16,1245,1218,25,Male,FALSE,TRUE,FALSE,TRUE,"""event"",""trial"",""time""
""fullscreenenter"",""5"",""17939""
","
","
","""event"",""trial"",""time""
""fullscreenenter"",""5"",""17939""
","
",,images/earth.jpg,,,,,,,,,,,,,,fixation,,,,,,
d3-animate-choice,186,1060041,0.0-76.0-0.17,1245,1218,25,Male,FALSE,TRUE,FALSE,TRUE,"""event"",""trial"",""time""
""fullscreenenter"",""5"",""17939""
","
","
","""event"",""trial"",""time""
""fullscreenenter"",""5"",""17939""
","
",290.4,,49,,,3000,1,,,images/earth.jpg,images/rocket1,images/rocket2,null,images/rocket2,,1,real,null,1,,,
d3-animate-choice,187,1062641,0.0-76.0-1.17,1245,1218,25,Male,FALSE,TRUE,FALSE,TRUE,"""event"",""trial"",""time""
""fullscreenenter"",""5"",""17939""
","
","
","""event"",""trial"",""time""
""fullscreenenter"",""5"",""17939""
","
",596.6,,48,,,3000,1,,,images/purpleplanet.jpg,images/alien4,images/alien3,images/rocket2,images/alien4,images/t.png,2,real,TRUE,2,common,1,18:00.2
two-step-fixation,188,1063644,0.0-76.0-2.17,1245,1218,25,Male,FALSE,TRUE,FALSE,TRUE,"""event"",""trial"",""time""
""fullscreenenter"",""5"",""17939""
","
","
","""event"",""trial"",""time""
""fullscreenenter"",""5"",""17939""
","
",,images/earth.jpg,,,,,,,,,,,,,,fixation,,,,,,
d3-animate-choice,189,1065972,0.0-76.0-0.18,1245,1218,25,Male,FALSE,TRUE,FALSE,TRUE,"""event"",""trial"",""time""
""fullscreenenter"",""5"",""17939""
","
","
","""event"",""trial"",""time""
""fullscreenenter"",""5"",""17939""
","
",322.7,,49,,,3000,1,,,images/earth.jpg,images/rocket1,images/rocket2,null,images/rocket2,,1,real,null,1,,,
d3-animate-choice,190,1068672,0.0-76.0-1.18,1245,1218,25,Male,FALSE,TRUE,FALSE,TRUE,"""event"",""trial"",""time""
""fullscreenenter"",""5"",""17939""
","
","
","""event"",""trial"",""time""
""fullscreenenter"",""5"",""17939""
","
",698,,49,,,3000,1,,,images/redplanet1.jpg,images/alien2,images/alien1,images/rocket2,images/alien1,images/nothing.png,2,real,FALSE,1,rare,0,18:06.2
two-step-fixation,191,1069674,0.0-76.0-2.18,1245,1218,25,Male,FALSE,TRUE,FALSE,TRUE,"""event"",""trial"",""time""
""fullscreenenter"",""5"",""17939""
","
","
","""event"",""trial"",""time""
""fullscreenenter"",""5"",""17939""
","
",,images/earth.jpg,,,,,,,,,,,,,,fixation,,,,,,
d3-animate-choice,192,1071760,0.0-76.0-0.19,1245,1218,25,Male,FALSE,TRUE,FALSE,TRUE,"""event"",""trial"",""time""
""fullscreenenter"",""5"",""17939""
","
","
","""event"",""trial"",""time""
""fullscreenenter"",""5"",""17939""
","
",84,,49,,,3000,1,,,images/earth.jpg,images/rocket1,images/rocket2,null,images/rocket2,,1,real,null,1,,,
d3-animate-choice,193,1074440,0.0-76.0-1.19,1245,1218,25,Male,FALSE,TRUE,FALSE,TRUE,"""event"",""trial"",""time""
""fullscreenenter"",""5"",""17939""
","
","
","""event"",""trial"",""time""
""fullscreenenter"",""5"",""17939""
","
",677.5,,48,,,3000,1,,,images/purpleplanet.jpg,images/alien4,images/alien3,images/rocket2,images/alien4,images/nothing.png,2,real,TRUE,2,common,0,18:12.0
two-step-fixation,194,1075442,0.0-76.0-2.19,1245,1218,25,Male,FALSE,TRUE,FALSE,TRUE,"""event"",""trial"",""time""
""fullscreenenter"",""5"",""17939""
","
","
","""event"",""trial"",""time""
""fullscreenenter"",""5"",""17939""
","
",,images/earth.jpg,,,,,,,,,,,,,,fixation,,,,,,
d3-animate-choice,195,1077840,0.0-76.0-0.20,1245,1218,25,Male,FALSE,TRUE,FALSE,TRUE,"""event"",""trial"",""time""
""fullscreenenter"",""5"",""17939""
","
","
","""event"",""trial"",""time""
""fullscreenenter"",""5"",""17939""
","
",396,,49,,,3000,1,,,images/earth.jpg,images/rocket1,images/rocket2,null,images/rocket2,,1,real,null,1,,,
d3-animate-choice,196,1080277,0.0-76.0-1.20,1245,1218,25,Male,FALSE,TRUE,FALSE,TRUE,"""event"",""trial"",""time""
""fullscreenenter"",""5"",""17939""
","
","
","""event"",""trial"",""time""
""fullscreenenter"",""5"",""17939""
","
",429.4,,49,,,3000,1,,,images/redplanet1.jpg,images/alien2,images/alien1,images/rocket2,images/alien1,images/nothing.png,2,real,FALSE,1,rare,0,18:17.8
two-step-fixation,197,1081281,0.0-76.0-2.20,1245,1218,25,Male,FALSE,TRUE,FALSE,TRUE,"""event"",""trial"",""time""
""fullscreenenter"",""5"",""17939""
","
","
","""event"",""trial"",""time""
""fullscreenenter"",""5"",""17939""
","
",,images/earth.jpg,,,,,,,,,,,,,,fixation,,,,,,
d3-animate-choice,198,1083513,0.0-76.0-0.21,1245,1218,25,Male,FALSE,TRUE,FALSE,TRUE,"""event"",""trial"",""time""
""fullscreenenter"",""5"",""17939""
","
","
","""event"",""trial"",""time""
""fullscreenenter"",""5"",""17939""
","
",228,,49,,,3000,1,,,images/earth.jpg,images/rocket1,images/rocket2,null,images/rocket2,,1,real,null,1,,,
d3-animate-choice,199,1085960,0.0-76.0-1.21,1245,1218,25,Male,FALSE,TRUE,FALSE,TRUE,"""event"",""trial"",""time""
""fullscreenenter"",""5"",""17939""
","
","
","""event"",""trial"",""time""
""fullscreenenter"",""5"",""17939""
","
",444.5,,49,,,3000,1,,,images/redplanet1.jpg,images/alien2,images/alien1,images/rocket2,images/alien1,images/t.png,2,real,FALSE,1,rare,1,18:23.5
two-step-fixation,200,1086962,0.0-76.0-2.21,1245,1218,25,Male,FALSE,TRUE,FALSE,TRUE,"""event"",""trial"",""time""
""fullscreenenter"",""5"",""17939""
","
","
","""event"",""trial"",""time""
""fullscreenenter"",""5"",""17939""
","
",,images/earth.jpg,,,,,,,,,,,,,,fixation,,,,,,
d3-animate-choice,201,1089385,0.0-76.0-0.22,1245,1218,25,Male,FALSE,TRUE,FALSE,TRUE,"""event"",""trial"",""time""
""fullscreenenter"",""5"",""17939""
","
","
","""event"",""trial"",""time""
""fullscreenenter"",""5"",""17939""
","
",419.3,,49,,,3000,1,,,images/earth.jpg,images/rocket1,images/rocket2,null,images/rocket2,,1,real,null,1,,,
d3-animate-choice,202,1091736,0.0-76.0-1.22,1245,1218,25,Male,FALSE,TRUE,FALSE,TRUE,"""event"",""trial"",""time""
""fullscreenenter"",""5"",""17939""
","
","
","""event"",""trial"",""time""
""fullscreenenter"",""5"",""17939""
","
",348.4,,48,,,3000,1,,,images/purpleplanet.jpg,images/alien4,images/alien3,images/rocket2,images/alien4,images/t.png,2,real,TRUE,2,common,1,18:29.3
two-step-fixation,203,1092740,0.0-76.0-2.22,1245,1218,25,Male,FALSE,TRUE,FALSE,TRUE,"""event"",""trial"",""time""
""fullscreenenter"",""5"",""17939""
","
","
","""event"",""trial"",""time""
""fullscreenenter"",""5"",""17939""
","
",,images/earth.jpg,,,,,,,,,,,,,,fixation,,,,,,
d3-animate-choice,204,1095049,0.0-76.0-0.23,1245,1218,25,Male,FALSE,TRUE,FALSE,TRUE,"""event"",""trial"",""time""
""fullscreenenter"",""5"",""17939""
","
","
","""event"",""trial"",""time""
""fullscreenenter"",""5"",""17939""
","
",305.2,,48,,,3000,1,,,images/earth.jpg,images/rocket1,images/rocket2,null,images/rocket1,,1,real,null,2,,,
d3-animate-choice,205,1097376,0.0-76.0-1.23,1245,1218,25,Male,FALSE,TRUE,FALSE,TRUE,"""event"",""trial"",""time""
""fullscreenenter"",""5"",""17939""
","
","
","""event"",""trial"",""time""
""fullscreenenter"",""5"",""17939""
","
",324.1,,48,,,3000,1,,,images/purpleplanet.jpg,images/alien4,images/alien3,images/rocket1,images/alien4,images/nothing.png,2,real,FALSE,2,rare,0,18:34.9
two-step-fixation,206,1098378,0.0-76.0-2.23,1245,1218,25,Male,FALSE,TRUE,FALSE,TRUE,"""event"",""trial"",""time""
""fullscreenenter"",""5"",""17939""
","
","
","""event"",""trial"",""time""
""fullscreenenter"",""5"",""17939""
","
",,images/earth.jpg,,,,,,,,,,,,,,fixation,,,,,,
d3-animate-choice,207,1100538,0.0-76.0-0.24,1245,1218,25,Male,FALSE,TRUE,FALSE,TRUE,"""event"",""trial"",""time""
""fullscreenenter"",""5"",""17939""
","
","
","""event"",""trial"",""time""
""fullscreenenter"",""5"",""17939""
","
",155.9,,48,,,3000,1,,,images/earth.jpg,images/rocket1,images/rocket2,null,images/rocket1,,1,real,null,2,,,
d3-animate-choice,208,1102934,0.0-76.0-1.24,1245,1218,25,Male,FALSE,TRUE,FALSE,TRUE,"""event"",""trial"",""time""
""fullscreenenter"",""5"",""17939""
","
","
","""event"",""trial"",""time""
""fullscreenenter"",""5"",""17939""
","
",393.7,,49,,,3000,1,,,images/purpleplanet.jpg,images/alien4,images/alien3,images/rocket1,images/alien3,images/nothing.png,2,real,FALSE,1,rare,0,18:40.5
two-step-fixation,209,1103937,0.0-76.0-2.24,1245,1218,25,Male,FALSE,TRUE,FALSE,TRUE,"""event"",""trial"",""time""
""fullscreenenter"",""5"",""17939""
","
","
","""event"",""trial"",""time""
""fullscreenenter"",""5"",""17939""
","
",,images/earth.jpg,,,,,,,,,,,,,,fixation,,,,,,
d3-animate-choice,210,1106056,0.0-76.0-0.25,1245,1218,25,Male,FALSE,TRUE,FALSE,TRUE,"""event"",""trial"",""time""
""fullscreenenter"",""5"",""17939""
","
","
","""event"",""trial"",""time""
""fullscreenenter"",""5"",""17939""
","
",115.2,,48,,,3000,1,,,images/earth.jpg,images/rocket1,images/rocket2,null,images/rocket1,,1,real,null,2,,,
d3-animate-choice,211,1108418,0.0-76.0-1.25,1245,1218,25,Male,FALSE,TRUE,FALSE,TRUE,"""event"",""trial"",""time""
""fullscreenenter"",""5"",""17939""
","
","
","""event"",""trial"",""time""
""fullscreenenter"",""5"",""17939""
","
",356.4,,48,,,3000,1,,,images/redplanet1.jpg,images/alien2,images/alien1,images/rocket1,images/alien2,images/t.png,2,real,TRUE,2,common,1,18:46.0
two-step-fixation,212,1109420,0.0-76.0-2.25,1245,1218,25,Male,FALSE,TRUE,FALSE,TRUE,"""event"",""trial"",""time""
""fullscreenenter"",""5"",""17939""
","
","
","""event"",""trial"",""time""
""fullscreenenter"",""5"",""17939""
","
",,images/earth.jpg,,,,,,,,,,,,,,fixation,,,,,,
d3-animate-choice,213,1111585,0.0-76.0-0.26,1245,1218,25,Male,FALSE,TRUE,FALSE,TRUE,"""event"",""trial"",""time""
""fullscreenenter"",""5"",""17939""
","
","
","""event"",""trial"",""time""
""fullscreenenter"",""5"",""17939""
","
",160.8,,49,,,3000,1,,,images/earth.jpg,images/rocket1,images/rocket2,null,images/rocket2,,1,real,null,1,,,
d3-animate-choice,214,1114504,0.0-76.0-1.26,1245,1218,25,Male,FALSE,TRUE,FALSE,TRUE,"""event"",""trial"",""time""
""fullscreenenter"",""5"",""17939""
","
","
","""event"",""trial"",""time""
""fullscreenenter"",""5"",""17939""
","
",915.6,,48,,,3000,1,,,images/purpleplanet.jpg,images/alien4,images/alien3,images/rocket2,images/alien4,images/t.png,2,real,TRUE,2,common,1,18:52.1
two-step-fixation,215,1115506,0.0-76.0-2.26,1245,1218,25,Male,FALSE,TRUE,FALSE,TRUE,"""event"",""trial"",""time""
""fullscreenenter"",""5"",""17939""
","
","
","""event"",""trial"",""time""
""fullscreenenter"",""5"",""17939""
","
",,images/earth.jpg,,,,,,,,,,,,,,fixation,,,,,,
d3-animate-choice,216,1117856,0.0-76.0-0.27,1245,1218,25,Male,FALSE,TRUE,FALSE,TRUE,"""event"",""trial"",""time""
""fullscreenenter"",""5"",""17939""
","
","
","""event"",""trial"",""time""
""fullscreenenter"",""5"",""17939""
","
",346.4,,49,,,3000,1,,,images/earth.jpg,images/rocket1,images/rocket2,null,images/rocket2,,1,real,null,1,,,
d3-animate-choice,217,1120431,0.0-76.0-1.27,1245,1218,25,Male,FALSE,TRUE,FALSE,TRUE,"""event"",""trial"",""time""
""fullscreenenter"",""5"",""17939""
","
","
","""event"",""trial"",""time""
""fullscreenenter"",""5"",""17939""
","
",571.6,,48,,,3000,1,,,images/purpleplanet.jpg,images/alien4,images/alien3,images/rocket2,images/alien4,images/t.png,2,real,TRUE,2,common,1,18:58.0
two-step-fixation,218,1121433,0.0-76.0-2.27,1245,1218,25,Male,FALSE,TRUE,FALSE,TRUE,"""event"",""trial"",""time""
""fullscreenenter"",""5"",""17939""
","
","
","""event"",""trial"",""time""
""fullscreenenter"",""5"",""17939""
","
",,images/earth.jpg,,,,,,,,,,,,,,fixation,,,,,,
d3-animate-choice,219,1124236,0.0-76.0-0.28,1245,1218,25,Male,FALSE,TRUE,FALSE,TRUE,"""event"",""trial"",""time""
""fullscreenenter"",""5"",""17939""
","
","
","""event"",""trial"",""time""
""fullscreenenter"",""5"",""17939""
","
",799.4,,49,,,3000,1,,,images/earth.jpg,images/rocket1,images/rocket2,null,images/rocket2,,1,real,null,1,,,
d3-animate-choice,220,1126692,0.0-76.0-1.28,1245,1218,25,Male,FALSE,TRUE,FALSE,TRUE,"""event"",""trial"",""time""
""fullscreenenter"",""5"",""17939""
","
","
","""event"",""trial"",""time""
""fullscreenenter"",""5"",""17939""
","
",451.3,,48,,,3000,1,,,images/purpleplanet.jpg,images/alien4,images/alien3,images/rocket2,images/alien4,images/t.png,2,real,TRUE,2,common,1,19:04.2
two-step-fixation,221,1127696,0.0-76.0-2.28,1245,1218,25,Male,FALSE,TRUE,FALSE,TRUE,"""event"",""trial"",""time""
""fullscreenenter"",""5"",""17939""
","
","
","""event"",""trial"",""time""
""fullscreenenter"",""5"",""17939""
","
",,images/earth.jpg,,,,,,,,,,,,,,fixation,,,,,,
d3-animate-choice,222,1130050,0.0-76.0-0.29,1245,1218,25,Male,FALSE,TRUE,FALSE,TRUE,"""event"",""trial"",""time""
""fullscreenenter"",""5"",""17939""
","
","
","""event"",""trial"",""time""
""fullscreenenter"",""5"",""17939""
","
",351.8,,49,,,3000,1,,,images/earth.jpg,images/rocket1,images/rocket2,null,images/rocket2,,1,real,null,1,,,
d3-animate-choice,223,1132481,0.0-76.0-1.29,1245,1218,25,Male,FALSE,TRUE,FALSE,TRUE,"""event"",""trial"",""time""
""fullscreenenter"",""5"",""17939""
","
","
","""event"",""trial"",""time""
""fullscreenenter"",""5"",""17939""
","
",428.9,,48,,,3000,1,,,images/purpleplanet.jpg,images/alien4,images/alien3,images/rocket2,images/alien4,images/t.png,2,real,TRUE,2,common,1,19:10.0
two-step-fixation,224,1133483,0.0-76.0-2.29,1245,1218,25,Male,FALSE,TRUE,FALSE,TRUE,"""event"",""trial"",""time""
""fullscreenenter"",""5"",""17939""
","
","
","""event"",""trial"",""time""
""fullscreenenter"",""5"",""17939""
","
",,images/earth.jpg,,,,,,,,,,,,,,fixation,,,,,,
d3-animate-choice,225,1135892,0.0-76.0-0.30,1245,1218,25,Male,FALSE,TRUE,FALSE,TRUE,"""event"",""trial"",""time""
""fullscreenenter"",""5"",""17939""
","
","
","""event"",""trial"",""time""
""fullscreenenter"",""5"",""17939""
","
",404.9,,49,,,3000,1,,,images/earth.jpg,images/rocket1,images/rocket2,null,images/rocket2,,1,real,null,1,,,
d3-animate-choice,226,1138212,0.0-76.0-1.30,1245,1218,25,Male,FALSE,TRUE,FALSE,TRUE,"""event"",""trial"",""time""
""fullscreenenter"",""5"",""17939""
","
","
","""event"",""trial"",""time""
""fullscreenenter"",""5"",""17939""
","
",315.2,,48,,,3000,1,,,images/purpleplanet.jpg,images/alien4,images/alien3,images/rocket2,images/alien4,images/t.png,2,real,TRUE,2,common,1,19:15.8
two-step-fixation,227,1139216,0.0-76.0-2.30,1245,1218,25,Male,FALSE,TRUE,FALSE,TRUE,"""event"",""trial"",""time""
""fullscreenenter"",""5"",""17939""
","
","
","""event"",""trial"",""time""
""fullscreenenter"",""5"",""17939""
","
",,images/earth.jpg,,,,,,,,,,,,,,fixation,,,,,,
d3-animate-choice,228,1141546,0.0-76.0-0.31,1245,1218,25,Male,FALSE,TRUE,FALSE,TRUE,"""event"",""trial"",""time""
""fullscreenenter"",""5"",""17939""
","
","
","""event"",""trial"",""time""
""fullscreenenter"",""5"",""17939""
","
",327.2,,49,,,3000,1,,,images/earth.jpg,images/rocket1,images/rocket2,null,images/rocket2,,1,real,null,1,,,
d3-animate-choice,229,1143818,0.0-76.0-1.31,1245,1218,25,Male,FALSE,TRUE,FALSE,TRUE,"""event"",""trial"",""time""
""fullscreenenter"",""5"",""17939""
","
","
","""event"",""trial"",""time""
""fullscreenenter"",""5"",""17939""
","
",268.4,,49,,,3000,1,,,images/purpleplanet.jpg,images/alien4,images/alien3,images/rocket2,images/alien3,images/nothing.png,2,real,TRUE,1,common,0,19:21.4
two-step-fixation,230,1144820,0.0-76.0-2.31,1245,1218,25,Male,FALSE,TRUE,FALSE,TRUE,"""event"",""trial"",""time""
""fullscreenenter"",""5"",""17939""
","
","
","""event"",""trial"",""time""
""fullscreenenter"",""5"",""17939""
","
",,images/earth.jpg,,,,,,,,,,,,,,fixation,,,,,,
d3-animate-choice,231,1147081,0.0-76.0-0.32,1245,1218,25,Male,FALSE,TRUE,FALSE,TRUE,"""event"",""trial"",""time""
""fullscreenenter"",""5"",""17939""
","
","
","""event"",""trial"",""time""
""fullscreenenter"",""5"",""17939""
","
",258.9,,48,,,3000,1,,,images/earth.jpg,images/rocket1,images/rocket2,null,images/rocket1,,1,real,null,2,,,
d3-animate-choice,232,1149539,0.0-76.0-1.32,1245,1218,25,Male,FALSE,TRUE,FALSE,TRUE,"""event"",""trial"",""time""
""fullscreenenter"",""5"",""17939""
","
","
","""event"",""trial"",""time""
""fullscreenenter"",""5"",""17939""
","
",453.6,,48,,,3000,1,,,images/purpleplanet.jpg,images/alien4,images/alien3,images/rocket1,images/alien4,images/nothing.png,2,real,FALSE,2,rare,0,19:27.1
two-step-fixation,233,1150541,0.0-76.0-2.32,1245,1218,25,Male,FALSE,TRUE,FALSE,TRUE,"""event"",""trial"",""time""
""fullscreenenter"",""5"",""17939""
","
","
","""event"",""trial"",""time""
""fullscreenenter"",""5"",""17939""
","
",,images/earth.jpg,,,,,,,,,,,,,,fixation,,,,,,
d3-animate-choice,234,1152721,0.0-76.0-0.33,1245,1218,25,Male,FALSE,TRUE,FALSE,TRUE,"""event"",""trial"",""time""
""fullscreenenter"",""5"",""17939""
","
","
","""event"",""trial"",""time""
""fullscreenenter"",""5"",""17939""
","
",177.6,,48,,,3000,1,,,images/earth.jpg,images/rocket1,images/rocket2,null,images/rocket1,,1,real,null,2,,,
d3-animate-choice,235,1155058,0.0-76.0-1.33,1245,1218,25,Male,FALSE,TRUE,FALSE,TRUE,"""event"",""trial"",""time""
""fullscreenenter"",""5"",""17939""
","
","
","""event"",""trial"",""time""
""fullscreenenter"",""5"",""17939""
","
",333.4,,48,,,3000,1,,,images/purpleplanet.jpg,images/alien4,images/alien3,images/rocket1,images/alien4,images/nothing.png,2,real,FALSE,2,rare,0,19:32.6
two-step-fixation,236,1156062,0.0-76.0-2.33,1245,1218,25,Male,FALSE,TRUE,FALSE,TRUE,"""event"",""trial"",""time""
""fullscreenenter"",""5"",""17939""
","
","
","""event"",""trial"",""time""
""fullscreenenter"",""5"",""17939""
","
",,images/earth.jpg,,,,,,,,,,,,,,fixation,,,,,,
d3-animate-choice,237,1158235,0.0-76.0-0.34,1245,1218,25,Male,FALSE,TRUE,FALSE,TRUE,"""event"",""trial"",""time""
""fullscreenenter"",""5"",""17939""
","
","
","""event"",""trial"",""time""
""fullscreenenter"",""5"",""17939""
","
",169.3,,48,,,3000,1,,,images/earth.jpg,images/rocket1,images/rocket2,null,images/rocket1,,1,real,null,2,,,
d3-animate-choice,238,1160515,0.0-76.0-1.34,1245,1218,25,Male,FALSE,TRUE,FALSE,TRUE,"""event"",""trial"",""time""
""fullscreenenter"",""5"",""17939""
","
","
","""event"",""trial"",""time""
""fullscreenenter"",""5"",""17939""
","
",275.5,,49,,,3000,1,,,images/purpleplanet.jpg,images/alien4,images/alien3,images/rocket1,images/alien3,images/nothing.png,2,real,FALSE,1,rare,0,19:38.1
two-step-fixation,239,1161516,0.0-76.0-2.34,1245,1218,25,Male,FALSE,TRUE,FALSE,TRUE,"""event"",""trial"",""time""
""fullscreenenter"",""5"",""17939""
","
","
","""event"",""trial"",""time""
""fullscreenenter"",""5"",""17939""
","
",,images/earth.jpg,,,,,,,,,,,,,,fixation,,,,,,
d3-animate-choice,240,1163664,0.0-76.0-0.35,1245,1218,25,Male,FALSE,TRUE,FALSE,TRUE,"""event"",""trial"",""time""
""fullscreenenter"",""5"",""17939""
","
","
","""event"",""trial"",""time""
""fullscreenenter"",""5"",""17939""
","
",145.5,,48,,,3000,1,1569.6,48,images/earth.jpg,images/rocket1,images/rocket2,null,images/rocket1,,1,real,null,2,,,
d3-animate-choice,241,1165947,0.0-76.0-1.35,1245,1218,25,Male,FALSE,TRUE,FALSE,TRUE,"""event"",""trial"",""time""
""fullscreenenter"",""5"",""17939""
","
","
","""event"",""trial"",""time""
""fullscreenenter"",""5"",""17939""
","
",277.8,,48,,,3000,1,,,images/purpleplanet.jpg,images/alien4,images/alien3,images/rocket1,images/alien4,images/nothing.png,2,real,FALSE,2,rare,0,19:43.5
two-step-fixation,242,1166949,0.0-76.0-2.35,1245,1218,25,Male,FALSE,TRUE,FALSE,TRUE,"""event"",""trial"",""time""
""fullscreenenter"",""5"",""17939""
","
","
","""event"",""trial"",""time""
""fullscreenenter"",""5"",""17939""
","
",,images/earth.jpg,,,,,,,,,,,,,,fixation,,,,,,
d3-animate-choice,243,1169057,0.0-76.0-0.36,1245,1218,25,Male,FALSE,TRUE,FALSE,TRUE,"""event"",""trial"",""time""
""fullscreenenter"",""5"",""17939""
","
","
","""event"",""trial"",""time""
""fullscreenenter"",""5"",""17939""
","
",104.5,,49,,,3000,1,,,images/earth.jpg,images/rocket1,images/rocket2,null,images/rocket2,,1,real,null,1,,,
d3-animate-choice,244,1171435,0.0-76.0-1.36,1245,1218,25,Male,FALSE,TRUE,FALSE,TRUE,"""event"",""trial"",""time""
""fullscreenenter"",""5"",""17939""
","
","
","""event"",""trial"",""time""
""fullscreenenter"",""5"",""17939""
","
",372.5,,49,,,3000,1,,,images/purpleplanet.jpg,images/alien4,images/alien3,images/rocket2,images/alien3,images/t.png,2,real,TRUE,1,common,1,19:49.0
two-step-fixation,245,1172436,0.0-76.0-2.36,1245,1218,25,Male,FALSE,TRUE,FALSE,TRUE,"""event"",""trial"",""time""
""fullscreenenter"",""5"",""17939""
","
","
","""event"",""trial"",""time""
""fullscreenenter"",""5"",""17939""
","
",,images/earth.jpg,,,,,,,,,,,,,,fixation,,,,,,
d3-animate-choice,246,1174618,0.0-76.0-0.37,1245,1218,25,Male,FALSE,TRUE,FALSE,TRUE,"""event"",""trial"",""time""
""fullscreenenter"",""5"",""17939""
","
","
","""event"",""trial"",""time""
""fullscreenenter"",""5"",""17939""
","
",177.7,,49,,,3000,1,,,images/earth.jpg,images/rocket1,images/rocket2,null,images/rocket2,,1,real,null,1,,,
d3-animate-choice,247,1177240,0.0-76.0-1.37,1245,1218,25,Male,FALSE,TRUE,FALSE,TRUE,"""event"",""trial"",""time""
""fullscreenenter"",""5"",""17939""
","
","
","""event"",""trial"",""time""
""fullscreenenter"",""5"",""17939""
","
",619.4,,49,,,3000,1,,,images/purpleplanet.jpg,images/alien4,images/alien3,images/rocket2,images/alien3,images/nothing.png,2,real,TRUE,1,common,0,19:54.8
two-step-fixation,248,1178241,0.0-76.0-2.37,1245,1218,25,Male,FALSE,TRUE,FALSE,TRUE,"""event"",""trial"",""time""
""fullscreenenter"",""5"",""17939""
","
","
","""event"",""trial"",""time""
""fullscreenenter"",""5"",""17939""
","
",,images/earth.jpg,,,,,,,,,,,,,,fixation,,,,,,
d3-animate-choice,249,1180482,0.0-76.0-0.38,1245,1218,25,Male,FALSE,TRUE,FALSE,TRUE,"""event"",""trial"",""time""
""fullscreenenter"",""5"",""17939""
","
","
","""event"",""trial"",""time""
""fullscreenenter"",""5"",""17939""
","
",236.2,,49,,,3000,1,,,images/earth.jpg,images/rocket1,images/rocket2,null,images/rocket2,,1,real,null,1,,,
d3-animate-choice,250,1183016,0.0-76.0-1.38,1245,1218,25,Male,FALSE,TRUE,FALSE,TRUE,"""event"",""trial"",""time""
""fullscreenenter"",""5"",""17939""
","
","
","""event"",""trial"",""time""
""fullscreenenter"",""5"",""17939""
","
",530.8,,48,,,3000,1,,,images/purpleplanet.jpg,images/alien4,images/alien3,images/rocket2,images/alien4,images/t.png,2,real,TRUE,2,common,1,20:00.6
two-step-fixation,251,1184020,0.0-76.0-2.38,1245,1218,25,Male,FALSE,TRUE,FALSE,TRUE,"""event"",""trial"",""time""
""fullscreenenter"",""5"",""17939""
","
","
","""event"",""trial"",""time""
""fullscreenenter"",""5"",""17939""
","
",,images/earth.jpg,,,,,,,,,,,,,,fixation,,,,,,
d3-animate-choice,252,1186274,0.0-76.0-0.39,1245,1218,25,Male,FALSE,TRUE,FALSE,TRUE,"""event"",""trial"",""time""
""fullscreenenter"",""5"",""17939""
","
","
","""event"",""trial"",""time""
""fullscreenenter"",""5"",""17939""
","
",249.9,,48,,,3000,1,,,images/earth.jpg,images/rocket1,images/rocket2,null,images/rocket1,,1,real,null,2,,,
d3-animate-choice,253,1188881,0.0-76.0-1.39,1245,1218,25,Male,FALSE,TRUE,FALSE,TRUE,"""event"",""trial"",""time""
""fullscreenenter"",""5"",""17939""
","
","
","""event"",""trial"",""time""
""fullscreenenter"",""5"",""17939""
","
",602.7,,48,,,3000,1,,,images/purpleplanet.jpg,images/alien4,images/alien3,images/rocket1,images/alien4,images/t.png,2,real,FALSE,2,rare,1,20:06.4
two-step-fixation,254,1189885,0.0-76.0-2.39,1245,1218,25,Male,FALSE,TRUE,FALSE,TRUE,"""event"",""trial"",""time""
""fullscreenenter"",""5"",""17939""
","
","
","""event"",""trial"",""time""
""fullscreenenter"",""5"",""17939""
","
",,images/earth.jpg,,,,,,,,,,,,,,fixation,,,,,,
d3-animate-choice,255,1192152,0.0-76.0-0.40,1245,1218,25,Male,FALSE,TRUE,FALSE,TRUE,"""event"",""trial"",""time""
""fullscreenenter"",""5"",""17939""
","
","
","""event"",""trial"",""time""
""fullscreenenter"",""5"",""17939""
","
",265.5,,49,,,3000,1,,,images/earth.jpg,images/rocket1,images/rocket2,null,images/rocket2,,1,real,null,1,,,
d3-animate-choice,256,1194770,0.0-76.0-1.40,1245,1218,25,Male,FALSE,TRUE,FALSE,TRUE,"""event"",""trial"",""time""
""fullscreenenter"",""5"",""17939""
","
","
","""event"",""trial"",""time""
""fullscreenenter"",""5"",""17939""
","
",612.3,,48,,,3000,1,,,images/purpleplanet.jpg,images/alien4,images/alien3,images/rocket2,images/alien4,images/t.png,2,real,TRUE,2,common,1,20:12.3
two-step-fixation,257,1195771,0.0-76.0-2.40,1245,1218,25,Male,FALSE,TRUE,FALSE,TRUE,"""event"",""trial"",""time""
""fullscreenenter"",""5"",""17939""
","
","
","""event"",""trial"",""time""
""fullscreenenter"",""5"",""17939""
","
",,images/earth.jpg,,,,,,,,,,,,,,fixation,,,,,,
d3-animate-choice,258,1198007,0.0-76.0-0.41,1245,1218,25,Male,FALSE,TRUE,FALSE,TRUE,"""event"",""trial"",""time""
""fullscreenenter"",""5"",""17939""
","
","
","""event"",""trial"",""time""
""fullscreenenter"",""5"",""17939""
","
",233.7,,49,,,3000,1,,,images/earth.jpg,images/rocket1,images/rocket2,null,images/rocket2,,1,real,null,1,,,
d3-animate-choice,259,1200720,0.0-76.0-1.41,1245,1218,25,Male,FALSE,TRUE,FALSE,TRUE,"""event"",""trial"",""time""
""fullscreenenter"",""5"",""17939""
","
","
","""event"",""trial"",""time""
""fullscreenenter"",""5"",""17939""
","
",709.1,,48,,,3000,1,,,images/purpleplanet.jpg,images/alien4,images/alien3,images/rocket2,images/alien4,images/t.png,2,real,TRUE,2,common,1,20:18.3
two-step-fixation,260,1201721,0.0-76.0-2.41,1245,1218,25,Male,FALSE,TRUE,FALSE,TRUE,"""event"",""trial"",""time""
""fullscreenenter"",""5"",""17939""
","
","
","""event"",""trial"",""time""
""fullscreenenter"",""5"",""17939""
","
",,images/earth.jpg,,,,,,,,,,,,,,fixation,,,,,,
d3-animate-choice,261,1204218,0.0-76.0-0.42,1245,1218,25,Male,FALSE,TRUE,FALSE,TRUE,"""event"",""trial"",""time""
""fullscreenenter"",""5"",""17939""
","
","
","""event"",""trial"",""time""
""fullscreenenter"",""5"",""17939""
","
",492,,49,,,3000,1,,,images/earth.jpg,images/rocket1,images/rocket2,null,images/rocket2,,1,real,null,1,,,
d3-animate-choice,262,1206920,0.0-76.0-1.42,1245,1218,25,Male,FALSE,TRUE,FALSE,TRUE,"""event"",""trial"",""time""
""fullscreenenter"",""5"",""17939""
","
","
","""event"",""trial"",""time""
""fullscreenenter"",""5"",""17939""
","
",698.3,,48,,,3000,1,,,images/redplanet1.jpg,images/alien2,images/alien1,images/rocket2,images/alien2,images/nothing.png,2,real,FALSE,2,rare,0,20:24.5
two-step-fixation,263,1207923,0.0-76.0-2.42,1245,1218,25,Male,FALSE,TRUE,FALSE,TRUE,"""event"",""trial"",""time""
""fullscreenenter"",""5"",""17939""
","
","
","""event"",""trial"",""time""
""fullscreenenter"",""5"",""17939""
","
",,images/earth.jpg,,,,,,,,,,,,,,fixation,,,,,,
d3-animate-choice,264,1209944,0.0-76.0-0.43,1245,1218,25,Male,FALSE,TRUE,FALSE,TRUE,"""event"",""trial"",""time""
""fullscreenenter"",""5"",""17939""
","
","
","""event"",""trial"",""time""
""fullscreenenter"",""5"",""17939""
","
",18.7,,49,,,3000,1,,,images/earth.jpg,images/rocket1,images/rocket2,null,images/rocket2,,1,real,null,1,,,
d3-animate-choice,265,1212359,0.0-76.0-1.43,1245,1218,25,Male,FALSE,TRUE,FALSE,TRUE,"""event"",""trial"",""time""
""fullscreenenter"",""5"",""17939""
","
","
","""event"",""trial"",""time""
""fullscreenenter"",""5"",""17939""
","
",412.1,,49,,,3000,1,,,images/purpleplanet.jpg,images/alien4,images/alien3,images/rocket2,images/alien3,images/nothing.png,2,real,TRUE,1,common,0,20:29.9
two-step-fixation,266,1213360,0.0-76.0-2.43,1245,1218,25,Male,FALSE,TRUE,FALSE,TRUE,"""event"",""trial"",""time""
""fullscreenenter"",""5"",""17939""
","
","
","""event"",""trial"",""time""
""fullscreenenter"",""5"",""17939""
","
",,images/earth.jpg,,,,,,,,,,,,,,fixation,,,,,,
d3-animate-choice,267,1215552,0.0-76.0-0.44,1245,1218,25,Male,FALSE,TRUE,FALSE,TRUE,"""event"",""trial"",""time""
""fullscreenenter"",""5"",""17939""
","
","
","""event"",""trial"",""time""
""fullscreenenter"",""5"",""17939""
","
",188.4,,49,,,3000,1,,,images/earth.jpg,images/rocket1,images/rocket2,null,images/rocket2,,1,real,null,1,,,
d3-animate-choice,268,1217848,0.0-76.0-1.44,1245,1218,25,Male,FALSE,TRUE,FALSE,TRUE,"""event"",""trial"",""time""
""fullscreenenter"",""5"",""17939""
","
","
","""event"",""trial"",""time""
""fullscreenenter"",""5"",""17939""
","
",292.8,,48,,,3000,1,,,images/purpleplanet.jpg,images/alien4,images/alien3,images/rocket2,images/alien4,images/nothing.png,2,real,TRUE,2,common,0,20:35.4
two-step-fixation,269,1218852,0.0-76.0-2.44,1245,1218,25,Male,FALSE,TRUE,FALSE,TRUE,"""event"",""trial"",""time""
""fullscreenenter"",""5"",""17939""
","
","
","""event"",""trial"",""time""
""fullscreenenter"",""5"",""17939""
","
",,images/earth.jpg,,,,,,,,,,,,,,fixation,,,,,,
d3-animate-choice,270,1221321,0.0-76.0-0.45,1245,1218,25,Male,FALSE,TRUE,FALSE,TRUE,"""event"",""trial"",""time""
""fullscreenenter"",""5"",""17939""
","
","
","""event"",""trial"",""time""
""fullscreenenter"",""5"",""17939""
","
",464.2,,49,,,3000,1,,,images/earth.jpg,images/rocket1,images/rocket2,null,images/rocket2,,1,real,null,1,,,
d3-animate-choice,271,1223678,0.0-76.0-1.45,1245,1218,25,Male,FALSE,TRUE,FALSE,TRUE,"""event"",""trial"",""time""
""fullscreenenter"",""5"",""17939""
","
","
","""event"",""trial"",""time""
""fullscreenenter"",""5"",""17939""
","
",354.6,,49,,,3000,1,,,images/purpleplanet.jpg,images/alien4,images/alien3,images/rocket2,images/alien3,images/t.png,2,real,TRUE,1,common,1,20:41.2
two-step-fixation,272,1224683,0.0-76.0-2.45,1245,1218,25,Male,FALSE,TRUE,FALSE,TRUE,"""event"",""trial"",""time""
""fullscreenenter"",""5"",""17939""
","
","
","""event"",""trial"",""time""
""fullscreenenter"",""5"",""17939""
","
",,images/earth.jpg,,,,,,,,,,,,,,fixation,,,,,,
d3-animate-choice,273,1227039,0.0-76.0-0.46,1245,1218,25,Male,FALSE,TRUE,FALSE,TRUE,"""event"",""trial"",""time""
""fullscreenenter"",""5"",""17939""
","
","
","""event"",""trial"",""time""
""fullscreenenter"",""5"",""17939""
","
",353.8,,49,,,3000,1,,,images/earth.jpg,images/rocket1,images/rocket2,null,images/rocket2,,1,real,null,1,,,
d3-animate-choice,274,1229446,0.0-76.0-1.46,1245,1218,25,Male,FALSE,TRUE,FALSE,TRUE,"""event"",""trial"",""time""
""fullscreenenter"",""5"",""17939""
","
","
","""event"",""trial"",""time""
""fullscreenenter"",""5"",""17939""
","
",404.9,,49,,,3000,1,,,images/purpleplanet.jpg,images/alien4,images/alien3,images/rocket2,images/alien3,images/nothing.png,2,real,TRUE,1,common,0,20:47.0
two-step-fixation,275,1230449,0.0-76.0-2.46,1245,1218,25,Male,FALSE,TRUE,FALSE,TRUE,"""event"",""trial"",""time""
""fullscreenenter"",""5"",""17939""
","
","
","""event"",""trial"",""time""
""fullscreenenter"",""5"",""17939""
","
",,images/earth.jpg,,,,,,,,,,,,,,fixation,,,,,,
d3-animate-choice,276,1232599,0.0-76.0-0.47,1245,1218,25,Male,FALSE,TRUE,FALSE,TRUE,"""event"",""trial"",""time""
""fullscreenenter"",""5"",""17939""
","
","
","""event"",""trial"",""time""
""fullscreenenter"",""5"",""17939""
","
",146.9,,49,,,3000,1,,,images/earth.jpg,images/rocket1,images/rocket2,null,images/rocket2,,1,real,null,1,,,
d3-animate-choice,277,1234959,0.0-76.0-1.47,1245,1218,25,Male,FALSE,TRUE,FALSE,TRUE,"""event"",""trial"",""time""
""fullscreenenter"",""5"",""17939""
","
","
","""event"",""trial"",""time""
""fullscreenenter"",""5"",""17939""
","
",356.1,,48,,,3000,1,,,images/redplanet1.jpg,images/alien2,images/alien1,images/rocket2,images/alien2,images/t.png,2,real,FALSE,2,rare,1,20:52.5
two-step-fixation,278,1235961,0.0-76.0-2.47,1245,1218,25,Male,FALSE,TRUE,FALSE,TRUE,"""event"",""trial"",""time""
""fullscreenenter"",""5"",""17939""
","
","
","""event"",""trial"",""time""
""fullscreenenter"",""5"",""17939""
","
",,images/earth.jpg,,,,,,,,,,,,,,fixation,,,,,,
d3-animate-choice,279,1238271,0.0-76.0-0.48,1245,1218,25,Male,FALSE,TRUE,FALSE,TRUE,"""event"",""trial"",""time""
""fullscreenenter"",""5"",""17939""
","
","
","""event"",""trial"",""time""
""fullscreenenter"",""5"",""17939""
","
",307.4,,49,,,3000,1,,,images/earth.jpg,images/rocket1,images/rocket2,null,images/rocket2,,1,real,null,1,,,
d3-animate-choice,280,1240672,0.0-76.0-1.48,1245,1218,25,Male,FALSE,TRUE,FALSE,TRUE,"""event"",""trial"",""time""
""fullscreenenter"",""5"",""17939""
","
","
","""event"",""trial"",""time""
""fullscreenenter"",""5"",""17939""
","
",395.7,,48,,,3000,1,,,images/purpleplanet.jpg,images/alien4,images/alien3,images/rocket2,images/alien4,images/nothing.png,2,real,TRUE,2,common,0,20:58.2
two-step-fixation,281,1241673,0.0-76.0-2.48,1245,1218,25,Male,FALSE,TRUE,FALSE,TRUE,"""event"",""trial"",""time""
""fullscreenenter"",""5"",""17939""
","
","
","""event"",""trial"",""time""
""fullscreenenter"",""5"",""17939""
","
",,images/earth.jpg,,,,,,,,,,,,,,fixation,,,,,,
d3-animate-choice,282,1243943,0.0-76.0-0.49,1245,1218,25,Male,FALSE,TRUE,FALSE,TRUE,"""event"",""trial"",""time""
""fullscreenenter"",""5"",""17939""
","
","
","""event"",""trial"",""time""
""fullscreenenter"",""5"",""17939""
","
",265.8,,49,,,3000,1,,,images/earth.jpg,images/rocket1,images/rocket2,null,images/rocket2,,1,real,null,1,,,
d3-animate-choice,283,1246543,0.0-76.0-1.49,1245,1218,25,Male,FALSE,TRUE,FALSE,TRUE,"""event"",""trial"",""time""
""fullscreenenter"",""5"",""17939""
","
","
","""event"",""trial"",""time""
""fullscreenenter"",""5"",""17939""
","
",596.2,,48,,,3000,1,,,images/purpleplanet.jpg,images/alien4,images/alien3,images/rocket2,images/alien4,images/nothing.png,2,real,TRUE,2,common,0,21:04.1
two-step-fixation,284,1247547,0.0-76.0-2.49,1245,1218,25,Male,FALSE,TRUE,FALSE,TRUE,"""event"",""trial"",""time""
""fullscreenenter"",""5"",""17939""
","
","
","""event"",""trial"",""time""
""fullscreenenter"",""5"",""17939""
","
",,images/earth.jpg,,,,,,,,,,,,,,fixation,,,,,,
audio-button-response-2,285,1254341,0.0-77.0,1245,1218,25,Male,FALSE,TRUE,FALSE,TRUE,"""event"",""trial"",""time""
""fullscreenenter"",""5"",""17939""
","
","
","""event"",""trial"",""time""
""fullscreenenter"",""5"",""17939""
","
",6791.5,audio/instructions/break_1.wav,,0,,,,,,,,,,,,,,,,,,
d3-animate-choice,286,1257261,0.0-78.0-0.0,1245,1218,25,Male,FALSE,TRUE,FALSE,TRUE,"""event"",""trial"",""time""
""fullscreenenter"",""5"",""17939""
","
","
","""event"",""trial"",""time""
""fullscreenenter"",""5"",""17939""
","
",915.7,,49,,,3000,1,,,images/earth.jpg,images/rocket1,images/rocket2,null,images/rocket2,,1,real,null,1,,,
d3-animate-choice,287,1259596,0.0-78.0-1.0,1245,1218,25,Male,FALSE,TRUE,FALSE,TRUE,"""event"",""trial"",""time""
""fullscreenenter"",""5"",""17939""
","
","
","""event"",""trial"",""time""
""fullscreenenter"",""5"",""17939""
","
",331.1,,48,,,3000,1,,,images/purpleplanet.jpg,images/alien4,images/alien3,images/rocket2,images/alien4,images/t.png,2,real,TRUE,2,common,1,21:17.1
two-step-fixation,288,1260598,0.0-78.0-2.0,1245,1218,25,Male,FALSE,TRUE,FALSE,TRUE,"""event"",""trial"",""time""
""fullscreenenter"",""5"",""17939""
","
","
","""event"",""trial"",""time""
""fullscreenenter"",""5"",""17939""
","
",,images/earth.jpg,,,,,,,,,,,,,,fixation,,,,,,
d3-animate-choice,289,1262875,0.0-78.0-0.1,1245,1218,25,Male,FALSE,TRUE,FALSE,TRUE,"""event"",""trial"",""time""
""fullscreenenter"",""5"",""17939""
","
","
","""event"",""trial"",""time""
""fullscreenenter"",""5"",""17939""
","
",274.5,,49,,,3000,1,,,images/earth.jpg,images/rocket1,images/rocket2,null,images/rocket2,,1,real,null,1,,,
d3-animate-choice,290,1265516,0.0-78.0-1.1,1245,1218,25,Male,FALSE,TRUE,FALSE,TRUE,"""event"",""trial"",""time""
""fullscreenenter"",""5"",""17939""
","
","
","""event"",""trial"",""time""
""fullscreenenter"",""5"",""17939""
","
",636.9,,49,,,3000,1,,,images/redplanet1.jpg,images/alien2,images/alien1,images/rocket2,images/alien1,images/t.png,2,real,FALSE,1,rare,1,21:23.1
two-step-fixation,291,1266518,0.0-78.0-2.1,1245,1218,25,Male,FALSE,TRUE,FALSE,TRUE,"""event"",""trial"",""time""
""fullscreenenter"",""5"",""17939""
","
","
","""event"",""trial"",""time""
""fullscreenenter"",""5"",""17939""
","
",,images/earth.jpg,,,,,,,,,,,,,,fixation,,,,,,
d3-animate-choice,292,1269043,0.0-78.0-0.2,1245,1218,25,Male,FALSE,TRUE,FALSE,TRUE,"""event"",""trial"",""time""
""fullscreenenter"",""5"",""17939""
","
","
","""event"",""trial"",""time""
""fullscreenenter"",""5"",""17939""
","
",521.8,,49,,,3000,1,,,images/earth.jpg,images/rocket1,images/rocket2,null,images/rocket2,,1,real,null,1,,,
d3-animate-choice,293,1271710,0.0-78.0-1.2,1245,1218,25,Male,FALSE,TRUE,FALSE,TRUE,"""event"",""trial"",""time""
""fullscreenenter"",""5"",""17939""
","
","
","""event"",""trial"",""time""
""fullscreenenter"",""5"",""17939""
","
",661,,48,,,3000,1,,,images/purpleplanet.jpg,images/alien4,images/alien3,images/rocket2,images/alien4,images/t.png,2,real,TRUE,2,common,1,21:29.3
two-step-fixation,294,1272715,0.0-78.0-2.2,1245,1218,25,Male,FALSE,TRUE,FALSE,TRUE,"""event"",""trial"",""time""
""fullscreenenter"",""5"",""17939""
","
","
","""event"",""trial"",""time""
""fullscreenenter"",""5"",""17939""
","
",,images/earth.jpg,,,,,,,,,,,,,,fixation,,,,,,
d3-animate-choice,295,1274924,0.0-78.0-0.3,1245,1218,25,Male,FALSE,TRUE,FALSE,TRUE,"""event"",""trial"",""time""
""fullscreenenter"",""5"",""17939""
","
","
","""event"",""trial"",""time""
""fullscreenenter"",""5"",""17939""
","
",205.7,,48,,,3000,1,,,images/earth.jpg,images/rocket1,images/rocket2,null,images/rocket1,,1,real,null,2,,,
d3-animate-choice,296,1277332,0.0-78.0-1.3,1245,1218,25,Male,FALSE,TRUE,FALSE,TRUE,"""event"",""trial"",""time""
""fullscreenenter"",""5"",""17939""
","
","
","""event"",""trial"",""time""
""fullscreenenter"",""5"",""17939""
","
",403.2,,49,,,3000,1,,,images/redplanet1.jpg,images/alien2,images/alien1,images/rocket1,images/alien1,images/nothing.png,2,real,TRUE,1,common,0,21:34.9
two-step-fixation,297,1278334,0.0-78.0-2.3,1245,1218,25,Male,FALSE,TRUE,FALSE,TRUE,"""event"",""trial"",""time""
""fullscreenenter"",""5"",""17939""
","
","
","""event"",""trial"",""time""
""fullscreenenter"",""5"",""17939""
","
",,images/earth.jpg,,,,,,,,,,,,,,fixation,,,,,,
d3-animate-choice,298,1280661,0.0-78.0-0.4,1245,1218,25,Male,FALSE,TRUE,FALSE,TRUE,"""event"",""trial"",""time""
""fullscreenenter"",""5"",""17939""
","
","
","""event"",""trial"",""time""
""fullscreenenter"",""5"",""17939""
","
",322.4,,48,,,3000,1,,,images/earth.jpg,images/rocket1,images/rocket2,null,images/rocket1,,1,real,null,2,,,
d3-animate-choice,299,1283202,0.0-78.0-1.4,1245,1218,25,Male,FALSE,TRUE,FALSE,TRUE,"""event"",""trial"",""time""
""fullscreenenter"",""5"",""17939""
","
","
","""event"",""trial"",""time""
""fullscreenenter"",""5"",""17939""
","
",537.5,,49,,,3000,1,,,images/redplanet1.jpg,images/alien2,images/alien1,images/rocket1,images/alien1,images/t.png,2,real,TRUE,1,common,1,21:40.8
two-step-fixation,300,1284205,0.0-78.0-2.4,1245,1218,25,Male,FALSE,TRUE,FALSE,TRUE,"""event"",""trial"",""time""
""fullscreenenter"",""5"",""17939""
","
","
","""event"",""trial"",""time""
""fullscreenenter"",""5"",""17939""
","
",,images/earth.jpg,,,,,,,,,,,,,,fixation,,,,,,
d3-animate-choice,301,1286699,0.0-78.0-0.5,1245,1218,25,Male,FALSE,TRUE,FALSE,TRUE,"""event"",""trial"",""time""
""fullscreenenter"",""5"",""17939""
","
","
","""event"",""trial"",""time""
""fullscreenenter"",""5"",""17939""
","
",491.7,,48,,,3000,1,,,images/earth.jpg,images/rocket1,images/rocket2,null,images/rocket1,,1,real,null,2,,,
d3-animate-choice,302,1289139,0.0-78.0-1.5,1245,1218,25,Male,FALSE,TRUE,FALSE,TRUE,"""event"",""trial"",""time""
""fullscreenenter"",""5"",""17939""
","
","
","""event"",""trial"",""time""
""fullscreenenter"",""5"",""17939""
","
",436.1,,48,,,3000,1,,,images/purpleplanet.jpg,images/alien4,images/alien3,images/rocket1,images/alien4,images/t.png,2,real,FALSE,2,rare,1,21:46.7
