"trial_type","trial_index","time_elapsed","internal_node_id","participant_id","subject_id","age","gender","rocket_sides","red_planet_first_rocket","red_display_order","purple_display_order","interactions","blur_events","focus_events","fullscreenenter_events","fullscreenexit_events","rt","stimulus","key_press","button_pressed","success","duration","valid_pressed","rts","keys","planet_text","right_text","left_text","center_text","chosen_text","reward_text","trial_stage","practice_trial","transition_type","choice","transition","reward","timestamp"
"pavlovia","0","2","0.0-0.0","1801","2930","23","Male","false","false","false","true","
","
","
","
","
","","","","","","","","","","","","","","","","","","","","","",""
"html-keyboard-response","1","768","0.0-1.0","1801","2930","23","Male","false","false","false","true","
","
","
","
","
","765","Welcome! Press the space bar to begin.","32","","","","","","","","","","","","","","","","","","",""
"audio-keyboard-response","2","1232","0.0-2.0","1801","2930","23","Male","false","false","false","true","""event"",""trial"",""time""
""blur"",""3"",""5763""
""focus"",""3"",""7724""
""blur"",""3"",""8292""
""focus"",""3"",""12925""
","""event"",""trial"",""time""
""blur"",""3"",""5763""
""blur"",""3"",""8292""
","""event"",""trial"",""time""
""focus"",""3"",""7724""
""focus"",""3"",""12925""
","
","
","360","audio/beep_loop.wav","32","","","","","","","","","","","","","","","","","","",""
"audio-button-response","3","14163","0.0-3.0","1801","2930","23","Male","false","false","false","true","""event"",""trial"",""time""
""blur"",""3"",""5763""
""focus"",""3"",""7724""
""blur"",""3"",""8292""
""focus"",""3"",""12925""
","""event"",""trial"",""time""
""blur"",""3"",""5763""
""blur"",""3"",""8292""
","""event"",""trial"",""time""
""focus"",""3"",""7724""
""focus"",""3"",""12925""
","
","
","NaN","audio/fish.mp3","","1","","","","","","","","","","","","","","","","","",""
"audio-button-response","4","16394","0.0-4.0","1801","2930","23","Male","false","false","false","true","""event"",""trial"",""time""
""blur"",""3"",""5763""
""focus"",""3"",""7724""
""blur"",""3"",""8292""
""focus"",""3"",""12925""
""fullscreenenter"",""5"",""18791""
","""event"",""trial"",""time""
""blur"",""3"",""5763""
""blur"",""3"",""8292""
","""event"",""trial"",""time""
""focus"",""3"",""7724""
""focus"",""3"",""12925""
","""event"",""trial"",""time""
""fullscreenenter"",""5"",""18791""
","
","NaN","audio/tiger.mp3","","4","","","","","","","","","","","","","","","","","",""
"fullscreen","5","19565","0.0-5.0","1801","2930","23","Male","false","false","false","true","""event"",""trial"",""time""
""blur"",""3"",""5763""
""focus"",""3"",""7724""
""blur"",""3"",""8292""
""focus"",""3"",""12925""
""fullscreenenter"",""5"",""18791""
","""event"",""trial"",""time""
""blur"",""3"",""5763""
""blur"",""3"",""8292""
","""event"",""trial"",""time""
""focus"",""3"",""7724""
""focus"",""3"",""12925""
","""event"",""trial"",""time""
""fullscreenenter"",""5"",""18791""
","
","","","","","true","","","","","","","","","","","","","","","","",""
"d3-instructions","6","21184","0.0-6.0","1801","2930","23","Male","false","false","false","true","""event"",""trial"",""time""
""blur"",""3"",""5763""
""focus"",""3"",""7724""
""blur"",""3"",""8292""
""focus"",""3"",""12925""
""fullscreenenter"",""5"",""18791""
","""event"",""trial"",""time""
""blur"",""3"",""5763""
""blur"",""3"",""8292""
","""event"",""trial"",""time""
""focus"",""3"",""7724""
""focus"",""3"",""12925""
","""event"",""trial"",""time""
""fullscreenenter"",""5"",""18791""
","
","","","","","","","","","","","","","","","","","","","","","",""
"d3-instructions","7","21552","0.0-7.0","1801","2930","23","Male","false","false","false","true","""event"",""trial"",""time""
""blur"",""3"",""5763""
""focus"",""3"",""7724""
""blur"",""3"",""8292""
""focus"",""3"",""12925""
""fullscreenenter"",""5"",""18791""
","""event"",""trial"",""time""
""blur"",""3"",""5763""
""blur"",""3"",""8292""
","""event"",""trial"",""time""
""focus"",""3"",""7724""
""focus"",""3"",""12925""
","""event"",""trial"",""time""
""fullscreenenter"",""5"",""18791""
","
","","","","","","","","","","","","","","","","","","","","","",""
"d3-instructions","8","21841","0.0-8.0","1801","2930","23","Male","false","false","false","true","""event"",""trial"",""time""
""blur"",""3"",""5763""
""focus"",""3"",""7724""
""blur"",""3"",""8292""
""focus"",""3"",""12925""
""fullscreenenter"",""5"",""18791""
","""event"",""trial"",""time""
""blur"",""3"",""5763""
""blur"",""3"",""8292""
","""event"",""trial"",""time""
""focus"",""3"",""7724""
""focus"",""3"",""12925""
","""event"",""trial"",""time""
""fullscreenenter"",""5"",""18791""
","
","","","","","","","","","","","","","","","","","","","","","",""
"d3-instructions","9","22096","0.0-9.0","1801","2930","23","Male","false","false","false","true","""event"",""trial"",""time""
""blur"",""3"",""5763""
""focus"",""3"",""7724""
""blur"",""3"",""8292""
""focus"",""3"",""12925""
""fullscreenenter"",""5"",""18791""
","""event"",""trial"",""time""
""blur"",""3"",""5763""
""blur"",""3"",""8292""
","""event"",""trial"",""time""
""focus"",""3"",""7724""
""focus"",""3"",""12925""
","""event"",""trial"",""time""
""fullscreenenter"",""5"",""18791""
","
","","","","","","","","","","","","","","","","","","","","","",""
"d3-instructions","10","22367","0.0-10.0","1801","2930","23","Male","false","false","false","true","""event"",""trial"",""time""
""blur"",""3"",""5763""
""focus"",""3"",""7724""
""blur"",""3"",""8292""
""focus"",""3"",""12925""
""fullscreenenter"",""5"",""18791""
","""event"",""trial"",""time""
""blur"",""3"",""5763""
""blur"",""3"",""8292""
","""event"",""trial"",""time""
""focus"",""3"",""7724""
""focus"",""3"",""12925""
","""event"",""trial"",""time""
""fullscreenenter"",""5"",""18791""
","
","","","","","","","","","","","","","","","","","","","","","",""
"d3-animate-choice","11","28214","0.0-11.0","1801","2930","23","Male","false","false","false","true","""event"",""trial"",""time""
""blur"",""3"",""5763""
""focus"",""3"",""7724""
""blur"",""3"",""8292""
""focus"",""3"",""12925""
""fullscreenenter"",""5"",""18791""
","""event"",""trial"",""time""
""blur"",""3"",""5763""
""blur"",""3"",""8292""
","""event"",""trial"",""time""
""focus"",""3"",""7724""
""focus"",""3"",""12925""
","""event"",""trial"",""time""
""fullscreenenter"",""5"",""18791""
","
","207","","32","","","3000","1","447,3837","32,49","images/tutgreenplanet.jpg","images/tutalien1","images/tutalien2","null","images/tutalien2","","NA","practice","null","","","",""
"d3-animate-choice","12","30484","0.0-12.0","1801","2930","23","Male","false","false","false","true","""event"",""trial"",""time""
""blur"",""3"",""5763""
""focus"",""3"",""7724""
""blur"",""3"",""8292""
""focus"",""3"",""12925""
""fullscreenenter"",""5"",""18791""
","""event"",""trial"",""time""
""blur"",""3"",""5763""
""blur"",""3"",""8292""
","""event"",""trial"",""time""
""focus"",""3"",""7724""
""focus"",""3"",""12925""
","""event"",""trial"",""time""
""fullscreenenter"",""5"",""18791""
","
","263","","49","","","3000","1","","","images/tutgreenplanet.jpg","images/tutalien1","images/tutalien2","null","images/tutalien2","","NA","practice","null","","","",""
"d3-animate-choice","13","32926","0.0-13.0","1801","2930","23","Male","false","false","false","true","""event"",""trial"",""time""
""blur"",""3"",""5763""
""focus"",""3"",""7724""
""blur"",""3"",""8292""
""focus"",""3"",""12925""
""fullscreenenter"",""5"",""18791""
","""event"",""trial"",""time""
""blur"",""3"",""5763""
""blur"",""3"",""8292""
","""event"",""trial"",""time""
""focus"",""3"",""7724""
""focus"",""3"",""12925""
","""event"",""trial"",""time""
""fullscreenenter"",""5"",""18791""
","
","426","","49","","","3000","1","","","images/tutgreenplanet.jpg","images/tutalien1","images/tutalien2","null","images/tutalien2","","NA","practice","null","","","",""
"d3-animate-choice","14","36004","0.0-14.0","1801","2930","23","Male","false","false","false","true","""event"",""trial"",""time""
""blur"",""3"",""5763""
""focus"",""3"",""7724""
""blur"",""3"",""8292""
""focus"",""3"",""12925""
""fullscreenenter"",""5"",""18791""
","""event"",""trial"",""time""
""blur"",""3"",""5763""
""blur"",""3"",""8292""
","""event"",""trial"",""time""
""focus"",""3"",""7724""
""focus"",""3"",""12925""
","""event"",""trial"",""time""
""fullscreenenter"",""5"",""18791""
","
","1072","","49","","","3000","1","","","images/tutgreenplanet.jpg","images/tutalien1","images/tutalien2","null","images/tutalien2","","NA","practice","null","","","",""
"d3-instructions","15","54064","0.0-15.0","1801","2930","23","Male","false","false","false","true","""event"",""trial"",""time""
""blur"",""3"",""5763""
""focus"",""3"",""7724""
""blur"",""3"",""8292""
""focus"",""3"",""12925""
""fullscreenenter"",""5"",""18791""
","""event"",""trial"",""time""
""blur"",""3"",""5763""
""blur"",""3"",""8292""
","""event"",""trial"",""time""
""focus"",""3"",""7724""
""focus"",""3"",""12925""
","""event"",""trial"",""time""
""fullscreenenter"",""5"",""18791""
","
","","","","","","","","","","","","","","","","","","","","","",""
"d3-instructions","16","60336","0.0-16.0","1801","2930","23","Male","false","false","false","true","""event"",""trial"",""time""
""blur"",""3"",""5763""
""focus"",""3"",""7724""
""blur"",""3"",""8292""
""focus"",""3"",""12925""
""fullscreenenter"",""5"",""18791""
","""event"",""trial"",""time""
""blur"",""3"",""5763""
""blur"",""3"",""8292""
","""event"",""trial"",""time""
""focus"",""3"",""7724""
""focus"",""3"",""12925""
","""event"",""trial"",""time""
""fullscreenenter"",""5"",""18791""
","
","","","","","","","","","","","","","","","","","","","","","",""
"d3-instructions","17","68016","0.0-17.0","1801","2930","23","Male","false","false","false","true","""event"",""trial"",""time""
""blur"",""3"",""5763""
""focus"",""3"",""7724""
""blur"",""3"",""8292""
""focus"",""3"",""12925""
""fullscreenenter"",""5"",""18791""
","""event"",""trial"",""time""
""blur"",""3"",""5763""
""blur"",""3"",""8292""
","""event"",""trial"",""time""
""focus"",""3"",""7724""
""focus"",""3"",""12925""
","""event"",""trial"",""time""
""fullscreenenter"",""5"",""18791""
","
","","","","","","","","","","","","","","","","","","","","","",""
"d3-instructions","18","68384","0.0-18.0","1801","2930","23","Male","false","false","false","true","""event"",""trial"",""time""
""blur"",""3"",""5763""
""focus"",""3"",""7724""
""blur"",""3"",""8292""
""focus"",""3"",""12925""
""fullscreenenter"",""5"",""18791""
","""event"",""trial"",""time""
""blur"",""3"",""5763""
""blur"",""3"",""8292""
","""event"",""trial"",""time""
""focus"",""3"",""7724""
""focus"",""3"",""12925""
","""event"",""trial"",""time""
""fullscreenenter"",""5"",""18791""
","
","","","","","","","","","","","","","","","","","","","","","",""
"d3-instructions","19","68704","0.0-19.0","1801","2930","23","Male","false","false","false","true","""event"",""trial"",""time""
""blur"",""3"",""5763""
""focus"",""3"",""7724""
""blur"",""3"",""8292""
""focus"",""3"",""12925""
""fullscreenenter"",""5"",""18791""
","""event"",""trial"",""time""
""blur"",""3"",""5763""
""blur"",""3"",""8292""
","""event"",""trial"",""time""
""focus"",""3"",""7724""
""focus"",""3"",""12925""
","""event"",""trial"",""time""
""fullscreenenter"",""5"",""18791""
","
","","","","","","","","","","","","","","","","","","","","","",""
"d3-animate-choice","20","72485","0.0-20.0","1801","2930","23","Male","false","false","false","true","""event"",""trial"",""time""
""blur"",""3"",""5763""
""focus"",""3"",""7724""
""blur"",""3"",""8292""
""focus"",""3"",""12925""
""fullscreenenter"",""5"",""18791""
","""event"",""trial"",""time""
""blur"",""3"",""5763""
""blur"",""3"",""8292""
","""event"",""trial"",""time""
""focus"",""3"",""7724""
""focus"",""3"",""12925""
","""event"",""trial"",""time""
""fullscreenenter"",""5"",""18791""
","
","559","","32","","","3000","1","1134,1758,2878,3230,3711","97,49,49,49,49","images/tutyellowplanet.jpg","null","images/tutalien3","null","images/tutalien3","images/t.png","NA","practice","null","","","",""
"d3-animate-choice","21","74714","0.0-21.0","1801","2930","23","Male","false","false","false","true","""event"",""trial"",""time""
""blur"",""3"",""5763""
""focus"",""3"",""7724""
""blur"",""3"",""8292""
""focus"",""3"",""12925""
""fullscreenenter"",""5"",""18791""
","""event"",""trial"",""time""
""blur"",""3"",""5763""
""blur"",""3"",""8292""
","""event"",""trial"",""time""
""focus"",""3"",""7724""
""focus"",""3"",""12925""
","""event"",""trial"",""time""
""fullscreenenter"",""5"",""18791""
","
","217","","49","","","3000","1","426,617,793,1033","49,49,49,49","images/tutyellowplanet.jpg","null","images/tutalien3","null","images/tutalien3","images/t.png","NA","practice","null","","","",""
"d3-animate-choice","22","80405","0.0-22.0","1801","2930","23","Male","false","false","false","true","""event"",""trial"",""time""
""blur"",""3"",""5763""
""focus"",""3"",""7724""
""blur"",""3"",""8292""
""focus"",""3"",""12925""
""fullscreenenter"",""5"",""18791""
","""event"",""trial"",""time""
""blur"",""3"",""5763""
""blur"",""3"",""8292""
","""event"",""trial"",""time""
""focus"",""3"",""7724""
""focus"",""3"",""12925""
","""event"",""trial"",""time""
""fullscreenenter"",""5"",""18791""
","
","3684","","49","","","3000","1","5540","49","images/tutyellowplanet.jpg","null","images/tutalien3","null","images/tutalien3","images/t.png","NA","practice","null","","","",""
"d3-animate-choice","23","82798","0.0-23.0","1801","2930","23","Male","false","false","false","true","""event"",""trial"",""time""
""blur"",""3"",""5763""
""focus"",""3"",""7724""
""blur"",""3"",""8292""
""focus"",""3"",""12925""
""fullscreenenter"",""5"",""18791""
","""event"",""trial"",""time""
""blur"",""3"",""5763""
""blur"",""3"",""8292""
","""event"",""trial"",""time""
""focus"",""3"",""7724""
""focus"",""3"",""12925""
","""event"",""trial"",""time""
""fullscreenenter"",""5"",""18791""
","
","378","","49","","","3000","1","","","images/tutyellowplanet.jpg","null","images/tutalien3","null","images/tutalien3","images/t.png","NA","practice","null","","","",""
"d3-animate-choice","24","89555","0.0-24.0","1801","2930","23","Male","false","false","false","true","""event"",""trial"",""time""
""blur"",""3"",""5763""
""focus"",""3"",""7724""
""blur"",""3"",""8292""
""focus"",""3"",""12925""
""fullscreenenter"",""5"",""18791""
","""event"",""trial"",""time""
""blur"",""3"",""5763""
""blur"",""3"",""8292""
","""event"",""trial"",""time""
""focus"",""3"",""7724""
""focus"",""3"",""12925""
","""event"",""trial"",""time""
""fullscreenenter"",""5"",""18791""
","
","4737","","49","","","3000","1","6480","49","images/tutyellowplanet.jpg","null","images/tutalien3","null","images/tutalien3","images/t.png","NA","practice","null","","","",""
"d3-animate-choice","25","91664","0.0-25.0","1801","2930","23","Male","false","false","false","true","""event"",""trial"",""time""
""blur"",""3"",""5763""
""focus"",""3"",""7724""
""blur"",""3"",""8292""
""focus"",""3"",""12925""
""fullscreenenter"",""5"",""18791""
","""event"",""trial"",""time""
""blur"",""3"",""5763""
""blur"",""3"",""8292""
","""event"",""trial"",""time""
""focus"",""3"",""7724""
""focus"",""3"",""12925""
","""event"",""trial"",""time""
""fullscreenenter"",""5"",""18791""
","
","92","","49","","","3000","1","379,1596,2059","49,49,49","images/tutyellowplanet.jpg","null","images/tutalien3","null","images/tutalien3","images/t.png","NA","practice","null","","","",""
"d3-animate-choice","26","93944","0.0-26.0","1801","2930","23","Male","false","false","false","true","""event"",""trial"",""time""
""blur"",""3"",""5763""
""focus"",""3"",""7724""
""blur"",""3"",""8292""
""focus"",""3"",""12925""
""fullscreenenter"",""5"",""18791""
","""event"",""trial"",""time""
""blur"",""3"",""5763""
""blur"",""3"",""8292""
","""event"",""trial"",""time""
""focus"",""3"",""7724""
""focus"",""3"",""12925""
","""event"",""trial"",""time""
""fullscreenenter"",""5"",""18791""
","
","271","","49","","","3000","1","1806,2094","49,49","images/tutyellowplanet.jpg","null","images/tutalien3","null","images/tutalien3","images/nothing.png","NA","practice","null","","","",""
"d3-animate-choice","27","96454","0.0-27.0","1801","2930","23","Male","false","false","false","true","""event"",""trial"",""time""
""blur"",""3"",""5763""
""focus"",""3"",""7724""
""blur"",""3"",""8292""
""focus"",""3"",""12925""
""fullscreenenter"",""5"",""18791""
","""event"",""trial"",""time""
""blur"",""3"",""5763""
""blur"",""3"",""8292""
","""event"",""trial"",""time""
""focus"",""3"",""7724""
""focus"",""3"",""12925""
","""event"",""trial"",""time""
""fullscreenenter"",""5"",""18791""
","
","501","","49","","","3000","1","981,1957,2213,2453","49,49,49,49","images/tutyellowplanet.jpg","null","images/tutalien3","null","images/tutalien3","images/t.png","NA","practice","null","","","",""
"d3-animate-choice","28","99113","0.0-28.0","1801","2930","23","Male","false","false","false","true","""event"",""trial"",""time""
""blur"",""3"",""5763""
""focus"",""3"",""7724""
""blur"",""3"",""8292""
""focus"",""3"",""12925""
""fullscreenenter"",""5"",""18791""
","""event"",""trial"",""time""
""blur"",""3"",""5763""
""blur"",""3"",""8292""
","""event"",""trial"",""time""
""focus"",""3"",""7724""
""focus"",""3"",""12925""
","""event"",""trial"",""time""
""fullscreenenter"",""5"",""18791""
","
","649","","49","","","3000","1","921,1256","49,49","images/tutyellowplanet.jpg","null","images/tutalien3","null","images/tutalien3","images/t.png","NA","practice","null","","","",""
"d3-animate-choice","29","101566","0.0-29.0","1801","2930","23","Male","false","false","false","true","""event"",""trial"",""time""
""blur"",""3"",""5763""
""focus"",""3"",""7724""
""blur"",""3"",""8292""
""focus"",""3"",""12925""
""fullscreenenter"",""5"",""18791""
","""event"",""trial"",""time""
""blur"",""3"",""5763""
""blur"",""3"",""8292""
","""event"",""trial"",""time""
""focus"",""3"",""7724""
""focus"",""3"",""12925""
","""event"",""trial"",""time""
""fullscreenenter"",""5"",""18791""
","
","438","","49","","","3000","1","678,1318,1526,1766,1959,2198,2423","49,49,49,49,49,49,49","images/tutyellowplanet.jpg","null","images/tutalien3","null","images/tutalien3","images/t.png","NA","practice","null","","","",""
"d3-instructions","30","106112","0.0-30.0","1801","2930","23","Male","false","false","false","true","""event"",""trial"",""time""
""blur"",""3"",""5763""
""focus"",""3"",""7724""
""blur"",""3"",""8292""
""focus"",""3"",""12925""
""fullscreenenter"",""5"",""18791""
","""event"",""trial"",""time""
""blur"",""3"",""5763""
""blur"",""3"",""8292""
","""event"",""trial"",""time""
""focus"",""3"",""7724""
""focus"",""3"",""12925""
","""event"",""trial"",""time""
""fullscreenenter"",""5"",""18791""
","
","","","","","","","","","","","","","","","","","","","","","",""
"d3-instructions","31","106432","0.0-31.0","1801","2930","23","Male","false","false","false","true","""event"",""trial"",""time""
""blur"",""3"",""5763""
""focus"",""3"",""7724""
""blur"",""3"",""8292""
""focus"",""3"",""12925""
""fullscreenenter"",""5"",""18791""
","""event"",""trial"",""time""
""blur"",""3"",""5763""
""blur"",""3"",""8292""
","""event"",""trial"",""time""
""focus"",""3"",""7724""
""focus"",""3"",""12925""
","""event"",""trial"",""time""
""fullscreenenter"",""5"",""18791""
","
","","","","","","","","","","","","","","","","","","","","","",""
"d3-instructions","32","106688","0.0-32.0","1801","2930","23","Male","false","false","false","true","""event"",""trial"",""time""
""blur"",""3"",""5763""
""focus"",""3"",""7724""
""blur"",""3"",""8292""
""focus"",""3"",""12925""
""fullscreenenter"",""5"",""18791""
","""event"",""trial"",""time""
""blur"",""3"",""5763""
""blur"",""3"",""8292""
","""event"",""trial"",""time""
""focus"",""3"",""7724""
""focus"",""3"",""12925""
","""event"",""trial"",""time""
""fullscreenenter"",""5"",""18791""
","
","","","","","","","","","","","","","","","","","","","","","",""
"d3-instructions","33","106928","0.0-33.0","1801","2930","23","Male","false","false","false","true","""event"",""trial"",""time""
""blur"",""3"",""5763""
""focus"",""3"",""7724""
""blur"",""3"",""8292""
""focus"",""3"",""12925""
""fullscreenenter"",""5"",""18791""
","""event"",""trial"",""time""
""blur"",""3"",""5763""
""blur"",""3"",""8292""
","""event"",""trial"",""time""
""focus"",""3"",""7724""
""focus"",""3"",""12925""
","""event"",""trial"",""time""
""fullscreenenter"",""5"",""18791""
","
","","","","","","","","","","","","","","","","","","","","","",""
"d3-animate-choice","34","109454","0.0-34.0","1801","2930","23","Male","false","false","false","true","""event"",""trial"",""time""
""blur"",""3"",""5763""
""focus"",""3"",""7724""
""blur"",""3"",""8292""
""focus"",""3"",""12925""
""fullscreenenter"",""5"",""18791""
","""event"",""trial"",""time""
""blur"",""3"",""5763""
""blur"",""3"",""8292""
","""event"",""trial"",""time""
""focus"",""3"",""7724""
""focus"",""3"",""12925""
","""event"",""trial"",""time""
""fullscreenenter"",""5"",""18791""
","
","224","","32","","","3000","1","511","49","images/tutgreenplanet.jpg","images/tutalien1","images/tutalien2","null","images/tutalien2","images/t.png","NA","practice","null","","","",""
"d3-animate-choice","35","113175","0.0-35.0","1801","2930","23","Male","false","false","false","true","""event"",""trial"",""time""
""blur"",""3"",""5763""
""focus"",""3"",""7724""
""blur"",""3"",""8292""
""focus"",""3"",""12925""
""fullscreenenter"",""5"",""18791""
","""event"",""trial"",""time""
""blur"",""3"",""5763""
""blur"",""3"",""8292""
","""event"",""trial"",""time""
""focus"",""3"",""7724""
""focus"",""3"",""12925""
","""event"",""trial"",""time""
""fullscreenenter"",""5"",""18791""
","
","1695","","48","","","3000","1","","","images/tutgreenplanet.jpg","images/tutalien1","images/tutalien2","null","images/tutalien1","images/nothing.png","NA","practice","null","","","",""
"d3-animate-choice","36","116174","0.0-36.0","1801","2930","23","Male","false","false","false","true","""event"",""trial"",""time""
""blur"",""3"",""5763""
""focus"",""3"",""7724""
""blur"",""3"",""8292""
""focus"",""3"",""12925""
""fullscreenenter"",""5"",""18791""
""blur"",""37"",""117879""
","""event"",""trial"",""time""
""blur"",""3"",""5763""
""blur"",""3"",""8292""
""blur"",""37"",""117879""
","""event"",""trial"",""time""
""focus"",""3"",""7724""
""focus"",""3"",""12925""
","""event"",""trial"",""time""
""fullscreenenter"",""5"",""18791""
","
","983","","48","","","3000","1","2584","48","images/tutgreenplanet.jpg","images/tutalien1","images/tutalien2","null","images/tutalien1","images/nothing.png","NA","practice","null","","","",""
"d3-animate-choice","37","118369","0.0-37.0","1801","2930","23","Male","false","false","false","true","""event"",""trial"",""time""
""blur"",""3"",""5763""
""focus"",""3"",""7724""
""blur"",""3"",""8292""
""focus"",""3"",""12925""
""fullscreenenter"",""5"",""18791""
""blur"",""37"",""117879""
""focus"",""38"",""119092""
","""event"",""trial"",""time""
""blur"",""3"",""5763""
""blur"",""3"",""8292""
""blur"",""37"",""117879""
","""event"",""trial"",""time""
""focus"",""3"",""7724""
""focus"",""3"",""12925""
""focus"",""38"",""119092""
","""event"",""trial"",""time""
""fullscreenenter"",""5"",""18791""
","
","192","","49","","","3000","1","","","images/tutgreenplanet.jpg","images/tutalien1","images/tutalien2","null","images/tutalien2","images/t.png","NA","practice","null","","","",""
"d3-animate-choice","38","121328","0.0-38.0","1801","2930","23","Male","false","false","false","true","""event"",""trial"",""time""
""blur"",""3"",""5763""
""focus"",""3"",""7724""
""blur"",""3"",""8292""
""focus"",""3"",""12925""
""fullscreenenter"",""5"",""18791""
""blur"",""37"",""117879""
""focus"",""38"",""119092""
","""event"",""trial"",""time""
""blur"",""3"",""5763""
""blur"",""3"",""8292""
""blur"",""37"",""117879""
","""event"",""trial"",""time""
""focus"",""3"",""7724""
""focus"",""3"",""12925""
""focus"",""38"",""119092""
","""event"",""trial"",""time""
""fullscreenenter"",""5"",""18791""
","
","940","","49","","","3000","1","","","images/tutgreenplanet.jpg","images/tutalien1","images/tutalien2","null","images/tutalien2","images/t.png","NA","practice","null","","","",""
"d3-animate-choice","39","123609","0.0-39.0","1801","2930","23","Male","false","false","false","true","""event"",""trial"",""time""
""blur"",""3"",""5763""
""focus"",""3"",""7724""
""blur"",""3"",""8292""
""focus"",""3"",""12925""
""fullscreenenter"",""5"",""18791""
""blur"",""37"",""117879""
""focus"",""38"",""119092""
","""event"",""trial"",""time""
""blur"",""3"",""5763""
""blur"",""3"",""8292""
""blur"",""37"",""117879""
","""event"",""trial"",""time""
""focus"",""3"",""7724""
""focus"",""3"",""12925""
""focus"",""38"",""119092""
","""event"",""trial"",""time""
""fullscreenenter"",""5"",""18791""
","
","270","","48","","","3000","1","1950","48","images/tutgreenplanet.jpg","images/tutalien1","images/tutalien2","null","images/tutalien1","images/nothing.png","NA","practice","null","","","",""
"d3-animate-choice","40","125723","0.0-40.0","1801","2930","23","Male","false","false","false","true","""event"",""trial"",""time""
""blur"",""3"",""5763""
""focus"",""3"",""7724""
""blur"",""3"",""8292""
""focus"",""3"",""12925""
""fullscreenenter"",""5"",""18791""
""blur"",""37"",""117879""
""focus"",""38"",""119092""
","""event"",""trial"",""time""
""blur"",""3"",""5763""
""blur"",""3"",""8292""
""blur"",""37"",""117879""
","""event"",""trial"",""time""
""focus"",""3"",""7724""
""focus"",""3"",""12925""
""focus"",""38"",""119092""
","""event"",""trial"",""time""
""fullscreenenter"",""5"",""18791""
","
","101","","48","","","3000","1","1829","48","images/tutgreenplanet.jpg","images/tutalien1","images/tutalien2","null","images/tutalien1","images/nothing.png","NA","practice","null","","","",""
"d3-animate-choice","41","127867","0.0-41.0","1801","2930","23","Male","false","false","false","true","""event"",""trial"",""time""
""blur"",""3"",""5763""
""focus"",""3"",""7724""
""blur"",""3"",""8292""
""focus"",""3"",""12925""
""fullscreenenter"",""5"",""18791""
""blur"",""37"",""117879""
""focus"",""38"",""119092""
","""event"",""trial"",""time""
""blur"",""3"",""5763""
""blur"",""3"",""8292""
""blur"",""37"",""117879""
","""event"",""trial"",""time""
""focus"",""3"",""7724""
""focus"",""3"",""12925""
""focus"",""38"",""119092""
","""event"",""trial"",""time""
""fullscreenenter"",""5"",""18791""
","
","131","","48","","","3000","1","","","images/tutgreenplanet.jpg","images/tutalien1","images/tutalien2","null","images/tutalien1","images/nothing.png","NA","practice","null","","","",""
"d3-animate-choice","42","129885","0.0-42.0","1801","2930","23","Male","false","false","false","true","""event"",""trial"",""time""
""blur"",""3"",""5763""
""focus"",""3"",""7724""
""blur"",""3"",""8292""
""focus"",""3"",""12925""
""fullscreenenter"",""5"",""18791""
""blur"",""37"",""117879""
""focus"",""38"",""119092""
","""event"",""trial"",""time""
""blur"",""3"",""5763""
""blur"",""3"",""8292""
""blur"",""37"",""117879""
","""event"",""trial"",""time""
""focus"",""3"",""7724""
""focus"",""3"",""12925""
""focus"",""38"",""119092""
","""event"",""trial"",""time""
""fullscreenenter"",""5"",""18791""
","
","4","","48","","","3000","1","211,1555,1859","48,48,48","images/tutgreenplanet.jpg","images/tutalien1","images/tutalien2","null","images/tutalien1","images/nothing.png","NA","practice","null","","","",""
"d3-animate-choice","43","132085","0.0-43.0","1801","2930","23","Male","false","false","false","true","""event"",""trial"",""time""
""blur"",""3"",""5763""
""focus"",""3"",""7724""
""blur"",""3"",""8292""
""focus"",""3"",""12925""
""fullscreenenter"",""5"",""18791""
""blur"",""37"",""117879""
""focus"",""38"",""119092""
","""event"",""trial"",""time""
""blur"",""3"",""5763""
""blur"",""3"",""8292""
""blur"",""37"",""117879""
","""event"",""trial"",""time""
""focus"",""3"",""7724""
""focus"",""3"",""12925""
""focus"",""38"",""119092""
","""event"",""trial"",""time""
""fullscreenenter"",""5"",""18791""
","
","193","","49","","","3000","1","2050","48","images/tutgreenplanet.jpg","images/tutalien1","images/tutalien2","null","images/tutalien2","images/t.png","NA","practice","null","","","",""
"d3-instructions","44","134752","0.0-44.0","1801","2930","23","Male","false","false","false","true","""event"",""trial"",""time""
""blur"",""3"",""5763""
""focus"",""3"",""7724""
""blur"",""3"",""8292""
""focus"",""3"",""12925""
""fullscreenenter"",""5"",""18791""
""blur"",""37"",""117879""
""focus"",""38"",""119092""
","""event"",""trial"",""time""
""blur"",""3"",""5763""
""blur"",""3"",""8292""
""blur"",""37"",""117879""
","""event"",""trial"",""time""
""focus"",""3"",""7724""
""focus"",""3"",""12925""
""focus"",""38"",""119092""
","""event"",""trial"",""time""
""fullscreenenter"",""5"",""18791""
","
","","","","","","","","","","","","","","","","","","","","","",""
"d3-instructions","45","135295","0.0-45.0","1801","2930","23","Male","false","false","false","true","""event"",""trial"",""time""
""blur"",""3"",""5763""
""focus"",""3"",""7724""
""blur"",""3"",""8292""
""focus"",""3"",""12925""
""fullscreenenter"",""5"",""18791""
""blur"",""37"",""117879""
""focus"",""38"",""119092""
","""event"",""trial"",""time""
""blur"",""3"",""5763""
""blur"",""3"",""8292""
""blur"",""37"",""117879""
","""event"",""trial"",""time""
""focus"",""3"",""7724""
""focus"",""3"",""12925""
""focus"",""38"",""119092""
","""event"",""trial"",""time""
""fullscreenenter"",""5"",""18791""
","
","","","","","","","","","","","","","","","","","","","","","",""
"d3-instructions","46","135696","0.0-46.0","1801","2930","23","Male","false","false","false","true","""event"",""trial"",""time""
""blur"",""3"",""5763""
""focus"",""3"",""7724""
""blur"",""3"",""8292""
""focus"",""3"",""12925""
""fullscreenenter"",""5"",""18791""
""blur"",""37"",""117879""
""focus"",""38"",""119092""
","""event"",""trial"",""time""
""blur"",""3"",""5763""
""blur"",""3"",""8292""
""blur"",""37"",""117879""
","""event"",""trial"",""time""
""focus"",""3"",""7724""
""focus"",""3"",""12925""
""focus"",""38"",""119092""
","""event"",""trial"",""time""
""fullscreenenter"",""5"",""18791""
","
","","","","","","","","","","","","","","","","","","","","","",""
"d3-instructions","47","135936","0.0-47.0","1801","2930","23","Male","false","false","false","true","""event"",""trial"",""time""
""blur"",""3"",""5763""
""focus"",""3"",""7724""
""blur"",""3"",""8292""
""focus"",""3"",""12925""
""fullscreenenter"",""5"",""18791""
""blur"",""37"",""117879""
""focus"",""38"",""119092""
","""event"",""trial"",""time""
""blur"",""3"",""5763""
""blur"",""3"",""8292""
""blur"",""37"",""117879""
","""event"",""trial"",""time""
""focus"",""3"",""7724""
""focus"",""3"",""12925""
""focus"",""38"",""119092""
","""event"",""trial"",""time""
""fullscreenenter"",""5"",""18791""
","
","","","","","","","","","","","","","","","","","","","","","",""
"d3-instructions","48","136175","0.0-48.0","1801","2930","23","Male","false","false","false","true","""event"",""trial"",""time""
""blur"",""3"",""5763""
""focus"",""3"",""7724""
""blur"",""3"",""8292""
""focus"",""3"",""12925""
""fullscreenenter"",""5"",""18791""
""blur"",""37"",""117879""
""focus"",""38"",""119092""
","""event"",""trial"",""time""
""blur"",""3"",""5763""
""blur"",""3"",""8292""
""blur"",""37"",""117879""
","""event"",""trial"",""time""
""focus"",""3"",""7724""
""focus"",""3"",""12925""
""focus"",""38"",""119092""
","""event"",""trial"",""time""
""fullscreenenter"",""5"",""18791""
","
","","","","","","","","","","","","","","","","","","","","","",""
"d3-instructions","49","136656","0.0-49.0","1801","2930","23","Male","false","false","false","true","""event"",""trial"",""time""
""blur"",""3"",""5763""
""focus"",""3"",""7724""
""blur"",""3"",""8292""
""focus"",""3"",""12925""
""fullscreenenter"",""5"",""18791""
""blur"",""37"",""117879""
""focus"",""38"",""119092""
","""event"",""trial"",""time""
""blur"",""3"",""5763""
""blur"",""3"",""8292""
""blur"",""37"",""117879""
","""event"",""trial"",""time""
""focus"",""3"",""7724""
""focus"",""3"",""12925""
""focus"",""38"",""119092""
","""event"",""trial"",""time""
""fullscreenenter"",""5"",""18791""
","
","","","","","","","","","","","","","","","","","","","","","",""
"d3-instructions","50","137007","0.0-50.0","1801","2930","23","Male","false","false","false","true","""event"",""trial"",""time""
""blur"",""3"",""5763""
""focus"",""3"",""7724""
""blur"",""3"",""8292""
""focus"",""3"",""12925""
""fullscreenenter"",""5"",""18791""
""blur"",""37"",""117879""
""focus"",""38"",""119092""
","""event"",""trial"",""time""
""blur"",""3"",""5763""
""blur"",""3"",""8292""
""blur"",""37"",""117879""
","""event"",""trial"",""time""
""focus"",""3"",""7724""
""focus"",""3"",""12925""
""focus"",""38"",""119092""
","""event"",""trial"",""time""
""fullscreenenter"",""5"",""18791""
","
","","","","","","","","","","","","","","","","","","","","","",""
"d3-instructions","51","137312","0.0-51.0","1801","2930","23","Male","false","false","false","true","""event"",""trial"",""time""
""blur"",""3"",""5763""
""focus"",""3"",""7724""
""blur"",""3"",""8292""
""focus"",""3"",""12925""
""fullscreenenter"",""5"",""18791""
""blur"",""37"",""117879""
""focus"",""38"",""119092""
","""event"",""trial"",""time""
""blur"",""3"",""5763""
""blur"",""3"",""8292""
""blur"",""37"",""117879""
","""event"",""trial"",""time""
""focus"",""3"",""7724""
""focus"",""3"",""12925""
""focus"",""38"",""119092""
","""event"",""trial"",""time""
""fullscreenenter"",""5"",""18791""
","
","","","","","","","","","","","","","","","","","","","","","",""
"d3-instructions","52","137583","0.0-52.0","1801","2930","23","Male","false","false","false","true","""event"",""trial"",""time""
""blur"",""3"",""5763""
""focus"",""3"",""7724""
""blur"",""3"",""8292""
""focus"",""3"",""12925""
""fullscreenenter"",""5"",""18791""
""blur"",""37"",""117879""
""focus"",""38"",""119092""
","""event"",""trial"",""time""
""blur"",""3"",""5763""
""blur"",""3"",""8292""
""blur"",""37"",""117879""
","""event"",""trial"",""time""
""focus"",""3"",""7724""
""focus"",""3"",""12925""
""focus"",""38"",""119092""
","""event"",""trial"",""time""
""fullscreenenter"",""5"",""18791""
","
","","","","","","","","","","","","","","","","","","","","","",""
"d3-instructions","53","137839","0.0-53.0","1801","2930","23","Male","false","false","false","true","""event"",""trial"",""time""
""blur"",""3"",""5763""
""focus"",""3"",""7724""
""blur"",""3"",""8292""
""focus"",""3"",""12925""
""fullscreenenter"",""5"",""18791""
""blur"",""37"",""117879""
""focus"",""38"",""119092""
","""event"",""trial"",""time""
""blur"",""3"",""5763""
""blur"",""3"",""8292""
""blur"",""37"",""117879""
","""event"",""trial"",""time""
""focus"",""3"",""7724""
""focus"",""3"",""12925""
""focus"",""38"",""119092""
","""event"",""trial"",""time""
""fullscreenenter"",""5"",""18791""
","
","","","","","","","","","","","","","","","","","","","","","",""
"d3-instructions","54","138384","0.0-54.0","1801","2930","23","Male","false","false","false","true","""event"",""trial"",""time""
""blur"",""3"",""5763""
""focus"",""3"",""7724""
""blur"",""3"",""8292""
""focus"",""3"",""12925""
""fullscreenenter"",""5"",""18791""
""blur"",""37"",""117879""
""focus"",""38"",""119092""
","""event"",""trial"",""time""
""blur"",""3"",""5763""
""blur"",""3"",""8292""
""blur"",""37"",""117879""
","""event"",""trial"",""time""
""focus"",""3"",""7724""
""focus"",""3"",""12925""
""focus"",""38"",""119092""
","""event"",""trial"",""time""
""fullscreenenter"",""5"",""18791""
","
","","","","","","","","","","","","","","","","","","","","","",""
"d3-instructions","55","139008","0.0-55.0","1801","2930","23","Male","false","false","false","true","""event"",""trial"",""time""
""blur"",""3"",""5763""
""focus"",""3"",""7724""
""blur"",""3"",""8292""
""focus"",""3"",""12925""
""fullscreenenter"",""5"",""18791""
""blur"",""37"",""117879""
""focus"",""38"",""119092""
","""event"",""trial"",""time""
""blur"",""3"",""5763""
""blur"",""3"",""8292""
""blur"",""37"",""117879""
","""event"",""trial"",""time""
""focus"",""3"",""7724""
""focus"",""3"",""12925""
""focus"",""38"",""119092""
","""event"",""trial"",""time""
""fullscreenenter"",""5"",""18791""
","
","","","","","","","","","","","","","","","","","","","","","",""
"d3-instructions","56","139551","0.0-56.0","1801","2930","23","Male","false","false","false","true","""event"",""trial"",""time""
""blur"",""3"",""5763""
""focus"",""3"",""7724""
""blur"",""3"",""8292""
""focus"",""3"",""12925""
""fullscreenenter"",""5"",""18791""
""blur"",""37"",""117879""
""focus"",""38"",""119092""
","""event"",""trial"",""time""
""blur"",""3"",""5763""
""blur"",""3"",""8292""
""blur"",""37"",""117879""
","""event"",""trial"",""time""
""focus"",""3"",""7724""
""focus"",""3"",""12925""
""focus"",""38"",""119092""
","""event"",""trial"",""time""
""fullscreenenter"",""5"",""18791""
","
","","","","","","","","","","","","","","","","","","","","","",""
"d3-instructions","57","139791","0.0-57.0","1801","2930","23","Male","false","false","false","true","""event"",""trial"",""time""
""blur"",""3"",""5763""
""focus"",""3"",""7724""
""blur"",""3"",""8292""
""focus"",""3"",""12925""
""fullscreenenter"",""5"",""18791""
""blur"",""37"",""117879""
""focus"",""38"",""119092""
","""event"",""trial"",""time""
""blur"",""3"",""5763""
""blur"",""3"",""8292""
""blur"",""37"",""117879""
","""event"",""trial"",""time""
""focus"",""3"",""7724""
""focus"",""3"",""12925""
""focus"",""38"",""119092""
","""event"",""trial"",""time""
""fullscreenenter"",""5"",""18791""
","
","","","","","","","","","","","","","","","","","","","","","",""
"d3-instructions","58","140304","0.0-58.0","1801","2930","23","Male","false","false","false","true","""event"",""trial"",""time""
""blur"",""3"",""5763""
""focus"",""3"",""7724""
""blur"",""3"",""8292""
""focus"",""3"",""12925""
""fullscreenenter"",""5"",""18791""
""blur"",""37"",""117879""
""focus"",""38"",""119092""
","""event"",""trial"",""time""
""blur"",""3"",""5763""
""blur"",""3"",""8292""
""blur"",""37"",""117879""
","""event"",""trial"",""time""
""focus"",""3"",""7724""
""focus"",""3"",""12925""
""focus"",""38"",""119092""
","""event"",""trial"",""time""
""fullscreenenter"",""5"",""18791""
","
","","","","","","","","","","","","","","","","","","","","","",""
"d3-instructions","59","140672","0.0-59.0","1801","2930","23","Male","false","false","false","true","""event"",""trial"",""time""
""blur"",""3"",""5763""
""focus"",""3"",""7724""
""blur"",""3"",""8292""
""focus"",""3"",""12925""
""fullscreenenter"",""5"",""18791""
""blur"",""37"",""117879""
""focus"",""38"",""119092""
","""event"",""trial"",""time""
""blur"",""3"",""5763""
""blur"",""3"",""8292""
""blur"",""37"",""117879""
","""event"",""trial"",""time""
""focus"",""3"",""7724""
""focus"",""3"",""12925""
""focus"",""38"",""119092""
","""event"",""trial"",""time""
""fullscreenenter"",""5"",""18791""
","
","","","","","","","","","","","","","","","","","","","","","",""
"d3-instructions","60","140976","0.0-60.0","1801","2930","23","Male","false","false","false","true","""event"",""trial"",""time""
""blur"",""3"",""5763""
""focus"",""3"",""7724""
""blur"",""3"",""8292""
""focus"",""3"",""12925""
""fullscreenenter"",""5"",""18791""
""blur"",""37"",""117879""
""focus"",""38"",""119092""
","""event"",""trial"",""time""
""blur"",""3"",""5763""
""blur"",""3"",""8292""
""blur"",""37"",""117879""
","""event"",""trial"",""time""
""focus"",""3"",""7724""
""focus"",""3"",""12925""
""focus"",""38"",""119092""
","""event"",""trial"",""time""
""fullscreenenter"",""5"",""18791""
","
","","","","","","","","","","","","","","","","","","","","","",""
"d3-animate-choice","61","143889","0.0-61.0-0.0","1801","2930","23","Male","false","false","false","true","""event"",""trial"",""time""
""blur"",""3"",""5763""
""focus"",""3"",""7724""
""blur"",""3"",""8292""
""focus"",""3"",""12925""
""fullscreenenter"",""5"",""18791""
""blur"",""37"",""117879""
""focus"",""38"",""119092""
","""event"",""trial"",""time""
""blur"",""3"",""5763""
""blur"",""3"",""8292""
""blur"",""37"",""117879""
","""event"",""trial"",""time""
""focus"",""3"",""7724""
""focus"",""3"",""12925""
""focus"",""38"",""119092""
","""event"",""trial"",""time""
""fullscreenenter"",""5"",""18791""
","
","252","","32","","","3000","1","909,2237,2428,2652,2876","49,49,49,49,49","images/earth.jpg","images/tutrocket1","images/tutrocket2","null","images/tutrocket2","","1","practice","null","","","",""
"d3-animate-choice","62","146087","0.0-61.0-1.0","1801","2930","23","Male","false","false","false","true","""event"",""trial"",""time""
""blur"",""3"",""5763""
""focus"",""3"",""7724""
""blur"",""3"",""8292""
""focus"",""3"",""12925""
""fullscreenenter"",""5"",""18791""
""blur"",""37"",""117879""
""focus"",""38"",""119092""
","""event"",""trial"",""time""
""blur"",""3"",""5763""
""blur"",""3"",""8292""
""blur"",""37"",""117879""
","""event"",""trial"",""time""
""focus"",""3"",""7724""
""focus"",""3"",""12925""
""focus"",""38"",""119092""
","""event"",""trial"",""time""
""fullscreenenter"",""5"",""18791""
","
","187","","49","","","3000","1","427,748","49,49","images/tutgreenplanet.jpg","images/tutalien2","images/tutalien1","images/tutrocket2","images/tutalien1","images/t.png","2","practice","true","1","common","1","2022-09-16 21:22:34.816"
"two-step-fixation","63","147105","0.0-61.0-2.0","1801","2930","23","Male","false","false","false","true","""event"",""trial"",""time""
""blur"",""3"",""5763""
""focus"",""3"",""7724""
""blur"",""3"",""8292""
""focus"",""3"",""12925""
""fullscreenenter"",""5"",""18791""
""blur"",""37"",""117879""
""focus"",""38"",""119092""
","""event"",""trial"",""time""
""blur"",""3"",""5763""
""blur"",""3"",""8292""
""blur"",""37"",""117879""
","""event"",""trial"",""time""
""focus"",""3"",""7724""
""focus"",""3"",""12925""
""focus"",""38"",""119092""
","""event"",""trial"",""time""
""fullscreenenter"",""5"",""18791""
","
","","images/earth.jpg","","","","","","","","","","","","","","fixation","","","","","",""
"d3-animate-choice","64","149254","0.0-61.0-0.1","1801","2930","23","Male","false","false","false","true","""event"",""trial"",""time""
""blur"",""3"",""5763""
""focus"",""3"",""7724""
""blur"",""3"",""8292""
""focus"",""3"",""12925""
""fullscreenenter"",""5"",""18791""
""blur"",""37"",""117879""
""focus"",""38"",""119092""
","""event"",""trial"",""time""
""blur"",""3"",""5763""
""blur"",""3"",""8292""
""blur"",""37"",""117879""
","""event"",""trial"",""time""
""focus"",""3"",""7724""
""focus"",""3"",""12925""
""focus"",""38"",""119092""
","""event"",""trial"",""time""
""fullscreenenter"",""5"",""18791""
","
","141","","48","","","3000","1","269,509,1276,1452,1614,1805,1981","48,48,48,48,48,48,48","images/earth.jpg","images/tutrocket1","images/tutrocket2","null","images/tutrocket1","","1","practice","null","2","","",""
"d3-animate-choice","65","151274","0.0-61.0-1.1","1801","2930","23","Male","false","false","false","true","""event"",""trial"",""time""
""blur"",""3"",""5763""
""focus"",""3"",""7724""
""blur"",""3"",""8292""
""focus"",""3"",""12925""
""fullscreenenter"",""5"",""18791""
""blur"",""37"",""117879""
""focus"",""38"",""119092""
","""event"",""trial"",""time""
""blur"",""3"",""5763""
""blur"",""3"",""8292""
""blur"",""37"",""117879""
","""event"",""trial"",""time""
""focus"",""3"",""7724""
""focus"",""3"",""12925""
""focus"",""38"",""119092""
","""event"",""trial"",""time""
""fullscreenenter"",""5"",""18791""
","
","8","","48","","","3000","1","184,328,536,775,952,1161,1336,1496,1688,1832","48,48,48,48,48,48,48,48,48,48","images/tutyellowplanet.jpg","images/tutalien4","images/tutalien3","images/tutrocket1","images/tutalien4","images/t.png","2","practice","true","2","common","1","2022-09-16 21:22:40.003"
"two-step-fixation","66","152282","0.0-61.0-2.1","1801","2930","23","Male","false","false","false","true","""event"",""trial"",""time""
""blur"",""3"",""5763""
""focus"",""3"",""7724""
""blur"",""3"",""8292""
""focus"",""3"",""12925""
""fullscreenenter"",""5"",""18791""
""blur"",""37"",""117879""
""focus"",""38"",""119092""
","""event"",""trial"",""time""
""blur"",""3"",""5763""
""blur"",""3"",""8292""
""blur"",""37"",""117879""
","""event"",""trial"",""time""
""focus"",""3"",""7724""
""focus"",""3"",""12925""
""focus"",""38"",""119092""
","""event"",""trial"",""time""
""fullscreenenter"",""5"",""18791""
","
","","images/earth.jpg","","","","","","","","","","","","","","fixation","","","","","",""
"d3-animate-choice","67","154463","0.0-61.0-0.2","1801","2930","23","Male","false","false","false","true","""event"",""trial"",""time""
""blur"",""3"",""5763""
""focus"",""3"",""7724""
""blur"",""3"",""8292""
""focus"",""3"",""12925""
""fullscreenenter"",""5"",""18791""
""blur"",""37"",""117879""
""focus"",""38"",""119092""
","""event"",""trial"",""time""
""blur"",""3"",""5763""
""blur"",""3"",""8292""
""blur"",""37"",""117879""
","""event"",""trial"",""time""
""focus"",""3"",""7724""
""focus"",""3"",""12925""
""focus"",""38"",""119092""
","""event"",""trial"",""time""
""fullscreenenter"",""5"",""18791""
","
","163","","48","","","3000","1","356,516,691,851,1091,1300,1507,1699,1891,2083","48,48,48,48,48,48,48,48,48,48","images/earth.jpg","images/tutrocket1","images/tutrocket2","null","images/tutrocket1","","1","practice","null","2","","",""
"d3-animate-choice","68","156561","0.0-61.0-1.2","1801","2930","23","Male","false","false","false","true","""event"",""trial"",""time""
""blur"",""3"",""5763""
""focus"",""3"",""7724""
""blur"",""3"",""8292""
""focus"",""3"",""12925""
""fullscreenenter"",""5"",""18791""
""blur"",""37"",""117879""
""focus"",""38"",""119092""
","""event"",""trial"",""time""
""blur"",""3"",""5763""
""blur"",""3"",""8292""
""blur"",""37"",""117879""
","""event"",""trial"",""time""
""focus"",""3"",""7724""
""focus"",""3"",""12925""
""focus"",""38"",""119092""
","""event"",""trial"",""time""
""fullscreenenter"",""5"",""18791""
","
","94","","48","","","3000","1","286,479,686,862,1054,1261,1454,1662,1870,2095","48,48,48,48,48,48,48,48,48,48","images/tutyellowplanet.jpg","images/tutalien4","images/tutalien3","images/tutrocket1","images/tutalien4","images/t.png","2","practice","true","2","common","1","2022-09-16 21:22:45.290"
"two-step-fixation","69","157577","0.0-61.0-2.2","1801","2930","23","Male","false","false","false","true","""event"",""trial"",""time""
""blur"",""3"",""5763""
""focus"",""3"",""7724""
""blur"",""3"",""8292""
""focus"",""3"",""12925""
""fullscreenenter"",""5"",""18791""
""blur"",""37"",""117879""
""focus"",""38"",""119092""
","""event"",""trial"",""time""
""blur"",""3"",""5763""
""blur"",""3"",""8292""
""blur"",""37"",""117879""
","""event"",""trial"",""time""
""focus"",""3"",""7724""
""focus"",""3"",""12925""
""focus"",""38"",""119092""
","""event"",""trial"",""time""
""fullscreenenter"",""5"",""18791""
","
","","images/earth.jpg","","","","","","","","","","","","","","fixation","","","","","",""
"d3-animate-choice","70","159670","0.0-61.0-0.3","1801","2930","23","Male","false","false","false","true","""event"",""trial"",""time""
""blur"",""3"",""5763""
""focus"",""3"",""7724""
""blur"",""3"",""8292""
""focus"",""3"",""12925""
""fullscreenenter"",""5"",""18791""
""blur"",""37"",""117879""
""focus"",""38"",""119092""
","""event"",""trial"",""time""
""blur"",""3"",""5763""
""blur"",""3"",""8292""
""blur"",""37"",""117879""
","""event"",""trial"",""time""
""focus"",""3"",""7724""
""focus"",""3"",""12925""
""focus"",""38"",""119092""
","""event"",""trial"",""time""
""fullscreenenter"",""5"",""18791""
","
","85","","48","","","3000","1","293,485,709,917,1109,1333,1525,1748,1973","48,48,48,48,48,48,48,48,48","images/earth.jpg","images/tutrocket1","images/tutrocket2","null","images/tutrocket1","","1","practice","null","2","","",""
"d3-animate-choice","71","161765","0.0-61.0-1.3","1801","2930","23","Male","false","false","false","true","""event"",""trial"",""time""
""blur"",""3"",""5763""
""focus"",""3"",""7724""
""blur"",""3"",""8292""
""focus"",""3"",""12925""
""fullscreenenter"",""5"",""18791""
""blur"",""37"",""117879""
""focus"",""38"",""119092""
","""event"",""trial"",""time""
""blur"",""3"",""5763""
""blur"",""3"",""8292""
""blur"",""37"",""117879""
","""event"",""trial"",""time""
""focus"",""3"",""7724""
""focus"",""3"",""12925""
""focus"",""38"",""119092""
","""event"",""trial"",""time""
""fullscreenenter"",""5"",""18791""
","
","88","","48","","","3000","1","280,488,696,904,1112,1320,1512,1705,1880,2072","48,48,48,48,48,48,48,48,48,48","images/tutgreenplanet.jpg","images/tutalien2","images/tutalien1","images/tutrocket1","images/tutalien2","images/nothing.png","2","practice","false","2","rare","0","2022-09-16 21:22:50.494"
"two-step-fixation","72","162773","0.0-61.0-2.3","1801","2930","23","Male","false","false","false","true","""event"",""trial"",""time""
""blur"",""3"",""5763""
""focus"",""3"",""7724""
""blur"",""3"",""8292""
""focus"",""3"",""12925""
""fullscreenenter"",""5"",""18791""
""blur"",""37"",""117879""
""focus"",""38"",""119092""
","""event"",""trial"",""time""
""blur"",""3"",""5763""
""blur"",""3"",""8292""
""blur"",""37"",""117879""
","""event"",""trial"",""time""
""focus"",""3"",""7724""
""focus"",""3"",""12925""
""focus"",""38"",""119092""
","""event"",""trial"",""time""
""fullscreenenter"",""5"",""18791""
","
","","images/earth.jpg","","","","","","","","","","","","","","fixation","","","","","",""
"d3-animate-choice","73","164903","0.0-61.0-0.4","1801","2930","23","Male","false","false","false","true","""event"",""trial"",""time""
""blur"",""3"",""5763""
""focus"",""3"",""7724""
""blur"",""3"",""8292""
""focus"",""3"",""12925""
""fullscreenenter"",""5"",""18791""
""blur"",""37"",""117879""
""focus"",""38"",""119092""
","""event"",""trial"",""time""
""blur"",""3"",""5763""
""blur"",""3"",""8292""
""blur"",""37"",""117879""
","""event"",""trial"",""time""
""focus"",""3"",""7724""
""focus"",""3"",""12925""
""focus"",""38"",""119092""
","""event"",""trial"",""time""
""fullscreenenter"",""5"",""18791""
","
","121","","48","","","3000","1","313,489,649,889,1081,1273,1448,1625,1848,1945","48,48,48,48,48,48,48,48,48,49","images/earth.jpg","images/tutrocket1","images/tutrocket2","null","images/tutrocket1","","1","practice","null","2","","",""
"d3-animate-choice","74","166951","0.0-61.0-1.4","1801","2930","23","Male","false","false","false","true","""event"",""trial"",""time""
""blur"",""3"",""5763""
""focus"",""3"",""7724""
""blur"",""3"",""8292""
""focus"",""3"",""12925""
""fullscreenenter"",""5"",""18791""
""blur"",""37"",""117879""
""focus"",""38"",""119092""
","""event"",""trial"",""time""
""blur"",""3"",""5763""
""blur"",""3"",""8292""
""blur"",""37"",""117879""
","""event"",""trial"",""time""
""focus"",""3"",""7724""
""focus"",""3"",""12925""
""focus"",""38"",""119092""
","""event"",""trial"",""time""
""fullscreenenter"",""5"",""18791""
","
","38","","49","","","3000","1","246,471,726,966,1206,1575,1910","49,49,49,49,49,49,49","images/tutgreenplanet.jpg","images/tutalien2","images/tutalien1","images/tutrocket1","images/tutalien1","images/nothing.png","2","practice","false","1","rare","0","2022-09-16 21:22:55.680"
"two-step-fixation","75","167962","0.0-61.0-2.4","1801","2930","23","Male","false","false","false","true","""event"",""trial"",""time""
""blur"",""3"",""5763""
""focus"",""3"",""7724""
""blur"",""3"",""8292""
""focus"",""3"",""12925""
""fullscreenenter"",""5"",""18791""
""blur"",""37"",""117879""
""focus"",""38"",""119092""
","""event"",""trial"",""time""
""blur"",""3"",""5763""
""blur"",""3"",""8292""
""blur"",""37"",""117879""
","""event"",""trial"",""time""
""focus"",""3"",""7724""
""focus"",""3"",""12925""
""focus"",""38"",""119092""
","""event"",""trial"",""time""
""fullscreenenter"",""5"",""18791""
","
","","images/earth.jpg","","","","","","","","","","","","","","fixation","","","","","",""
"d3-animate-choice","76","170214","0.0-61.0-0.5","1801","2930","23","Male","false","false","false","true","""event"",""trial"",""time""
""blur"",""3"",""5763""
""focus"",""3"",""7724""
""blur"",""3"",""8292""
""focus"",""3"",""12925""
""fullscreenenter"",""5"",""18791""
""blur"",""37"",""117879""
""focus"",""38"",""119092""
","""event"",""trial"",""time""
""blur"",""3"",""5763""
""blur"",""3"",""8292""
""blur"",""37"",""117879""
","""event"",""trial"",""time""
""focus"",""3"",""7724""
""focus"",""3"",""12925""
""focus"",""38"",""119092""
","""event"",""trial"",""time""
""fullscreenenter"",""5"",""18791""
","
","243","","49","","","3000","1","547,1075,1331,1571,1827","49,49,49,49,49","images/earth.jpg","images/tutrocket1","images/tutrocket2","null","images/tutrocket2","","1","practice","null","1","","",""
"d3-animate-choice","77","172330","0.0-61.0-1.5","1801","2930","23","Male","false","false","false","true","""event"",""trial"",""time""
""blur"",""3"",""5763""
""focus"",""3"",""7724""
""blur"",""3"",""8292""
""focus"",""3"",""12925""
""fullscreenenter"",""5"",""18791""
""blur"",""37"",""117879""
""focus"",""38"",""119092""
","""event"",""trial"",""time""
""blur"",""3"",""5763""
""blur"",""3"",""8292""
""blur"",""37"",""117879""
","""event"",""trial"",""time""
""focus"",""3"",""7724""
""focus"",""3"",""12925""
""focus"",""38"",""119092""
","""event"",""trial"",""time""
""fullscreenenter"",""5"",""18791""
","
","103","","49","","","3000","1","343,599,871,1063,1287,1511,1831,2055","49,49,49,49,49,49,49,49","images/tutgreenplanet.jpg","images/tutalien2","images/tutalien1","images/tutrocket2","images/tutalien1","images/nothing.png","2","practice","true","1","common","0","2022-09-16 21:23:01.059"
"two-step-fixation","78","173344","0.0-61.0-2.5","1801","2930","23","Male","false","false","false","true","""event"",""trial"",""time""
""blur"",""3"",""5763""
""focus"",""3"",""7724""
""blur"",""3"",""8292""
""focus"",""3"",""12925""
""fullscreenenter"",""5"",""18791""
""blur"",""37"",""117879""
""focus"",""38"",""119092""
","""event"",""trial"",""time""
""blur"",""3"",""5763""
""blur"",""3"",""8292""
""blur"",""37"",""117879""
","""event"",""trial"",""time""
""focus"",""3"",""7724""
""focus"",""3"",""12925""
""focus"",""38"",""119092""
","""event"",""trial"",""time""
""fullscreenenter"",""5"",""18791""
","
","","images/earth.jpg","","","","","","","","","","","","","","fixation","","","","","",""
"d3-animate-choice","79","175394","0.0-61.0-0.6","1801","2930","23","Male","false","false","false","true","""event"",""trial"",""time""
""blur"",""3"",""5763""
""focus"",""3"",""7724""
""blur"",""3"",""8292""
""focus"",""3"",""12925""
""fullscreenenter"",""5"",""18791""
""blur"",""37"",""117879""
""focus"",""38"",""119092""
","""event"",""trial"",""time""
""blur"",""3"",""5763""
""blur"",""3"",""8292""
""blur"",""37"",""117879""
","""event"",""trial"",""time""
""focus"",""3"",""7724""
""focus"",""3"",""12925""
""focus"",""38"",""119092""
","""event"",""trial"",""time""
""fullscreenenter"",""5"",""18791""
","
","46","","49","","","3000","1","142,253,334,461,590","48,49,48,49,48","images/earth.jpg","images/tutrocket1","images/tutrocket2","null","images/tutrocket2","","1","practice","null","1","","",""
"d3-animate-choice","80","177654","0.0-61.0-1.6","1801","2930","23","Male","false","false","false","true","""event"",""trial"",""time""
""blur"",""3"",""5763""
""focus"",""3"",""7724""
""blur"",""3"",""8292""
""focus"",""3"",""12925""
""fullscreenenter"",""5"",""18791""
""blur"",""37"",""117879""
""focus"",""38"",""119092""
","""event"",""trial"",""time""
""blur"",""3"",""5763""
""blur"",""3"",""8292""
""blur"",""37"",""117879""
","""event"",""trial"",""time""
""focus"",""3"",""7724""
""focus"",""3"",""12925""
""focus"",""38"",""119092""
","""event"",""trial"",""time""
""fullscreenenter"",""5"",""18791""
","
","252","","49","","","3000","1","","","images/tutgreenplanet.jpg","images/tutalien2","images/tutalien1","images/tutrocket2","images/tutalien1","images/nothing.png","2","practice","true","1","common","0","2022-09-16 21:23:06.383"
"two-step-fixation","81","178657","0.0-61.0-2.6","1801","2930","23","Male","false","false","false","true","""event"",""trial"",""time""
""blur"",""3"",""5763""
""focus"",""3"",""7724""
""blur"",""3"",""8292""
""focus"",""3"",""12925""
""fullscreenenter"",""5"",""18791""
""blur"",""37"",""117879""
""focus"",""38"",""119092""
","""event"",""trial"",""time""
""blur"",""3"",""5763""
""blur"",""3"",""8292""
""blur"",""37"",""117879""
","""event"",""trial"",""time""
""focus"",""3"",""7724""
""focus"",""3"",""12925""
""focus"",""38"",""119092""
","""event"",""trial"",""time""
""fullscreenenter"",""5"",""18791""
","
","","images/earth.jpg","","","","","","","","","","","","","","fixation","","","","","",""
"d3-animate-choice","82","180738","0.0-61.0-0.7","1801","2930","23","Male","false","false","false","true","""event"",""trial"",""time""
""blur"",""3"",""5763""
""focus"",""3"",""7724""
""blur"",""3"",""8292""
""focus"",""3"",""12925""
""fullscreenenter"",""5"",""18791""
""blur"",""37"",""117879""
""focus"",""38"",""119092""
","""event"",""trial"",""time""
""blur"",""3"",""5763""
""blur"",""3"",""8292""
""blur"",""37"",""117879""
","""event"",""trial"",""time""
""focus"",""3"",""7724""
""focus"",""3"",""12925""
""focus"",""38"",""119092""
","""event"",""trial"",""time""
""fullscreenenter"",""5"",""18791""
","
","77","","49","","","3000","1","","","images/earth.jpg","images/tutrocket1","images/tutrocket2","null","images/tutrocket2","","1","practice","null","1","","",""
"d3-animate-choice","83","182884","0.0-61.0-1.7","1801","2930","23","Male","false","false","false","true","""event"",""trial"",""time""
""blur"",""3"",""5763""
""focus"",""3"",""7724""
""blur"",""3"",""8292""
""focus"",""3"",""12925""
""fullscreenenter"",""5"",""18791""
""blur"",""37"",""117879""
""focus"",""38"",""119092""
","""event"",""trial"",""time""
""blur"",""3"",""5763""
""blur"",""3"",""8292""
""blur"",""37"",""117879""
","""event"",""trial"",""time""
""focus"",""3"",""7724""
""focus"",""3"",""12925""
""focus"",""38"",""119092""
","""event"",""trial"",""time""
""fullscreenenter"",""5"",""18791""
","
","139","","48","","","3000","1","","","images/tutgreenplanet.jpg","images/tutalien2","images/tutalien1","images/tutrocket2","images/tutalien2","images/nothing.png","2","practice","true","2","common","0","2022-09-16 21:23:11.613"
"two-step-fixation","84","183902","0.0-61.0-2.7","1801","2930","23","Male","false","false","false","true","""event"",""trial"",""time""
""blur"",""3"",""5763""
""focus"",""3"",""7724""
""blur"",""3"",""8292""
""focus"",""3"",""12925""
""fullscreenenter"",""5"",""18791""
""blur"",""37"",""117879""
""focus"",""38"",""119092""
","""event"",""trial"",""time""
""blur"",""3"",""5763""
""blur"",""3"",""8292""
""blur"",""37"",""117879""
","""event"",""trial"",""time""
""focus"",""3"",""7724""
""focus"",""3"",""12925""
""focus"",""38"",""119092""
","""event"",""trial"",""time""
""fullscreenenter"",""5"",""18791""
","
","","images/earth.jpg","","","","","","","","","","","","","","fixation","","","","","",""
"d3-animate-choice","85","186083","0.0-61.0-0.8","1801","2930","23","Male","false","false","false","true","""event"",""trial"",""time""
""blur"",""3"",""5763""
""focus"",""3"",""7724""
""blur"",""3"",""8292""
""focus"",""3"",""12925""
""fullscreenenter"",""5"",""18791""
""blur"",""37"",""117879""
""focus"",""38"",""119092""
","""event"",""trial"",""time""
""blur"",""3"",""5763""
""blur"",""3"",""8292""
""blur"",""37"",""117879""
","""event"",""trial"",""time""
""focus"",""3"",""7724""
""focus"",""3"",""12925""
""focus"",""38"",""119092""
","""event"",""trial"",""time""
""fullscreenenter"",""5"",""18791""
","
","175","","49","","","3000","1","","","images/earth.jpg","images/tutrocket1","images/tutrocket2","null","images/tutrocket2","","1","practice","null","1","","",""
"d3-animate-choice","86","188348","0.0-61.0-1.8","1801","2930","23","Male","false","false","false","true","""event"",""trial"",""time""
""blur"",""3"",""5763""
""focus"",""3"",""7724""
""blur"",""3"",""8292""
""focus"",""3"",""12925""
""fullscreenenter"",""5"",""18791""
""blur"",""37"",""117879""
""focus"",""38"",""119092""
","""event"",""trial"",""time""
""blur"",""3"",""5763""
""blur"",""3"",""8292""
""blur"",""37"",""117879""
","""event"",""trial"",""time""
""focus"",""3"",""7724""
""focus"",""3"",""12925""
""focus"",""38"",""119092""
","""event"",""trial"",""time""
""fullscreenenter"",""5"",""18791""
","
","250","","48","","","3000","1","792","48","images/tutgreenplanet.jpg","images/tutalien2","images/tutalien1","images/tutrocket2","images/tutalien2","images/nothing.png","2","practice","true","2","common","0","2022-09-16 21:23:17.077"
"two-step-fixation","87","189354","0.0-61.0-2.8","1801","2930","23","Male","false","false","false","true","""event"",""trial"",""time""
""blur"",""3"",""5763""
""focus"",""3"",""7724""
""blur"",""3"",""8292""
""focus"",""3"",""12925""
""fullscreenenter"",""5"",""18791""
""blur"",""37"",""117879""
""focus"",""38"",""119092""
","""event"",""trial"",""time""
""blur"",""3"",""5763""
""blur"",""3"",""8292""
""blur"",""37"",""117879""
","""event"",""trial"",""time""
""focus"",""3"",""7724""
""focus"",""3"",""12925""
""focus"",""38"",""119092""
","""event"",""trial"",""time""
""fullscreenenter"",""5"",""18791""
","
","","images/earth.jpg","","","","","","","","","","","","","","fixation","","","","","",""
"d3-animate-choice","88","191394","0.0-61.0-0.9","1801","2930","23","Male","false","false","false","true","""event"",""trial"",""time""
""blur"",""3"",""5763""
""focus"",""3"",""7724""
""blur"",""3"",""8292""
""focus"",""3"",""12925""
""fullscreenenter"",""5"",""18791""
""blur"",""37"",""117879""
""focus"",""38"",""119092""
","""event"",""trial"",""time""
""blur"",""3"",""5763""
""blur"",""3"",""8292""
""blur"",""37"",""117879""
","""event"",""trial"",""time""
""focus"",""3"",""7724""
""focus"",""3"",""12925""
""focus"",""38"",""119092""
","""event"",""trial"",""time""
""fullscreenenter"",""5"",""18791""
","
","35","","49","","","3000","1","210,1940","49,49","images/earth.jpg","images/tutrocket1","images/tutrocket2","null","images/tutrocket2","","1","practice","null","1","","",""
"d3-animate-choice","89","193504","0.0-61.0-1.9","1801","2930","23","Male","false","false","false","true","""event"",""trial"",""time""
""blur"",""3"",""5763""
""focus"",""3"",""7724""
""blur"",""3"",""8292""
""focus"",""3"",""12925""
""fullscreenenter"",""5"",""18791""
""blur"",""37"",""117879""
""focus"",""38"",""119092""
","""event"",""trial"",""time""
""blur"",""3"",""5763""
""blur"",""3"",""8292""
""blur"",""37"",""117879""
","""event"",""trial"",""time""
""focus"",""3"",""7724""
""focus"",""3"",""12925""
""focus"",""38"",""119092""
","""event"",""trial"",""time""
""fullscreenenter"",""5"",""18791""
","
","107","","49","","","3000","1","283","49","images/tutgreenplanet.jpg","images/tutalien2","images/tutalien1","images/tutrocket2","images/tutalien1","images/t.png","2","practice","true","1","common","1","2022-09-16 21:23:22.233"
"two-step-fixation","90","194509","0.0-61.0-2.9","1801","2930","23","Male","false","false","false","true","""event"",""trial"",""time""
""blur"",""3"",""5763""
""focus"",""3"",""7724""
""blur"",""3"",""8292""
""focus"",""3"",""12925""
""fullscreenenter"",""5"",""18791""
""blur"",""37"",""117879""
""focus"",""38"",""119092""
","""event"",""trial"",""time""
""blur"",""3"",""5763""
""blur"",""3"",""8292""
""blur"",""37"",""117879""
","""event"",""trial"",""time""
""focus"",""3"",""7724""
""focus"",""3"",""12925""
""focus"",""38"",""119092""
","""event"",""trial"",""time""
""fullscreenenter"",""5"",""18791""
","
","","images/earth.jpg","","","","","","","","","","","","","","fixation","","","","","",""
"d3-animate-choice","91","196584","0.0-61.0-0.10","1801","2930","23","Male","false","false","false","true","""event"",""trial"",""time""
""blur"",""3"",""5763""
""focus"",""3"",""7724""
""blur"",""3"",""8292""
""focus"",""3"",""12925""
""fullscreenenter"",""5"",""18791""
""blur"",""37"",""117879""
""focus"",""38"",""119092""
","""event"",""trial"",""time""
""blur"",""3"",""5763""
""blur"",""3"",""8292""
""blur"",""37"",""117879""
","""event"",""trial"",""time""
""focus"",""3"",""7724""
""focus"",""3"",""12925""
""focus"",""38"",""119092""
","""event"",""trial"",""time""
""fullscreenenter"",""5"",""18791""
","
","66","","49","","","3000","1","","","images/earth.jpg","images/tutrocket1","images/tutrocket2","null","images/tutrocket2","","1","practice","null","1","","",""
"d3-animate-choice","92","198805","0.0-61.0-1.10","1801","2930","23","Male","false","false","false","true","""event"",""trial"",""time""
""blur"",""3"",""5763""
""focus"",""3"",""7724""
""blur"",""3"",""8292""
""focus"",""3"",""12925""
""fullscreenenter"",""5"",""18791""
""blur"",""37"",""117879""
""focus"",""38"",""119092""
","""event"",""trial"",""time""
""blur"",""3"",""5763""
""blur"",""3"",""8292""
""blur"",""37"",""117879""
","""event"",""trial"",""time""
""focus"",""3"",""7724""
""focus"",""3"",""12925""
""focus"",""38"",""119092""
","""event"",""trial"",""time""
""fullscreenenter"",""5"",""18791""
","
","215","","49","","","3000","1","","","images/tutyellowplanet.jpg","images/tutalien4","images/tutalien3","images/tutrocket2","images/tutalien3","images/t.png","2","practice","false","1","rare","1","2022-09-16 21:23:27.534"
"two-step-fixation","93","199814","0.0-61.0-2.10","1801","2930","23","Male","false","false","false","true","""event"",""trial"",""time""
""blur"",""3"",""5763""
""focus"",""3"",""7724""
""blur"",""3"",""8292""
""focus"",""3"",""12925""
""fullscreenenter"",""5"",""18791""
""blur"",""37"",""117879""
""focus"",""38"",""119092""
","""event"",""trial"",""time""
""blur"",""3"",""5763""
""blur"",""3"",""8292""
""blur"",""37"",""117879""
","""event"",""trial"",""time""
""focus"",""3"",""7724""
""focus"",""3"",""12925""
""focus"",""38"",""119092""
","""event"",""trial"",""time""
""fullscreenenter"",""5"",""18791""
","
","","images/earth.jpg","","","","","","","","","","","","","","fixation","","","","","",""
"d3-animate-choice","94","201968","0.0-61.0-0.11","1801","2930","23","Male","false","false","false","true","""event"",""trial"",""time""
""blur"",""3"",""5763""
""focus"",""3"",""7724""
""blur"",""3"",""8292""
""focus"",""3"",""12925""
""fullscreenenter"",""5"",""18791""
""blur"",""37"",""117879""
""focus"",""38"",""119092""
","""event"",""trial"",""time""
""blur"",""3"",""5763""
""blur"",""3"",""8292""
""blur"",""37"",""117879""
","""event"",""trial"",""time""
""focus"",""3"",""7724""
""focus"",""3"",""12925""
""focus"",""38"",""119092""
","""event"",""trial"",""time""
""fullscreenenter"",""5"",""18791""
","
","151","","48","","","3000","1","360","48","images/earth.jpg","images/tutrocket1","images/tutrocket2","null","images/tutrocket1","","1","practice","null","2","","",""
"d3-animate-choice","95","204216","0.0-61.0-1.11","1801","2930","23","Male","false","false","false","true","""event"",""trial"",""time""
""blur"",""3"",""5763""
""focus"",""3"",""7724""
""blur"",""3"",""8292""
""focus"",""3"",""12925""
""fullscreenenter"",""5"",""18791""
""blur"",""37"",""117879""
""focus"",""38"",""119092""
","""event"",""trial"",""time""
""blur"",""3"",""5763""
""blur"",""3"",""8292""
""blur"",""37"",""117879""
","""event"",""trial"",""time""
""focus"",""3"",""7724""
""focus"",""3"",""12925""
""focus"",""38"",""119092""
","""event"",""trial"",""time""
""fullscreenenter"",""5"",""18791""
","
","238","","49","","","3000","1","","","images/tutyellowplanet.jpg","images/tutalien4","images/tutalien3","images/tutrocket1","images/tutalien3","images/t.png","2","practice","true","1","common","1","2022-09-16 21:23:32.945"
"two-step-fixation","96","205232","0.0-61.0-2.11","1801","2930","23","Male","false","false","false","true","""event"",""trial"",""time""
""blur"",""3"",""5763""
""focus"",""3"",""7724""
""blur"",""3"",""8292""
""focus"",""3"",""12925""
""fullscreenenter"",""5"",""18791""
""blur"",""37"",""117879""
""focus"",""38"",""119092""
","""event"",""trial"",""time""
""blur"",""3"",""5763""
""blur"",""3"",""8292""
""blur"",""37"",""117879""
","""event"",""trial"",""time""
""focus"",""3"",""7724""
""focus"",""3"",""12925""
""focus"",""38"",""119092""
","""event"",""trial"",""time""
""fullscreenenter"",""5"",""18791""
","
","","images/earth.jpg","","","","","","","","","","","","","","fixation","","","","","",""
"d3-animate-choice","97","207263","0.0-61.0-0.12","1801","2930","23","Male","false","false","false","true","""event"",""trial"",""time""
""blur"",""3"",""5763""
""focus"",""3"",""7724""
""blur"",""3"",""8292""
""focus"",""3"",""12925""
""fullscreenenter"",""5"",""18791""
""blur"",""37"",""117879""
""focus"",""38"",""119092""
","""event"",""trial"",""time""
""blur"",""3"",""5763""
""blur"",""3"",""8292""
""blur"",""37"",""117879""
","""event"",""trial"",""time""
""focus"",""3"",""7724""
""focus"",""3"",""12925""
""focus"",""38"",""119092""
","""event"",""trial"",""time""
""fullscreenenter"",""5"",""18791""
","
","13","","48","","","3000","1","","","images/earth.jpg","images/tutrocket1","images/tutrocket2","null","images/tutrocket1","","1","practice","null","2","","",""
"d3-animate-choice","98","209594","0.0-61.0-1.12","1801","2930","23","Male","false","false","false","true","""event"",""trial"",""time""
""blur"",""3"",""5763""
""focus"",""3"",""7724""
""blur"",""3"",""8292""
""focus"",""3"",""12925""
""fullscreenenter"",""5"",""18791""
""blur"",""37"",""117879""
""focus"",""38"",""119092""
","""event"",""trial"",""time""
""blur"",""3"",""5763""
""blur"",""3"",""8292""
""blur"",""37"",""117879""
","""event"",""trial"",""time""
""focus"",""3"",""7724""
""focus"",""3"",""12925""
""focus"",""38"",""119092""
","""event"",""trial"",""time""
""fullscreenenter"",""5"",""18791""
","
","317","","49","","","3000","1","","","images/tutyellowplanet.jpg","images/tutalien4","images/tutalien3","images/tutrocket1","images/tutalien3","images/nothing.png","2","practice","true","1","common","0","2022-09-16 21:23:38.323"
"two-step-fixation","99","210610","0.0-61.0-2.12","1801","2930","23","Male","false","false","false","true","""event"",""trial"",""time""
""blur"",""3"",""5763""
""focus"",""3"",""7724""
""blur"",""3"",""8292""
""focus"",""3"",""12925""
""fullscreenenter"",""5"",""18791""
""blur"",""37"",""117879""
""focus"",""38"",""119092""
","""event"",""trial"",""time""
""blur"",""3"",""5763""
""blur"",""3"",""8292""
""blur"",""37"",""117879""
","""event"",""trial"",""time""
""focus"",""3"",""7724""
""focus"",""3"",""12925""
""focus"",""38"",""119092""
","""event"",""trial"",""time""
""fullscreenenter"",""5"",""18791""
","
","","images/earth.jpg","","","","","","","","","","","","","","fixation","","","","","",""
"d3-animate-choice","100","212705","0.0-61.0-0.13","1801","2930","23","Male","false","false","false","true","""event"",""trial"",""time""
""blur"",""3"",""5763""
""focus"",""3"",""7724""
""blur"",""3"",""8292""
""focus"",""3"",""12925""
""fullscreenenter"",""5"",""18791""
""blur"",""37"",""117879""
""focus"",""38"",""119092""
","""event"",""trial"",""time""
""blur"",""3"",""5763""
""blur"",""3"",""8292""
""blur"",""37"",""117879""
","""event"",""trial"",""time""
""focus"",""3"",""7724""
""focus"",""3"",""12925""
""focus"",""38"",""119092""
","""event"",""trial"",""time""
""fullscreenenter"",""5"",""18791""
","
","92","","48","","","3000","1","1916","49","images/earth.jpg","images/tutrocket1","images/tutrocket2","null","images/tutrocket1","","1","practice","null","2","","",""
"d3-animate-choice","101","214872","0.0-61.0-1.13","1801","2930","23","Male","false","false","false","true","""event"",""trial"",""time""
""blur"",""3"",""5763""
""focus"",""3"",""7724""
""blur"",""3"",""8292""
""focus"",""3"",""12925""
""fullscreenenter"",""5"",""18791""
""blur"",""37"",""117879""
""focus"",""38"",""119092""
","""event"",""trial"",""time""
""blur"",""3"",""5763""
""blur"",""3"",""8292""
""blur"",""37"",""117879""
","""event"",""trial"",""time""
""focus"",""3"",""7724""
""focus"",""3"",""12925""
""focus"",""38"",""119092""
","""event"",""trial"",""time""
""fullscreenenter"",""5"",""18791""
","
","157","","49","","","3000","1","","","images/tutgreenplanet.jpg","images/tutalien2","images/tutalien1","images/tutrocket1","images/tutalien1","images/nothing.png","2","practice","false","1","rare","0","2022-09-16 21:23:43.601"
"two-step-fixation","102","215894","0.0-61.0-2.13","1801","2930","23","Male","false","false","false","true","""event"",""trial"",""time""
""blur"",""3"",""5763""
""focus"",""3"",""7724""
""blur"",""3"",""8292""
""focus"",""3"",""12925""
""fullscreenenter"",""5"",""18791""
""blur"",""37"",""117879""
""focus"",""38"",""119092""
","""event"",""trial"",""time""
""blur"",""3"",""5763""
""blur"",""3"",""8292""
""blur"",""37"",""117879""
","""event"",""trial"",""time""
""focus"",""3"",""7724""
""focus"",""3"",""12925""
""focus"",""38"",""119092""
","""event"",""trial"",""time""
""fullscreenenter"",""5"",""18791""
","
","","images/earth.jpg","","","","","","","","","","","","","","fixation","","","","","",""
"d3-animate-choice","103","218237","0.0-61.0-0.14","1801","2930","23","Male","false","false","false","true","""event"",""trial"",""time""
""blur"",""3"",""5763""
""focus"",""3"",""7724""
""blur"",""3"",""8292""
""focus"",""3"",""12925""
""fullscreenenter"",""5"",""18791""
""blur"",""37"",""117879""
""focus"",""38"",""119092""
","""event"",""trial"",""time""
""blur"",""3"",""5763""
""blur"",""3"",""8292""
""blur"",""37"",""117879""
","""event"",""trial"",""time""
""focus"",""3"",""7724""
""focus"",""3"",""12925""
""focus"",""38"",""119092""
","""event"",""trial"",""time""
""fullscreenenter"",""5"",""18791""
","
","327","","49","","","3000","1","1895,2103,2279","48,48,48","images/earth.jpg","images/tutrocket1","images/tutrocket2","null","images/tutrocket2","","1","practice","null","1","","",""
"d3-animate-choice","104","220385","0.0-61.0-1.14","1801","2930","23","Male","false","false","false","true","""event"",""trial"",""time""
""blur"",""3"",""5763""
""focus"",""3"",""7724""
""blur"",""3"",""8292""
""focus"",""3"",""12925""
""fullscreenenter"",""5"",""18791""
""blur"",""37"",""117879""
""focus"",""38"",""119092""
","""event"",""trial"",""time""
""blur"",""3"",""5763""
""blur"",""3"",""8292""
""blur"",""37"",""117879""
","""event"",""trial"",""time""
""focus"",""3"",""7724""
""focus"",""3"",""12925""
""focus"",""38"",""119092""
","""event"",""trial"",""time""
""fullscreenenter"",""5"",""18791""
","
","145","","48","","","3000","1","","","images/tutgreenplanet.jpg","images/tutalien2","images/tutalien1","images/tutrocket2","images/tutalien2","images/t.png","2","practice","true","2","common","1","2022-09-16 21:23:49.114"
"two-step-fixation","105","221400","0.0-61.0-2.14","1801","2930","23","Male","false","false","false","true","""event"",""trial"",""time""
""blur"",""3"",""5763""
""focus"",""3"",""7724""
""blur"",""3"",""8292""
""focus"",""3"",""12925""
""fullscreenenter"",""5"",""18791""
""blur"",""37"",""117879""
""focus"",""38"",""119092""
","""event"",""trial"",""time""
""blur"",""3"",""5763""
""blur"",""3"",""8292""
""blur"",""37"",""117879""
","""event"",""trial"",""time""
""focus"",""3"",""7724""
""focus"",""3"",""12925""
""focus"",""38"",""119092""
","""event"",""trial"",""time""
""fullscreenenter"",""5"",""18791""
","
","","images/earth.jpg","","","","","","","","","","","","","","fixation","","","","","",""
"d3-animate-choice","106","223648","0.0-61.0-0.15","1801","2930","23","Male","false","false","false","true","""event"",""trial"",""time""
""blur"",""3"",""5763""
""focus"",""3"",""7724""
""blur"",""3"",""8292""
""focus"",""3"",""12925""
""fullscreenenter"",""5"",""18791""
""blur"",""37"",""117879""
""focus"",""38"",""119092""
","""event"",""trial"",""time""
""blur"",""3"",""5763""
""blur"",""3"",""8292""
""blur"",""37"",""117879""
","""event"",""trial"",""time""
""focus"",""3"",""7724""
""focus"",""3"",""12925""
""focus"",""38"",""119092""
","""event"",""trial"",""time""
""fullscreenenter"",""5"",""18791""
","
","245","","49","","","3000","1","","","images/earth.jpg","images/tutrocket1","images/tutrocket2","null","images/tutrocket2","","1","practice","null","1","","",""
"d3-animate-choice","107","225944","0.0-61.0-1.15","1801","2930","23","Male","false","false","false","true","""event"",""trial"",""time""
""blur"",""3"",""5763""
""focus"",""3"",""7724""
""blur"",""3"",""8292""
""focus"",""3"",""12925""
""fullscreenenter"",""5"",""18791""
""blur"",""37"",""117879""
""focus"",""38"",""119092""
","""event"",""trial"",""time""
""blur"",""3"",""5763""
""blur"",""3"",""8292""
""blur"",""37"",""117879""
","""event"",""trial"",""time""
""focus"",""3"",""7724""
""focus"",""3"",""12925""
""focus"",""38"",""119092""
","""event"",""trial"",""time""
""fullscreenenter"",""5"",""18791""
","
","285","","49","","","3000","1","","","images/tutgreenplanet.jpg","images/tutalien2","images/tutalien1","images/tutrocket2","images/tutalien1","images/nothing.png","2","practice","true","1","common","0","2022-09-16 21:23:54.673"
"two-step-fixation","108","226964","0.0-61.0-2.15","1801","2930","23","Male","false","false","false","true","""event"",""trial"",""time""
""blur"",""3"",""5763""
""focus"",""3"",""7724""
""blur"",""3"",""8292""
""focus"",""3"",""12925""
""fullscreenenter"",""5"",""18791""
""blur"",""37"",""117879""
""focus"",""38"",""119092""
","""event"",""trial"",""time""
""blur"",""3"",""5763""
""blur"",""3"",""8292""
""blur"",""37"",""117879""
","""event"",""trial"",""time""
""focus"",""3"",""7724""
""focus"",""3"",""12925""
""focus"",""38"",""119092""
","""event"",""trial"",""time""
""fullscreenenter"",""5"",""18791""
","
","","images/earth.jpg","","","","","","","","","","","","","","fixation","","","","","",""
"d3-animate-choice","109","229057","0.0-61.0-0.16","1801","2930","23","Male","false","false","false","true","""event"",""trial"",""time""
""blur"",""3"",""5763""
""focus"",""3"",""7724""
""blur"",""3"",""8292""
""focus"",""3"",""12925""
""fullscreenenter"",""5"",""18791""
""blur"",""37"",""117879""
""focus"",""38"",""119092""
","""event"",""trial"",""time""
""blur"",""3"",""5763""
""blur"",""3"",""8292""
""blur"",""37"",""117879""
","""event"",""trial"",""time""
""focus"",""3"",""7724""
""focus"",""3"",""12925""
""focus"",""38"",""119092""
","""event"",""trial"",""time""
""fullscreenenter"",""5"",""18791""
","
","91","","48","","","3000","1","1643,1867,2043","48,48,48","images/earth.jpg","images/tutrocket1","images/tutrocket2","null","images/tutrocket1","","1","practice","null","2","","",""
"d3-animate-choice","110","231257","0.0-61.0-1.16","1801","2930","23","Male","false","false","false","true","""event"",""trial"",""time""
""blur"",""3"",""5763""
""focus"",""3"",""7724""
""blur"",""3"",""8292""
""focus"",""3"",""12925""
""fullscreenenter"",""5"",""18791""
""blur"",""37"",""117879""
""focus"",""38"",""119092""
","""event"",""trial"",""time""
""blur"",""3"",""5763""
""blur"",""3"",""8292""
""blur"",""37"",""117879""
","""event"",""trial"",""time""
""focus"",""3"",""7724""
""focus"",""3"",""12925""
""focus"",""38"",""119092""
","""event"",""trial"",""time""
""fullscreenenter"",""5"",""18791""
","
","188","","48","","","3000","1","","","images/tutyellowplanet.jpg","images/tutalien4","images/tutalien3","images/tutrocket1","images/tutalien4","images/t.png","2","practice","true","2","common","1","2022-09-16 21:23:59.986"
"two-step-fixation","111","232274","0.0-61.0-2.16","1801","2930","23","Male","false","false","false","true","""event"",""trial"",""time""
""blur"",""3"",""5763""
""focus"",""3"",""7724""
""blur"",""3"",""8292""
""focus"",""3"",""12925""
""fullscreenenter"",""5"",""18791""
""blur"",""37"",""117879""
""focus"",""38"",""119092""
","""event"",""trial"",""time""
""blur"",""3"",""5763""
""blur"",""3"",""8292""
""blur"",""37"",""117879""
","""event"",""trial"",""time""
""focus"",""3"",""7724""
""focus"",""3"",""12925""
""focus"",""38"",""119092""
","""event"",""trial"",""time""
""fullscreenenter"",""5"",""18791""
","
","","images/earth.jpg","","","","","","","","","","","","","","fixation","","","","","",""
"d3-animate-choice","112","234294","0.0-61.0-0.17","1801","2930","23","Male","false","false","false","true","""event"",""trial"",""time""
""blur"",""3"",""5763""
""focus"",""3"",""7724""
""blur"",""3"",""8292""
""focus"",""3"",""12925""
""fullscreenenter"",""5"",""18791""
""blur"",""37"",""117879""
""focus"",""38"",""119092""
","""event"",""trial"",""time""
""blur"",""3"",""5763""
""blur"",""3"",""8292""
""blur"",""37"",""117879""
","""event"",""trial"",""time""
""focus"",""3"",""7724""
""focus"",""3"",""12925""
""focus"",""38"",""119092""
","""event"",""trial"",""time""
""fullscreenenter"",""5"",""18791""
","
","11","","48","","","3000","1","234","48","images/earth.jpg","images/tutrocket1","images/tutrocket2","null","images/tutrocket1","","1","practice","null","2","","",""
"d3-animate-choice","113","236585","0.0-61.0-1.17","1801","2930","23","Male","false","false","false","true","""event"",""trial"",""time""
""blur"",""3"",""5763""
""focus"",""3"",""7724""
""blur"",""3"",""8292""
""focus"",""3"",""12925""
""fullscreenenter"",""5"",""18791""
""blur"",""37"",""117879""
""focus"",""38"",""119092""
","""event"",""trial"",""time""
""blur"",""3"",""5763""
""blur"",""3"",""8292""
""blur"",""37"",""117879""
","""event"",""trial"",""time""
""focus"",""3"",""7724""
""focus"",""3"",""12925""
""focus"",""38"",""119092""
","""event"",""trial"",""time""
""fullscreenenter"",""5"",""18791""
","
","280","","48","","","3000","1","598,2055","48,48","images/tutgreenplanet.jpg","images/tutalien2","images/tutalien1","images/tutrocket1","images/tutalien2","images/t.png","2","practice","false","2","rare","1","2022-09-16 21:24:05.315"
"two-step-fixation","114","237602","0.0-61.0-2.17","1801","2930","23","Male","false","false","false","true","""event"",""trial"",""time""
""blur"",""3"",""5763""
""focus"",""3"",""7724""
""blur"",""3"",""8292""
""focus"",""3"",""12925""
""fullscreenenter"",""5"",""18791""
""blur"",""37"",""117879""
""focus"",""38"",""119092""
","""event"",""trial"",""time""
""blur"",""3"",""5763""
""blur"",""3"",""8292""
""blur"",""37"",""117879""
","""event"",""trial"",""time""
""focus"",""3"",""7724""
""focus"",""3"",""12925""
""focus"",""38"",""119092""
","""event"",""trial"",""time""
""fullscreenenter"",""5"",""18791""
","
","","images/earth.jpg","","","","","","","","","","","","","","fixation","","","","","",""
"d3-animate-choice","115","239649","0.0-61.0-0.18","1801","2930","23","Male","false","false","false","true","""event"",""trial"",""time""
""blur"",""3"",""5763""
""focus"",""3"",""7724""
""blur"",""3"",""8292""
""focus"",""3"",""12925""
""fullscreenenter"",""5"",""18791""
""blur"",""37"",""117879""
""focus"",""38"",""119092""
","""event"",""trial"",""time""
""blur"",""3"",""5763""
""blur"",""3"",""8292""
""blur"",""37"",""117879""
","""event"",""trial"",""time""
""focus"",""3"",""7724""
""focus"",""3"",""12925""
""focus"",""38"",""119092""
","""event"",""trial"",""time""
""fullscreenenter"",""5"",""18791""
","
","43","","48","","","3000","1","235","48","images/earth.jpg","images/tutrocket1","images/tutrocket2","null","images/tutrocket1","","1","practice","null","2","","",""
"d3-animate-choice","116","242197","0.0-61.0-1.18","1801","2930","23","Male","false","false","false","true","""event"",""trial"",""time""
""blur"",""3"",""5763""
""focus"",""3"",""7724""
""blur"",""3"",""8292""
""focus"",""3"",""12925""
""fullscreenenter"",""5"",""18791""
""blur"",""37"",""117879""
""focus"",""38"",""119092""
","""event"",""trial"",""time""
""blur"",""3"",""5763""
""blur"",""3"",""8292""
""blur"",""37"",""117879""
","""event"",""trial"",""time""
""focus"",""3"",""7724""
""focus"",""3"",""12925""
""focus"",""38"",""119092""
","""event"",""trial"",""time""
""fullscreenenter"",""5"",""18791""
","
","539","","48","","","3000","1","","","images/tutgreenplanet.jpg","images/tutalien2","images/tutalien1","images/tutrocket1","images/tutalien2","images/nothing.png","2","practice","false","2","rare","0","2022-09-16 21:24:10.926"
"two-step-fixation","117","243199","0.0-61.0-2.18","1801","2930","23","Male","false","false","false","true","""event"",""trial"",""time""
""blur"",""3"",""5763""
""focus"",""3"",""7724""
""blur"",""3"",""8292""
""focus"",""3"",""12925""
""fullscreenenter"",""5"",""18791""
""blur"",""37"",""117879""
""focus"",""38"",""119092""
","""event"",""trial"",""time""
""blur"",""3"",""5763""
""blur"",""3"",""8292""
""blur"",""37"",""117879""
","""event"",""trial"",""time""
""focus"",""3"",""7724""
""focus"",""3"",""12925""
""focus"",""38"",""119092""
","""event"",""trial"",""time""
""fullscreenenter"",""5"",""18791""
","
","","images/earth.jpg","","","","","","","","","","","","","","fixation","","","","","",""
"d3-animate-choice","118","245511","0.0-61.0-0.19","1801","2930","23","Male","false","false","false","true","""event"",""trial"",""time""
""blur"",""3"",""5763""
""focus"",""3"",""7724""
""blur"",""3"",""8292""
""focus"",""3"",""12925""
""fullscreenenter"",""5"",""18791""
""blur"",""37"",""117879""
""focus"",""38"",""119092""
","""event"",""trial"",""time""
""blur"",""3"",""5763""
""blur"",""3"",""8292""
""blur"",""37"",""117879""
","""event"",""trial"",""time""
""focus"",""3"",""7724""
""focus"",""3"",""12925""
""focus"",""38"",""119092""
","""event"",""trial"",""time""
""fullscreenenter"",""5"",""18791""
","
","302","","49","","","3000","1","","","images/earth.jpg","images/tutrocket1","images/tutrocket2","null","images/tutrocket2","","1","practice","null","1","","",""
"d3-animate-choice","119","247732","0.0-61.0-1.19","1801","2930","23","Male","false","false","false","true","""event"",""trial"",""time""
""blur"",""3"",""5763""
""focus"",""3"",""7724""
""blur"",""3"",""8292""
""focus"",""3"",""12925""
""fullscreenenter"",""5"",""18791""
""blur"",""37"",""117879""
""focus"",""38"",""119092""
","""event"",""trial"",""time""
""blur"",""3"",""5763""
""blur"",""3"",""8292""
""blur"",""37"",""117879""
","""event"",""trial"",""time""
""focus"",""3"",""7724""
""focus"",""3"",""12925""
""focus"",""38"",""119092""
","""event"",""trial"",""time""
""fullscreenenter"",""5"",""18791""
","
","214","","49","","","3000","1","","","images/tutgreenplanet.jpg","images/tutalien2","images/tutalien1","images/tutrocket2","images/tutalien1","images/t.png","2","practice","true","1","common","1","2022-09-16 21:24:16.461"
"two-step-fixation","120","248747","0.0-61.0-2.19","1801","2930","23","Male","false","false","false","true","""event"",""trial"",""time""
""blur"",""3"",""5763""
""focus"",""3"",""7724""
""blur"",""3"",""8292""
""focus"",""3"",""12925""
""fullscreenenter"",""5"",""18791""
""blur"",""37"",""117879""
""focus"",""38"",""119092""
","""event"",""trial"",""time""
""blur"",""3"",""5763""
""blur"",""3"",""8292""
""blur"",""37"",""117879""
","""event"",""trial"",""time""
""focus"",""3"",""7724""
""focus"",""3"",""12925""
""focus"",""38"",""119092""
","""event"",""trial"",""time""
""fullscreenenter"",""5"",""18791""
","
","","images/earth.jpg","","","","","","","","","","","","","","fixation","","","","","",""
"d3-instructions","121","252208","0.0-62.0","1801","2930","23","Male","false","false","false","true","""event"",""trial"",""time""
""blur"",""3"",""5763""
""focus"",""3"",""7724""
""blur"",""3"",""8292""
""focus"",""3"",""12925""
""fullscreenenter"",""5"",""18791""
""blur"",""37"",""117879""
""focus"",""38"",""119092""
","""event"",""trial"",""time""
""blur"",""3"",""5763""
""blur"",""3"",""8292""
""blur"",""37"",""117879""
","""event"",""trial"",""time""
""focus"",""3"",""7724""
""focus"",""3"",""12925""
""focus"",""38"",""119092""
","""event"",""trial"",""time""
""fullscreenenter"",""5"",""18791""
","
","","","","","","","","","","","","","","","","","","","","","",""
"audio-keyboard-response","122","253104","0.0-63.0","1801","2930","23","Male","false","false","false","true","""event"",""trial"",""time""
""blur"",""3"",""5763""
""focus"",""3"",""7724""
""blur"",""3"",""8292""
""focus"",""3"",""12925""
""fullscreenenter"",""5"",""18791""
""blur"",""37"",""117879""
""focus"",""38"",""119092""
","""event"",""trial"",""time""
""blur"",""3"",""5763""
""blur"",""3"",""8292""
""blur"",""37"",""117879""
","""event"",""trial"",""time""
""focus"",""3"",""7724""
""focus"",""3"",""12925""
""focus"",""38"",""119092""
","""event"",""trial"",""time""
""fullscreenenter"",""5"",""18791""
","
","891","audio/instructions/treasure_feedback.wav","32","","","","","","","","","","","","","","","","","","",""
"d3-instructions","123","254015","0.0-64.0","1801","2930","23","Male","false","false","false","true","""event"",""trial"",""time""
""blur"",""3"",""5763""
""focus"",""3"",""7724""
""blur"",""3"",""8292""
""focus"",""3"",""12925""
""fullscreenenter"",""5"",""18791""
""blur"",""37"",""117879""
""focus"",""38"",""119092""
","""event"",""trial"",""time""
""blur"",""3"",""5763""
""blur"",""3"",""8292""
""blur"",""37"",""117879""
","""event"",""trial"",""time""
""focus"",""3"",""7724""
""focus"",""3"",""12925""
""focus"",""38"",""119092""
","""event"",""trial"",""time""
""fullscreenenter"",""5"",""18791""
","
","","","","","","","","","","","","","","","","","","","","","",""
"d3-instructions","124","254911","0.0-65.0","1801","2930","23","Male","false","false","false","true","""event"",""trial"",""time""
""blur"",""3"",""5763""
""focus"",""3"",""7724""
""blur"",""3"",""8292""
""focus"",""3"",""12925""
""fullscreenenter"",""5"",""18791""
""blur"",""37"",""117879""
""focus"",""38"",""119092""
","""event"",""trial"",""time""
""blur"",""3"",""5763""
""blur"",""3"",""8292""
""blur"",""37"",""117879""
","""event"",""trial"",""time""
""focus"",""3"",""7724""
""focus"",""3"",""12925""
""focus"",""38"",""119092""
","""event"",""trial"",""time""
""fullscreenenter"",""5"",""18791""
","
","","","","","","","","","","","","","","","","","","","","","",""
"d3-instructions","125","255231","0.0-66.0","1801","2930","23","Male","false","false","false","true","""event"",""trial"",""time""
""blur"",""3"",""5763""
""focus"",""3"",""7724""
""blur"",""3"",""8292""
""focus"",""3"",""12925""
""fullscreenenter"",""5"",""18791""
""blur"",""37"",""117879""
""focus"",""38"",""119092""
","""event"",""trial"",""time""
""blur"",""3"",""5763""
""blur"",""3"",""8292""
""blur"",""37"",""117879""
","""event"",""trial"",""time""
""focus"",""3"",""7724""
""focus"",""3"",""12925""
""focus"",""38"",""119092""
","""event"",""trial"",""time""
""fullscreenenter"",""5"",""18791""
","
","","","","","","","","","","","","","","","","","","","","","",""
"d3-instructions","126","255519","0.0-67.0","1801","2930","23","Male","false","false","false","true","""event"",""trial"",""time""
""blur"",""3"",""5763""
""focus"",""3"",""7724""
""blur"",""3"",""8292""
""focus"",""3"",""12925""
""fullscreenenter"",""5"",""18791""
""blur"",""37"",""117879""
""focus"",""38"",""119092""
","""event"",""trial"",""time""
""blur"",""3"",""5763""
""blur"",""3"",""8292""
""blur"",""37"",""117879""
","""event"",""trial"",""time""
""focus"",""3"",""7724""
""focus"",""3"",""12925""
""focus"",""38"",""119092""
","""event"",""trial"",""time""
""fullscreenenter"",""5"",""18791""
","
","","","","","","","","","","","","","","","","","","","","","",""
"d3-instructions","127","255855","0.0-68.0","1801","2930","23","Male","false","false","false","true","""event"",""trial"",""time""
""blur"",""3"",""5763""
""focus"",""3"",""7724""
""blur"",""3"",""8292""
""focus"",""3"",""12925""
""fullscreenenter"",""5"",""18791""
""blur"",""37"",""117879""
""focus"",""38"",""119092""
","""event"",""trial"",""time""
""blur"",""3"",""5763""
""blur"",""3"",""8292""
""blur"",""37"",""117879""
","""event"",""trial"",""time""
""focus"",""3"",""7724""
""focus"",""3"",""12925""
""focus"",""38"",""119092""
","""event"",""trial"",""time""
""fullscreenenter"",""5"",""18791""
","
","","","","","","","","","","","","","","","","","","","","","",""
"instructions-quiz","128","258641","0.0-69.0","1801","2930","23","Male","false","false","false","true","""event"",""trial"",""time""
""blur"",""3"",""5763""
""focus"",""3"",""7724""
""blur"",""3"",""8292""
""focus"",""3"",""12925""
""fullscreenenter"",""5"",""18791""
""blur"",""37"",""117879""
""focus"",""38"",""119092""
","""event"",""trial"",""time""
""blur"",""3"",""5763""
""blur"",""3"",""8292""
""blur"",""37"",""117879""
","""event"",""trial"",""time""
""focus"",""3"",""7724""
""focus"",""3"",""12925""
""focus"",""38"",""119092""
","""event"",""trial"",""time""
""fullscreenenter"",""5"",""18791""
","
","2786","audio/quiz/Q1_Prompt.wav","","1","","","","","","","","","","","","","","","","","",""
"audio-keyboard-response","129","259855","0.0-70.0","1801","2930","23","Male","false","false","false","true","""event"",""trial"",""time""
""blur"",""3"",""5763""
""focus"",""3"",""7724""
""blur"",""3"",""8292""
""focus"",""3"",""12925""
""fullscreenenter"",""5"",""18791""
""blur"",""37"",""117879""
""focus"",""38"",""119092""
","""event"",""trial"",""time""
""blur"",""3"",""5763""
""blur"",""3"",""8292""
""blur"",""37"",""117879""
","""event"",""trial"",""time""
""focus"",""3"",""7724""
""focus"",""3"",""12925""
""focus"",""38"",""119092""
","""event"",""trial"",""time""
""fullscreenenter"",""5"",""18791""
","
","1211","audio/quiz/Q1_Correct.wav","32","","","","","","","","","","","","","","","","","","",""
"instructions-quiz","130","262265","0.0-71.0","1801","2930","23","Male","false","false","false","true","""event"",""trial"",""time""
""blur"",""3"",""5763""
""focus"",""3"",""7724""
""blur"",""3"",""8292""
""focus"",""3"",""12925""
""fullscreenenter"",""5"",""18791""
""blur"",""37"",""117879""
""focus"",""38"",""119092""
","""event"",""trial"",""time""
""blur"",""3"",""5763""
""blur"",""3"",""8292""
""blur"",""37"",""117879""
","""event"",""trial"",""time""
""focus"",""3"",""7724""
""focus"",""3"",""12925""
""focus"",""38"",""119092""
","""event"",""trial"",""time""
""fullscreenenter"",""5"",""18791""
","
","2410","audio/quiz/Q2_Prompt.wav","","0","","","","","","","","","","","","","","","","","",""
"audio-keyboard-response","131","262366","0.0-72.0","1801","2930","23","Male","false","false","false","true","""event"",""trial"",""time""
""blur"",""3"",""5763""
""focus"",""3"",""7724""
""blur"",""3"",""8292""
""focus"",""3"",""12925""
""fullscreenenter"",""5"",""18791""
""blur"",""37"",""117879""
""focus"",""38"",""119092""
","""event"",""trial"",""time""
""blur"",""3"",""5763""
""blur"",""3"",""8292""
""blur"",""37"",""117879""
","""event"",""trial"",""time""
""focus"",""3"",""7724""
""focus"",""3"",""12925""
""focus"",""38"",""119092""
","""event"",""trial"",""time""
""fullscreenenter"",""5"",""18791""
","
","109","audio/quiz/Q2_Correct.wav","32","","","","","","","","","","","","","","","","","","",""
"instructions-quiz","132","263824","0.0-73.0","1801","2930","23","Male","false","false","false","true","""event"",""trial"",""time""
""blur"",""3"",""5763""
""focus"",""3"",""7724""
""blur"",""3"",""8292""
""focus"",""3"",""12925""
""fullscreenenter"",""5"",""18791""
""blur"",""37"",""117879""
""focus"",""38"",""119092""
","""event"",""trial"",""time""
""blur"",""3"",""5763""
""blur"",""3"",""8292""
""blur"",""37"",""117879""
","""event"",""trial"",""time""
""focus"",""3"",""7724""
""focus"",""3"",""12925""
""focus"",""38"",""119092""
","""event"",""trial"",""time""
""fullscreenenter"",""5"",""18791""
","
","1456","audio/quiz/Q3_Prompt.wav","","1","","","","","","","","","","","","","","","","","",""
"audio-keyboard-response","133","263903","0.0-74.0","1801","2930","23","Male","false","false","false","true","""event"",""trial"",""time""
""blur"",""3"",""5763""
""focus"",""3"",""7724""
""blur"",""3"",""8292""
""focus"",""3"",""12925""
""fullscreenenter"",""5"",""18791""
""blur"",""37"",""117879""
""focus"",""38"",""119092""
","""event"",""trial"",""time""
""blur"",""3"",""5763""
""blur"",""3"",""8292""
""blur"",""37"",""117879""
","""event"",""trial"",""time""
""focus"",""3"",""7724""
""focus"",""3"",""12925""
""focus"",""38"",""119092""
","""event"",""trial"",""time""
""fullscreenenter"",""5"",""18791""
","
","80","audio/quiz/Q3_Correct.wav","32","","","","","","","","","","","","","","","","","","",""
"d3-instructions","134","265727","0.0-75.0","1801","2930","23","Male","false","false","false","true","""event"",""trial"",""time""
""blur"",""3"",""5763""
""focus"",""3"",""7724""
""blur"",""3"",""8292""
""focus"",""3"",""12925""
""fullscreenenter"",""5"",""18791""
""blur"",""37"",""117879""
""focus"",""38"",""119092""
","""event"",""trial"",""time""
""blur"",""3"",""5763""
""blur"",""3"",""8292""
""blur"",""37"",""117879""
","""event"",""trial"",""time""
""focus"",""3"",""7724""
""focus"",""3"",""12925""
""focus"",""38"",""119092""
","""event"",""trial"",""time""
""fullscreenenter"",""5"",""18791""
","
","","","","","","","","","","","","","","","","","","","","","",""
"d3-animate-choice","135","269138","0.0-76.0-0.0","1801","2930","23","Male","false","false","false","true","""event"",""trial"",""time""
""blur"",""3"",""5763""
""focus"",""3"",""7724""
""blur"",""3"",""8292""
""focus"",""3"",""12925""
""fullscreenenter"",""5"",""18791""
""blur"",""37"",""117879""
""focus"",""38"",""119092""
