"trial_type","trial_index","time_elapsed","internal_node_id","participant_id","subject_id","age","gender","rocket_sides","red_planet_first_rocket","red_display_order","purple_display_order","interactions","blur_events","focus_events","fullscreenenter_events","fullscreenexit_events","rt","stimulus","key_press","button_pressed","success","duration","valid_pressed","rts","keys","planet_text","right_text","left_text","center_text","chosen_text","reward_text","trial_stage","practice_trial","transition_type","choice","transition","reward","timestamp"
"pavlovia","0","5","0.0-0.0","474","6189","20","Female","false","true","false","true","
","
","
","
","
","","","","","","","","","","","","","","","","","","","","","",""
"html-keyboard-response","1","1014","0.0-1.0","474","6189","20","Female","false","true","false","true","
","
","
","
","
","1007.5999999046326","Welcome! Press the space bar to begin.","32","","","","","","","","","","","","","","","","","","",""
"audio-keyboard-response","2","2375","0.0-2.0","474","6189","20","Female","false","true","false","true","
","
","
","
","
","1344","audio/beep_loop.wav","32","","","","","","","","","","","","","","","","","","",""
"audio-button-response","3","3875","0.0-3.0","474","6189","20","Female","false","true","false","true","
","
","
","
","
","NaN","audio/fish.mp3","","1","","","","","","","","","","","","","","","","","",""
"audio-button-response","4","6535","0.0-4.0","474","6189","20","Female","false","true","false","true","""event"",""trial"",""time""
""fullscreenenter"",""5"",""8998""
","
","
","""event"",""trial"",""time""
""fullscreenenter"",""5"",""8998""
","
","NaN","audio/tiger.mp3","","4","","","","","","","","","","","","","","","","","",""
"fullscreen","5","9916","0.0-5.0","474","6189","20","Female","false","true","false","true","""event"",""trial"",""time""
""fullscreenenter"",""5"",""8998""
","
","
","""event"",""trial"",""time""
""fullscreenenter"",""5"",""8998""
","
","","","","","true","","","","","","","","","","","","","","","","",""
"d3-instructions","6","21986","0.0-6.0","474","6189","20","Female","false","true","false","true","""event"",""trial"",""time""
""fullscreenenter"",""5"",""8998""
","
","
","""event"",""trial"",""time""
""fullscreenenter"",""5"",""8998""
","
","","","","","","","","","","","","","","","","","","","","","",""
"d3-instructions","7","27351","0.0-7.0","474","6189","20","Female","false","true","false","true","""event"",""trial"",""time""
""fullscreenenter"",""5"",""8998""
","
","
","""event"",""trial"",""time""
""fullscreenenter"",""5"",""8998""
","
","","","","","","","","","","","","","","","","","","","","","",""
"d3-instructions","8","28462","0.0-8.0","474","6189","20","Female","false","true","false","true","""event"",""trial"",""time""
""fullscreenenter"",""5"",""8998""
","
","
","""event"",""trial"",""time""
""fullscreenenter"",""5"",""8998""
","
","","","","","","","","","","","","","","","","","","","","","",""
"d3-instructions","9","31326","0.0-9.0","474","6189","20","Female","false","true","false","true","""event"",""trial"",""time""
""fullscreenenter"",""5"",""8998""
","
","
","""event"",""trial"",""time""
""fullscreenenter"",""5"",""8998""
","
","","","","","","","","","","","","","","","","","","","","","",""
"d3-instructions","10","39823","0.0-10.0","474","6189","20","Female","false","true","false","true","""event"",""trial"",""time""
""fullscreenenter"",""5"",""8998""
","
","
","""event"",""trial"",""time""
""fullscreenenter"",""5"",""8998""
","
","","","","","","","","","","","","","","","","","","","","","",""
"d3-animate-choice","11","42746","0.0-11.0","474","6189","20","Female","false","true","false","true","""event"",""trial"",""time""
""fullscreenenter"",""5"",""8998""
","
","
","""event"",""trial"",""time""
""fullscreenenter"",""5"",""8998""
","
","889.1000003814697","","49","","","3000","1","","","images/tutgreenplanet.jpg","images/tutalien1","images/tutalien2","null","images/tutalien2","","NA","practice","null","","","",""
"d3-animate-choice","12","46103","0.0-12.0","474","6189","20","Female","false","true","false","true","""event"",""trial"",""time""
""fullscreenenter"",""5"",""8998""
","
","
","""event"",""trial"",""time""
""fullscreenenter"",""5"",""8998""
","
","1352.8000001907349","","48","","","3000","1","","","images/tutgreenplanet.jpg","images/tutalien1","images/tutalien2","null","images/tutalien1","","NA","practice","null","","","",""
"d3-animate-choice","13","50437","0.0-13.0","474","6189","20","Female","false","true","false","true","""event"",""trial"",""time""
""fullscreenenter"",""5"",""8998""
","
","
","""event"",""trial"",""time""
""fullscreenenter"",""5"",""8998""
","
","2319.9000000953674","","49","","","3000","1","","","images/tutgreenplanet.jpg","images/tutalien1","images/tutalien2","null","images/tutalien2","","NA","practice","null","","","",""
"d3-animate-choice","14","53595","0.0-14.0","474","6189","20","Female","false","true","false","true","""event"",""trial"",""time""
""fullscreenenter"",""5"",""8998""
","
","
","""event"",""trial"",""time""
""fullscreenenter"",""5"",""8998""
","
","1145.8999996185303","","48","","","3000","1","","","images/tutgreenplanet.jpg","images/tutalien1","images/tutalien2","null","images/tutalien1","","NA","practice","null","","","",""
"d3-instructions","15","57789","0.0-15.0","474","6189","20","Female","false","true","false","true","""event"",""trial"",""time""
""fullscreenenter"",""5"",""8998""
","
","
","""event"",""trial"",""time""
""fullscreenenter"",""5"",""8998""
","
","","","","","","","","","","","","","","","","","","","","","",""
"d3-instructions","16","59682","0.0-16.0","474","6189","20","Female","false","true","false","true","""event"",""trial"",""time""
""fullscreenenter"",""5"",""8998""
","
","
","""event"",""trial"",""time""
""fullscreenenter"",""5"",""8998""
","
","","","","","","","","","","","","","","","","","","","","","",""
"d3-instructions","17","63616","0.0-17.0","474","6189","20","Female","false","true","false","true","""event"",""trial"",""time""
""fullscreenenter"",""5"",""8998""
","
","
","""event"",""trial"",""time""
""fullscreenenter"",""5"",""8998""
","
","","","","","","","","","","","","","","","","","","","","","",""
"d3-instructions","18","71226","0.0-18.0","474","6189","20","Female","false","true","false","true","""event"",""trial"",""time""
""fullscreenenter"",""5"",""8998""
","
","
","""event"",""trial"",""time""
""fullscreenenter"",""5"",""8998""
","
","","","","","","","","","","","","","","","","","","","","","",""
"d3-instructions","19","79019","0.0-19.0","474","6189","20","Female","false","true","false","true","""event"",""trial"",""time""
""fullscreenenter"",""5"",""8998""
","
","
","""event"",""trial"",""time""
""fullscreenenter"",""5"",""8998""
","
","","","","","","","","","","","","","","","","","","","","","",""
"d3-animate-choice","20","81760","0.0-20.0","474","6189","20","Female","false","true","false","true","""event"",""trial"",""time""
""fullscreenenter"",""5"",""8998""
","
","
","""event"",""trial"",""time""
""fullscreenenter"",""5"",""8998""
","
","734.9000000953674","","49","","","3000","1","","","images/tutyellowplanet.jpg","null","images/tutalien3","null","images/tutalien3","images/t.png","NA","practice","null","","","",""
"d3-animate-choice","21","84102","0.0-21.0","474","6189","20","Female","false","true","false","true","""event"",""trial"",""time""
""fullscreenenter"",""5"",""8998""
","
","
","""event"",""trial"",""time""
""fullscreenenter"",""5"",""8998""
","
","337.2000002861023","","49","","","3000","1","","","images/tutyellowplanet.jpg","null","images/tutalien3","null","images/tutalien3","images/t.png","NA","practice","null","","","",""
"d3-animate-choice","22","86391","0.0-22.0","474","6189","20","Female","false","true","false","true","""event"",""trial"",""time""
""fullscreenenter"",""5"",""8998""
","
","
","""event"",""trial"",""time""
""fullscreenenter"",""5"",""8998""
","
","285.7999997138977","","49","","","3000","1","","","images/tutyellowplanet.jpg","null","images/tutalien3","null","images/tutalien3","images/nothing.png","NA","practice","null","","","",""
"d3-animate-choice","23","88725","0.0-23.0","474","6189","20","Female","false","true","false","true","""event"",""trial"",""time""
""fullscreenenter"",""5"",""8998""
","
","
","""event"",""trial"",""time""
""fullscreenenter"",""5"",""8998""
","
","330.7999997138977","","49","","","3000","1","","","images/tutyellowplanet.jpg","null","images/tutalien3","null","images/tutalien3","images/t.png","NA","practice","null","","","",""
"d3-animate-choice","24","91053","0.0-24.0","474","6189","20","Female","false","true","false","true","""event"",""trial"",""time""
""fullscreenenter"",""5"",""8998""
","
","
","""event"",""trial"",""time""
""fullscreenenter"",""5"",""8998""
","
","322.40000009536743","","49","","","3000","1","","","images/tutyellowplanet.jpg","null","images/tutalien3","null","images/tutalien3","images/t.png","NA","practice","null","","","",""
"d3-animate-choice","25","93368","0.0-25.0","474","6189","20","Female","false","true","false","true","""event"",""trial"",""time""
""fullscreenenter"",""5"",""8998""
","
","
","""event"",""trial"",""time""
""fullscreenenter"",""5"",""8998""
","
","312.40000009536743","","49","","","3000","1","","","images/tutyellowplanet.jpg","null","images/tutalien3","null","images/tutalien3","images/t.png","NA","practice","null","","","",""
"d3-animate-choice","26","95649","0.0-26.0","474","6189","20","Female","false","true","false","true","""event"",""trial"",""time""
""fullscreenenter"",""5"",""8998""
","
","
","""event"",""trial"",""time""
""fullscreenenter"",""5"",""8998""
","
","278.40000009536743","","49","","","3000","1","","","images/tutyellowplanet.jpg","null","images/tutalien3","null","images/tutalien3","images/nothing.png","NA","practice","null","","","",""
"d3-animate-choice","27","98074","0.0-27.0","474","6189","20","Female","false","true","false","true","""event"",""trial"",""time""
""fullscreenenter"",""5"",""8998""
","
","
","""event"",""trial"",""time""
""fullscreenenter"",""5"",""8998""
","
","422.5","","49","","","3000","1","1912.7000002861023","49","images/tutyellowplanet.jpg","null","images/tutalien3","null","images/tutalien3","images/t.png","NA","practice","null","","","",""
"d3-animate-choice","28","100384","0.0-28.0","474","6189","20","Female","false","true","false","true","""event"",""trial"",""time""
""fullscreenenter"",""5"",""8998""
","
","
","""event"",""trial"",""time""
""fullscreenenter"",""5"",""8998""
","
","301.7000002861023","","49","","","3000","1","","","images/tutyellowplanet.jpg","null","images/tutalien3","null","images/tutalien3","images/t.png","NA","practice","null","","","",""
"d3-animate-choice","29","102834","0.0-29.0","474","6189","20","Female","false","true","false","true","""event"",""trial"",""time""
""fullscreenenter"",""5"",""8998""
","
","
","""event"",""trial"",""time""
""fullscreenenter"",""5"",""8998""
","
","444.69999980926514","","49","","","3000","1","","","images/tutyellowplanet.jpg","null","images/tutalien3","null","images/tutalien3","images/t.png","NA","practice","null","","","",""
"d3-instructions","30","105209","0.0-30.0","474","6189","20","Female","false","true","false","true","""event"",""trial"",""time""
""fullscreenenter"",""5"",""8998""
","
","
","""event"",""trial"",""time""
""fullscreenenter"",""5"",""8998""
","
","","","","","","","","","","","","","","","","","","","","","",""
"d3-instructions","31","108737","0.0-31.0","474","6189","20","Female","false","true","false","true","""event"",""trial"",""time""
""fullscreenenter"",""5"",""8998""
","
","
","""event"",""trial"",""time""
""fullscreenenter"",""5"",""8998""
","
","","","","","","","","","","","","","","","","","","","","","",""
"d3-instructions","32","111543","0.0-32.0","474","6189","20","Female","false","true","false","true","""event"",""trial"",""time""
""fullscreenenter"",""5"",""8998""
","
","
","""event"",""trial"",""time""
""fullscreenenter"",""5"",""8998""
","
","","","","","","","","","","","","","","","","","","","","","",""
"d3-instructions","33","113274","0.0-33.0","474","6189","20","Female","false","true","false","true","""event"",""trial"",""time""
""fullscreenenter"",""5"",""8998""
","
","
","""event"",""trial"",""time""
""fullscreenenter"",""5"",""8998""
","
","","","","","","","","","","","","","","","","","","","","","",""
"d3-animate-choice","34","116037","0.0-34.0","474","6189","20","Female","false","true","false","true","""event"",""trial"",""time""
""fullscreenenter"",""5"",""8998""
","
","
","""event"",""trial"",""time""
""fullscreenenter"",""5"",""8998""
","
","751.9000000953674","","49","","","3000","1","","","images/tutgreenplanet.jpg","images/tutalien1","images/tutalien2","null","images/tutalien2","images/t.png","NA","practice","null","","","",""
"d3-animate-choice","35","119039","0.0-35.0","474","6189","20","Female","false","true","false","true","""event"",""trial"",""time""
""fullscreenenter"",""5"",""8998""
","
","
","""event"",""trial"",""time""
""fullscreenenter"",""5"",""8998""
","
","998.1999998092651","","49","","","3000","1","","","images/tutgreenplanet.jpg","images/tutalien1","images/tutalien2","null","images/tutalien2","images/t.png","NA","practice","null","","","",""
"d3-animate-choice","36","121620","0.0-36.0","474","6189","20","Female","false","true","false","true","""event"",""trial"",""time""
""fullscreenenter"",""5"",""8998""
","
","
","""event"",""trial"",""time""
""fullscreenenter"",""5"",""8998""
","
","576.0999999046326","","49","","","3000","1","","","images/tutgreenplanet.jpg","images/tutalien1","images/tutalien2","null","images/tutalien2","images/t.png","NA","practice","null","","","",""
"d3-animate-choice","37","124036","0.0-37.0","474","6189","20","Female","false","true","false","true","""event"",""trial"",""time""
""fullscreenenter"",""5"",""8998""
","
","
","""event"",""trial"",""time""
""fullscreenenter"",""5"",""8998""
","
","412.59999990463257","","49","","","3000","1","","","images/tutgreenplanet.jpg","images/tutalien1","images/tutalien2","null","images/tutalien2","images/t.png","NA","practice","null","","","",""
"d3-animate-choice","38","126339","0.0-38.0","474","6189","20","Female","false","true","false","true","""event"",""trial"",""time""
""fullscreenenter"",""5"",""8998""
","
","
","""event"",""trial"",""time""
""fullscreenenter"",""5"",""8998""
","
","299.80000019073486","","49","","","3000","1","","","images/tutgreenplanet.jpg","images/tutalien1","images/tutalien2","null","images/tutalien2","images/t.png","NA","practice","null","","","",""
"d3-animate-choice","39","128644","0.0-39.0","474","6189","20","Female","false","true","false","true","""event"",""trial"",""time""
""fullscreenenter"",""5"",""8998""
","
","
","""event"",""trial"",""time""
""fullscreenenter"",""5"",""8998""
","
","302","","49","","","3000","1","","","images/tutgreenplanet.jpg","images/tutalien1","images/tutalien2","null","images/tutalien2","images/nothing.png","NA","practice","null","","","",""
"d3-animate-choice","40","130948","0.0-40.0","474","6189","20","Female","false","true","false","true","""event"",""trial"",""time""
""fullscreenenter"",""5"",""8998""
","
","
","""event"",""trial"",""time""
""fullscreenenter"",""5"",""8998""
","
","301.90000009536743","","49","","","3000","1","","","images/tutgreenplanet.jpg","images/tutalien1","images/tutalien2","null","images/tutalien2","images/t.png","NA","practice","null","","","",""
"d3-animate-choice","41","133274","0.0-41.0","474","6189","20","Female","false","true","false","true","""event"",""trial"",""time""
""fullscreenenter"",""5"",""8998""
","
","
","""event"",""trial"",""time""
""fullscreenenter"",""5"",""8998""
","
","320.2000002861023","","49","","","3000","1","","","images/tutgreenplanet.jpg","images/tutalien1","images/tutalien2","null","images/tutalien2","images/t.png","NA","practice","null","","","",""
"d3-animate-choice","42","135595","0.0-42.0","474","6189","20","Female","false","true","false","true","""event"",""trial"",""time""
""fullscreenenter"",""5"",""8998""
","
","
","""event"",""trial"",""time""
""fullscreenenter"",""5"",""8998""
","
","317.2999997138977","","49","","","3000","1","","","images/tutgreenplanet.jpg","images/tutalien1","images/tutalien2","null","images/tutalien2","images/nothing.png","NA","practice","null","","","",""
"d3-animate-choice","43","137961","0.0-43.0","474","6189","20","Female","false","true","false","true","""event"",""trial"",""time""
""fullscreenenter"",""5"",""8998""
","
","
","""event"",""trial"",""time""
""fullscreenenter"",""5"",""8998""
","
","362.2000002861023","","49","","","3000","1","","","images/tutgreenplanet.jpg","images/tutalien1","images/tutalien2","null","images/tutalien2","images/t.png","NA","practice","null","","","",""
"d3-instructions","44","140923","0.0-44.0","474","6189","20","Female","false","true","false","true","""event"",""trial"",""time""
""fullscreenenter"",""5"",""8998""
","
","
","""event"",""trial"",""time""
""fullscreenenter"",""5"",""8998""
","
","","","","","","","","","","","","","","","","","","","","","",""
"d3-instructions","45","142853","0.0-45.0","474","6189","20","Female","false","true","false","true","""event"",""trial"",""time""
""fullscreenenter"",""5"",""8998""
","
","
","""event"",""trial"",""time""
""fullscreenenter"",""5"",""8998""
","
","","","","","","","","","","","","","","","","","","","","","",""
"d3-instructions","46","144171","0.0-46.0","474","6189","20","Female","false","true","false","true","""event"",""trial"",""time""
""fullscreenenter"",""5"",""8998""
","
","
","""event"",""trial"",""time""
""fullscreenenter"",""5"",""8998""
","
","","","","","","","","","","","","","","","","","","","","","",""
"d3-instructions","47","147096","0.0-47.0","474","6189","20","Female","false","true","false","true","""event"",""trial"",""time""
""fullscreenenter"",""5"",""8998""
","
","
","""event"",""trial"",""time""
""fullscreenenter"",""5"",""8998""
","
","","","","","","","","","","","","","","","","","","","","","",""
"d3-instructions","48","148651","0.0-48.0","474","6189","20","Female","false","true","false","true","""event"",""trial"",""time""
""fullscreenenter"",""5"",""8998""
","
","
","""event"",""trial"",""time""
""fullscreenenter"",""5"",""8998""
","
","","","","","","","","","","","","","","","","","","","","","",""
"d3-instructions","49","150709","0.0-49.0","474","6189","20","Female","false","true","false","true","""event"",""trial"",""time""
""fullscreenenter"",""5"",""8998""
","
","
","""event"",""trial"",""time""
""fullscreenenter"",""5"",""8998""
","
","","","","","","","","","","","","","","","","","","","","","",""
"d3-instructions","50","152117","0.0-50.0","474","6189","20","Female","false","true","false","true","""event"",""trial"",""time""
""fullscreenenter"",""5"",""8998""
","
","
","""event"",""trial"",""time""
""fullscreenenter"",""5"",""8998""
","
","","","","","","","","","","","","","","","","","","","","","",""
"d3-instructions","51","155599","0.0-51.0","474","6189","20","Female","false","true","false","true","""event"",""trial"",""time""
""fullscreenenter"",""5"",""8998""
","
","
","""event"",""trial"",""time""
""fullscreenenter"",""5"",""8998""
","
","","","","","","","","","","","","","","","","","","","","","",""
"d3-instructions","52","156745","0.0-52.0","474","6189","20","Female","false","true","false","true","""event"",""trial"",""time""
""fullscreenenter"",""5"",""8998""
","
","
","""event"",""trial"",""time""
""fullscreenenter"",""5"",""8998""
","
","","","","","","","","","","","","","","","","","","","","","",""
"d3-instructions","53","159086","0.0-53.0","474","6189","20","Female","false","true","false","true","""event"",""trial"",""time""
""fullscreenenter"",""5"",""8998""
","
","
","""event"",""trial"",""time""
""fullscreenenter"",""5"",""8998""
","
","","","","","","","","","","","","","","","","","","","","","",""
"d3-instructions","54","160967","0.0-54.0","474","6189","20","Female","false","true","false","true","""event"",""trial"",""time""
""fullscreenenter"",""5"",""8998""
","
","
","""event"",""trial"",""time""
""fullscreenenter"",""5"",""8998""
","
","","","","","","","","","","","","","","","","","","","","","",""
"d3-instructions","55","163573","0.0-55.0","474","6189","20","Female","false","true","false","true","""event"",""trial"",""time""
""fullscreenenter"",""5"",""8998""
","
","
","""event"",""trial"",""time""
""fullscreenenter"",""5"",""8998""
","
","","","","","","","","","","","","","","","","","","","","","",""
"d3-instructions","56","164903","0.0-56.0","474","6189","20","Female","false","true","false","true","""event"",""trial"",""time""
""fullscreenenter"",""5"",""8998""
","
","
","""event"",""trial"",""time""
""fullscreenenter"",""5"",""8998""
","
","","","","","","","","","","","","","","","","","","","","","",""
"d3-instructions","57","166695","0.0-57.0","474","6189","20","Female","false","true","false","true","""event"",""trial"",""time""
""fullscreenenter"",""5"",""8998""
","
","
","""event"",""trial"",""time""
""fullscreenenter"",""5"",""8998""
","
","","","","","","","","","","","","","","","","","","","","","",""
"d3-instructions","58","168350","0.0-58.0","474","6189","20","Female","false","true","false","true","""event"",""trial"",""time""
""fullscreenenter"",""5"",""8998""
","
","
","""event"",""trial"",""time""
""fullscreenenter"",""5"",""8998""
","
","","","","","","","","","","","","","","","","","","","","","",""
"d3-instructions","59","169694","0.0-59.0","474","6189","20","Female","false","true","false","true","""event"",""trial"",""time""
""fullscreenenter"",""5"",""8998""
","
","
","""event"",""trial"",""time""
""fullscreenenter"",""5"",""8998""
","
","","","","","","","","","","","","","","","","","","","","","",""
"d3-instructions","60","170950","0.0-60.0","474","6189","20","Female","false","true","false","true","""event"",""trial"",""time""
""fullscreenenter"",""5"",""8998""
","
","
","""event"",""trial"",""time""
""fullscreenenter"",""5"",""8998""
","
","","","","","","","","","","","","","","","","","","","","","",""
"d3-animate-choice","61","173869","0.0-61.0-0.0","474","6189","20","Female","false","true","false","true","""event"",""trial"",""time""
""fullscreenenter"",""5"",""8998""
","
","
","""event"",""trial"",""time""
""fullscreenenter"",""5"",""8998""
","
","903.6999998092651","","49","","","3000","1","","","images/earth.jpg","images/tutrocket1","images/tutrocket2","null","images/tutrocket2","","1","practice","null","1","","",""
"d3-animate-choice","62","176807","0.0-61.0-1.0","474","6189","20","Female","false","true","false","true","""event"",""trial"",""time""
""fullscreenenter"",""5"",""8998""
","
","
","""event"",""trial"",""time""
""fullscreenenter"",""5"",""8998""
","
","912.4000000953674","","49","","","3000","1","","","images/tutyellowplanet.jpg","images/tutalien4","images/tutalien3","images/tutrocket2","images/tutalien3","images/nothing.png","2","practice","true","1","common","0","2023-02-05 03:12:34.011"
"two-step-fixation","63","177824","0.0-61.0-2.0","474","6189","20","Female","false","true","false","true","""event"",""trial"",""time""
""fullscreenenter"",""5"",""8998""
","
","
","""event"",""trial"",""time""
""fullscreenenter"",""5"",""8998""
","
","","images/earth.jpg","","","","","","","","","","","","","","fixation","","","","","",""
"d3-animate-choice","64","180272","0.0-61.0-0.1","474","6189","20","Female","false","true","false","true","""event"",""trial"",""time""
""fullscreenenter"",""5"",""8998""
","
","
","""event"",""trial"",""time""
""fullscreenenter"",""5"",""8998""
","
","439.2000002861023","","48","","","3000","1","","","images/earth.jpg","images/tutrocket1","images/tutrocket2","null","images/tutrocket1","","1","practice","null","2","","",""
"d3-animate-choice","65","182710","0.0-61.0-1.1","474","6189","20","Female","false","true","false","true","""event"",""trial"",""time""
""fullscreenenter"",""5"",""8998""
","
","
","""event"",""trial"",""time""
""fullscreenenter"",""5"",""8998""
","
","432.59999990463257","","48","","","3000","1","","","images/tutyellowplanet.jpg","images/tutalien4","images/tutalien3","images/tutrocket1","images/tutalien4","images/t.png","2","practice","false","2","rare","1","2023-02-05 03:12:39.912"
"two-step-fixation","66","183714","0.0-61.0-2.1","474","6189","20","Female","false","true","false","true","""event"",""trial"",""time""
""fullscreenenter"",""5"",""8998""
","
","
","""event"",""trial"",""time""
""fullscreenenter"",""5"",""8998""
","
","","images/earth.jpg","","","","","","","","","","","","","","fixation","","","","","",""
"d3-animate-choice","67","186119","0.0-61.0-0.2","474","6189","20","Female","false","true","false","true","""event"",""trial"",""time""
""fullscreenenter"",""5"",""8998""
","
","
","""event"",""trial"",""time""
""fullscreenenter"",""5"",""8998""
","
","398.5","","48","","","3000","1","","","images/earth.jpg","images/tutrocket1","images/tutrocket2","null","images/tutrocket1","","1","practice","null","2","","",""
"d3-animate-choice","68","188758","0.0-61.0-1.2","474","6189","20","Female","false","true","false","true","""event"",""trial"",""time""
""fullscreenenter"",""5"",""8998""
","
","
","""event"",""trial"",""time""
""fullscreenenter"",""5"",""8998""
","
","633.6000003814697","","48","","","3000","1","","","images/tutgreenplanet.jpg","images/tutalien2","images/tutalien1","images/tutrocket1","images/tutalien2","images/t.png","2","practice","true","2","common","1","2023-02-05 03:12:45.960"
"two-step-fixation","69","189762","0.0-61.0-2.2","474","6189","20","Female","false","true","false","true","""event"",""trial"",""time""
""fullscreenenter"",""5"",""8998""
","
","
","""event"",""trial"",""time""
""fullscreenenter"",""5"",""8998""
","
","","images/earth.jpg","","","","","","","","","","","","","","fixation","","","","","",""
"d3-animate-choice","70","192089","0.0-61.0-0.3","474","6189","20","Female","false","true","false","true","""event"",""trial"",""time""
""fullscreenenter"",""5"",""8998""
","
","
","""event"",""trial"",""time""
""fullscreenenter"",""5"",""8998""
","
","320.80000019073486","","48","","","3000","1","","","images/earth.jpg","images/tutrocket1","images/tutrocket2","null","images/tutrocket1","","1","practice","null","2","","",""
"d3-animate-choice","71","194512","0.0-61.0-1.3","474","6189","20","Female","false","true","false","true","""event"",""trial"",""time""
""fullscreenenter"",""5"",""8998""
","
","
","""event"",""trial"",""time""
""fullscreenenter"",""5"",""8998""
","
","418.8999996185303","","48","","","3000","1","","","images/tutyellowplanet.jpg","images/tutalien4","images/tutalien3","images/tutrocket1","images/tutalien4","images/t.png","2","practice","false","2","rare","1","2023-02-05 03:12:51.714"
"two-step-fixation","72","195516","0.0-61.0-2.3","474","6189","20","Female","false","true","false","true","""event"",""trial"",""time""
""fullscreenenter"",""5"",""8998""
","
","
","""event"",""trial"",""time""
""fullscreenenter"",""5"",""8998""
","
","","images/earth.jpg","","","","","","","","","","","","","","fixation","","","","","",""
"d3-animate-choice","73","197870","0.0-61.0-0.4","474","6189","20","Female","false","true","false","true","""event"",""trial"",""time""
""fullscreenenter"",""5"",""8998""
","
","
","""event"",""trial"",""time""
""fullscreenenter"",""5"",""8998""
","
","350.19999980926514","","48","","","3000","1","","","images/earth.jpg","images/tutrocket1","images/tutrocket2","null","images/tutrocket1","","1","practice","null","2","","",""
"d3-animate-choice","74","200290","0.0-61.0-1.4","474","6189","20","Female","false","true","false","true","""event"",""trial"",""time""
""fullscreenenter"",""5"",""8998""
","
","
","""event"",""trial"",""time""
""fullscreenenter"",""5"",""8998""
","
","412.5","","48","","","3000","1","","","images/tutgreenplanet.jpg","images/tutalien2","images/tutalien1","images/tutrocket1","images/tutalien2","images/nothing.png","2","practice","true","2","common","0","2023-02-05 03:12:57.492"
"two-step-fixation","75","201295","0.0-61.0-2.4","474","6189","20","Female","false","true","false","true","""event"",""trial"",""time""
""fullscreenenter"",""5"",""8998""
","
","
","""event"",""trial"",""time""
""fullscreenenter"",""5"",""8998""
","
","","images/earth.jpg","","","","","","","","","","","","","","fixation","","","","","",""
"d3-animate-choice","76","203690","0.0-61.0-0.5","474","6189","20","Female","false","true","false","true","""event"",""trial"",""time""
""fullscreenenter"",""5"",""8998""
","
","
","""event"",""trial"",""time""
""fullscreenenter"",""5"",""8998""
","
","388.30000019073486","","49","","","3000","1","","","images/earth.jpg","images/tutrocket1","images/tutrocket2","null","images/tutrocket2","","1","practice","null","1","","",""
"d3-animate-choice","77","206053","0.0-61.0-1.5","474","6189","20","Female","false","true","false","true","""event"",""trial"",""time""
""fullscreenenter"",""5"",""8998""
","
","
","""event"",""trial"",""time""
""fullscreenenter"",""5"",""8998""
","
","357.69999980926514","","48","","","3000","1","","","images/tutyellowplanet.jpg","images/tutalien4","images/tutalien3","images/tutrocket2","images/tutalien4","images/t.png","2","practice","true","2","common","1","2023-02-05 03:13:03.255"
"two-step-fixation","78","207060","0.0-61.0-2.5","474","6189","20","Female","false","true","false","true","""event"",""trial"",""time""
""fullscreenenter"",""5"",""8998""
","
","
","""event"",""trial"",""time""
""fullscreenenter"",""5"",""8998""
","
","","images/earth.jpg","","","","","","","","","","","","","","fixation","","","","","",""
"d3-animate-choice","79","209615","0.0-61.0-0.6","474","6189","20","Female","false","true","false","true","""event"",""trial"",""time""
""fullscreenenter"",""5"",""8998""
","
","
","""event"",""trial"",""time""
""fullscreenenter"",""5"",""8998""
","
","546.8999996185303","","49","","","3000","1","","","images/earth.jpg","images/tutrocket1","images/tutrocket2","null","images/tutrocket2","","1","practice","null","1","","",""
"d3-animate-choice","80","211989","0.0-61.0-1.6","474","6189","20","Female","false","true","false","true","""event"",""trial"",""time""
""fullscreenenter"",""5"",""8998""
","
","
","""event"",""trial"",""time""
""fullscreenenter"",""5"",""8998""
","
","368.30000019073486","","48","","","3000","1","","","images/tutyellowplanet.jpg","images/tutalien4","images/tutalien3","images/tutrocket2","images/tutalien4","images/t.png","2","practice","true","2","common","1","2023-02-05 03:13:09.191"
"two-step-fixation","81","212993","0.0-61.0-2.6","474","6189","20","Female","false","true","false","true","""event"",""trial"",""time""
""fullscreenenter"",""5"",""8998""
","
","
","""event"",""trial"",""time""
""fullscreenenter"",""5"",""8998""
","
","","images/earth.jpg","","","","","","","","","","","","","","fixation","","","","","",""
"d3-animate-choice","82","215317","0.0-61.0-0.7","474","6189","20","Female","false","true","false","true","""event"",""trial"",""time""
""fullscreenenter"",""5"",""8998""
","
","
","""event"",""trial"",""time""
""fullscreenenter"",""5"",""8998""
","
","318.59999990463257","","49","","","3000","1","","","images/earth.jpg","images/tutrocket1","images/tutrocket2","null","images/tutrocket2","","1","practice","null","1","","",""
"d3-animate-choice","83","217647","0.0-61.0-1.7","474","6189","20","Female","false","true","false","true","""event"",""trial"",""time""
""fullscreenenter"",""5"",""8998""
","
","
","""event"",""trial"",""time""
""fullscreenenter"",""5"",""8998""
","
","326.90000009536743","","48","","","3000","1","","","images/tutyellowplanet.jpg","images/tutalien4","images/tutalien3","images/tutrocket2","images/tutalien4","images/nothing.png","2","practice","true","2","common","0","2023-02-05 03:13:14.849"
"two-step-fixation","84","218653","0.0-61.0-2.7","474","6189","20","Female","false","true","false","true","""event"",""trial"",""time""
""fullscreenenter"",""5"",""8998""
","
","
","""event"",""trial"",""time""
""fullscreenenter"",""5"",""8998""
","
","","images/earth.jpg","","","","","","","","","","","","","","fixation","","","","","",""
"d3-animate-choice","85","220986","0.0-61.0-0.8","474","6189","20","Female","false","true","false","true","""event"",""trial"",""time""
""fullscreenenter"",""5"",""8998""
","
","
","""event"",""trial"",""time""
""fullscreenenter"",""5"",""8998""
","
","325.5","","49","","","3000","1","","","images/earth.jpg","images/tutrocket1","images/tutrocket2","null","images/tutrocket2","","1","practice","null","1","","",""
"d3-animate-choice","86","223880","0.0-61.0-1.8","474","6189","20","Female","false","true","false","true","""event"",""trial"",""time""
""fullscreenenter"",""5"",""8998""
","
","
","""event"",""trial"",""time""
""fullscreenenter"",""5"",""8998""
","
","889.3000001907349","","49","","","3000","1","","","images/tutgreenplanet.jpg","images/tutalien2","images/tutalien1","images/tutrocket2","images/tutalien1","images/nothing.png","2","practice","false","1","rare","0","2023-02-05 03:13:21.082"
"two-step-fixation","87","224885","0.0-61.0-2.8","474","6189","20","Female","false","true","false","true","""event"",""trial"",""time""
""fullscreenenter"",""5"",""8998""
","
","
","""event"",""trial"",""time""
""fullscreenenter"",""5"",""8998""
","
","","images/earth.jpg","","","","","","","","","","","","","","fixation","","","","","",""
"d3-animate-choice","88","227208","0.0-61.0-0.9","474","6189","20","Female","false","true","false","true","""event"",""trial"",""time""
""fullscreenenter"",""5"",""8998""
","
","
","""event"",""trial"",""time""
""fullscreenenter"",""5"",""8998""
","
","320.3999996185303","","49","","","3000","1","","","images/earth.jpg","images/tutrocket1","images/tutrocket2","null","images/tutrocket2","","1","practice","null","1","","",""
"d3-animate-choice","89","229589","0.0-61.0-1.9","474","6189","20","Female","false","true","false","true","""event"",""trial"",""time""
""fullscreenenter"",""5"",""8998""
","
","
","""event"",""trial"",""time""
""fullscreenenter"",""5"",""8998""
","
","372.5","","48","","","3000","1","","","images/tutyellowplanet.jpg","images/tutalien4","images/tutalien3","images/tutrocket2","images/tutalien4","images/nothing.png","2","practice","true","2","common","0","2023-02-05 03:13:26.791"
"two-step-fixation","90","230597","0.0-61.0-2.9","474","6189","20","Female","false","true","false","true","""event"",""trial"",""time""
""fullscreenenter"",""5"",""8998""
","
","
","""event"",""trial"",""time""
""fullscreenenter"",""5"",""8998""
","
","","images/earth.jpg","","","","","","","","","","","","","","fixation","","","","","",""
"d3-animate-choice","91","232981","0.0-61.0-0.10","474","6189","20","Female","false","true","false","true","""event"",""trial"",""time""
""fullscreenenter"",""5"",""8998""
","
","
","""event"",""trial"",""time""
""fullscreenenter"",""5"",""8998""
","
","378.7999997138977","","48","","","3000","1","","","images/earth.jpg","images/tutrocket1","images/tutrocket2","null","images/tutrocket1","","1","practice","null","2","","",""
"d3-animate-choice","92","235317","0.0-61.0-1.10","474","6189","20","Female","false","true","false","true","""event"",""trial"",""time""
""fullscreenenter"",""5"",""8998""
","
","
","""event"",""trial"",""time""
""fullscreenenter"",""5"",""8998""
","
","327.59999990463257","","48","","","3000","1","","","images/tutgreenplanet.jpg","images/tutalien2","images/tutalien1","images/tutrocket1","images/tutalien2","images/t.png","2","practice","true","2","common","1","2023-02-05 03:13:32.519"
"two-step-fixation","93","236325","0.0-61.0-2.10","474","6189","20","Female","false","true","false","true","""event"",""trial"",""time""
""fullscreenenter"",""5"",""8998""
","
","
","""event"",""trial"",""time""
""fullscreenenter"",""5"",""8998""
","
","","images/earth.jpg","","","","","","","","","","","","","","fixation","","","","","",""
"d3-animate-choice","94","238810","0.0-61.0-0.11","474","6189","20","Female","false","true","false","true","""event"",""trial"",""time""
""fullscreenenter"",""5"",""8998""
","
","
","""event"",""trial"",""time""
""fullscreenenter"",""5"",""8998""
","
","476.90000009536743","","48","","","3000","1","","","images/earth.jpg","images/tutrocket1","images/tutrocket2","null","images/tutrocket1","","1","practice","null","2","","",""
"d3-animate-choice","95","241148","0.0-61.0-1.11","474","6189","20","Female","false","true","false","true","""event"",""trial"",""time""
""fullscreenenter"",""5"",""8998""
","
","
","""event"",""trial"",""time""
""fullscreenenter"",""5"",""8998""
","
","333.30000019073486","","48","","","3000","1","","","images/tutgreenplanet.jpg","images/tutalien2","images/tutalien1","images/tutrocket1","images/tutalien2","images/nothing.png","2","practice","true","2","common","0","2023-02-05 03:13:38.350"
"two-step-fixation","96","242151","0.0-61.0-2.11","474","6189","20","Female","false","true","false","true","""event"",""trial"",""time""
""fullscreenenter"",""5"",""8998""
","
","
","""event"",""trial"",""time""
""fullscreenenter"",""5"",""8998""
","
","","images/earth.jpg","","","","","","","","","","","","","","fixation","","","","","",""
"d3-animate-choice","97","244453","0.0-61.0-0.12","474","6189","20","Female","false","true","false","true","""event"",""trial"",""time""
""fullscreenenter"",""5"",""8998""
","
","
","""event"",""trial"",""time""
""fullscreenenter"",""5"",""8998""
","
","299.7999997138977","","48","","","3000","1","","","images/earth.jpg","images/tutrocket1","images/tutrocket2","null","images/tutrocket1","","1","practice","null","2","","",""
"d3-animate-choice","98","246847","0.0-61.0-1.12","474","6189","20","Female","false","true","false","true","""event"",""trial"",""time""
""fullscreenenter"",""5"",""8998""
","
","
","""event"",""trial"",""time""
""fullscreenenter"",""5"",""8998""
","
","390.09999990463257","","48","","","3000","1","","","images/tutgreenplanet.jpg","images/tutalien2","images/tutalien1","images/tutrocket1","images/tutalien2","images/nothing.png","2","practice","true","2","common","0","2023-02-05 03:13:44.049"
"two-step-fixation","99","247850","0.0-61.0-2.12","474","6189","20","Female","false","true","false","true","""event"",""trial"",""time""
""fullscreenenter"",""5"",""8998""
","
","
","""event"",""trial"",""time""
""fullscreenenter"",""5"",""8998""
","
","","images/earth.jpg","","","","","","","","","","","","","","fixation","","","","","",""
"d3-animate-choice","100","250197","0.0-61.0-0.13","474","6189","20","Female","false","true","false","true","""event"",""trial"",""time""
""fullscreenenter"",""5"",""8998""
","
","
","""event"",""trial"",""time""
""fullscreenenter"",""5"",""8998""
","
","343.5","","49","","","3000","1","","","images/earth.jpg","images/tutrocket1","images/tutrocket2","null","images/tutrocket2","","1","practice","null","1","","",""
"d3-animate-choice","101","252602","0.0-61.0-1.13","474","6189","20","Female","false","true","false","true","""event"",""trial"",""time""
""fullscreenenter"",""5"",""8998""
","
","
","""event"",""trial"",""time""
""fullscreenenter"",""5"",""8998""
","
","399","","48","","","3000","1","","","images/tutyellowplanet.jpg","images/tutalien4","images/tutalien3","images/tutrocket2","images/tutalien4","images/nothing.png","2","practice","true","2","common","0","2023-02-05 03:13:49.804"
"two-step-fixation","102","253610","0.0-61.0-2.13","474","6189","20","Female","false","true","false","true","""event"",""trial"",""time""
""fullscreenenter"",""5"",""8998""
","
","
","""event"",""trial"",""time""
""fullscreenenter"",""5"",""8998""
","
","","images/earth.jpg","","","","","","","","","","","","","","fixation","","","","","",""
"d3-animate-choice","103","255914","0.0-61.0-0.14","474","6189","20","Female","false","true","false","true","""event"",""trial"",""time""
""fullscreenenter"",""5"",""8998""
","
","
","""event"",""trial"",""time""
""fullscreenenter"",""5"",""8998""
","
","298.5","","49","","","3000","1","","","images/earth.jpg","images/tutrocket1","images/tutrocket2","null","images/tutrocket2","","1","practice","null","1","","",""
"d3-animate-choice","104","258468","0.0-61.0-1.14","474","6189","20","Female","false","true","false","true","""event"",""trial"",""time""
""fullscreenenter"",""5"",""8998""
","
","
","""event"",""trial"",""time""
""fullscreenenter"",""5"",""8998""
","
","548.7000002861023","","49","","","3000","1","","","images/tutgreenplanet.jpg","images/tutalien2","images/tutalien1","images/tutrocket2","images/tutalien1","images/nothing.png","2","practice","false","1","rare","0","2023-02-05 03:13:55.670"
"two-step-fixation","105","259474","0.0-61.0-2.14","474","6189","20","Female","false","true","false","true","""event"",""trial"",""time""
""fullscreenenter"",""5"",""8998""
","
","
","""event"",""trial"",""time""
""fullscreenenter"",""5"",""8998""
","
","","images/earth.jpg","","","","","","","","","","","","","","fixation","","","","","",""
"d3-animate-choice","106","261786","0.0-61.0-0.15","474","6189","20","Female","false","true","false","true","""event"",""trial"",""time""
""fullscreenenter"",""5"",""8998""
","
","
","""event"",""trial"",""time""
""fullscreenenter"",""5"",""8998""
","
","306.19999980926514","","49","","","3000","1","","","images/earth.jpg","images/tutrocket1","images/tutrocket2","null","images/tutrocket2","","1","practice","null","1","","",""
"d3-animate-choice","107","264116","0.0-61.0-1.15","474","6189","20","Female","false","true","false","true","""event"",""trial"",""time""
""fullscreenenter"",""5"",""8998""
","
","
","""event"",""trial"",""time""
""fullscreenenter"",""5"",""8998""
","
","323.30000019073486","","49","","","3000","1","","","images/tutyellowplanet.jpg","images/tutalien4","images/tutalien3","images/tutrocket2","images/tutalien3","images/nothing.png","2","practice","true","1","common","0","2023-02-05 03:14:01.318"
"two-step-fixation","108","265120","0.0-61.0-2.15","474","6189","20","Female","false","true","false","true","""event"",""trial"",""time""
""fullscreenenter"",""5"",""8998""
","
","
","""event"",""trial"",""time""
""fullscreenenter"",""5"",""8998""
","
","","images/earth.jpg","","","","","","","","","","","","","","fixation","","","","","",""
"d3-animate-choice","109","267519","0.0-61.0-0.16","474","6189","20","Female","false","true","false","true","""event"",""trial"",""time""
""fullscreenenter"",""5"",""8998""
","
","
","""event"",""trial"",""time""
""fullscreenenter"",""5"",""8998""
","
","395.5","","49","","","3000","1","","","images/earth.jpg","images/tutrocket1","images/tutrocket2","null","images/tutrocket2","","1","practice","null","1","","",""
"d3-animate-choice","110","269875","0.0-61.0-1.16","474","6189","20","Female","false","true","false","true","""event"",""trial"",""time""
""fullscreenenter"",""5"",""8998""
","
","
","""event"",""trial"",""time""
""fullscreenenter"",""5"",""8998""
","
","352.19999980926514","","48","","","3000","1","","","images/tutyellowplanet.jpg","images/tutalien4","images/tutalien3","images/tutrocket2","images/tutalien4","images/nothing.png","2","practice","true","2","common","0","2023-02-05 03:14:07.077"
"two-step-fixation","111","270878","0.0-61.0-2.16","474","6189","20","Female","false","true","false","true","""event"",""trial"",""time""
""fullscreenenter"",""5"",""8998""
","
","
","""event"",""trial"",""time""
""fullscreenenter"",""5"",""8998""
","
","","images/earth.jpg","","","","","","","","","","","","","","fixation","","","","","",""
"d3-animate-choice","112","273215","0.0-61.0-0.17","474","6189","20","Female","false","true","false","true","""event"",""trial"",""time""
""fullscreenenter"",""5"",""8998""
","
","
","""event"",""trial"",""time""
""fullscreenenter"",""5"",""8998""
","
","332.7999997138977","","48","","","3000","1","","","images/earth.jpg","images/tutrocket1","images/tutrocket2","null","images/tutrocket1","","1","practice","null","2","","",""
"d3-animate-choice","113","275574","0.0-61.0-1.17","474","6189","20","Female","false","true","false","true","""event"",""trial"",""time""
""fullscreenenter"",""5"",""8998""
","
","
","""event"",""trial"",""time""
""fullscreenenter"",""5"",""8998""
","
","354.40000009536743","","48","","","3000","1","","","images/tutgreenplanet.jpg","images/tutalien2","images/tutalien1","images/tutrocket1","images/tutalien2","images/nothing.png","2","practice","true","2","common","0","2023-02-05 03:14:12.776"
"two-step-fixation","114","276581","0.0-61.0-2.17","474","6189","20","Female","false","true","false","true","""event"",""trial"",""time""
""fullscreenenter"",""5"",""8998""
","
","
","""event"",""trial"",""time""
""fullscreenenter"",""5"",""8998""
","
","","images/earth.jpg","","","","","","","","","","","","","","fixation","","","","","",""
"d3-animate-choice","115","278938","0.0-61.0-0.18","474","6189","20","Female","false","true","false","true","""event"",""trial"",""time""
""fullscreenenter"",""5"",""8998""
","
","
","""event"",""trial"",""time""
""fullscreenenter"",""5"",""8998""
","
","351.80000019073486","","48","","","3000","1","","","images/earth.jpg","images/tutrocket1","images/tutrocket2","null","images/tutrocket1","","1","practice","null","2","","",""
"d3-animate-choice","116","281306","0.0-61.0-1.18","474","6189","20","Female","false","true","false","true","""event"",""trial"",""time""
""fullscreenenter"",""5"",""8998""
","
","
","""event"",""trial"",""time""
""fullscreenenter"",""5"",""8998""
","
","364.59999990463257","","49","","","3000","1","","","images/tutgreenplanet.jpg","images/tutalien2","images/tutalien1","images/tutrocket1","images/tutalien1","images/nothing.png","2","practice","true","1","common","0","2023-02-05 03:14:18.508"
"two-step-fixation","117","282313","0.0-61.0-2.18","474","6189","20","Female","false","true","false","true","""event"",""trial"",""time""
""fullscreenenter"",""5"",""8998""
","
","
","""event"",""trial"",""time""
""fullscreenenter"",""5"",""8998""
","
","","images/earth.jpg","","","","","","","","","","","","","","fixation","","","","","",""
"d3-animate-choice","118","284826","0.0-61.0-0.19","474","6189","20","Female","false","true","false","true","""event"",""trial"",""time""
""fullscreenenter"",""5"",""8998""
","
","
","""event"",""trial"",""time""
""fullscreenenter"",""5"",""8998""
","
","504.09999990463257","","49","","","3000","1","","","images/earth.jpg","images/tutrocket1","images/tutrocket2","null","images/tutrocket2","","1","practice","null","1","","",""
"d3-animate-choice","119","287221","0.0-61.0-1.19","474","6189","20","Female","false","true","false","true","""event"",""trial"",""time""
""fullscreenenter"",""5"",""8998""
","
","
","""event"",""trial"",""time""
""fullscreenenter"",""5"",""8998""
","
","390.3999996185303","","49","","","3000","1","","","images/tutyellowplanet.jpg","images/tutalien4","images/tutalien3","images/tutrocket2","images/tutalien3","images/t.png","2","practice","true","1","common","1","2023-02-05 03:14:24.423"
"two-step-fixation","120","288224","0.0-61.0-2.19","474","6189","20","Female","false","true","false","true","""event"",""trial"",""time""
""fullscreenenter"",""5"",""8998""
","
","
","""event"",""trial"",""time""
""fullscreenenter"",""5"",""8998""
","
","","images/earth.jpg","","","","","","","","","","","","","","fixation","","","","","",""
"d3-instructions","121","291827","0.0-62.0","474","6189","20","Female","false","true","false","true","""event"",""trial"",""time""
""fullscreenenter"",""5"",""8998""
","
","
","""event"",""trial"",""time""
""fullscreenenter"",""5"",""8998""
","
","","","","","","","","","","","","","","","","","","","","","",""
"audio-keyboard-response","122","299863","0.0-63.0","474","6189","20","Female","false","true","false","true","""event"",""trial"",""time""
""fullscreenenter"",""5"",""8998""
","
","
","""event"",""trial"",""time""
""fullscreenenter"",""5"",""8998""
","
","8027","audio/instructions/treasure_feedback.wav","32","","","","","","","","","","","","","","","","","","",""
"d3-instructions","123","304940","0.0-64.0","474","6189","20","Female","false","true","false","true","""event"",""trial"",""time""
""fullscreenenter"",""5"",""8998""
","
","
","""event"",""trial"",""time""
""fullscreenenter"",""5"",""8998""
","
","","","","","","","","","","","","","","","","","","","","","",""
"d3-instructions","124","314357","0.0-65.0","474","6189","20","Female","false","true","false","true","""event"",""trial"",""time""
""fullscreenenter"",""5"",""8998""
","
","
","""event"",""trial"",""time""
""fullscreenenter"",""5"",""8998""
","
","","","","","","","","","","","","","","","","","","","","","",""
"d3-instructions","125","323488","0.0-66.0","474","6189","20","Female","false","true","false","true","""event"",""trial"",""time""
""fullscreenenter"",""5"",""8998""
","
","
","""event"",""trial"",""time""
""fullscreenenter"",""5"",""8998""
","
","","","","","","","","","","","","","","","","","","","","","",""
"d3-instructions","126","326582","0.0-67.0","474","6189","20","Female","false","true","false","true","""event"",""trial"",""time""
""fullscreenenter"",""5"",""8998""
","
","
","""event"",""trial"",""time""
""fullscreenenter"",""5"",""8998""
","
","","","","","","","","","","","","","","","","","","","","","",""
"d3-instructions","127","328508","0.0-68.0","474","6189","20","Female","false","true","false","true","""event"",""trial"",""time""
""fullscreenenter"",""5"",""8998""
","
","
","""event"",""trial"",""time""
""fullscreenenter"",""5"",""8998""
","
","","","","","","","","","","","","","","","","","","","","","",""
"instructions-quiz","128","330329","0.0-69.0","474","6189","20","Female","false","true","false","true","""event"",""trial"",""time""
""fullscreenenter"",""5"",""8998""
","
","
","""event"",""trial"",""time""
""fullscreenenter"",""5"",""8998""
","
","1814.7000002861023","audio/quiz/Q1_Prompt.wav","","1","","","","","","","","","","","","","","","","","",""
"audio-keyboard-response","129","332081","0.0-70.0","474","6189","20","Female","false","true","false","true","""event"",""trial"",""time""
""fullscreenenter"",""5"",""8998""
","
","
","""event"",""trial"",""time""
""fullscreenenter"",""5"",""8998""
","
","1744","audio/quiz/Q1_Correct.wav","32","","","","","","","","","","","","","","","","","","",""
"instructions-quiz","130","335262","0.0-71.0","474","6189","20","Female","false","true","false","true","""event"",""trial"",""time""
""fullscreenenter"",""5"",""8998""
","
","
","""event"",""trial"",""time""
""fullscreenenter"",""5"",""8998""
","
","3179.7999997138977","audio/quiz/Q2_Prompt.wav","","0","","","","","","","","","","","","","","","","","",""
"audio-keyboard-response","131","335686","0.0-72.0","474","6189","20","Female","false","true","false","true","""event"",""trial"",""time""
""fullscreenenter"",""5"",""8998""
","
","
","""event"",""trial"",""time""
""fullscreenenter"",""5"",""8998""
","
","421","audio/quiz/Q2_Correct.wav","32","","","","","","","","","","","","","","","","","","",""
"instructions-quiz","132","337357","0.0-73.0","474","6189","20","Female","false","true","false","true","""event"",""trial"",""time""
""fullscreenenter"",""5"",""8998""
","
","
","""event"",""trial"",""time""
""fullscreenenter"",""5"",""8998""
","
","1669.2000002861023","audio/quiz/Q3_Prompt.wav","","1","","","","","","","","","","","","","","","","","",""
"audio-keyboard-response","133","337591","0.0-74.0","474","6189","20","Female","false","true","false","true","""event"",""trial"",""time""
""fullscreenenter"",""5"",""8998""
","
","
","""event"",""trial"",""time""
""fullscreenenter"",""5"",""8998""
","
","235","audio/quiz/Q3_Correct.wav","32","","","","","","","","","","","","","","","","","","",""
"d3-instructions","134","339593","0.0-75.0","474","6189","20","Female","false","true","false","true","""event"",""trial"",""time""
""fullscreenenter"",""5"",""8998""
","
","
","""event"",""trial"",""time""
""fullscreenenter"",""5"",""8998""
","
","","","","","","","","","","","","","","","","","","","","","",""
"pavlovia","135","339599","0.0-76.0","474","6189","20","Female","false","true","false","true","""event"",""trial"",""time""
""fullscreenenter"",""5"",""8998""
","
","
","""event"",""trial"",""time""
""fullscreenenter"",""5"",""8998""
","
","","","","","","","","","","","","","","","","","","","","","",""
"d3-animate-choice","136","343061","0.0-77.0-0.0","474","6189","20","Female","false","true","false","true","""event"",""trial"",""time""
""fullscreenenter"",""5"",""8998""
","
","
","""event"",""trial"",""time""
""fullscreenenter"",""5"",""8998""
","
","1455.6999998092651","","49","","","3000","1","","","images/earth.jpg","images/rocket1","images/rocket2","null","images/rocket2","","1","real","null","1","","",""
"d3-animate-choice","137","345654","0.0-77.0-1.0","474","6189","20","Female","false","true","false","true","""event"",""trial"",""time""
""fullscreenenter"",""5"",""8998""
","
","
","""event"",""trial"",""time""
""fullscreenenter"",""5"",""8998""
","
","589.1999998092651","","49","","","3000","1","","","images/purpleplanet.jpg","images/alien4","images/alien3","images/rocket2","images/alien3","images/t.png","2","real","true","1","common","1","2023-02-05 03:15:22.856"
"two-step-fixation","138","346671","0.0-77.0-2.0","474","6189","20","Female","false","true","false","true","""event"",""trial"",""time""
""fullscreenenter"",""5"",""8998""
","
","
","""event"",""trial"",""time""
""fullscreenenter"",""5"",""8998""
","
","","images/earth.jpg","","","","","","","","","","","","","","fixation","","","","","",""
"d3-animate-choice","139","349193","0.0-77.0-0.1","474","6189","20","Female","false","true","false","true","""event"",""trial"",""time""
""fullscreenenter"",""5"",""8998""
","
","
","""event"",""trial"",""time""
""fullscreenenter"",""5"",""8998""
","
","516.7999997138977","","49","","","3000","1","","","images/earth.jpg","images/rocket1","images/rocket2","null","images/rocket2","","1","real","null","1","","",""
"d3-animate-choice","140","351676","0.0-77.0-1.1","474","6189","20","Female","false","true","false","true","""event"",""trial"",""time""
""fullscreenenter"",""5"",""8998""
","
","
","""event"",""trial"",""time""
""fullscreenenter"",""5"",""8998""
","
","479.5","","49","","","3000","1","","","images/redplanet1.jpg","images/alien2","images/alien1","images/rocket2","images/alien1","images/nothing.png","2","real","false","1","rare","0","2023-02-05 03:15:28.878"
"two-step-fixation","141","352679","0.0-77.0-2.1","474","6189","20","Female","false","true","false","true","""event"",""trial"",""time""
""fullscreenenter"",""5"",""8998""
","
","
","""event"",""trial"",""time""
""fullscreenenter"",""5"",""8998""
","
","","images/earth.jpg","","","","","","","","","","","","","","fixation","","","","","",""
"d3-animate-choice","142","355404","0.0-77.0-0.2","474","6189","20","Female","false","true","false","true","""event"",""trial"",""time""
""fullscreenenter"",""5"",""8998""
","
","
","""event"",""trial"",""time""
""fullscreenenter"",""5"",""8998""
","
","720.6999998092651","","49","","","3000","1","","","images/earth.jpg","images/rocket1","images/rocket2","null","images/rocket2","","1","real","null","1","","",""
"d3-animate-choice","143","358398","0.0-77.0-1.2","474","6189","20","Female","false","true","false","true","""event"",""trial"",""time""
""fullscreenenter"",""5"",""8998""
","
","
","""event"",""trial"",""time""
""fullscreenenter"",""5"",""8998""
","
","987.4000000953674","","49","","","3000","1","","","images/purpleplanet.jpg","images/alien4","images/alien3","images/rocket2","images/alien3","images/t.png","2","real","true","1","common","1","2023-02-05 03:15:35.601"
"two-step-fixation","144","359407","0.0-77.0-2.2","474","6189","20","Female","false","true","false","true","""event"",""trial"",""time""
""fullscreenenter"",""5"",""8998""
","
","
","""event"",""trial"",""time""
""fullscreenenter"",""5"",""8998""
","
","","images/earth.jpg","","","","","","","","","","","","","","fixation","","","","","",""
"d3-animate-choice","145","361740","0.0-77.0-0.3","474","6189","20","Female","false","true","false","true","""event"",""trial"",""time""
""fullscreenenter"",""5"",""8998""
","
","
","""event"",""trial"",""time""
""fullscreenenter"",""5"",""8998""
","
","327","","49","","","3000","1","","","images/earth.jpg","images/rocket1","images/rocket2","null","images/rocket2","","1","real","null","1","","",""
"d3-animate-choice","146","364115","0.0-77.0-1.3","474","6189","20","Female","false","true","false","true","""event"",""trial"",""time""
""fullscreenenter"",""5"",""8998""
","
","
","""event"",""trial"",""time""
""fullscreenenter"",""5"",""8998""
","
","366.40000009536743","","49","","","3000","1","","","images/purpleplanet.jpg","images/alien4","images/alien3","images/rocket2","images/alien3","images/t.png","2","real","true","1","common","1","2023-02-05 03:15:41.318"
"two-step-fixation","147","365124","0.0-77.0-2.3","474","6189","20","Female","false","true","false","true","""event"",""trial"",""time""
""fullscreenenter"",""5"",""8998""
","
","
","""event"",""trial"",""time""
""fullscreenenter"",""5"",""8998""
","
","","images/earth.jpg","","","","","","","","","","","","","","fixation","","","","","",""
"d3-animate-choice","148","367514","0.0-77.0-0.4","474","6189","20","Female","false","true","false","true","""event"",""trial"",""time""
""fullscreenenter"",""5"",""8998""
","
","
","""event"",""trial"",""time""
""fullscreenenter"",""5"",""8998""
","
","384","","49","","","3000","1","","","images/earth.jpg","images/rocket1","images/rocket2","null","images/rocket2","","1","real","null","1","","",""
"d3-animate-choice","149","369928","0.0-77.0-1.4","474","6189","20","Female","false","true","false","true","""event"",""trial"",""time""
""fullscreenenter"",""5"",""8998""
","
","
","""event"",""trial"",""time""
""fullscreenenter"",""5"",""8998""
","
","406.5","","49","","","3000","1","","","images/purpleplanet.jpg","images/alien4","images/alien3","images/rocket2","images/alien3","images/t.png","2","real","true","1","common","1","2023-02-05 03:15:47.130"
"two-step-fixation","150","370933","0.0-77.0-2.4","474","6189","20","Female","false","true","false","true","""event"",""trial"",""time""
""fullscreenenter"",""5"",""8998""
","
","
","""event"",""trial"",""time""
""fullscreenenter"",""5"",""8998""
","
","","images/earth.jpg","","","","","","","","","","","","","","fixation","","","","","",""
"d3-animate-choice","151","373480","0.0-77.0-0.5","474","6189","20","Female","false","true","false","true","""event"",""trial"",""time""
""fullscreenenter"",""5"",""8998""
","
","
","""event"",""trial"",""time""
""fullscreenenter"",""5"",""8998""
","
","543.9000000953674","","49","","","3000","1","","","images/earth.jpg","images/rocket1","images/rocket2","null","images/rocket2","","1","real","null","1","","",""
"d3-animate-choice","152","375826","0.0-77.0-1.5","474","6189","20","Female","false","true","false","true","""event"",""trial"",""time""
""fullscreenenter"",""5"",""8998""
","
","
","""event"",""trial"",""time""
""fullscreenenter"",""5"",""8998""
","
","342.1000003814697","","49","","","3000","1","","","images/purpleplanet.jpg","images/alien4","images/alien3","images/rocket2","images/alien3","images/t.png","2","real","true","1","common","1","2023-02-05 03:15:53.028"
"two-step-fixation","153","376831","0.0-77.0-2.5","474","6189","20","Female","false","true","false","true","""event"",""trial"",""time""
""fullscreenenter"",""5"",""8998""
","
","
","""event"",""trial"",""time""
""fullscreenenter"",""5"",""8998""
","
","","images/earth.jpg","","","","","","","","","","","","","","fixation","","","","","",""
"d3-animate-choice","154","379261","0.0-77.0-0.6","474","6189","20","Female","false","true","false","true","""event"",""trial"",""time""
""fullscreenenter"",""5"",""8998""
","
","
","""event"",""trial"",""time""
""fullscreenenter"",""5"",""8998""
","
","424.90000009536743","","49","","","3000","1","","","images/earth.jpg","images/rocket1","images/rocket2","null","images/rocket2","","1","real","null","1","","",""
"d3-animate-choice","155","381678","0.0-77.0-1.6","474","6189","20","Female","false","true","false","true","""event"",""trial"",""time""
""fullscreenenter"",""5"",""8998""
","
","
","""event"",""trial"",""time""
""fullscreenenter"",""5"",""8998""
","
","411.09999990463257","","49","","","3000","1","","","images/purpleplanet.jpg","images/alien4","images/alien3","images/rocket2","images/alien3","images/t.png","2","real","true","1","common","1","2023-02-05 03:15:58.880"
"two-step-fixation","156","382684","0.0-77.0-2.6","474","6189","20","Female","false","true","false","true","""event"",""trial"",""time""
""fullscreenenter"",""5"",""8998""
","
","
","""event"",""trial"",""time""
""fullscreenenter"",""5"",""8998""
","
","","images/earth.jpg","","","","","","","","","","","","","","fixation","","","","","",""
"d3-animate-choice","157","385024","0.0-77.0-0.7","474","6189","20","Female","false","true","false","true","""event"",""trial"",""time""
""fullscreenenter"",""5"",""8998""
","
","
","""event"",""trial"",""time""
""fullscreenenter"",""5"",""8998""
","
","335.09999990463257","","49","","","3000","1","","","images/earth.jpg","images/rocket1","images/rocket2","null","images/rocket2","","1","real","null","1","","",""
"d3-animate-choice","158","387373","0.0-77.0-1.7","474","6189","20","Female","false","true","false","true","""event"",""trial"",""time""
""fullscreenenter"",""5"",""8998""
","
","
","""event"",""trial"",""time""
""fullscreenenter"",""5"",""8998""
","
","344.6000003814697","","49","","","3000","1","","","images/purpleplanet.jpg","images/alien4","images/alien3","images/rocket2","images/alien3","images/t.png","2","real","true","1","common","1","2023-02-05 03:16:04.575"
"two-step-fixation","159","388381","0.0-77.0-2.7","474","6189","20","Female","false","true","false","true","""event"",""trial"",""time""
""fullscreenenter"",""5"",""8998""
","
","
","""event"",""trial"",""time""
""fullscreenenter"",""5"",""8998""
","
","","images/earth.jpg","","","","","","","","","","","","","","fixation","","","","","",""
"d3-animate-choice","160","390709","0.0-77.0-0.8","474","6189","20","Female","false","true","false","true","""event"",""trial"",""time""
""fullscreenenter"",""5"",""8998""
","
","
","""event"",""trial"",""time""
""fullscreenenter"",""5"",""8998""
","
","325.59999990463257","","49","","","3000","1","","","images/earth.jpg","images/rocket1","images/rocket2","null","images/rocket2","","1","real","null","1","","",""
"d3-animate-choice","161","393075","0.0-77.0-1.8","474","6189","20","Female","false","true","false","true","""event"",""trial"",""time""
""fullscreenenter"",""5"",""8998""
","
","
","""event"",""trial"",""time""
""fullscreenenter"",""5"",""8998""
","
","362.5","","49","","","3000","1","","","images/purpleplanet.jpg","images/alien4","images/alien3","images/rocket2","images/alien3","images/t.png","2","real","true","1","common","1","2023-02-05 03:16:10.277"
"two-step-fixation","162","394080","0.0-77.0-2.8","474","6189","20","Female","false","true","false","true","""event"",""trial"",""time""
""fullscreenenter"",""5"",""8998""
","
","
","""event"",""trial"",""time""
""fullscreenenter"",""5"",""8998""
","
","","images/earth.jpg","","","","","","","","","","","","","","fixation","","","","","",""
"d3-animate-choice","163","396485","0.0-77.0-0.9","474","6189","20","Female","false","true","false","true","""event"",""trial"",""time""
""fullscreenenter"",""5"",""8998""
","
","
","""event"",""trial"",""time""
""fullscreenenter"",""5"",""8998""
","
","401.2000002861023","","49","","","3000","1","","","images/earth.jpg","images/rocket1","images/rocket2","null","images/rocket2","","1","real","null","1","","",""
"d3-animate-choice","164","398861","0.0-77.0-1.9","474","6189","20","Female","false","true","false","true","""event"",""trial"",""time""
""fullscreenenter"",""5"",""8998""
","
","
","""event"",""trial"",""time""
""fullscreenenter"",""5"",""8998""
","
","368.90000009536743","","49","","","3000","1","","","images/purpleplanet.jpg","images/alien4","images/alien3","images/rocket2","images/alien3","images/nothing.png","2","real","true","1","common","0","2023-02-05 03:16:16.063"
"two-step-fixation","165","399868","0.0-77.0-2.9","474","6189","20","Female","false","true","false","true","""event"",""trial"",""time""
""fullscreenenter"",""5"",""8998""
","
","
","""event"",""trial"",""time""
""fullscreenenter"",""5"",""8998""
","
","","images/earth.jpg","","","","","","","","","","","","","","fixation","","","","","",""
"d3-animate-choice","166","402191","0.0-77.0-0.10","474","6189","20","Female","false","true","false","true","""event"",""trial"",""time""
""fullscreenenter"",""5"",""8998""
","
","
","""event"",""trial"",""time""
""fullscreenenter"",""5"",""8998""
","
","318.69999980926514","","49","","","3000","1","","","images/earth.jpg","images/rocket1","images/rocket2","null","images/rocket2","","1","real","null","1","","",""
"d3-animate-choice","167","405050","0.0-77.0-1.10","474","6189","20","Female","false","true","false","true","""event"",""trial"",""time""
""fullscreenenter"",""5"",""8998""
","
","
","""event"",""trial"",""time""
""fullscreenenter"",""5"",""8998""
","
","851.7999997138977","","49","","","3000","1","","","images/redplanet1.jpg","images/alien2","images/alien1","images/rocket2","images/alien1","images/t.png","2","real","false","1","rare","1","2023-02-05 03:16:22.252"
"two-step-fixation","168","406052","0.0-77.0-2.10","474","6189","20","Female","false","true","false","true","""event"",""trial"",""time""
""fullscreenenter"",""5"",""8998""
","
","
","""event"",""trial"",""time""
""fullscreenenter"",""5"",""8998""
","
","","images/earth.jpg","","","","","","","","","","","","","","fixation","","","","","",""
"d3-animate-choice","169","408424","0.0-77.0-0.11","474","6189","20","Female","false","true","false","true","""event"",""trial"",""time""
""fullscreenenter"",""5"",""8998""
","
","
","""event"",""trial"",""time""
""fullscreenenter"",""5"",""8998""
","
","368.09999990463257","","49","","","3000","1","","","images/earth.jpg","images/rocket1","images/rocket2","null","images/rocket2","","1","real","null","1","","",""
"d3-animate-choice","170","411052","0.0-77.0-1.11","474","6189","20","Female","false","true","false","true","""event"",""trial"",""time""
""fullscreenenter"",""5"",""8998""
","
","
","""event"",""trial"",""time""
""fullscreenenter"",""5"",""8998""
","
","622.9000000953674","","49","","","3000","1","","","images/purpleplanet.jpg","images/alien4","images/alien3","images/rocket2","images/alien3","images/t.png","2","real","true","1","common","1","2023-02-05 03:16:28.254"
"two-step-fixation","171","412058","0.0-77.0-2.11","474","6189","20","Female","false","true","false","true","""event"",""trial"",""time""
""fullscreenenter"",""5"",""8998""
","
","
","""event"",""trial"",""time""
""fullscreenenter"",""5"",""8998""
","
","","images/earth.jpg","","","","","","","","","","","","","","fixation","","","","","",""
"d3-animate-choice","172","414397","0.0-77.0-0.12","474","6189","20","Female","false","true","false","true","""event"",""trial"",""time""
""fullscreenenter"",""5"",""8998""
","
","
","""event"",""trial"",""time""
""fullscreenenter"",""5"",""8998""
","
","331.59999990463257","","49","","","3000","1","","","images/earth.jpg","images/rocket1","images/rocket2","null","images/rocket2","","1","real","null","1","","",""
"d3-animate-choice","173","416932","0.0-77.0-1.12","474","6189","20","Female","false","true","false","true","""event"",""trial"",""time""
""fullscreenenter"",""5"",""8998""
","
","
","""event"",""trial"",""time""
""fullscreenenter"",""5"",""8998""
","
","528.0999999046326","","49","","","3000","1","","","images/purpleplanet.jpg","images/alien4","images/alien3","images/rocket2","images/alien3","images/t.png","2","real","true","1","common","1","2023-02-05 03:16:34.134"
"two-step-fixation","174","417938","0.0-77.0-2.12","474","6189","20","Female","false","true","false","true","""event"",""trial"",""time""
""fullscreenenter"",""5"",""8998""
","
","
","""event"",""trial"",""time""
""fullscreenenter"",""5"",""8998""
","
","","images/earth.jpg","","","","","","","","","","","","","","fixation","","","","","",""
"d3-animate-choice","175","420504","0.0-77.0-0.13","474","6189","20","Female","false","true","false","true","""event"",""trial"",""time""
""fullscreenenter"",""5"",""8998""
","
","
","""event"",""trial"",""time""
""fullscreenenter"",""5"",""8998""
","
","562.1999998092651","","49","","","3000","1","","","images/earth.jpg","images/rocket1","images/rocket2","null","images/rocket2","","1","real","null","1","","",""
"d3-animate-choice","176","422836","0.0-77.0-1.13","474","6189","20","Female","false","true","false","true","""event"",""trial"",""time""
""fullscreenenter"",""5"",""8998""
","
","
","""event"",""trial"",""time""
""fullscreenenter"",""5"",""8998""
","
","326.5","","49","","","3000","1","","","images/redplanet1.jpg","images/alien2","images/alien1","images/rocket2","images/alien1","images/t.png","2","real","false","1","rare","1","2023-02-05 03:16:40.038"
"two-step-fixation","177","423839","0.0-77.0-2.13","474","6189","20","Female","false","true","false","true","""event"",""trial"",""time""
""fullscreenenter"",""5"",""8998""
","
","
","""event"",""trial"",""time""
""fullscreenenter"",""5"",""8998""
","
","","images/earth.jpg","","","","","","","","","","","","","","fixation","","","","","",""
"d3-animate-choice","178","426108","0.0-77.0-0.14","474","6189","20","Female","false","true","false","true","""event"",""trial"",""time""
""fullscreenenter"",""5"",""8998""
","
","
","""event"",""trial"",""time""
""fullscreenenter"",""5"",""8998""
","
","262.19999980926514","","49","","","3000","1","","","images/earth.jpg","images/rocket1","images/rocket2","null","images/rocket2","","1","real","null","1","","",""
"d3-animate-choice","179","428425","0.0-77.0-1.14","474","6189","20","Female","false","true","false","true","""event"",""trial"",""time""
""fullscreenenter"",""5"",""8998""
","
","
","""event"",""trial"",""time""
""fullscreenenter"",""5"",""8998""
","
","313.30000019073486","","49","","","3000","1","","","images/redplanet1.jpg","images/alien2","images/alien1","images/rocket2","images/alien1","images/nothing.png","2","real","false","1","rare","0","2023-02-05 03:16:45.627"
"two-step-fixation","180","429430","0.0-77.0-2.14","474","6189","20","Female","false","true","false","true","""event"",""trial"",""time""
""fullscreenenter"",""5"",""8998""
","
","
","""event"",""trial"",""time""
""fullscreenenter"",""5"",""8998""
","
","","images/earth.jpg","","","","","","","","","","","","","","fixation","","","","","",""
"d3-animate-choice","181","431821","0.0-77.0-0.15","474","6189","20","Female","false","true","false","true","""event"",""trial"",""time""
""fullscreenenter"",""5"",""8998""
","
","
","""event"",""trial"",""time""
""fullscreenenter"",""5"",""8998""
","
","385.59999990463257","","49","","","3000","1","","","images/earth.jpg","images/rocket1","images/rocket2","null","images/rocket2","","1","real","null","1","","",""
"d3-animate-choice","182","434274","0.0-77.0-1.15","474","6189","20","Female","false","true","false","true","""event"",""trial"",""time""
""fullscreenenter"",""5"",""8998""
","
","
","""event"",""trial"",""time""
""fullscreenenter"",""5"",""8998""
","
","449.09999990463257","","49","","","3000","1","","","images/redplanet1.jpg","images/alien2","images/alien1","images/rocket2","images/alien1","images/t.png","2","real","false","1","rare","1","2023-02-05 03:16:51.476"
"two-step-fixation","183","435281","0.0-77.0-2.15","474","6189","20","Female","false","true","false","true","""event"",""trial"",""time""
""fullscreenenter"",""5"",""8998""
","
","
","""event"",""trial"",""time""
""fullscreenenter"",""5"",""8998""
","
","","images/earth.jpg","","","","","","","","","","","","","","fixation","","","","","",""
"d3-animate-choice","184","437594","0.0-77.0-0.16","474","6189","20","Female","false","true","false","true","""event"",""trial"",""time""
""fullscreenenter"",""5"",""8998""
","
","
","""event"",""trial"",""time""
""fullscreenenter"",""5"",""8998""
","
","308.7000002861023","","49","","","3000","1","","","images/earth.jpg","images/rocket1","images/rocket2","null","images/rocket2","","1","real","null","1","","",""
"d3-animate-choice","185","439972","0.0-77.0-1.16","474","6189","20","Female","false","true","false","true","""event"",""trial"",""time""
""fullscreenenter"",""5"",""8998""
","
","
","""event"",""trial"",""time""
""fullscreenenter"",""5"",""8998""
","
","373.30000019073486","","49","","","3000","1","","","images/purpleplanet.jpg","images/alien4","images/alien3","images/rocket2","images/alien3","images/nothing.png","2","real","true","1","common","0","2023-02-05 03:16:57.174"
"two-step-fixation","186","440976","0.0-77.0-2.16","474","6189","20","Female","false","true","false","true","""event"",""trial"",""time""
""fullscreenenter"",""5"",""8998""
","
","
","""event"",""trial"",""time""
""fullscreenenter"",""5"",""8998""
","
","","images/earth.jpg","","","","","","","","","","","","","","fixation","","","","","",""
"d3-animate-choice","187","443257","0.0-77.0-0.17","474","6189","20","Female","false","true","false","true","""event"",""trial"",""time""
""fullscreenenter"",""5"",""8998""
","
","
","""event"",""trial"",""time""
""fullscreenenter"",""5"",""8998""
","
","276.8999996185303","","49","","","3000","1","","","images/earth.jpg","images/rocket1","images/rocket2","null","images/rocket2","","1","real","null","1","","",""
"d3-animate-choice","188","445650","0.0-77.0-1.17","474","6189","20","Female","false","true","false","true","""event"",""trial"",""time""
""fullscreenenter"",""5"",""8998""
","
","
","""event"",""trial"",""time""
""fullscreenenter"",""5"",""8998""
","
","387.3999996185303","","48","","","3000","1","","","images/purpleplanet.jpg","images/alien4","images/alien3","images/rocket2","images/alien4","images/t.png","2","real","true","2","common","1","2023-02-05 03:17:02.852"
"two-step-fixation","189","446656","0.0-77.0-2.17","474","6189","20","Female","false","true","false","true","""event"",""trial"",""time""
""fullscreenenter"",""5"",""8998""
","
","
","""event"",""trial"",""time""
""fullscreenenter"",""5"",""8998""
","
","","images/earth.jpg","","","","","","","","","","","","","","fixation","","","","","",""
"d3-animate-choice","190","449009","0.0-77.0-0.18","474","6189","20","Female","false","true","false","true","""event"",""trial"",""time""
""fullscreenenter"",""5"",""8998""
","
","
","""event"",""trial"",""time""
""fullscreenenter"",""5"",""8998""
","
","349.19999980926514","","49","","","3000","1","","","images/earth.jpg","images/rocket1","images/rocket2","null","images/rocket2","","1","real","null","1","","",""
"d3-animate-choice","191","451344","0.0-77.0-1.18","474","6189","20","Female","false","true","false","true","""event"",""trial"",""time""
""fullscreenenter"",""5"",""8998""
","
","
","""event"",""trial"",""time""
""fullscreenenter"",""5"",""8998""
","
","330.80000019073486","","48","","","3000","1","","","images/purpleplanet.jpg","images/alien4","images/alien3","images/rocket2","images/alien4","images/t.png","2","real","true","2","common","1","2023-02-05 03:17:08.547"
"two-step-fixation","192","452349","0.0-77.0-2.18","474","6189","20","Female","false","true","false","true","""event"",""trial"",""time""
""fullscreenenter"",""5"",""8998""
","
","
","""event"",""trial"",""time""
""fullscreenenter"",""5"",""8998""
","
","","images/earth.jpg","","","","","","","","","","","","","","fixation","","","","","",""
"d3-animate-choice","193","454642","0.0-77.0-0.19","474","6189","20","Female","false","true","false","true","""event"",""trial"",""time""
""fullscreenenter"",""5"",""8998""
","
","
","""event"",""trial"",""time""
""fullscreenenter"",""5"",""8998""
","
","289.90000009536743","","49","","","3000","1","","","images/earth.jpg","images/rocket1","images/rocket2","null","images/rocket2","","1","real","null","1","","",""
"d3-animate-choice","194","456975","0.0-77.0-1.19","474","6189","20","Female","false","true","false","true","""event"",""trial"",""time""
""fullscreenenter"",""5"",""8998""
","
","
","""event"",""trial"",""time""
""fullscreenenter"",""5"",""8998""
","
","328.80000019073486","","48","","","3000","1","","","images/purpleplanet.jpg","images/alien4","images/alien3","images/rocket2","images/alien4","images/nothing.png","2","real","true","2","common","0","2023-02-05 03:17:14.177"
"two-step-fixation","195","457980","0.0-77.0-2.19","474","6189","20","Female","false","true","false","true","""event"",""trial"",""time""
""fullscreenenter"",""5"",""8998""
","
","
","""event"",""trial"",""time""
""fullscreenenter"",""5"",""8998""
","
","","images/earth.jpg","","","","","","","","","","","","","","fixation","","","","","",""
"d3-animate-choice","196","460349","0.0-77.0-0.20","474","6189","20","Female","false","true","false","true","""event"",""trial"",""time""
""fullscreenenter"",""5"",""8998""
","
","
","""event"",""trial"",""time""
""fullscreenenter"",""5"",""8998""
","
","363.40000009536743","","49","","","3000","1","","","images/earth.jpg","images/rocket1","images/rocket2","null","images/rocket2","","1","real","null","1","","",""
"d3-animate-choice","197","462758","0.0-77.0-1.20","474","6189","20","Female","false","true","false","true","""event"",""trial"",""time""
""fullscreenenter"",""5"",""8998""
","
","
","""event"",""trial"",""time""
""fullscreenenter"",""5"",""8998""
","
","404.30000019073486","","48","","","3000","1","","","images/purpleplanet.jpg","images/alien4","images/alien3","images/rocket2","images/alien4","images/t.png","2","real","true","2","common","1","2023-02-05 03:17:19.960"
"two-step-fixation","198","463762","0.0-77.0-2.20","474","6189","20","Female","false","true","false","true","""event"",""trial"",""time""
""fullscreenenter"",""5"",""8998""
","
","
","""event"",""trial"",""time""
""fullscreenenter"",""5"",""8998""
","
","","images/earth.jpg","","","","","","","","","","","","","","fixation","","","","","",""
"d3-animate-choice","199","466118","0.0-77.0-0.21","474","6189","20","Female","false","true","false","true","""event"",""trial"",""time""
""fullscreenenter"",""5"",""8998""
","
","
","""event"",""trial"",""time""
""fullscreenenter"",""5"",""8998""
","
","353.90000009536743","","49","","","3000","1","","","images/earth.jpg","images/rocket1","images/rocket2","null","images/rocket2","","1","real","null","1","","",""
"d3-animate-choice","200","468519","0.0-77.0-1.21","474","6189","20","Female","false","true","false","true","""event"",""trial"",""time""
""fullscreenenter"",""5"",""8998""
","
","
","""event"",""trial"",""time""
""fullscreenenter"",""5"",""8998""
","
","396.3999996185303","","48","","","3000","1","","","images/redplanet1.jpg","images/alien2","images/alien1","images/rocket2","images/alien2","images/t.png","2","real","false","2","rare","1","2023-02-05 03:17:25.722"
"two-step-fixation","201","469523","0.0-77.0-2.21","474","6189","20","Female","false","true","false","true","""event"",""trial"",""time""
""fullscreenenter"",""5"",""8998""
","
","
","""event"",""trial"",""time""
""fullscreenenter"",""5"",""8998""
","
","","images/earth.jpg","","","","","","","","","","","","","","fixation","","","","","",""
"d3-animate-choice","202","472108","0.0-77.0-0.22","474","6189","20","Female","false","true","false","true","""event"",""trial"",""time""
""fullscreenenter"",""5"",""8998""
","
","
","""event"",""trial"",""time""
""fullscreenenter"",""5"",""8998""
","
","577.9000000953674","","49","","","3000","1","","","images/earth.jpg","images/rocket1","images/rocket2","null","images/rocket2","","1","real","null","1","","",""
"d3-animate-choice","203","474445","0.0-77.0-1.22","474","6189","20","Female","false","true","false","true","""event"",""trial"",""time""
""fullscreenenter"",""5"",""8998""
","
","
","""event"",""trial"",""time""
""fullscreenenter"",""5"",""8998""
","
","332.2999997138977","","48","","","3000","1","","","images/purpleplanet.jpg","images/alien4","images/alien3","images/rocket2","images/alien4","images/nothing.png","2","real","true","2","common","0","2023-02-05 03:17:31.647"
"two-step-fixation","204","475453","0.0-77.0-2.22","474","6189","20","Female","false","true","false","true","""event"",""trial"",""time""
""fullscreenenter"",""5"",""8998""
","
","
","""event"",""trial"",""time""
""fullscreenenter"",""5"",""8998""
","
","","images/earth.jpg","","","","","","","","","","","","","","fixation","","","","","",""
"d3-animate-choice","205","477735","0.0-77.0-0.23","474","6189","20","Female","false","true","false","true","""event"",""trial"",""time""
""fullscreenenter"",""5"",""8998""
","
","
","""event"",""trial"",""time""
""fullscreenenter"",""5"",""8998""
","
","279","","48","","","3000","1","","","images/earth.jpg","images/rocket1","images/rocket2","null","images/rocket1","","1","real","null","2","","",""
"d3-animate-choice","206","480068","0.0-77.0-1.23","474","6189","20","Female","false","true","false","true","""event"",""trial"",""time""
""fullscreenenter"",""5"",""8998""
","
","
","""event"",""trial"",""time""
""fullscreenenter"",""5"",""8998""
","
","327.5","","48","","","3000","1","","","images/redplanet1.jpg","images/alien2","images/alien1","images/rocket1","images/alien2","images/t.png","2","real","true","2","common","1","2023-02-05 03:17:37.271"
"two-step-fixation","207","481073","0.0-77.0-2.23","474","6189","20","Female","false","true","false","true","""event"",""trial"",""time""
""fullscreenenter"",""5"",""8998""
","
","
","""event"",""trial"",""time""
""fullscreenenter"",""5"",""8998""
","
","","images/earth.jpg","","","","","","","","","","","","","","fixation","","","","","",""
"d3-animate-choice","208","483421","0.0-77.0-0.24","474","6189","20","Female","false","true","false","true","""event"",""trial"",""time""
""fullscreenenter"",""5"",""8998""
","
","
","""event"",""trial"",""time""
""fullscreenenter"",""5"",""8998""
","
","342.30000019073486","","48","","","3000","1","","","images/earth.jpg","images/rocket1","images/rocket2","null","images/rocket1","","1","real","null","2","","",""
"d3-animate-choice","209","485709","0.0-77.0-1.24","474","6189","20","Female","false","true","false","true","""event"",""trial"",""time""
""fullscreenenter"",""5"",""8998""
","
","
","""event"",""trial"",""time""
""fullscreenenter"",""5"",""8998""
","
","287","","48","","","3000","1","","","images/redplanet1.jpg","images/alien2","images/alien1","images/rocket1","images/alien2","images/t.png","2","real","true","2","common","1","2023-02-05 03:17:42.911"
"two-step-fixation","210","486712","0.0-77.0-2.24","474","6189","20","Female","false","true","false","true","""event"",""trial"",""time""
""fullscreenenter"",""5"",""8998""
","
","
","""event"",""trial"",""time""
""fullscreenenter"",""5"",""8998""
","
","","images/earth.jpg","","","","","","","","","","","","","","fixation","","","","","",""
"d3-animate-choice","211","489044","0.0-77.0-0.25","474","6189","20","Female","false","true","false","true","""event"",""trial"",""time""
""fullscreenenter"",""5"",""8998""
","
","
","""event"",""trial"",""time""
""fullscreenenter"",""5"",""8998""
","
","328.30000019073486","","48","","","3000","1","","","images/earth.jpg","images/rocket1","images/rocket2","null","images/rocket1","","1","real","null","2","","",""
"d3-animate-choice","212","491420","0.0-77.0-1.25","474","6189","20","Female","false","true","false","true","""event"",""trial"",""time""
""fullscreenenter"",""5"",""8998""
","
","
","""event"",""trial"",""time""
""fullscreenenter"",""5"",""8998""
","
","369.90000009536743","","48","","","3000","1","","","images/purpleplanet.jpg","images/alien4","images/alien3","images/rocket1","images/alien4","images/t.png","2","real","false","2","rare","1","2023-02-05 03:17:48.622"
"two-step-fixation","213","492424","0.0-77.0-2.25","474","6189","20","Female","false","true","false","true","""event"",""trial"",""time""
""fullscreenenter"",""5"",""8998""
","
","
","""event"",""trial"",""time""
""fullscreenenter"",""5"",""8998""
","
","","images/earth.jpg","","","","","","","","","","","","","","fixation","","","","","",""
"d3-animate-choice","214","494770","0.0-77.0-0.26","474","6189","20","Female","false","true","false","true","""event"",""trial"",""time""
""fullscreenenter"",""5"",""8998""
","
","
","""event"",""trial"",""time""
""fullscreenenter"",""5"",""8998""
","
","340.19999980926514","","48","","","3000","1","","","images/earth.jpg","images/rocket1","images/rocket2","null","images/rocket1","","1","real","null","2","","",""
"d3-animate-choice","215","497250","0.0-77.0-1.26","474","6189","20","Female","false","true","false","true","""event"",""trial"",""time""
""fullscreenenter"",""5"",""8998""
","
","
","""event"",""trial"",""time""
""fullscreenenter"",""5"",""8998""
","
","475.40000009536743","","48","","","3000","1","","","images/redplanet1.jpg","images/alien2","images/alien1","images/rocket1","images/alien2","images/t.png","2","real","true","2","common","1","2023-02-05 03:17:54.452"
"two-step-fixation","216","498256","0.0-77.0-2.26","474","6189","20","Female","false","true","false","true","""event"",""trial"",""time""
""fullscreenenter"",""5"",""8998""
","
","
","""event"",""trial"",""time""
""fullscreenenter"",""5"",""8998""
","
","","images/earth.jpg","","","","","","","","","","","","","","fixation","","","","","",""
"d3-animate-choice","217","500722","0.0-77.0-0.27","474","6189","20","Female","false","true","false","true","""event"",""trial"",""time""
""fullscreenenter"",""5"",""8998""
","
","
","""event"",""trial"",""time""
""fullscreenenter"",""5"",""8998""
","
","461.5","","48","","","3000","1","","","images/earth.jpg","images/rocket1","images/rocket2","null","images/rocket1","","1","real","null","2","","",""
"d3-animate-choice","218","503368","0.0-77.0-1.27","474","6189","20","Female","false","true","false","true","""event"",""trial"",""time""
""fullscreenenter"",""5"",""8998""
","
","
","""event"",""trial"",""time""
""fullscreenenter"",""5"",""8998""
","
","642.2000002861023","","48","","","3000","1","","","images/redplanet1.jpg","images/alien2","images/alien1","images/rocket1","images/alien2","images/t.png","2","real","true","2","common","1","2023-02-05 03:18:00.570"
"two-step-fixation","219","504373","0.0-77.0-2.27","474","6189","20","Female","false","true","false","true","""event"",""trial"",""time""
""fullscreenenter"",""5"",""8998""
","
","
","""event"",""trial"",""time""
""fullscreenenter"",""5"",""8998""
","
","","images/earth.jpg","","","","","","","","","","","","","","fixation","","","","","",""
"d3-animate-choice","220","506765","0.0-77.0-0.28","474","6189","20","Female","false","true","false","true","""event"",""trial"",""time""
""fullscreenenter"",""5"",""8998""
","
","
","""event"",""trial"",""time""
""fullscreenenter"",""5"",""8998""
","
","387.3999996185303","","48","","","3000","1","","","images/earth.jpg","images/rocket1","images/rocket2","null","images/rocket1","","1","real","null","2","","",""
"d3-animate-choice","221","509204","0.0-77.0-1.28","474","6189","20","Female","false","true","false","true","""event"",""trial"",""time""
""fullscreenenter"",""5"",""8998""
","
","
","""event"",""trial"",""time""
""fullscreenenter"",""5"",""8998""
","
","433.5","","48","","","3000","1","","","images/redplanet1.jpg","images/alien2","images/alien1","images/rocket1","images/alien2","images/t.png","2","real","true","2","common","1","2023-02-05 03:18:06.406"
"two-step-fixation","222","510208","0.0-77.0-2.28","474","6189","20","Female","false","true","false","true","""event"",""trial"",""time""
""fullscreenenter"",""5"",""8998""
","
","
","""event"",""trial"",""time""
""fullscreenenter"",""5"",""8998""
","
","","images/earth.jpg","","","","","","","","","","","","","","fixation","","","","","",""
"d3-animate-choice","223","512624","0.0-77.0-0.29","474","6189","20","Female","false","true","false","true","""event"",""trial"",""time""
""fullscreenenter"",""5"",""8998""
","
","
","""event"",""trial"",""time""
""fullscreenenter"",""5"",""8998""
","
","413","","48","","","3000","1","","","images/earth.jpg","images/rocket1","images/rocket2","null","images/rocket1","","1","real","null","2","","",""
"d3-animate-choice","224","515112","0.0-77.0-1.29","474","6189","20","Female","false","true","false","true","""event"",""trial"",""time""
""fullscreenenter"",""5"",""8998""
","
","
","""event"",""trial"",""time""
""fullscreenenter"",""5"",""8998""
","
","479.90000009536743","","48","","","3000","1","","","images/redplanet1.jpg","images/alien2","images/alien1","images/rocket1","images/alien2","images/t.png","2","real","true","2","common","1","2023-02-05 03:18:12.314"
"two-step-fixation","225","516120","0.0-77.0-2.29","474","6189","20","Female","false","true","false","true","""event"",""trial"",""time""
""fullscreenenter"",""5"",""8998""
","
","
","""event"",""trial"",""time""
""fullscreenenter"",""5"",""8998""
","
","","images/earth.jpg","","","","","","","","","","","","","","fixation","","","","","",""
"d3-animate-choice","226","518386","0.0-77.0-0.30","474","6189","20","Female","false","true","false","true","""event"",""trial"",""time""
""fullscreenenter"",""5"",""8998""
","
","
","""event"",""trial"",""time""
""fullscreenenter"",""5"",""8998""
","
","260.40000009536743","","48","","","3000","1","","","images/earth.jpg","images/rocket1","images/rocket2","null","images/rocket1","","1","real","null","2","","",""
"d3-animate-choice","227","520833","0.0-77.0-1.30","474","6189","20","Female","false","true","false","true","""event"",""trial"",""time""
""fullscreenenter"",""5"",""8998""
","
","
","""event"",""trial"",""time""
""fullscreenenter"",""5"",""8998""
","
","441.5","","48","","","3000","1","","","images/redplanet1.jpg","images/alien2","images/alien1","images/rocket1","images/alien2","images/nothing.png","2","real","true","2","common","0","2023-02-05 03:18:18.036"
"two-step-fixation","228","521840","0.0-77.0-2.30","474","6189","20","Female","false","true","false","true","""event"",""trial"",""time""
""fullscreenenter"",""5"",""8998""
","
","
","""event"",""trial"",""time""
""fullscreenenter"",""5"",""8998""
","
","","images/earth.jpg","","","","","","","","","","","","","","fixation","","","","","",""
"d3-animate-choice","229","524206","0.0-77.0-0.31","474","6189","20","Female","false","true","false","true","""event"",""trial"",""time""
""fullscreenenter"",""5"",""8998""
","
","
","""event"",""trial"",""time""
""fullscreenenter"",""5"",""8998""
","
","362.7999997138977","","48","","","3000","1","","","images/earth.jpg","images/rocket1","images/rocket2","null","images/rocket1","","1","real","null","2","","",""
"d3-animate-choice","230","526509","0.0-77.0-1.31","474","6189","20","Female","false","true","false","true","""event"",""trial"",""time""
""fullscreenenter"",""5"",""8998""
","
","
","""event"",""trial"",""time""
""fullscreenenter"",""5"",""8998""
","
","301","","48","","","3000","1","","","images/purpleplanet.jpg","images/alien4","images/alien3","images/rocket1","images/alien4","images/t.png","2","real","false","2","rare","1","2023-02-05 03:18:23.711"
"two-step-fixation","231","527513","0.0-77.0-2.31","474","6189","20","Female","false","true","false","true","""event"",""trial"",""time""
""fullscreenenter"",""5"",""8998""
","
","
","""event"",""trial"",""time""
""fullscreenenter"",""5"",""8998""
","
","","images/earth.jpg","","","","","","","","","","","","","","fixation","","","","","",""
"d3-animate-choice","232","529822","0.0-77.0-0.32","474","6189","20","Female","false","true","false","true","""event"",""trial"",""time""
""fullscreenenter"",""5"",""8998""
","
","
","""event"",""trial"",""time""
""fullscreenenter"",""5"",""8998""
","
","304.90000009536743","","48","","","3000","1","","","images/earth.jpg","images/rocket1","images/rocket2","null","images/rocket1","","1","real","null","2","","",""
"d3-animate-choice","233","532173","0.0-77.0-1.32","474","6189","20","Female","false","true","false","true","""event"",""trial"",""time""
""fullscreenenter"",""5"",""8998""
","
","
","""event"",""trial"",""time""
""fullscreenenter"",""5"",""8998""
","
","347","","48","","","3000","1","","","images/redplanet1.jpg","images/alien2","images/alien1","images/rocket1","images/alien2","images/nothing.png","2","real","true","2","common","0","2023-02-05 03:18:29.375"
"two-step-fixation","234","533178","0.0-77.0-2.32","474","6189","20","Female","false","true","false","true","""event"",""trial"",""time""
""fullscreenenter"",""5"",""8998""
","
","
","""event"",""trial"",""time""
""fullscreenenter"",""5"",""8998""
","
","","images/earth.jpg","","","","","","","","","","","","","","fixation","","","","","",""
"d3-animate-choice","235","535506","0.0-77.0-0.33","474","6189","20","Female","false","true","false","true","""event"",""trial"",""time""
""fullscreenenter"",""5"",""8998""
","
","
","""event"",""trial"",""time""
""fullscreenenter"",""5"",""8998""
","
","324.7000002861023","","48","","","3000","1","","","images/earth.jpg","images/rocket1","images/rocket2","null","images/rocket1","","1","real","null","2","","",""
"d3-animate-choice","236","538354","0.0-77.0-1.33","474","6189","20","Female","false","true","false","true","""event"",""trial"",""time""
""fullscreenenter"",""5"",""8998""
","
","
","""event"",""trial"",""time""
""fullscreenenter"",""5"",""8998""
","
","846.0999999046326","","49","","","3000","1","","","images/redplanet1.jpg","images/alien2","images/alien1","images/rocket1","images/alien1","images/t.png","2","real","true","1","common","1","2023-02-05 03:18:35.556"
"two-step-fixation","237","539358","0.0-77.0-2.33","474","6189","20","Female","false","true","false","true","""event"",""trial"",""time""
""fullscreenenter"",""5"",""8998""
","
","
","""event"",""trial"",""time""
""fullscreenenter"",""5"",""8998""
","
","","images/earth.jpg","","","","","","","","","","","","","","fixation","","","","","",""
"d3-animate-choice","238","541698","0.0-77.0-0.34","474","6189","20","Female","false","true","false","true","""event"",""trial"",""time""
""fullscreenenter"",""5"",""8998""
","
","
","""event"",""trial"",""time""
""fullscreenenter"",""5"",""8998""
","
","336.09999990463257","","48","","","3000","1","","","images/earth.jpg","images/rocket1","images/rocket2","null","images/rocket1","","1","real","null","2","","",""
"d3-animate-choice","239","544526","0.0-77.0-1.34","474","6189","20","Female","false","true","false","true","""event"",""trial"",""time""
""fullscreenenter"",""5"",""8998""
","
","
","""event"",""trial"",""time""
""fullscreenenter"",""5"",""8998""
","
","823.5","","49","","","3000","1","","","images/redplanet1.jpg","images/alien2","images/alien1","images/rocket1","images/alien1","images/t.png","2","real","true","1","common","1","2023-02-05 03:18:41.728"
"two-step-fixation","240","545533","0.0-77.0-2.34","474","6189","20","Female","false","true","false","true","""event"",""trial"",""time""
""fullscreenenter"",""5"",""8998""
","
","
","""event"",""trial"",""time""
""fullscreenenter"",""5"",""8998""
","
","","images/earth.jpg","","","","","","","","","","","","","","fixation","","","","","",""
"d3-animate-choice","241","547837","0.0-77.0-0.35","474","6189","20","Female","false","true","false","true","""event"",""trial"",""time""
""fullscreenenter"",""5"",""8998""
","
","
","""event"",""trial"",""time""
""fullscreenenter"",""5"",""8998""
","
","298.2999997138977","","48","","","3000","1","","","images/earth.jpg","images/rocket1","images/rocket2","null","images/rocket1","","1","real","null","2","","",""
"d3-animate-choice","242","550226","0.0-77.0-1.35","474","6189","20","Female","false","true","false","true","""event"",""trial"",""time""
""fullscreenenter"",""5"",""8998""
","
","
","""event"",""trial"",""time""
""fullscreenenter"",""5"",""8998""
","
","384.5","","49","","","3000","1","","","images/redplanet1.jpg","images/alien2","images/alien1","images/rocket1","images/alien1","images/t.png","2","real","true","1","common","1","2023-02-05 03:18:47.429"
"two-step-fixation","243","551233","0.0-77.0-2.35","474","6189","20","Female","false","true","false","true","""event"",""trial"",""time""
""fullscreenenter"",""5"",""8998""
","
","
","""event"",""trial"",""time""
""fullscreenenter"",""5"",""8998""
","
","","images/earth.jpg","","","","","","","","","","","","","","fixation","","","","","",""
"d3-animate-choice","244","553472","0.0-77.0-0.36","474","6189","20","Female","false","true","false","true","""event"",""trial"",""time""
""fullscreenenter"",""5"",""8998""
","
","
","""event"",""trial"",""time""
""fullscreenenter"",""5"",""8998""
","
","234.5","","48","","","3000","1","","","images/earth.jpg","images/rocket1","images/rocket2","null","images/rocket1","","1","real","null","2","","",""
"d3-animate-choice","245","555826","0.0-77.0-1.36","474","6189","20","Female","false","true","false","true","""event"",""trial"",""time""
""fullscreenenter"",""5"",""8998""
","
","
","""event"",""trial"",""time""
""fullscreenenter"",""5"",""8998""
","
","350.5","","49","","","3000","1","","","images/redplanet1.jpg","images/alien2","images/alien1","images/rocket1","images/alien1","images/nothing.png","2","real","true","1","common","0","2023-02-05 03:18:53.029"
"two-step-fixation","246","556832","0.0-77.0-2.36","474","6189","20","Female","false","true","false","true","""event"",""trial"",""time""
""fullscreenenter"",""5"",""8998""
","
","
","""event"",""trial"",""time""
""fullscreenenter"",""5"",""8998""
","
","","images/earth.jpg","","","","","","","","","","","","","","fixation","","","","","",""
"d3-animate-choice","247","559260","0.0-77.0-0.37","474","6189","20","Female","false","true","false","true","""event"",""trial"",""time""
""fullscreenenter"",""5"",""8998""
","
","
","""event"",""trial"",""time""
""fullscreenenter"",""5"",""8998""
","
