"trial_type","trial_index","time_elapsed","internal_node_id","participant_id","subject_id","age","gender","rocket_sides","red_planet_first_rocket","red_display_order","purple_display_order","interactions","blur_events","focus_events","fullscreenenter_events","fullscreenexit_events","rt","stimulus","key_press","button_pressed","success","duration","valid_pressed","rts","keys","planet_text","right_text","left_text","center_text","chosen_text","reward_text","trial_stage","practice_trial","transition_type","choice","transition","reward","timestamp"
"pavlovia","0","9","0.0-0.0","472","815","24","Female","false","false","false","true","
","
","
","
","
","","","","","","","","","","","","","","","","","","","","","",""
"html-keyboard-response","1","1064","0.0-1.0","472","815","24","Female","false","false","false","true","
","
","
","
","
","1054","Welcome! Press the space bar to begin.","32","","","","","","","","","","","","","","","","","","",""
"audio-keyboard-response","2","3560","0.0-2.0","472","815","24","Female","false","false","false","true","
","
","
","
","
","2491","audio/beep_loop.wav","32","","","","","","","","","","","","","","","","","","",""
"audio-button-response","3","5482","0.0-3.0","472","815","24","Female","false","false","false","true","
","
","
","
","
","NaN","audio/fish.mp3","","1","","","","","","","","","","","","","","","","","",""
"audio-button-response","4","8678","0.0-4.0","472","815","24","Female","false","false","false","true","""event"",""trial"",""time""
""fullscreenenter"",""5"",""11953""
","
","
","""event"",""trial"",""time""
""fullscreenenter"",""5"",""11953""
","
","NaN","audio/tiger.mp3","","4","","","","","","","","","","","","","","","","","",""
"fullscreen","5","12703","0.0-5.0","472","815","24","Female","false","false","false","true","""event"",""trial"",""time""
""fullscreenenter"",""5"",""11953""
","
","
","""event"",""trial"",""time""
""fullscreenenter"",""5"",""11953""
","
","","","","","true","","","","","","","","","","","","","","","","",""
"d3-instructions","6","27045","0.0-6.0","472","815","24","Female","false","false","false","true","""event"",""trial"",""time""
""fullscreenenter"",""5"",""11953""
","
","
","""event"",""trial"",""time""
""fullscreenenter"",""5"",""11953""
","
","","","","","","","","","","","","","","","","","","","","","",""
"d3-instructions","7","35499","0.0-7.0","472","815","24","Female","false","false","false","true","""event"",""trial"",""time""
""fullscreenenter"",""5"",""11953""
","
","
","""event"",""trial"",""time""
""fullscreenenter"",""5"",""11953""
","
","","","","","","","","","","","","","","","","","","","","","",""
"d3-instructions","8","43064","0.0-8.0","472","815","24","Female","false","false","false","true","""event"",""trial"",""time""
""fullscreenenter"",""5"",""11953""
","
","
","""event"",""trial"",""time""
""fullscreenenter"",""5"",""11953""
","
","","","","","","","","","","","","","","","","","","","","","",""
"d3-instructions","9","54881","0.0-9.0","472","815","24","Female","false","false","false","true","""event"",""trial"",""time""
""fullscreenenter"",""5"",""11953""
","
","
","""event"",""trial"",""time""
""fullscreenenter"",""5"",""11953""
","
","","","","","","","","","","","","","","","","","","","","","",""
"d3-instructions","10","74641","0.0-10.0","472","815","24","Female","false","false","false","true","""event"",""trial"",""time""
""fullscreenenter"",""5"",""11953""
","
","
","""event"",""trial"",""time""
""fullscreenenter"",""5"",""11953""
","
","","","","","","","","","","","","","","","","","","","","","",""
"d3-animate-choice","11","77500","0.0-11.0","472","815","24","Female","false","false","false","true","""event"",""trial"",""time""
""fullscreenenter"",""5"",""11953""
","
","
","""event"",""trial"",""time""
""fullscreenenter"",""5"",""11953""
","
","844","","49","","","3000","1","1844,2410","48,48","images/tutgreenplanet.jpg","images/tutalien1","images/tutalien2","null","images/tutalien2","","NA","practice","null","","","",""
"d3-animate-choice","12","80305","0.0-12.0","472","815","24","Female","false","false","false","true","""event"",""trial"",""time""
""fullscreenenter"",""5"",""11953""
","
","
","""event"",""trial"",""time""
""fullscreenenter"",""5"",""11953""
","
","785","","48","","","3000","1","","","images/tutgreenplanet.jpg","images/tutalien1","images/tutalien2","null","images/tutalien1","","NA","practice","null","","","",""
"d3-animate-choice","13","83815","0.0-13.0","472","815","24","Female","false","false","false","true","""event"",""trial"",""time""
""fullscreenenter"",""5"",""11953""
","
","
","""event"",""trial"",""time""
""fullscreenenter"",""5"",""11953""
","
","1493","","48","","","3000","1","","","images/tutgreenplanet.jpg","images/tutalien1","images/tutalien2","null","images/tutalien1","","NA","practice","null","","","",""
"d3-animate-choice","14","86641","0.0-14.0","472","815","24","Female","false","false","false","true","""event"",""trial"",""time""
""fullscreenenter"",""5"",""11953""
","
","
","""event"",""trial"",""time""
""fullscreenenter"",""5"",""11953""
","
","806","","49","","","3000","1","","","images/tutgreenplanet.jpg","images/tutalien1","images/tutalien2","null","images/tutalien2","","NA","practice","null","","","",""
"d3-instructions","15","93473","0.0-15.0","472","815","24","Female","false","false","false","true","""event"",""trial"",""time""
""fullscreenenter"",""5"",""11953""
","
","
","""event"",""trial"",""time""
""fullscreenenter"",""5"",""11953""
","
","","","","","","","","","","","","","","","","","","","","","",""
"d3-instructions","16","100722","0.0-16.0","472","815","24","Female","false","false","false","true","""event"",""trial"",""time""
""fullscreenenter"",""5"",""11953""
","
","
","""event"",""trial"",""time""
""fullscreenenter"",""5"",""11953""
","
","","","","","","","","","","","","","","","","","","","","","",""
"d3-instructions","17","109822","0.0-17.0","472","815","24","Female","false","false","false","true","""event"",""trial"",""time""
""fullscreenenter"",""5"",""11953""
","
","
","""event"",""trial"",""time""
""fullscreenenter"",""5"",""11953""
","
","","","","","","","","","","","","","","","","","","","","","",""
"d3-instructions","18","123093","0.0-18.0","472","815","24","Female","false","false","false","true","""event"",""trial"",""time""
""fullscreenenter"",""5"",""11953""
","
","
","""event"",""trial"",""time""
""fullscreenenter"",""5"",""11953""
","
","","","","","","","","","","","","","","","","","","","","","",""
"d3-instructions","19","137586","0.0-19.0","472","815","24","Female","false","false","false","true","""event"",""trial"",""time""
""fullscreenenter"",""5"",""11953""
","
","
","""event"",""trial"",""time""
""fullscreenenter"",""5"",""11953""
","
","","","","","","","","","","","","","","","","","","","","","",""
"d3-animate-choice","20","140949","0.0-20.0","472","815","24","Female","false","false","false","true","""event"",""trial"",""time""
""fullscreenenter"",""5"",""11953""
","
","
","""event"",""trial"",""time""
""fullscreenenter"",""5"",""11953""
","
","1344","","49","","","3000","1","","","images/tutyellowplanet.jpg","null","images/tutalien3","null","images/tutalien3","images/nothing.png","NA","practice","null","","","",""
"d3-animate-choice","21","143778","0.0-21.0","472","815","24","Female","false","false","false","true","""event"",""trial"",""time""
""fullscreenenter"",""5"",""11953""
","
","
","""event"",""trial"",""time""
""fullscreenenter"",""5"",""11953""
","
","820","","49","","","3000","1","","","images/tutyellowplanet.jpg","null","images/tutalien3","null","images/tutalien3","images/t.png","NA","practice","null","","","",""
"d3-animate-choice","22","146380","0.0-22.0","472","815","24","Female","false","false","false","true","""event"",""trial"",""time""
""fullscreenenter"",""5"",""11953""
","
","
","""event"",""trial"",""time""
""fullscreenenter"",""5"",""11953""
","
","579","","49","","","3000","1","","","images/tutyellowplanet.jpg","null","images/tutalien3","null","images/tutalien3","images/t.png","NA","practice","null","","","",""
"d3-animate-choice","23","148919","0.0-23.0","472","815","24","Female","false","false","false","true","""event"",""trial"",""time""
""fullscreenenter"",""5"",""11953""
","
","
","""event"",""trial"",""time""
""fullscreenenter"",""5"",""11953""
","
","524","","49","","","3000","1","","","images/tutyellowplanet.jpg","null","images/tutalien3","null","images/tutalien3","images/t.png","NA","practice","null","","","",""
"d3-animate-choice","24","151169","0.0-24.0","472","815","24","Female","false","false","false","true","""event"",""trial"",""time""
""fullscreenenter"",""5"",""11953""
","
","
","""event"",""trial"",""time""
""fullscreenenter"",""5"",""11953""
","
","230","","49","","","3000","1","","","images/tutyellowplanet.jpg","null","images/tutalien3","null","images/tutalien3","images/t.png","NA","practice","null","","","",""
"d3-animate-choice","25","153519","0.0-25.0","472","815","24","Female","false","false","false","true","""event"",""trial"",""time""
""fullscreenenter"",""5"",""11953""
","
","
","""event"",""trial"",""time""
""fullscreenenter"",""5"",""11953""
","
","337","","49","","","3000","1","","","images/tutyellowplanet.jpg","null","images/tutalien3","null","images/tutalien3","images/nothing.png","NA","practice","null","","","",""
"d3-animate-choice","26","155999","0.0-26.0","472","815","24","Female","false","false","false","true","""event"",""trial"",""time""
""fullscreenenter"",""5"",""11953""
","
","
","""event"",""trial"",""time""
""fullscreenenter"",""5"",""11953""
","
","462","","49","","","3000","1","","","images/tutyellowplanet.jpg","null","images/tutalien3","null","images/tutalien3","images/nothing.png","NA","practice","null","","","",""
"d3-animate-choice","27","158589","0.0-27.0","472","815","24","Female","false","false","false","true","""event"",""trial"",""time""
""fullscreenenter"",""5"",""11953""
","
","
","""event"",""trial"",""time""
""fullscreenenter"",""5"",""11953""
","
","577","","49","","","3000","1","","","images/tutyellowplanet.jpg","null","images/tutalien3","null","images/tutalien3","images/t.png","NA","practice","null","","","",""
"d3-animate-choice","28","160909","0.0-28.0","472","815","24","Female","false","false","false","true","""event"",""trial"",""time""
""fullscreenenter"",""5"",""11953""
","
","
","""event"",""trial"",""time""
""fullscreenenter"",""5"",""11953""
","
","314","","49","","","3000","1","","","images/tutyellowplanet.jpg","null","images/tutalien3","null","images/tutalien3","images/t.png","NA","practice","null","","","",""
"d3-animate-choice","29","163322","0.0-29.0","472","815","24","Female","false","false","false","true","""event"",""trial"",""time""
""fullscreenenter"",""5"",""11953""
","
","
","""event"",""trial"",""time""
""fullscreenenter"",""5"",""11953""
","
","401","","49","","","3000","1","","","images/tutyellowplanet.jpg","null","images/tutalien3","null","images/tutalien3","images/t.png","NA","practice","null","","","",""
"d3-instructions","30","170349","0.0-30.0","472","815","24","Female","false","false","false","true","""event"",""trial"",""time""
""fullscreenenter"",""5"",""11953""
","
","
","""event"",""trial"",""time""
""fullscreenenter"",""5"",""11953""
","
","","","","","","","","","","","","","","","","","","","","","",""
"d3-instructions","31","180472","0.0-31.0","472","815","24","Female","false","false","false","true","""event"",""trial"",""time""
""fullscreenenter"",""5"",""11953""
","
","
","""event"",""trial"",""time""
""fullscreenenter"",""5"",""11953""
","
","","","","","","","","","","","","","","","","","","","","","",""
"d3-instructions","32","188132","0.0-32.0","472","815","24","Female","false","false","false","true","""event"",""trial"",""time""
""fullscreenenter"",""5"",""11953""
","
","
","""event"",""trial"",""time""
""fullscreenenter"",""5"",""11953""
","
","","","","","","","","","","","","","","","","","","","","","",""
"d3-instructions","33","196612","0.0-33.0","472","815","24","Female","false","false","false","true","""event"",""trial"",""time""
""fullscreenenter"",""5"",""11953""
","
","
","""event"",""trial"",""time""
""fullscreenenter"",""5"",""11953""
","
","","","","","","","","","","","","","","","","","","","","","",""
"d3-animate-choice","34","199579","0.0-34.0","472","815","24","Female","false","false","false","true","""event"",""trial"",""time""
""fullscreenenter"",""5"",""11953""
","
","
","""event"",""trial"",""time""
""fullscreenenter"",""5"",""11953""
","
","952","","49","","","3000","1","","","images/tutgreenplanet.jpg","images/tutalien1","images/tutalien2","null","images/tutalien2","images/t.png","NA","practice","null","","","",""
"d3-animate-choice","35","202047","0.0-35.0","472","815","24","Female","false","false","false","true","""event"",""trial"",""time""
""fullscreenenter"",""5"",""11953""
","
","
","""event"",""trial"",""time""
""fullscreenenter"",""5"",""11953""
","
","452","","49","","","3000","1","","","images/tutgreenplanet.jpg","images/tutalien1","images/tutalien2","null","images/tutalien2","images/t.png","NA","practice","null","","","",""
"d3-animate-choice","36","204544","0.0-36.0","472","815","24","Female","false","false","false","true","""event"",""trial"",""time""
""fullscreenenter"",""5"",""11953""
","
","
","""event"",""trial"",""time""
""fullscreenenter"",""5"",""11953""
","
","480","","49","","","3000","1","","","images/tutgreenplanet.jpg","images/tutalien1","images/tutalien2","null","images/tutalien2","images/nothing.png","NA","practice","null","","","",""
"d3-animate-choice","37","207020","0.0-37.0","472","815","24","Female","false","false","false","true","""event"",""trial"",""time""
""fullscreenenter"",""5"",""11953""
","
","
","""event"",""trial"",""time""
""fullscreenenter"",""5"",""11953""
","
","456","","49","","","3000","1","","","images/tutgreenplanet.jpg","images/tutalien1","images/tutalien2","null","images/tutalien2","images/t.png","NA","practice","null","","","",""
"d3-animate-choice","38","209699","0.0-38.0","472","815","24","Female","false","false","false","true","""event"",""trial"",""time""
""fullscreenenter"",""5"",""11953""
","
","
","""event"",""trial"",""time""
""fullscreenenter"",""5"",""11953""
","
","666","","49","","","3000","1","","","images/tutgreenplanet.jpg","images/tutalien1","images/tutalien2","null","images/tutalien2","images/t.png","NA","practice","null","","","",""
"d3-animate-choice","39","212449","0.0-39.0","472","815","24","Female","false","false","false","true","""event"",""trial"",""time""
""fullscreenenter"",""5"",""11953""
","
","
","""event"",""trial"",""time""
""fullscreenenter"",""5"",""11953""
","
","744","","48","","","3000","1","","","images/tutgreenplanet.jpg","images/tutalien1","images/tutalien2","null","images/tutalien1","images/nothing.png","NA","practice","null","","","",""
"d3-animate-choice","40","214812","0.0-40.0","472","815","24","Female","false","false","false","true","""event"",""trial"",""time""
""fullscreenenter"",""5"",""11953""
","
","
","""event"",""trial"",""time""
""fullscreenenter"",""5"",""11953""
","
","344","","48","","","3000","1","","","images/tutgreenplanet.jpg","images/tutalien1","images/tutalien2","null","images/tutalien1","images/nothing.png","NA","practice","null","","","",""
"d3-animate-choice","41","217239","0.0-41.0","472","815","24","Female","false","false","false","true","""event"",""trial"",""time""
""fullscreenenter"",""5"",""11953""
","
","
","""event"",""trial"",""time""
""fullscreenenter"",""5"",""11953""
","
","417","","48","","","3000","1","","","images/tutgreenplanet.jpg","images/tutalien1","images/tutalien2","null","images/tutalien1","images/t.png","NA","practice","null","","","",""
"d3-animate-choice","42","219743","0.0-42.0","472","815","24","Female","false","false","false","true","""event"",""trial"",""time""
""fullscreenenter"",""5"",""11953""
","
","
","""event"",""trial"",""time""
""fullscreenenter"",""5"",""11953""
","
","493","","48","","","3000","1","","","images/tutgreenplanet.jpg","images/tutalien1","images/tutalien2","null","images/tutalien1","images/nothing.png","NA","practice","null","","","",""
"d3-animate-choice","43","222578","0.0-43.0","472","815","24","Female","false","false","false","true","""event"",""trial"",""time""
""fullscreenenter"",""5"",""11953""
","
","
","""event"",""trial"",""time""
""fullscreenenter"",""5"",""11953""
","
","817","","48","","","3000","1","","","images/tutgreenplanet.jpg","images/tutalien1","images/tutalien2","null","images/tutalien1","images/nothing.png","NA","practice","null","","","",""
"d3-instructions","44","234590","0.0-44.0","472","815","24","Female","false","false","false","true","""event"",""trial"",""time""
""fullscreenenter"",""5"",""11953""
","
","
","""event"",""trial"",""time""
""fullscreenenter"",""5"",""11953""
","
","","","","","","","","","","","","","","","","","","","","","",""
"d3-instructions","45","240191","0.0-45.0","472","815","24","Female","false","false","false","true","""event"",""trial"",""time""
""fullscreenenter"",""5"",""11953""
","
","
","""event"",""trial"",""time""
""fullscreenenter"",""5"",""11953""
","
","","","","","","","","","","","","","","","","","","","","","",""
"d3-instructions","46","245126","0.0-46.0","472","815","24","Female","false","false","false","true","""event"",""trial"",""time""
""fullscreenenter"",""5"",""11953""
","
","
","""event"",""trial"",""time""
""fullscreenenter"",""5"",""11953""
","
","","","","","","","","","","","","","","","","","","","","","",""
"d3-instructions","47","262324","0.0-47.0","472","815","24","Female","false","false","false","true","""event"",""trial"",""time""
""fullscreenenter"",""5"",""11953""
","
","
","""event"",""trial"",""time""
""fullscreenenter"",""5"",""11953""
","
","","","","","","","","","","","","","","","","","","","","","",""
"d3-instructions","48","268762","0.0-48.0","472","815","24","Female","false","false","false","true","""event"",""trial"",""time""
""fullscreenenter"",""5"",""11953""
","
","
","""event"",""trial"",""time""
""fullscreenenter"",""5"",""11953""
","
","","","","","","","","","","","","","","","","","","","","","",""
"d3-instructions","49","280034","0.0-49.0","472","815","24","Female","false","false","false","true","""event"",""trial"",""time""
""fullscreenenter"",""5"",""11953""
","
","
","""event"",""trial"",""time""
""fullscreenenter"",""5"",""11953""
","
","","","","","","","","","","","","","","","","","","","","","",""
"d3-instructions","50","288991","0.0-50.0","472","815","24","Female","false","false","false","true","""event"",""trial"",""time""
""fullscreenenter"",""5"",""11953""
","
","
","""event"",""trial"",""time""
""fullscreenenter"",""5"",""11953""
","
","","","","","","","","","","","","","","","","","","","","","",""
"d3-instructions","51","292139","0.0-51.0","472","815","24","Female","false","false","false","true","""event"",""trial"",""time""
""fullscreenenter"",""5"",""11953""
","
","
","""event"",""trial"",""time""
""fullscreenenter"",""5"",""11953""
","
","","","","","","","","","","","","","","","","","","","","","",""
"d3-instructions","52","295226","0.0-52.0","472","815","24","Female","false","false","false","true","""event"",""trial"",""time""
""fullscreenenter"",""5"",""11953""
","
","
","""event"",""trial"",""time""
""fullscreenenter"",""5"",""11953""
","
","","","","","","","","","","","","","","","","","","","","","",""
"d3-instructions","53","307597","0.0-53.0","472","815","24","Female","false","false","false","true","""event"",""trial"",""time""
""fullscreenenter"",""5"",""11953""
","
","
","""event"",""trial"",""time""
""fullscreenenter"",""5"",""11953""
","
","","","","","","","","","","","","","","","","","","","","","",""
"d3-instructions","54","320365","0.0-54.0","472","815","24","Female","false","false","false","true","""event"",""trial"",""time""
""fullscreenenter"",""5"",""11953""
","
","
","""event"",""trial"",""time""
""fullscreenenter"",""5"",""11953""
","
","","","","","","","","","","","","","","","","","","","","","",""
"d3-instructions","55","330768","0.0-55.0","472","815","24","Female","false","false","false","true","""event"",""trial"",""time""
""fullscreenenter"",""5"",""11953""
","
","
","""event"",""trial"",""time""
""fullscreenenter"",""5"",""11953""
","
","","","","","","","","","","","","","","","","","","","","","",""
"d3-instructions","56","339759","0.0-56.0","472","815","24","Female","false","false","false","true","""event"",""trial"",""time""
""fullscreenenter"",""5"",""11953""
","
","
","""event"",""trial"",""time""
""fullscreenenter"",""5"",""11953""
","
","","","","","","","","","","","","","","","","","","","","","",""
"d3-instructions","57","349984","0.0-57.0","472","815","24","Female","false","false","false","true","""event"",""trial"",""time""
""fullscreenenter"",""5"",""11953""
","
","
","""event"",""trial"",""time""
""fullscreenenter"",""5"",""11953""
","
","","","","","","","","","","","","","","","","","","","","","",""
"d3-instructions","58","360752","0.0-58.0","472","815","24","Female","false","false","false","true","""event"",""trial"",""time""
""fullscreenenter"",""5"",""11953""
","
","
","""event"",""trial"",""time""
""fullscreenenter"",""5"",""11953""
","
","","","","","","","","","","","","","","","","","","","","","",""
"d3-instructions","59","366263","0.0-59.0","472","815","24","Female","false","false","false","true","""event"",""trial"",""time""
""fullscreenenter"",""5"",""11953""
","
","
","""event"",""trial"",""time""
""fullscreenenter"",""5"",""11953""
","
","","","","","","","","","","","","","","","","","","","","","",""
"d3-instructions","60","373369","0.0-60.0","472","815","24","Female","false","false","false","true","""event"",""trial"",""time""
""fullscreenenter"",""5"",""11953""
","
","
","""event"",""trial"",""time""
""fullscreenenter"",""5"",""11953""
","
","","","","","","","","","","","","","","","","","","","","","",""
"d3-animate-choice","61","376290","0.0-61.0-0.0","472","815","24","Female","false","false","false","true","""event"",""trial"",""time""
""fullscreenenter"",""5"",""11953""
","
","
","""event"",""trial"",""time""
""fullscreenenter"",""5"",""11953""
","
","897","","49","","","3000","1","","","images/earth.jpg","images/tutrocket2","images/tutrocket1","null","images/tutrocket1","","1","practice","null","1","","",""
"d3-animate-choice","62","379094","0.0-61.0-1.0","472","815","24","Female","false","false","false","true","""event"",""trial"",""time""
""fullscreenenter"",""5"",""11953""
","
","
","""event"",""trial"",""time""
""fullscreenenter"",""5"",""11953""
","
","780","","49","","","3000","1","","","images/tutyellowplanet.jpg","images/tutalien4","images/tutalien3","images/tutrocket1","images/tutalien3","images/nothing.png","2","practice","true","1","common","0","2022-02-20 18:22:29.694"
"two-step-fixation","63","380102","0.0-61.0-2.0","472","815","24","Female","false","false","false","true","""event"",""trial"",""time""
""fullscreenenter"",""5"",""11953""
","
","
","""event"",""trial"",""time""
""fullscreenenter"",""5"",""11953""
","
","","images/earth.jpg","","","","","","","","","","","","","","fixation","","","","","",""
"d3-animate-choice","64","382558","0.0-61.0-0.1","472","815","24","Female","false","false","false","true","""event"",""trial"",""time""
""fullscreenenter"",""5"",""11953""
","
","
","""event"",""trial"",""time""
""fullscreenenter"",""5"",""11953""
","
","446","","49","","","3000","1","","","images/earth.jpg","images/tutrocket2","images/tutrocket1","null","images/tutrocket1","","1","practice","null","1","","",""
"d3-animate-choice","65","385210","0.0-61.0-1.1","472","815","24","Female","false","false","false","true","""event"",""trial"",""time""
""fullscreenenter"",""5"",""11953""
","
","
","""event"",""trial"",""time""
""fullscreenenter"",""5"",""11953""
","
","636","","49","","","3000","1","","","images/tutyellowplanet.jpg","images/tutalien4","images/tutalien3","images/tutrocket1","images/tutalien3","images/t.png","2","practice","true","1","common","1","2022-02-20 18:22:35.811"
"two-step-fixation","66","386218","0.0-61.0-2.1","472","815","24","Female","false","false","false","true","""event"",""trial"",""time""
""fullscreenenter"",""5"",""11953""
","
","
","""event"",""trial"",""time""
""fullscreenenter"",""5"",""11953""
","
","","images/earth.jpg","","","","","","","","","","","","","","fixation","","","","","",""
"d3-animate-choice","67","388587","0.0-61.0-0.2","472","815","24","Female","false","false","false","true","""event"",""trial"",""time""
""fullscreenenter"",""5"",""11953""
","
","
","""event"",""trial"",""time""
""fullscreenenter"",""5"",""11953""
","
","346","","49","","","3000","1","","","images/earth.jpg","images/tutrocket2","images/tutrocket1","null","images/tutrocket1","","1","practice","null","1","","",""
"d3-animate-choice","68","391090","0.0-61.0-1.2","472","815","24","Female","false","false","false","true","""event"",""trial"",""time""
""fullscreenenter"",""5"",""11953""
","
","
","""event"",""trial"",""time""
""fullscreenenter"",""5"",""11953""
","
","492","","49","","","3000","1","","","images/tutyellowplanet.jpg","images/tutalien4","images/tutalien3","images/tutrocket1","images/tutalien3","images/nothing.png","2","practice","true","1","common","0","2022-02-20 18:22:41.691"
"two-step-fixation","69","392099","0.0-61.0-2.2","472","815","24","Female","false","false","false","true","""event"",""trial"",""time""
""fullscreenenter"",""5"",""11953""
","
","
","""event"",""trial"",""time""
""fullscreenenter"",""5"",""11953""
","
","","images/earth.jpg","","","","","","","","","","","","","","fixation","","","","","",""
"d3-animate-choice","70","394579","0.0-61.0-0.3","472","815","24","Female","false","false","false","true","""event"",""trial"",""time""
""fullscreenenter"",""5"",""11953""
","
","
","""event"",""trial"",""time""
""fullscreenenter"",""5"",""11953""
","
","465","","49","","","3000","1","","","images/earth.jpg","images/tutrocket2","images/tutrocket1","null","images/tutrocket1","","1","practice","null","1","","",""
"d3-animate-choice","71","397259","0.0-61.0-1.3","472","815","24","Female","false","false","false","true","""event"",""trial"",""time""
""fullscreenenter"",""5"",""11953""
","
","
","""event"",""trial"",""time""
""fullscreenenter"",""5"",""11953""
","
","666","","48","","","3000","1","","","images/tutyellowplanet.jpg","images/tutalien4","images/tutalien3","images/tutrocket1","images/tutalien4","images/t.png","2","practice","true","2","common","1","2022-02-20 18:22:47.859"
"two-step-fixation","72","398268","0.0-61.0-2.3","472","815","24","Female","false","false","false","true","""event"",""trial"",""time""
""fullscreenenter"",""5"",""11953""
","
","
","""event"",""trial"",""time""
""fullscreenenter"",""5"",""11953""
","
","","images/earth.jpg","","","","","","","","","","","","","","fixation","","","","","",""
"d3-animate-choice","73","400809","0.0-61.0-0.4","472","815","24","Female","false","false","false","true","""event"",""trial"",""time""
""fullscreenenter"",""5"",""11953""
","
","
","""event"",""trial"",""time""
""fullscreenenter"",""5"",""11953""
","
","530","","49","","","3000","1","","","images/earth.jpg","images/tutrocket2","images/tutrocket1","null","images/tutrocket1","","1","practice","null","1","","",""
"d3-animate-choice","74","403400","0.0-61.0-1.4","472","815","24","Female","false","false","false","true","""event"",""trial"",""time""
""fullscreenenter"",""5"",""11953""
","
","
","""event"",""trial"",""time""
""fullscreenenter"",""5"",""11953""
","
","581","","48","","","3000","1","","","images/tutyellowplanet.jpg","images/tutalien4","images/tutalien3","images/tutrocket1","images/tutalien4","images/t.png","2","practice","true","2","common","1","2022-02-20 18:22:54.000"
"two-step-fixation","75","404419","0.0-61.0-2.4","472","815","24","Female","false","false","false","true","""event"",""trial"",""time""
""fullscreenenter"",""5"",""11953""
","
","
","""event"",""trial"",""time""
""fullscreenenter"",""5"",""11953""
","
","","images/earth.jpg","","","","","","","","","","","","","","fixation","","","","","",""
"d3-animate-choice","76","406778","0.0-61.0-0.5","472","815","24","Female","false","false","false","true","""event"",""trial"",""time""
""fullscreenenter"",""5"",""11953""
","
","
","""event"",""trial"",""time""
""fullscreenenter"",""5"",""11953""
","
","349","","49","","","3000","1","","","images/earth.jpg","images/tutrocket2","images/tutrocket1","null","images/tutrocket1","","1","practice","null","1","","",""
"d3-animate-choice","77","409262","0.0-61.0-1.5","472","815","24","Female","false","false","false","true","""event"",""trial"",""time""
""fullscreenenter"",""5"",""11953""
","
","
","""event"",""trial"",""time""
""fullscreenenter"",""5"",""11953""
","
","466","","48","","","3000","1","","","images/tutyellowplanet.jpg","images/tutalien4","images/tutalien3","images/tutrocket1","images/tutalien4","images/nothing.png","2","practice","true","2","common","0","2022-02-20 18:22:59.863"
"two-step-fixation","78","410267","0.0-61.0-2.5","472","815","24","Female","false","false","false","true","""event"",""trial"",""time""
""fullscreenenter"",""5"",""11953""
","
","
","""event"",""trial"",""time""
""fullscreenenter"",""5"",""11953""
","
","","images/earth.jpg","","","","","","","","","","","","","","fixation","","","","","",""
"d3-animate-choice","79","412557","0.0-61.0-0.6","472","815","24","Female","false","false","false","true","""event"",""trial"",""time""
""fullscreenenter"",""5"",""11953""
","
","
","""event"",""trial"",""time""
""fullscreenenter"",""5"",""11953""
","
","283","","49","","","3000","1","","","images/earth.jpg","images/tutrocket2","images/tutrocket1","null","images/tutrocket1","","1","practice","null","1","","",""
"d3-animate-choice","80","414975","0.0-61.0-1.6","472","815","24","Female","false","false","false","true","""event"",""trial"",""time""
""fullscreenenter"",""5"",""11953""
","
","
","""event"",""trial"",""time""
""fullscreenenter"",""5"",""11953""
","
","410","","48","","","3000","1","","","images/tutyellowplanet.jpg","images/tutalien4","images/tutalien3","images/tutrocket1","images/tutalien4","images/t.png","2","practice","true","2","common","1","2022-02-20 18:23:05.576"
"two-step-fixation","81","415986","0.0-61.0-2.6","472","815","24","Female","false","false","false","true","""event"",""trial"",""time""
""fullscreenenter"",""5"",""11953""
","
","
","""event"",""trial"",""time""
""fullscreenenter"",""5"",""11953""
","
","","images/earth.jpg","","","","","","","","","","","","","","fixation","","","","","",""
"d3-animate-choice","82","418295","0.0-61.0-0.7","472","815","24","Female","false","false","false","true","""event"",""trial"",""time""
""fullscreenenter"",""5"",""11953""
","
","
","""event"",""trial"",""time""
""fullscreenenter"",""5"",""11953""
","
","296","","49","","","3000","1","","","images/earth.jpg","images/tutrocket2","images/tutrocket1","null","images/tutrocket1","","1","practice","null","1","","",""
"d3-animate-choice","83","420670","0.0-61.0-1.7","472","815","24","Female","false","false","false","true","""event"",""trial"",""time""
""fullscreenenter"",""5"",""11953""
","
","
","""event"",""trial"",""time""
""fullscreenenter"",""5"",""11953""
","
","351","","48","","","3000","1","","","images/tutyellowplanet.jpg","images/tutalien4","images/tutalien3","images/tutrocket1","images/tutalien4","images/t.png","2","practice","true","2","common","1","2022-02-20 18:23:11.270"
"two-step-fixation","84","421687","0.0-61.0-2.7","472","815","24","Female","false","false","false","true","""event"",""trial"",""time""
""fullscreenenter"",""5"",""11953""
","
","
","""event"",""trial"",""time""
""fullscreenenter"",""5"",""11953""
","
","","images/earth.jpg","","","","","","","","","","","","","","fixation","","","","","",""
"d3-animate-choice","85","423976","0.0-61.0-0.8","472","815","24","Female","false","false","false","true","""event"",""trial"",""time""
""fullscreenenter"",""5"",""11953""
","
","
","""event"",""trial"",""time""
""fullscreenenter"",""5"",""11953""
","
","281","","49","","","3000","1","","","images/earth.jpg","images/tutrocket2","images/tutrocket1","null","images/tutrocket1","","1","practice","null","1","","",""
"d3-animate-choice","86","426452","0.0-61.0-1.8","472","815","24","Female","false","false","false","true","""event"",""trial"",""time""
""fullscreenenter"",""5"",""11953""
","
","
","""event"",""trial"",""time""
""fullscreenenter"",""5"",""11953""
","
","461","","48","","","3000","1","","","images/tutyellowplanet.jpg","images/tutalien4","images/tutalien3","images/tutrocket1","images/tutalien4","images/nothing.png","2","practice","true","2","common","0","2022-02-20 18:23:17.052"
"two-step-fixation","87","427457","0.0-61.0-2.8","472","815","24","Female","false","false","false","true","""event"",""trial"",""time""
""fullscreenenter"",""5"",""11953""
","
","
","""event"",""trial"",""time""
""fullscreenenter"",""5"",""11953""
","
","","images/earth.jpg","","","","","","","","","","","","","","fixation","","","","","",""
"d3-animate-choice","88","429889","0.0-61.0-0.9","472","815","24","Female","false","false","false","true","""event"",""trial"",""time""
""fullscreenenter"",""5"",""11953""
","
","
","""event"",""trial"",""time""
""fullscreenenter"",""5"",""11953""
","
","411","","49","","","3000","1","","","images/earth.jpg","images/tutrocket2","images/tutrocket1","null","images/tutrocket1","","1","practice","null","1","","",""
"d3-animate-choice","89","432464","0.0-61.0-1.9","472","815","24","Female","false","false","false","true","""event"",""trial"",""time""
""fullscreenenter"",""5"",""11953""
","
","
","""event"",""trial"",""time""
""fullscreenenter"",""5"",""11953""
","
","554","","48","","","3000","1","","","images/tutyellowplanet.jpg","images/tutalien4","images/tutalien3","images/tutrocket1","images/tutalien4","images/t.png","2","practice","true","2","common","1","2022-02-20 18:23:23.065"
"two-step-fixation","90","433468","0.0-61.0-2.9","472","815","24","Female","false","false","false","true","""event"",""trial"",""time""
""fullscreenenter"",""5"",""11953""
","
","
","""event"",""trial"",""time""
""fullscreenenter"",""5"",""11953""
","
","","images/earth.jpg","","","","","","","","","","","","","","fixation","","","","","",""
"d3-animate-choice","91","435778","0.0-61.0-0.10","472","815","24","Female","false","false","false","true","""event"",""trial"",""time""
""fullscreenenter"",""5"",""11953""
","
","
","""event"",""trial"",""time""
""fullscreenenter"",""5"",""11953""
","
","296","","49","","","3000","1","","","images/earth.jpg","images/tutrocket2","images/tutrocket1","null","images/tutrocket1","","1","practice","null","1","","",""
"d3-animate-choice","92","438164","0.0-61.0-1.10","472","815","24","Female","false","false","false","true","""event"",""trial"",""time""
""fullscreenenter"",""5"",""11953""
","
","
","""event"",""trial"",""time""
""fullscreenenter"",""5"",""11953""
","
","370","","48","","","3000","1","","","images/tutyellowplanet.jpg","images/tutalien4","images/tutalien3","images/tutrocket1","images/tutalien4","images/nothing.png","2","practice","true","2","common","0","2022-02-20 18:23:28.764"
"two-step-fixation","93","439170","0.0-61.0-2.10","472","815","24","Female","false","false","false","true","""event"",""trial"",""time""
""fullscreenenter"",""5"",""11953""
","
","
","""event"",""trial"",""time""
""fullscreenenter"",""5"",""11953""
","
","","images/earth.jpg","","","","","","","","","","","","","","fixation","","","","","",""
"d3-animate-choice","94","441461","0.0-61.0-0.11","472","815","24","Female","false","false","false","true","""event"",""trial"",""time""
""fullscreenenter"",""5"",""11953""
","
","
","""event"",""trial"",""time""
""fullscreenenter"",""5"",""11953""
","
","278","","49","","","3000","1","","","images/earth.jpg","images/tutrocket2","images/tutrocket1","null","images/tutrocket1","","1","practice","null","1","","",""
"d3-animate-choice","95","443900","0.0-61.0-1.11","472","815","24","Female","false","false","false","true","""event"",""trial"",""time""
""fullscreenenter"",""5"",""11953""
","
","
","""event"",""trial"",""time""
""fullscreenenter"",""5"",""11953""
","
","432","","48","","","3000","1","","","images/tutyellowplanet.jpg","images/tutalien4","images/tutalien3","images/tutrocket1","images/tutalien4","images/t.png","2","practice","true","2","common","1","2022-02-20 18:23:34.501"
"two-step-fixation","96","444914","0.0-61.0-2.11","472","815","24","Female","false","false","false","true","""event"",""trial"",""time""
""fullscreenenter"",""5"",""11953""
","
","
","""event"",""trial"",""time""
""fullscreenenter"",""5"",""11953""
","
","","images/earth.jpg","","","","","","","","","","","","","","fixation","","","","","",""
"d3-animate-choice","97","447965","0.0-61.0-0.12","472","815","24","Female","false","false","false","true","""event"",""trial"",""time""
""fullscreenenter"",""5"",""11953""
","
","
","""event"",""trial"",""time""
""fullscreenenter"",""5"",""11953""
","
","883","","50","","","3000","1","1037","48","images/earth.jpg","images/tutrocket2","images/tutrocket1","null","images/tutrocket2","","1","practice","null","","","",""
"d3-animate-choice","98","450474","0.0-61.0-1.12","472","815","24","Female","false","false","false","true","""event"",""trial"",""time""
""fullscreenenter"",""5"",""11953""
","
","
","""event"",""trial"",""time""
""fullscreenenter"",""5"",""11953""
","
","496","","48","","","3000","1","","","images/tutyellowplanet.jpg","images/tutalien4","images/tutalien3","images/tutrocket2","images/tutalien4","images/nothing.png","2","practice","false","2","rare","0","2022-02-20 18:23:41.074"
"two-step-fixation","99","451494","0.0-61.0-2.12","472","815","24","Female","false","false","false","true","""event"",""trial"",""time""
""fullscreenenter"",""5"",""11953""
","
","
","""event"",""trial"",""time""
""fullscreenenter"",""5"",""11953""
","
","","images/earth.jpg","","","","","","","","","","","","","","fixation","","","","","",""
"d3-animate-choice","100","453872","0.0-61.0-0.13","472","815","24","Female","false","false","false","true","""event"",""trial"",""time""
""fullscreenenter"",""5"",""11953""
","
","
","""event"",""trial"",""time""
""fullscreenenter"",""5"",""11953""
","
","372","","48","","","3000","1","","","images/earth.jpg","images/tutrocket2","images/tutrocket1","null","images/tutrocket2","","1","practice","null","2","","",""
"d3-animate-choice","101","456433","0.0-61.0-1.13","472","815","24","Female","false","false","false","true","""event"",""trial"",""time""
""fullscreenenter"",""5"",""11953""
","
","
","""event"",""trial"",""time""
""fullscreenenter"",""5"",""11953""
","
","539","","48","","","3000","1","","","images/tutgreenplanet.jpg","images/tutalien2","images/tutalien1","images/tutrocket2","images/tutalien2","images/t.png","2","practice","true","2","common","1","2022-02-20 18:23:47.033"
"two-step-fixation","102","457449","0.0-61.0-2.13","472","815","24","Female","false","false","false","true","""event"",""trial"",""time""
""fullscreenenter"",""5"",""11953""
","
","
","""event"",""trial"",""time""
""fullscreenenter"",""5"",""11953""
","
","","images/earth.jpg","","","","","","","","","","","","","","fixation","","","","","",""
"d3-animate-choice","103","459783","0.0-61.0-0.14","472","815","24","Female","false","false","false","true","""event"",""trial"",""time""
""fullscreenenter"",""5"",""11953""
","
","
","""event"",""trial"",""time""
""fullscreenenter"",""5"",""11953""
","
","317","","48","","","3000","1","","","images/earth.jpg","images/tutrocket2","images/tutrocket1","null","images/tutrocket2","","1","practice","null","2","","",""
"d3-animate-choice","104","462156","0.0-61.0-1.14","472","815","24","Female","false","false","false","true","""event"",""trial"",""time""
""fullscreenenter"",""5"",""11953""
","
","
","""event"",""trial"",""time""
""fullscreenenter"",""5"",""11953""
","
","358","","48","","","3000","1","","","images/tutgreenplanet.jpg","images/tutalien2","images/tutalien1","images/tutrocket2","images/tutalien2","images/t.png","2","practice","true","2","common","1","2022-02-20 18:23:52.757"
"two-step-fixation","105","463166","0.0-61.0-2.14","472","815","24","Female","false","false","false","true","""event"",""trial"",""time""
""fullscreenenter"",""5"",""11953""
","
","
","""event"",""trial"",""time""
""fullscreenenter"",""5"",""11953""
","
","","images/earth.jpg","","","","","","","","","","","","","","fixation","","","","","",""
"d3-animate-choice","106","465438","0.0-61.0-0.15","472","815","24","Female","false","false","false","true","""event"",""trial"",""time""
""fullscreenenter"",""5"",""11953""
","
","
","""event"",""trial"",""time""
""fullscreenenter"",""5"",""11953""
","
","250","","48","","","3000","1","","","images/earth.jpg","images/tutrocket2","images/tutrocket1","null","images/tutrocket2","","1","practice","null","2","","",""
"d3-animate-choice","107","467859","0.0-61.0-1.15","472","815","24","Female","false","false","false","true","""event"",""trial"",""time""
""fullscreenenter"",""5"",""11953""
","
","
","""event"",""trial"",""time""
""fullscreenenter"",""5"",""11953""
","
","407","","48","","","3000","1","","","images/tutyellowplanet.jpg","images/tutalien4","images/tutalien3","images/tutrocket2","images/tutalien4","images/t.png","2","practice","false","2","rare","1","2022-02-20 18:23:58.459"
"two-step-fixation","108","468862","0.0-61.0-2.15","472","815","24","Female","false","false","false","true","""event"",""trial"",""time""
""fullscreenenter"",""5"",""11953""
","
","
","""event"",""trial"",""time""
""fullscreenenter"",""5"",""11953""
","
","","images/earth.jpg","","","","","","","","","","","","","","fixation","","","","","",""
"d3-animate-choice","109","471273","0.0-61.0-0.16","472","815","24","Female","false","false","false","true","""event"",""trial"",""time""
""fullscreenenter"",""5"",""11953""
","
","
","""event"",""trial"",""time""
""fullscreenenter"",""5"",""11953""
","
","389","","48","","","3000","1","","","images/earth.jpg","images/tutrocket2","images/tutrocket1","null","images/tutrocket2","","1","practice","null","2","","",""
"d3-animate-choice","110","473988","0.0-61.0-1.16","472","815","24","Female","false","false","false","true","""event"",""trial"",""time""
""fullscreenenter"",""5"",""11953""
","
","
","""event"",""trial"",""time""
""fullscreenenter"",""5"",""11953""
","
","696","","48","","","3000","1","","","images/tutgreenplanet.jpg","images/tutalien2","images/tutalien1","images/tutrocket2","images/tutalien2","images/t.png","2","practice","true","2","common","1","2022-02-20 18:24:04.588"
"two-step-fixation","111","475002","0.0-61.0-2.16","472","815","24","Female","false","false","false","true","""event"",""trial"",""time""
""fullscreenenter"",""5"",""11953""
","
","
","""event"",""trial"",""time""
""fullscreenenter"",""5"",""11953""
","
","","images/earth.jpg","","","","","","","","","","","","","","fixation","","","","","",""
"d3-animate-choice","112","477322","0.0-61.0-0.17","472","815","24","Female","false","false","false","true","""event"",""trial"",""time""
""fullscreenenter"",""5"",""11953""
","
","
","""event"",""trial"",""time""
""fullscreenenter"",""5"",""11953""
","
","300","","48","","","3000","1","","","images/earth.jpg","images/tutrocket2","images/tutrocket1","null","images/tutrocket2","","1","practice","null","2","","",""
"d3-animate-choice","113","479672","0.0-61.0-1.17","472","815","24","Female","false","false","false","true","""event"",""trial"",""time""
""fullscreenenter"",""5"",""11953""
","
","
","""event"",""trial"",""time""
""fullscreenenter"",""5"",""11953""
","
","339","","48","","","3000","1","","","images/tutyellowplanet.jpg","images/tutalien4","images/tutalien3","images/tutrocket2","images/tutalien4","images/nothing.png","2","practice","false","2","rare","0","2022-02-20 18:24:10.272"
"two-step-fixation","114","480678","0.0-61.0-2.17","472","815","24","Female","false","false","false","true","""event"",""trial"",""time""
""fullscreenenter"",""5"",""11953""
","
","
","""event"",""trial"",""time""
""fullscreenenter"",""5"",""11953""
","
","","images/earth.jpg","","","","","","","","","","","","","","fixation","","","","","",""
"d3-animate-choice","115","482970","0.0-61.0-0.18","472","815","24","Female","false","false","false","true","""event"",""trial"",""time""
""fullscreenenter"",""5"",""11953""
","
","
","""event"",""trial"",""time""
""fullscreenenter"",""5"",""11953""
","
","271","","48","","","3000","1","","","images/earth.jpg","images/tutrocket2","images/tutrocket1","null","images/tutrocket2","","1","practice","null","2","","",""
"d3-animate-choice","116","485308","0.0-61.0-1.18","472","815","24","Female","false","false","false","true","""event"",""trial"",""time""
""fullscreenenter"",""5"",""11953""
","
","
","""event"",""trial"",""time""
""fullscreenenter"",""5"",""11953""
","
","317","","48","","","3000","1","","","images/tutgreenplanet.jpg","images/tutalien2","images/tutalien1","images/tutrocket2","images/tutalien2","images/nothing.png","2","practice","true","2","common","0","2022-02-20 18:24:15.908"
"two-step-fixation","117","486323","0.0-61.0-2.18","472","815","24","Female","false","false","false","true","""event"",""trial"",""time""
""fullscreenenter"",""5"",""11953""
","
","
","""event"",""trial"",""time""
""fullscreenenter"",""5"",""11953""
","
","","images/earth.jpg","","","","","","","","","","","","","","fixation","","","","","",""
"d3-animate-choice","118","488657","0.0-61.0-0.19","472","815","24","Female","false","false","false","true","""event"",""trial"",""time""
""fullscreenenter"",""5"",""11953""
","
","
","""event"",""trial"",""time""
""fullscreenenter"",""5"",""11953""
","
","315","","48","","","3000","1","","","images/earth.jpg","images/tutrocket2","images/tutrocket1","null","images/tutrocket2","","1","practice","null","2","","",""
"d3-animate-choice","119","491167","0.0-61.0-1.19","472","815","24","Female","false","false","false","true","""event"",""trial"",""time""
""fullscreenenter"",""5"",""11953""
","
","
","""event"",""trial"",""time""
""fullscreenenter"",""5"",""11953""
","
","495","","48","","","3000","1","","","images/tutgreenplanet.jpg","images/tutalien2","images/tutalien1","images/tutrocket2","images/tutalien2","images/t.png","2","practice","true","2","common","1","2022-02-20 18:24:21.767"
"two-step-fixation","120","492183","0.0-61.0-2.19","472","815","24","Female","false","false","false","true","""event"",""trial"",""time""
""fullscreenenter"",""5"",""11953""
","
","
","""event"",""trial"",""time""
""fullscreenenter"",""5"",""11953""
","
","","images/earth.jpg","","","","","","","","","","","","","","fixation","","","","","",""
"d3-instructions","121","496140","0.0-62.0","472","815","24","Female","false","false","false","true","""event"",""trial"",""time""
""fullscreenenter"",""5"",""11953""
","
","
","""event"",""trial"",""time""
""fullscreenenter"",""5"",""11953""
","
","","","","","","","","","","","","","","","","","","","","","",""
"audio-keyboard-response","122","499760","0.0-63.0","472","815","24","Female","false","false","false","true","""event"",""trial"",""time""
""fullscreenenter"",""5"",""11953""
","
","
","""event"",""trial"",""time""
""fullscreenenter"",""5"",""11953""
","
","3621","audio/instructions/treasure_feedback.wav","32","","","","","","","","","","","","","","","","","","",""
"d3-instructions","123","518749","0.0-64.0","472","815","24","Female","false","false","false","true","""event"",""trial"",""time""
""fullscreenenter"",""5"",""11953""
","
","
","""event"",""trial"",""time""
""fullscreenenter"",""5"",""11953""
","
","","","","","","","","","","","","","","","","","","","","","",""
"d3-instructions","124","532788","0.0-65.0","472","815","24","Female","false","false","false","true","""event"",""trial"",""time""
""fullscreenenter"",""5"",""11953""
","
","
","""event"",""trial"",""time""
""fullscreenenter"",""5"",""11953""
","
","","","","","","","","","","","","","","","","","","","","","",""
"d3-instructions","125","557501","0.0-66.0","472","815","24","Female","false","false","false","true","""event"",""trial"",""time""
""fullscreenenter"",""5"",""11953""
","
","
","""event"",""trial"",""time""
""fullscreenenter"",""5"",""11953""
","
","","","","","","","","","","","","","","","","","","","","","",""
"d3-instructions","126","574498","0.0-67.0","472","815","24","Female","false","false","false","true","""event"",""trial"",""time""
""fullscreenenter"",""5"",""11953""
","
","
","""event"",""trial"",""time""
""fullscreenenter"",""5"",""11953""
","
","","","","","","","","","","","","","","","","","","","","","",""
"d3-instructions","127","581238","0.0-68.0","472","815","24","Female","false","false","false","true","""event"",""trial"",""time""
""fullscreenenter"",""5"",""11953""
","
","
","""event"",""trial"",""time""
""fullscreenenter"",""5"",""11953""
","
","","","","","","","","","","","","","","","","","","","","","",""
"instructions-quiz","128","583896","0.0-69.0","472","815","24","Female","false","false","false","true","""event"",""trial"",""time""
""fullscreenenter"",""5"",""11953""
","
","
","""event"",""trial"",""time""
""fullscreenenter"",""5"",""11953""
","
","2655","audio/quiz/Q1_Prompt.wav","","1","","","","","","","","","","","","","","","","","",""
"audio-keyboard-response","129","593082","0.0-70.0","472","815","24","Female","false","false","false","true","""event"",""trial"",""time""
""fullscreenenter"",""5"",""11953""
","
","
","""event"",""trial"",""time""
""fullscreenenter"",""5"",""11953""
","
","null","audio/quiz/Q1_Correct.wav","null","","","","","","","","","","","","","","","","","","",""
"instructions-quiz","130","596724","0.0-71.0","472","815","24","Female","false","false","false","true","""event"",""trial"",""time""
""fullscreenenter"",""5"",""11953""
","
","
","""event"",""trial"",""time""
""fullscreenenter"",""5"",""11953""
","
","3640","audio/quiz/Q2_Prompt.wav","","0","","","","","","","","","","","","","","","","","",""
"audio-keyboard-response","131","597240","0.0-72.0","472","815","24","Female","false","false","false","true","""event"",""trial"",""time""
""fullscreenenter"",""5"",""11953""
","
","
","""event"",""trial"",""time""
""fullscreenenter"",""5"",""11953""
","
","509","audio/quiz/Q2_Correct.wav","32","","","","","","","","","","","","","","","","","","",""
"instructions-quiz","132","599886","0.0-73.0","472","815","24","Female","false","false","false","true","""event"",""trial"",""time""
""fullscreenenter"",""5"",""11953""
","
","
","""event"",""trial"",""time""
""fullscreenenter"",""5"",""11953""
","
","2644","audio/quiz/Q3_Prompt.wav","","1","","","","","","","","","","","","","","","","","",""
"audio-keyboard-response","133","600190","0.0-74.0","472","815","24","Female","false","false","false","true","""event"",""trial"",""time""
""fullscreenenter"",""5"",""11953""
","
","
","""event"",""trial"",""time""
""fullscreenenter"",""5"",""11953""
","
","299","audio/quiz/Q3_Correct.wav","32","","","","","","","","","","","","","","","","","","",""
"d3-instructions","134","605835","0.0-75.0","472","815","24","Female","false","false","false","true","""event"",""trial"",""time""
""fullscreenenter"",""5"",""11953""
","
","
","""event"",""trial"",""time""
""fullscreenenter"",""5"",""11953""
","
","","","","","","","","","","","","","","","","","","","","","",""
"d3-animate-choice","135","609087","0.0-76.0-0.0","472","815","24","Female","false","false","false","true","""event"",""trial"",""time""
""fullscreenenter"",""5"",""11953""
","
","
","""event"",""trial"",""time""
""fullscreenenter"",""5"",""11953""
","
","1234","","49","","","3000","1","","","images/earth.jpg","images/rocket1","images/rocket2","null","images/rocket2","","1","real","null","1","","",""
"d3-animate-choice","136","611898","0.0-76.0-1.0","472","815","24","Female","false","false","false","true","""event"",""trial"",""time""
""fullscreenenter"",""5"",""11953""
","
","
","""event"",""trial"",""time""
""fullscreenenter"",""5"",""11953""
","
","803","","49","","","3000","1","","","images/purpleplanet.jpg","images/alien4","images/alien3","images/rocket2","images/alien3","images/nothing.png","2","real","false","1","rare","0","2022-02-20 18:26:22.498"
"two-step-fixation","137","612908","0.0-76.0-2.0","472","815","24","Female","false","false","false","true","""event"",""trial"",""time""
""fullscreenenter"",""5"",""11953""
","
","
","""event"",""trial"",""time""
""fullscreenenter"",""5"",""11953""
","
","","images/earth.jpg","","","","","","","","","","","","","","fixation","","","","","",""
"d3-animate-choice","138","615242","0.0-76.0-0.1","472","815","24","Female","false","false","false","true","""event"",""trial"",""time""
""fullscreenenter"",""5"",""11953""
","
","
","""event"",""trial"",""time""
""fullscreenenter"",""5"",""11953""
","
","325","","49","","","3000","1","","","images/earth.jpg","images/rocket1","images/rocket2","null","images/rocket2","","1","real","null","1","","",""
"d3-animate-choice","139","618097","0.0-76.0-1.1","472","815","24","Female","false","false","false","true","""event"",""trial"",""time""
""fullscreenenter"",""5"",""11953""
","
","
","""event"",""trial"",""time""
""fullscreenenter"",""5"",""11953""
","
","840","","49","","","3000","1","","","images/redplanet1.jpg","images/alien2","images/alien1","images/rocket2","images/alien1","images/nothing.png","2","real","true","1","common","0","2022-02-20 18:26:28.697"
"two-step-fixation","140","619104","0.0-76.0-2.1","472","815","24","Female","false","false","false","true","""event"",""trial"",""time""
""fullscreenenter"",""5"",""11953""
","
","
","""event"",""trial"",""time""
""fullscreenenter"",""5"",""11953""
","
","","images/earth.jpg","","","","","","","","","","","","","","fixation","","","","","",""
"d3-animate-choice","141","621506","0.0-76.0-0.2","472","815","24","Female","false","false","false","true","""event"",""trial"",""time""
""fullscreenenter"",""5"",""11953""
","
","
","""event"",""trial"",""time""
""fullscreenenter"",""5"",""11953""
","
","384","","49","","","3000","1","","","images/earth.jpg","images/rocket1","images/rocket2","null","images/rocket2","","1","real","null","1","","",""
"d3-animate-choice","142","624263","0.0-76.0-1.2","472","815","24","Female","false","false","false","true","""event"",""trial"",""time""
""fullscreenenter"",""5"",""11953""
","
","
","""event"",""trial"",""time""
""fullscreenenter"",""5"",""11953""
","
","734","","49","","","3000","1","","","images/purpleplanet.jpg","images/alien4","images/alien3","images/rocket2","images/alien3","images/nothing.png","2","real","false","1","rare","0","2022-02-20 18:26:34.863"
"two-step-fixation","143","625270","0.0-76.0-2.2","472","815","24","Female","false","false","false","true","""event"",""trial"",""time""
""fullscreenenter"",""5"",""11953""
","
","
","""event"",""trial"",""time""
""fullscreenenter"",""5"",""11953""
","
","","images/earth.jpg","","","","","","","","","","","","","","fixation","","","","","",""
"d3-animate-choice","144","627646","0.0-76.0-0.3","472","815","24","Female","false","false","false","true","""event"",""trial"",""time""
""fullscreenenter"",""5"",""11953""
","
","
","""event"",""trial"",""time""
""fullscreenenter"",""5"",""11953""
","
","362","","49","","","3000","1","","","images/earth.jpg","images/rocket1","images/rocket2","null","images/rocket2","","1","real","null","1","","",""
"d3-animate-choice","145","630618","0.0-76.0-1.3","472","815","24","Female","false","false","false","true","""event"",""trial"",""time""
""fullscreenenter"",""5"",""11953""
","
","
","""event"",""trial"",""time""
""fullscreenenter"",""5"",""11953""
","
","951","","49","","","3000","1","","","images/redplanet1.jpg","images/alien2","images/alien1","images/rocket2","images/alien1","images/nothing.png","2","real","true","1","common","0","2022-02-20 18:26:41.219"
"two-step-fixation","146","631636","0.0-76.0-2.3","472","815","24","Female","false","false","false","true","""event"",""trial"",""time""
""fullscreenenter"",""5"",""11953""
","
","
","""event"",""trial"",""time""
""fullscreenenter"",""5"",""11953""
","
","","images/earth.jpg","","","","","","","","","","","","","","fixation","","","","","",""
"d3-animate-choice","147","633975","0.0-76.0-0.4","472","815","24","Female","false","false","false","true","""event"",""trial"",""time""
""fullscreenenter"",""5"",""11953""
","
","
","""event"",""trial"",""time""
""fullscreenenter"",""5"",""11953""
","
","327","","49","","","3000","1","","","images/earth.jpg","images/rocket1","images/rocket2","null","images/rocket2","","1","real","null","1","","",""
"d3-animate-choice","148","636632","0.0-76.0-1.4","472","815","24","Female","false","false","false","true","""event"",""trial"",""time""
""fullscreenenter"",""5"",""11953""
","
","
","""event"",""trial"",""time""
""fullscreenenter"",""5"",""11953""
","
","638","","49","","","3000","1","","","images/redplanet1.jpg","images/alien2","images/alien1","images/rocket2","images/alien1","images/t.png","2","real","true","1","common","1","2022-02-20 18:26:47.232"
"two-step-fixation","149","637647","0.0-76.0-2.4","472","815","24","Female","false","false","false","true","""event"",""trial"",""time""
""fullscreenenter"",""5"",""11953""
","
","
","""event"",""trial"",""time""
""fullscreenenter"",""5"",""11953""
","
","","images/earth.jpg","","","","","","","","","","","","","","fixation","","","","","",""
"d3-animate-choice","150","640112","0.0-76.0-0.5","472","815","24","Female","false","false","false","true","""event"",""trial"",""time""
""fullscreenenter"",""5"",""11953""
","
","
","""event"",""trial"",""time""
""fullscreenenter"",""5"",""11953""
","
","455","","49","","","3000","1","","","images/earth.jpg","images/rocket1","images/rocket2","null","images/rocket2","","1","real","null","1","","",""
"d3-animate-choice","151","642687","0.0-76.0-1.5","472","815","24","Female","false","false","false","true","""event"",""trial"",""time""
""fullscreenenter"",""5"",""11953""
","
","
","""event"",""trial"",""time""
""fullscreenenter"",""5"",""11953""
","
","567","","49","","","3000","1","","","images/redplanet1.jpg","images/alien2","images/alien1","images/rocket2","images/alien1","images/nothing.png","2","real","true","1","common","0","2022-02-20 18:26:53.288"
"two-step-fixation","152","643701","0.0-76.0-2.5","472","815","24","Female","false","false","false","true","""event"",""trial"",""time""
""fullscreenenter"",""5"",""11953""
","
","
","""event"",""trial"",""time""
""fullscreenenter"",""5"",""11953""
","
","","images/earth.jpg","","","","","","","","","","","","","","fixation","","","","","",""
"d3-animate-choice","153","646027","0.0-76.0-0.6","472","815","24","Female","false","false","false","true","""event"",""trial"",""time""
""fullscreenenter"",""5"",""11953""
","
","
","""event"",""trial"",""time""
""fullscreenenter"",""5"",""11953""
","
","314","","49","","","3000","1","","","images/earth.jpg","images/rocket1","images/rocket2","null","images/rocket2","","1","real","null","1","","",""
"d3-animate-choice","154","648568","0.0-76.0-1.6","472","815","24","Female","false","false","false","true","""event"",""trial"",""time""
""fullscreenenter"",""5"",""11953""
","
","
","""event"",""trial"",""time""
""fullscreenenter"",""5"",""11953""
","
","532","","48","","","3000","1","","","images/redplanet1.jpg","images/alien2","images/alien1","images/rocket2","images/alien2","images/t.png","2","real","true","2","common","1","2022-02-20 18:26:59.168"
"two-step-fixation","155","649586","0.0-76.0-2.6","472","815","24","Female","false","false","false","true","""event"",""trial"",""time""
""fullscreenenter"",""5"",""11953""
","
","
","""event"",""trial"",""time""
""fullscreenenter"",""5"",""11953""
","
","","images/earth.jpg","","","","","","","","","","","","","","fixation","","","","","",""
"d3-animate-choice","156","651931","0.0-76.0-0.7","472","815","24","Female","false","false","false","true","""event"",""trial"",""time""
""fullscreenenter"",""5"",""11953""
","
","
","""event"",""trial"",""time""
""fullscreenenter"",""5"",""11953""
","
","331","","49","","","3000","1","","","images/earth.jpg","images/rocket1","images/rocket2","null","images/rocket2","","1","real","null","1","","",""
"d3-animate-choice","157","654298","0.0-76.0-1.7","472","815","24","Female","false","false","false","true","""event"",""trial"",""time""
""fullscreenenter"",""5"",""11953""
","
","
","""event"",""trial"",""time""
""fullscreenenter"",""5"",""11953""
","
","360","","48","","","3000","1","","","images/redplanet1.jpg","images/alien2","images/alien1","images/rocket2","images/alien2","images/t.png","2","real","true","2","common","1","2022-02-20 18:27:04.899"
"two-step-fixation","158","655316","0.0-76.0-2.7","472","815","24","Female","false","false","false","true","""event"",""trial"",""time""
""fullscreenenter"",""5"",""11953""
","
","
","""event"",""trial"",""time""
""fullscreenenter"",""5"",""11953""
","
","","images/earth.jpg","","","","","","","","","","","","","","fixation","","","","","",""
"d3-animate-choice","159","657650","0.0-76.0-0.8","472","815","24","Female","false","false","false","true","""event"",""trial"",""time""
""fullscreenenter"",""5"",""11953""
","
","
","""event"",""trial"",""time""
""fullscreenenter"",""5"",""11953""
","
","321","","49","","","3000","1","","","images/earth.jpg","images/rocket1","images/rocket2","null","images/rocket2","","1","real","null","1","","",""
"d3-animate-choice","160","660025","0.0-76.0-1.8","472","815","24","Female","false","false","false","true","""event"",""trial"",""time""
""fullscreenenter"",""5"",""11953""
","
","
","""event"",""trial"",""time""
""fullscreenenter"",""5"",""11953""
","
","364","","48","","","3000","1","","","images/purpleplanet.jpg","images/alien4","images/alien3","images/rocket2","images/alien4","images/t.png","2","real","false","2","rare","1","2022-02-20 18:27:10.627"
"two-step-fixation","161","661030","0.0-76.0-2.8","472","815","24","Female","false","false","false","true","""event"",""trial"",""time""
""fullscreenenter"",""5"",""11953""
","
","
","""event"",""trial"",""time""
""fullscreenenter"",""5"",""11953""
","
","","images/earth.jpg","","","","","","","","","","","","","","fixation","","","","","",""
"d3-animate-choice","162","663325","0.0-76.0-0.9","472","815","24","Female","false","false","false","true","""event"",""trial"",""time""
""fullscreenenter"",""5"",""11953""
","
","
","""event"",""trial"",""time""
""fullscreenenter"",""5"",""11953""
","
","283","","49","","","3000","1","","","images/earth.jpg","images/rocket1","images/rocket2","null","images/rocket2","","1","real","null","1","","",""
"d3-animate-choice","163","665717","0.0-76.0-1.9","472","815","24","Female","false","false","false","true","""event"",""trial"",""time""
""fullscreenenter"",""5"",""11953""
","
","
","""event"",""trial"",""time""
""fullscreenenter"",""5"",""11953""
","
","374","","48","","","3000","1","","","images/redplanet1.jpg","images/alien2","images/alien1","images/rocket2","images/alien2","images/t.png","2","real","true","2","common","1","2022-02-20 18:27:16.318"
"two-step-fixation","164","666732","0.0-76.0-2.9","472","815","24","Female","false","false","false","true","""event"",""trial"",""time""
""fullscreenenter"",""5"",""11953""
","
","
","""event"",""trial"",""time""
""fullscreenenter"",""5"",""11953""
","
","","images/earth.jpg","","","","","","","","","","","","","","fixation","","","","","",""
"d3-animate-choice","165","669013","0.0-76.0-0.10","472","815","24","Female","false","false","false","true","""event"",""trial"",""time""
""fullscreenenter"",""5"",""11953""
","
","
","""event"",""trial"",""time""
""fullscreenenter"",""5"",""11953""
","
","263","","49","","","3000","1","","","images/earth.jpg","images/rocket1","images/rocket2","null","images/rocket2","","1","real","null","1","","",""
"d3-animate-choice","166","671472","0.0-76.0-1.10","472","815","24","Female","false","false","false","true","""event"",""trial"",""time""
""fullscreenenter"",""5"",""11953""
","
","
","""event"",""trial"",""time""
""fullscreenenter"",""5"",""11953""
","
","446","","48","","","3000","1","","","images/redplanet1.jpg","images/alien2","images/alien1","images/rocket2","images/alien2","images/t.png","2","real","true","2","common","1","2022-02-20 18:27:22.072"
"two-step-fixation","167","672486","0.0-76.0-2.10","472","815","24","Female","false","false","false","true","""event"",""trial"",""time""
""fullscreenenter"",""5"",""11953""
","
","
","""event"",""trial"",""time""
""fullscreenenter"",""5"",""11953""
","
","","images/earth.jpg","","","","","","","","","","","","","","fixation","","","","","",""
"d3-animate-choice","168","674766","0.0-76.0-0.11","472","815","24","Female","false","false","false","true","""event"",""trial"",""time""
""fullscreenenter"",""5"",""11953""
","
","
","""event"",""trial"",""time""
""fullscreenenter"",""5"",""11953""
","
","268","","49","","","3000","1","","","images/earth.jpg","images/rocket1","images/rocket2","null","images/rocket2","","1","real","null","1","","",""
"d3-animate-choice","169","677632","0.0-76.0-1.11","472","815","24","Female","false","false","false","true","""event"",""trial"",""time""
""fullscreenenter"",""5"",""11953""
","
","
","""event"",""trial"",""time""
""fullscreenenter"",""5"",""11953""
","
","844","","48","","","3000","1","","","images/purpleplanet.jpg","images/alien4","images/alien3","images/rocket2","images/alien4","images/t.png","2","real","false","2","rare","1","2022-02-20 18:27:28.233"
"two-step-fixation","170","678641","0.0-76.0-2.11","472","815","24","Female","false","false","false","true","""event"",""trial"",""time""
""fullscreenenter"",""5"",""11953""
","
","
","""event"",""trial"",""time""
""fullscreenenter"",""5"",""11953""
","
","","images/earth.jpg","","","","","","","","","","","","","","fixation","","","","","",""
"d3-animate-choice","171","680936","0.0-76.0-0.12","472","815","24","Female","false","false","false","true","""event"",""trial"",""time""
""fullscreenenter"",""5"",""11953""
","
","
","""event"",""trial"",""time""
""fullscreenenter"",""5"",""11953""
","
","283","","49","","","3000","1","","","images/earth.jpg","images/rocket1","images/rocket2","null","images/rocket2","","1","real","null","1","","",""
"d3-animate-choice","172","683296","0.0-76.0-1.12","472","815","24","Female","false","false","false","true","""event"",""trial"",""time""
""fullscreenenter"",""5"",""11953""
","
","
","""event"",""trial"",""time""
""fullscreenenter"",""5"",""11953""
","
","347","","48","","","3000","1","","","images/redplanet1.jpg","images/alien2","images/alien1","images/rocket2","images/alien2","images/t.png","2","real","true","2","common","1","2022-02-20 18:27:33.896"
"two-step-fixation","173","684307","0.0-76.0-2.12","472","815","24","Female","false","false","false","true","""event"",""trial"",""time""
""fullscreenenter"",""5"",""11953""
","
","
","""event"",""trial"",""time""
""fullscreenenter"",""5"",""11953""
","
","","images/earth.jpg","","","","","","","","","","","","","","fixation","","","","","",""
"d3-animate-choice","174","686539","0.0-76.0-0.13","472","815","24","Female","false","false","false","true","""event"",""trial"",""time""
""fullscreenenter"",""5"",""11953""
","
","
","""event"",""trial"",""time""
""fullscreenenter"",""5"",""11953""
","
","225","","49","","","3000","1","","","images/earth.jpg","images/rocket1","images/rocket2","null","images/rocket2","","1","real","null","1","","",""
"d3-animate-choice","175","689154","0.0-76.0-1.13","472","815","24","Female","false","false","false","true","""event"",""trial"",""time""
""fullscreenenter"",""5"",""11953""
","
","
","""event"",""trial"",""time""
""fullscreenenter"",""5"",""11953""
","
","606","","48","","","3000","1","","","images/purpleplanet.jpg","images/alien4","images/alien3","images/rocket2","images/alien4","images/t.png","2","real","false","2","rare","1","2022-02-20 18:27:39.754"
"two-step-fixation","176","690160","0.0-76.0-2.13","472","815","24","Female","false","false","false","true","""event"",""trial"",""time""
""fullscreenenter"",""5"",""11953""
","
","
","""event"",""trial"",""time""
""fullscreenenter"",""5"",""11953""
","
","","images/earth.jpg","","","","","","","","","","","","","","fixation","","","","","",""
"d3-animate-choice","177","692439","0.0-76.0-0.14","472","815","24","Female","false","false","false","true","""event"",""trial"",""time""
""fullscreenenter"",""5"",""11953""
","
","
","""event"",""trial"",""time""
""fullscreenenter"",""5"",""11953""
","
","268","","49","","","3000","1","","","images/earth.jpg","images/rocket1","images/rocket2","null","images/rocket2","","1","real","null","1","","",""
"d3-animate-choice","178","695042","0.0-76.0-1.14","472","815","24","Female","false","false","false","true","""event"",""trial"",""time""
""fullscreenenter"",""5"",""11953""
","
","
","""event"",""trial"",""time""
""fullscreenenter"",""5"",""11953""
","
","589","","48","","","3000","1","","","images/purpleplanet.jpg","images/alien4","images/alien3","images/rocket2","images/alien4","images/t.png","2","real","false","2","rare","1","2022-02-20 18:27:45.642"
"two-step-fixation","179","696048","0.0-76.0-2.14","472","815","24","Female","false","false","false","true","""event"",""trial"",""time""
""fullscreenenter"",""5"",""11953""
","
","
","""event"",""trial"",""time""
""fullscreenenter"",""5"",""11953""
","
","","images/earth.jpg","","","","","","","","","","","","","","fixation","","","","","",""
"d3-animate-choice","180","698343","0.0-76.0-0.15","472","815","24","Female","false","false","false","true","""event"",""trial"",""time""
""fullscreenenter"",""5"",""11953""
","
","
","""event"",""trial"",""time""
""fullscreenenter"",""5"",""11953""
","
","287","","49","","","3000","1","","","images/earth.jpg","images/rocket1","images/rocket2","null","images/rocket2","","1","real","null","1","","",""
"d3-animate-choice","181","700823","0.0-76.0-1.15","472","815","24","Female","false","false","false","true","""event"",""trial"",""time""
""fullscreenenter"",""5"",""11953""
","
","
","""event"",""trial"",""time""
""fullscreenenter"",""5"",""11953""
","
","469","","48","","","3000","1","","","images/purpleplanet.jpg","images/alien4","images/alien3","images/rocket2","images/alien4","images/t.png","2","real","false","2","rare","1","2022-02-20 18:27:51.423"
"two-step-fixation","182","701837","0.0-76.0-2.15","472","815","24","Female","false","false","false","true","""event"",""trial"",""time""
""fullscreenenter"",""5"",""11953""
","
","
","""event"",""trial"",""time""
""fullscreenenter"",""5"",""11953""
","
","","images/earth.jpg","","","","","","","","","","","","","","fixation","","","","","",""
"d3-animate-choice","183","704072","0.0-76.0-0.16","472","815","24","Female","false","false","false","true","""event"",""trial"",""time""
""fullscreenenter"",""5"",""11953""
","
","
","""event"",""trial"",""time""
""fullscreenenter"",""5"",""11953""
","
","224","","49","","","3000","1","","","images/earth.jpg","images/rocket1","images/rocket2","null","images/rocket2","","1","real","null","1","","",""
"d3-animate-choice","184","706643","0.0-76.0-1.16","472","815","24","Female","false","false","false","true","""event"",""trial"",""time""
""fullscreenenter"",""5"",""11953""
","
","
","""event"",""trial"",""time""
""fullscreenenter"",""5"",""11953""
","
","561","","48","","","3000","1","","","images/purpleplanet.jpg","images/alien4","images/alien3","images/rocket2","images/alien4","images/t.png","2","real","false","2","rare","1","2022-02-20 18:27:57.243"
"two-step-fixation","185","707652","0.0-76.0-2.16","472","815","24","Female","false","false","false","true","""event"",""trial"",""time""
""fullscreenenter"",""5"",""11953""
","
","
","""event"",""trial"",""time""
""fullscreenenter"",""5"",""11953""
","
","","images/earth.jpg","","","","","","","","","","","","","","fixation","","","","","",""
"d3-animate-choice","186","709856","0.0-76.0-0.17","472","815","24","Female","false","false","false","true","""event"",""trial"",""time""
""fullscreenenter"",""5"",""11953""
","
","
","""event"",""trial"",""time""
""fullscreenenter"",""5"",""11953""
","
","188","","49","","","3000","1","","","images/earth.jpg","images/rocket1","images/rocket2","null","images/rocket2","","1","real","null","1","","",""
"d3-animate-choice","187","712388","0.0-76.0-1.17","472","815","24","Female","false","false","false","true","""event"",""trial"",""time""
""fullscreenenter"",""5"",""11953""
","
","
","""event"",""trial"",""time""
""fullscreenenter"",""5"",""11953""
","
","524","","48","","","3000","1","","","images/redplanet1.jpg","images/alien2","images/alien1","images/rocket2","images/alien2","images/t.png","2","real","true","2","common","1","2022-02-20 18:28:02.989"
"two-step-fixation","188","713397","0.0-76.0-2.17","472","815","24","Female","false","false","false","true","""event"",""trial"",""time""
""fullscreenenter"",""5"",""11953""
","
","
","""event"",""trial"",""time""
""fullscreenenter"",""5"",""11953""
","
","","images/earth.jpg","","","","","","","","","","","","","","fixation","","","","","",""
"d3-animate-choice","189","715740","0.0-76.0-0.18","472","815","24","Female","false","false","false","true","""event"",""trial"",""time""
""fullscreenenter"",""5"",""11953""
","
","
","""event"",""trial"",""time""
""fullscreenenter"",""5"",""11953""
","
","324","","49","","","3000","1","","","images/earth.jpg","images/rocket1","images/rocket2","null","images/rocket2","","1","real","null","1","","",""
"d3-animate-choice","190","718188","0.0-76.0-1.18","472","815","24","Female","false","false","false","true","""event"",""trial"",""time""
""fullscreenenter"",""5"",""11953""
","
","
","""event"",""trial"",""time""
""fullscreenenter"",""5"",""11953""
","
","428","","48","","","3000","1","","","images/redplanet1.jpg","images/alien2","images/alien1","images/rocket2","images/alien2","images/t.png","2","real","true","2","common","1","2022-02-20 18:28:08.789"
"two-step-fixation","191","719200","0.0-76.0-2.18","472","815","24","Female","false","false","false","true","""event"",""trial"",""time""
""fullscreenenter"",""5"",""11953""
","
","
","""event"",""trial"",""time""
""fullscreenenter"",""5"",""11953""
","
","","images/earth.jpg","","","","","","","","","","","","","","fixation","","","","","",""
"d3-animate-choice","192","721546","0.0-76.0-0.19","472","815","24","Female","false","false","false","true","""event"",""trial"",""time""
""fullscreenenter"",""5"",""11953""
","
","
","""event"",""trial"",""time""
""fullscreenenter"",""5"",""11953""
","
","331","","49","","","3000","1","","","images/earth.jpg","images/rocket1","images/rocket2","null","images/rocket2","","1","real","null","1","","",""
"d3-animate-choice","193","723994","0.0-76.0-1.19","472","815","24","Female","false","false","false","true","""event"",""trial"",""time""
""fullscreenenter"",""5"",""11953""
","
","
","""event"",""trial"",""time""
""fullscreenenter"",""5"",""11953""
","
","437","","48","","","3000","1","","","images/purpleplanet.jpg","images/alien4","images/alien3","images/rocket2","images/alien4","images/t.png","2","real","false","2","rare","1","2022-02-20 18:28:14.594"
"two-step-fixation","194","725001","0.0-76.0-2.19","472","815","24","Female","false","false","false","true","""event"",""trial"",""time""
""fullscreenenter"",""5"",""11953""
","
","
","""event"",""trial"",""time""
""fullscreenenter"",""5"",""11953""
","
","","images/earth.jpg","","","","","","","","","","","","","","fixation","","","","","",""
"d3-animate-choice","195","727254","0.0-76.0-0.20","472","815","24","Female","false","false","false","true","""event"",""trial"",""time""
""fullscreenenter"",""5"",""11953""
","
","
","""event"",""trial"",""time""
""fullscreenenter"",""5"",""11953""
","
","241","","49","","","3000","1","","","images/earth.jpg","images/rocket1","images/rocket2","null","images/rocket2","","1","real","null","1","","",""
"d3-animate-choice","196","729613","0.0-76.0-1.20","472","815","24","Female","false","false","false","true","""event"",""trial"",""time""
""fullscreenenter"",""5"",""11953""
","
","
","""event"",""trial"",""time""
""fullscreenenter"",""5"",""11953""
","
","341","","48","","","3000","1","","","images/redplanet1.jpg","images/alien2","images/alien1","images/rocket2","images/alien2","images/t.png","2","real","true","2","common","1","2022-02-20 18:28:20.214"
"two-step-fixation","197","730631","0.0-76.0-2.20","472","815","24","Female","false","false","false","true","""event"",""trial"",""time""
""fullscreenenter"",""5"",""11953""
","
","
","""event"",""trial"",""time""
""fullscreenenter"",""5"",""11953""
","
","","images/earth.jpg","","","","","","","","","","","","","","fixation","","","","","",""
"d3-animate-choice","198","732895","0.0-76.0-0.21","472","815","24","Female","false","false","false","true","""event"",""trial"",""time""
""fullscreenenter"",""5"",""11953""
","
","
","""event"",""trial"",""time""
""fullscreenenter"",""5"",""11953""
","
","247","","49","","","3000","1","","","images/earth.jpg","images/rocket1","images/rocket2","null","images/rocket2","","1","real","null","1","","",""
"d3-animate-choice","199","735309","0.0-76.0-1.21","472","815","24","Female","false","false","false","true","""event"",""trial"",""time""
""fullscreenenter"",""5"",""11953""
","
","
","""event"",""trial"",""time""
""fullscreenenter"",""5"",""11953""
","
","393","","48","","","3000","1","","","images/purpleplanet.jpg","images/alien4","images/alien3","images/rocket2","images/alien4","images/t.png","2","real","false","2","rare","1","2022-02-20 18:28:25.909"
"two-step-fixation","200","736313","0.0-76.0-2.21","472","815","24","Female","false","false","false","true","""event"",""trial"",""time""
""fullscreenenter"",""5"",""11953""
","
","
","""event"",""trial"",""time""
""fullscreenenter"",""5"",""11953""
","
","","images/earth.jpg","","","","","","","","","","","","","","fixation","","","","","",""
"d3-animate-choice","201","738628","0.0-76.0-0.22","472","815","24","Female","false","false","false","true","""event"",""trial"",""time""
""fullscreenenter"",""5"",""11953""
","
","
","""event"",""trial"",""time""
""fullscreenenter"",""5"",""11953""
","
","296","","49","","","3000","1","","","images/earth.jpg","images/rocket1","images/rocket2","null","images/rocket2","","1","real","null","1","","",""
"d3-animate-choice","202","741002","0.0-76.0-1.22","472","815","24","Female","false","false","false","true","""event"",""trial"",""time""
""fullscreenenter"",""5"",""11953""
","
","
","""event"",""trial"",""time""
""fullscreenenter"",""5"",""11953""
","
","359","","48","","","3000","1","","","images/redplanet1.jpg","images/alien2","images/alien1","images/rocket2","images/alien2","images/nothing.png","2","real","true","2","common","0","2022-02-20 18:28:31.602"
"two-step-fixation","203","742010","0.0-76.0-2.22","472","815","24","Female","false","false","false","true","""event"",""trial"",""time""
""fullscreenenter"",""5"",""11953""
","
","
","""event"",""trial"",""time""
""fullscreenenter"",""5"",""11953""
","
","","images/earth.jpg","","","","","","","","","","","","","","fixation","","","","","",""
"d3-animate-choice","204","744328","0.0-76.0-0.23","472","815","24","Female","false","false","false","true","""event"",""trial"",""time""
""fullscreenenter"",""5"",""11953""
","
","
","""event"",""trial"",""time""
""fullscreenenter"",""5"",""11953""
","
","295","","49","","","3000","1","","","images/earth.jpg","images/rocket1","images/rocket2","null","images/rocket2","","1","real","null","1","","",""
"d3-animate-choice","205","746703","0.0-76.0-1.23","472","815","24","Female","false","false","false","true","""event"",""trial"",""time""
""fullscreenenter"",""5"",""11953""
","
","
","""event"",""trial"",""time""
""fullscreenenter"",""5"",""11953""
","
","356","","48","","","3000","1","","","images/redplanet1.jpg","images/alien2","images/alien1","images/rocket2","images/alien2","images/t.png","2","real","true","2","common","1","2022-02-20 18:28:37.303"
"two-step-fixation","206","747710","0.0-76.0-2.23","472","815","24","Female","false","false","false","true","""event"",""trial"",""time""
""fullscreenenter"",""5"",""11953""
","
","
","""event"",""trial"",""time""
""fullscreenenter"",""5"",""11953""
","
","","images/earth.jpg","","","","","","","","","","","","","","fixation","","","","","",""
"d3-animate-choice","207","750051","0.0-76.0-0.24","472","815","24","Female","false","false","false","true","""event"",""trial"",""time""
""fullscreenenter"",""5"",""11953""
","
","
","""event"",""trial"",""time""
""fullscreenenter"",""5"",""11953""
","
","322","","49","","","3000","1","","","images/earth.jpg","images/rocket1","images/rocket2","null","images/rocket2","","1","real","null","1","","",""
"d3-animate-choice","208","752430","0.0-76.0-1.24","472","815","24","Female","false","false","false","true","""event"",""trial"",""time""
""fullscreenenter"",""5"",""11953""
","
","
","""event"",""trial"",""time""
""fullscreenenter"",""5"",""11953""
","
","363","","48","","","3000","1","","","images/redplanet1.jpg","images/alien2","images/alien1","images/rocket2","images/alien2","images/nothing.png","2","real","true","2","common","0","2022-02-20 18:28:43.030"
"two-step-fixation","209","753448","0.0-76.0-2.24","472","815","24","Female","false","false","false","true","""event"",""trial"",""time""
""fullscreenenter"",""5"",""11953""
","
","
","""event"",""trial"",""time""
""fullscreenenter"",""5"",""11953""
","
","","images/earth.jpg","","","","","","","","","","","","","","fixation","","","","","",""
"d3-animate-choice","210","755765","0.0-76.0-0.25","472","815","24","Female","false","false","false","true","""event"",""trial"",""time""
""fullscreenenter"",""5"",""11953""
","
","
","""event"",""trial"",""time""
""fullscreenenter"",""5"",""11953""
","
","296","","49","","","3000","1","","","images/earth.jpg","images/rocket1","images/rocket2","null","images/rocket2","","1","real","null","1","","",""
"d3-animate-choice","211","758128","0.0-76.0-1.25","472","815","24","Female","false","false","false","true","""event"",""trial"",""time""
""fullscreenenter"",""5"",""11953""
","
","
","""event"",""trial"",""time""
""fullscreenenter"",""5"",""11953""
","
","350","","48","","","3000","1","","","images/redplanet1.jpg","images/alien2","images/alien1","images/rocket2","images/alien2","images/t.png","2","real","true","2","common","1","2022-02-20 18:28:48.728"
"two-step-fixation","212","759132","0.0-76.0-2.25","472","815","24","Female","false","false","false","true","""event"",""trial"",""time""
""fullscreenenter"",""5"",""11953""
","
","
","""event"",""trial"",""time""
""fullscreenenter"",""5"",""11953""
","
","","images/earth.jpg","","","","","","","","","","","","","","fixation","","","","","",""
"d3-animate-choice","213","761443","0.0-76.0-0.26","472","815","24","Female","false","false","false","true","""event"",""trial"",""time""
""fullscreenenter"",""5"",""11953""
","
","
","""event"",""trial"",""time""
""fullscreenenter"",""5"",""11953""
","
","291","","49","","","3000","1","","","images/earth.jpg","images/rocket1","images/rocket2","null","images/rocket2","","1","real","null","1","","",""
"d3-animate-choice","214","763842","0.0-76.0-1.26","472","815","24","Female","false","false","false","true","""event"",""trial"",""time""
""fullscreenenter"",""5"",""11953""
","
","
","""event"",""trial"",""time""
""fullscreenenter"",""5"",""11953""
","
","392","","48","","","3000","1","","","images/redplanet1.jpg","images/alien2","images/alien1","images/rocket2","images/alien2","images/nothing.png","2","real","true","2","common","0","2022-02-20 18:28:54.442"
"two-step-fixation","215","764858","0.0-76.0-2.26","472","815","24","Female","false","false","false","true","""event"",""trial"",""time""
""fullscreenenter"",""5"",""11953""
","
","
","""event"",""trial"",""time""
""fullscreenenter"",""5"",""11953""
","
","","images/earth.jpg","","","","","","","","","","","","","","fixation","","","","","",""
"d3-animate-choice","216","767229","0.0-76.0-0.27","472","815","24","Female","false","false","false","true","""event"",""trial"",""time""
""fullscreenenter"",""5"",""11953""
","
","
","""event"",""trial"",""time""
""fullscreenenter"",""5"",""11953""
","
","358","","48","","","3000","1","","","images/earth.jpg","images/rocket1","images/rocket2","null","images/rocket1","","1","real","null","2","","",""
"d3-animate-choice","217","769552","0.0-76.0-1.27","472","815","24","Female","false","false","false","true","""event"",""trial"",""time""
""fullscreenenter"",""5"",""11953""
","
","
","""event"",""trial"",""time""
""fullscreenenter"",""5"",""11953""
","
","302","","48","","","3000","1","","","images/purpleplanet.jpg","images/alien4","images/alien3","images/rocket1","images/alien4","images/t.png","2","real","true","2","common","1","2022-02-20 18:29:00.152"
"two-step-fixation","218","770558","0.0-76.0-2.27","472","815","24","Female","false","false","false","true","""event"",""trial"",""time""
""fullscreenenter"",""5"",""11953""
","
","
","""event"",""trial"",""time""
""fullscreenenter"",""5"",""11953""
","
","","images/earth.jpg","","","","","","","","","","","","","","fixation","","","","","",""
"d3-animate-choice","219","772898","0.0-76.0-0.28","472","815","24","Female","false","false","false","true","""event"",""trial"",""time""
""fullscreenenter"",""5"",""11953""
","
","
","""event"",""trial"",""time""
""fullscreenenter"",""5"",""11953""
","
","327","","48","","","3000","1","","","images/earth.jpg","images/rocket1","images/rocket2","null","images/rocket1","","1","real","null","2","","",""
"d3-animate-choice","220","775324","0.0-76.0-1.28","472","815","24","Female","false","false","false","true","""event"",""trial"",""time""
""fullscreenenter"",""5"",""11953""
","
","
","""event"",""trial"",""time""
""fullscreenenter"",""5"",""11953""
","
","409","","48","","","3000","1","","","images/purpleplanet.jpg","images/alien4","images/alien3","images/rocket1","images/alien4","images/t.png","2","real","true","2","common","1","2022-02-20 18:29:05.924"
"two-step-fixation","221","776334","0.0-76.0-2.28","472","815","24","Female","false","false","false","true","""event"",""trial"",""time""
""fullscreenenter"",""5"",""11953""
","
","
","""event"",""trial"",""time""
""fullscreenenter"",""5"",""11953""
","
","","images/earth.jpg","","","","","","","","","","","","","","fixation","","","","","",""
"d3-animate-choice","222","778639","0.0-76.0-0.29","472","815","24","Female","false","false","false","true","""event"",""trial"",""time""
""fullscreenenter"",""5"",""11953""
","
","
","""event"",""trial"",""time""
""fullscreenenter"",""5"",""11953""
","
","294","","48","","","3000","1","","","images/earth.jpg","images/rocket1","images/rocket2","null","images/rocket1","","1","real","null","2","","",""
"d3-animate-choice","223","781061","0.0-76.0-1.29","472","815","24","Female","false","false","false","true","""event"",""trial"",""time""
""fullscreenenter"",""5"",""11953""
","
","
","""event"",""trial"",""time""
""fullscreenenter"",""5"",""11953""
","
","412","","48","","","3000","1","","","images/purpleplanet.jpg","images/alien4","images/alien3","images/rocket1","images/alien4","images/t.png","2","real","true","2","common","1","2022-02-20 18:29:11.661"
"two-step-fixation","224","782065","0.0-76.0-2.29","472","815","24","Female","false","false","false","true","""event"",""trial"",""time""
""fullscreenenter"",""5"",""11953""
","
","
","""event"",""trial"",""time""
""fullscreenenter"",""5"",""11953""
","
","","images/earth.jpg","","","","","","","","","","","","","","fixation","","","","","",""
"d3-animate-choice","225","784377","0.0-76.0-0.30","472","815","24","Female","false","false","false","true","""event"",""trial"",""time""
""fullscreenenter"",""5"",""11953""
","
","
","""event"",""trial"",""time""
""fullscreenenter"",""5"",""11953""
","
","299","","48","","","3000","1","","","images/earth.jpg","images/rocket1","images/rocket2","null","images/rocket1","","1","real","null","2","","",""
"d3-animate-choice","226","786657","0.0-76.0-1.30","472","815","24","Female","false","false","false","true","""event"",""trial"",""time""
""fullscreenenter"",""5"",""11953""
","
","
","""event"",""trial"",""time""
""fullscreenenter"",""5"",""11953""
","
","272","","48","","","3000","1","","","images/purpleplanet.jpg","images/alien4","images/alien3","images/rocket1","images/alien4","images/nothing.png","2","real","true","2","common","0","2022-02-20 18:29:17.257"
"two-step-fixation","227","787665","0.0-76.0-2.30","472","815","24","Female","false","false","false","true","""event"",""trial"",""time""
""fullscreenenter"",""5"",""11953""
","
","
","""event"",""trial"",""time""
""fullscreenenter"",""5"",""11953""
","
","","images/earth.jpg","","","","","","","","","","","","","","fixation","","","","","",""
"d3-animate-choice","228","790142","0.0-76.0-0.31","472","815","24","Female","false","false","false","true","""event"",""trial"",""time""
""fullscreenenter"",""5"",""11953""
","
","
","""event"",""trial"",""time""
""fullscreenenter"",""5"",""11953""
","
","457","","48","","","3000","1","","","images/earth.jpg","images/rocket1","images/rocket2","null","images/rocket1","","1","real","null","2","","",""
"d3-animate-choice","229","792562","0.0-76.0-1.31","472","815","24","Female","false","false","false","true","""event"",""trial"",""time""
""fullscreenenter"",""5"",""11953""
","
","
","""event"",""trial"",""time""
""fullscreenenter"",""5"",""11953""
","
","407","","48","","","3000","1","","","images/purpleplanet.jpg","images/alien4","images/alien3","images/rocket1","images/alien4","images/t.png","2","real","true","2","common","1","2022-02-20 18:29:23.162"
"two-step-fixation","230","793577","0.0-76.0-2.31","472","815","24","Female","false","false","false","true","""event"",""trial"",""time""
""fullscreenenter"",""5"",""11953""
","
","
","""event"",""trial"",""time""
""fullscreenenter"",""5"",""11953""
","
","","images/earth.jpg","","","","","","","","","","","","","","fixation","","","","","",""
"d3-animate-choice","231","795966","0.0-76.0-0.32","472","815","24","Female","false","false","false","true","""event"",""trial"",""time""
""fullscreenenter"",""5"",""11953""
","
","
","""event"",""trial"",""time""
""fullscreenenter"",""5"",""11953""
","
","371","","48","","","3000","1","","","images/earth.jpg","images/rocket1","images/rocket2","null","images/rocket1","","1","real","null","2","","",""
"d3-animate-choice","232","798847","0.0-76.0-1.32","472","815","24","Female","false","false","false","true","""event"",""trial"",""time""
""fullscreenenter"",""5"",""11953""
","
","
","""event"",""trial"",""time""
""fullscreenenter"",""5"",""11953""
","
","859","","48","","","3000","1","","","images/purpleplanet.jpg","images/alien4","images/alien3","images/rocket1","images/alien4","images/t.png","2","real","true","2","common","1","2022-02-20 18:29:29.448"
"two-step-fixation","233","799858","0.0-76.0-2.32","472","815","24","Female","false","false","false","true","""event"",""trial"",""time""
""fullscreenenter"",""5"",""11953""
","
","
","""event"",""trial"",""time""
""fullscreenenter"",""5"",""11953""
","
","","images/earth.jpg","","","","","","","","","","","","","","fixation","","","","","",""
"d3-animate-choice","234","802152","0.0-76.0-0.33","472","815","24","Female","false","false","false","true","""event"",""trial"",""time""
""fullscreenenter"",""5"",""11953""
","
","
","""event"",""trial"",""time""
""fullscreenenter"",""5"",""11953""
","
","272","","48","","","3000","1","","","images/earth.jpg","images/rocket1","images/rocket2","null","images/rocket1","","1","real","null","2","","",""
"d3-animate-choice","235","804537","0.0-76.0-1.33","472","815","24","Female","false","false","false","true","""event"",""trial"",""time""
""fullscreenenter"",""5"",""11953""
","
","
","""event"",""trial"",""time""
""fullscreenenter"",""5"",""11953""
","
","367","","48","","","3000","1","","","images/purpleplanet.jpg","images/alien4","images/alien3","images/rocket1","images/alien4","images/t.png","2","real","true","2","common","1","2022-02-20 18:29:35.138"
"two-step-fixation","236","805542","0.0-76.0-2.33","472","815","24","Female","false","false","false","true","""event"",""trial"",""time""
""fullscreenenter"",""5"",""11953""
","
","
","""event"",""trial"",""time""
""fullscreenenter"",""5"",""11953""
","
","","images/earth.jpg","","","","","","","","","","","","","","fixation","","","","","",""
"d3-animate-choice","237","807809","0.0-76.0-0.34","472","815","24","Female","false","false","false","true","""event"",""trial"",""time""
""fullscreenenter"",""5"",""11953""
","
","
","""event"",""trial"",""time""
""fullscreenenter"",""5"",""11953""
","
","257","","48","","","3000","1","","","images/earth.jpg","images/rocket1","images/rocket2","null","images/rocket1","","1","real","null","2","","",""
"d3-animate-choice","238","810262","0.0-76.0-1.34","472","815","24","Female","false","false","false","true","""event"",""trial"",""time""
""fullscreenenter"",""5"",""11953""
","
","
","""event"",""trial"",""time""
""fullscreenenter"",""5"",""11953""
","
","435","","48","","","3000","1","","","images/purpleplanet.jpg","images/alien4","images/alien3","images/rocket1","images/alien4","images/t.png","2","real","true","2","common","1","2022-02-20 18:29:40.862"
"two-step-fixation","239","811266","0.0-76.0-2.34","472","815","24","Female","false","false","false","true","""event"",""trial"",""time""
""fullscreenenter"",""5"",""11953""
","
","
","""event"",""trial"",""time""
""fullscreenenter"",""5"",""11953""
","
","","images/earth.jpg","","","","","","","","","","","","","","fixation","","","","","",""
"d3-animate-choice","240","813542","0.0-76.0-0.35","472","815","24","Female","false","false","false","true","""event"",""trial"",""time""
""fullscreenenter"",""5"",""11953""
","
","
","""event"",""trial"",""time""
""fullscreenenter"",""5"",""11953""
","
","267","","48","","","3000","1","","","images/earth.jpg","images/rocket1","images/rocket2","null","images/rocket1","","1","real","null","2","","",""
"d3-animate-choice","241","815837","0.0-76.0-1.35","472","815","24","Female","false","false","false","true","""event"",""trial"",""time""
""fullscreenenter"",""5"",""11953""
","
","
","""event"",""trial"",""time""
""fullscreenenter"",""5"",""11953""
","
","274","","48","","","3000","1","","","images/purpleplanet.jpg","images/alien4","images/alien3","images/rocket1","images/alien4","images/nothing.png","2","real","true","2","common","0","2022-02-20 18:29:46.438"
"two-step-fixation","242","816848","0.0-76.0-2.35","472","815","24","Female","false","false","false","true","""event"",""trial"",""time""
""fullscreenenter"",""5"",""11953""
","
","
","""event"",""trial"",""time""
""fullscreenenter"",""5"",""11953""
","
","","images/earth.jpg","","","","","","","","","","","","","","fixation","","","","","",""
"d3-animate-choice","243","819122","0.0-76.0-0.36","472","815","24","Female","false","false","false","true","""event"",""trial"",""time""
""fullscreenenter"",""5"",""11953""
","
","
","""event"",""trial"",""time""
""fullscreenenter"",""5"",""11953""
","
","259","","48","","","3000","1","","","images/earth.jpg","images/rocket1","images/rocket2","null","images/rocket1","","1","real","null","2","","",""
"d3-animate-choice","244","821482","0.0-76.0-1.36","472","815","24","Female","false","false","false","true","""event"",""trial"",""time""
""fullscreenenter"",""5"",""11953""
","
","
","""event"",""trial"",""time""
""fullscreenenter"",""5"",""11953""
","
","344","","48","","","3000","1","","","images/redplanet1.jpg","images/alien2","images/alien1","images/rocket1","images/alien2","images/nothing.png","2","real","false","2","rare","0","2022-02-20 18:29:52.082"
"two-step-fixation","245","822494","0.0-76.0-2.36","472","815","24","Female","false","false","false","true","""event"",""trial"",""time""
""fullscreenenter"",""5"",""11953""
","
","
","""event"",""trial"",""time""
""fullscreenenter"",""5"",""11953""
","
","","images/earth.jpg","","","","","","","","","","","","","","fixation","","","","","",""
"d3-animate-choice","246","824778","0.0-76.0-0.37","472","815","24","Female","false","false","false","true","""event"",""trial"",""time""
""fullscreenenter"",""5"",""11953""
","
","
","""event"",""trial"",""time""
""fullscreenenter"",""5"",""11953""
","
","267","","48","","","3000","1","","","images/earth.jpg","images/rocket1","images/rocket2","null","images/rocket1","","1","real","null","2","","",""
"d3-animate-choice","247","827140","0.0-76.0-1.37","472","815","24","Female","false","false","false","true","""event"",""trial"",""time""
""fullscreenenter"",""5"",""11953""
","
","
","""event"",""trial"",""time""
""fullscreenenter"",""5"",""11953""
","
","348","","48","","","3000","1","","","images/purpleplanet.jpg","images/alien4","images/alien3","images/rocket1","images/alien4","images/t.png","2","real","true","2","common","1","2022-02-20 18:29:57.740"
"two-step-fixation","248","828148","0.0-76.0-2.37","472","815","24","Female","false","false","false","true","""event"",""trial"",""time""
""fullscreenenter"",""5"",""11953""
","
","
","""event"",""trial"",""time""
""fullscreenenter"",""5"",""11953""
","
","","images/earth.jpg","","","","","","","","","","","","","","fixation","","","","","",""
"d3-animate-choice","249","830488","0.0-76.0-0.38","472","815","24","Female","false","false","false","true","""event"",""trial"",""time""
""fullscreenenter"",""5"",""11953""
","
","
","""event"",""trial"",""time""
""fullscreenenter"",""5"",""11953""
","
","315","","48","","","3000","1","","","images/earth.jpg","images/rocket1","images/rocket2","null","images/rocket1","","1","real","null","2","","",""
"d3-animate-choice","250","832894","0.0-76.0-1.38","472","815","24","Female","false","false","false","true","""event"",""trial"",""time""
""fullscreenenter"",""5"",""11953""
","
","
