"trial_type","trial_index","time_elapsed","internal_node_id","participant_id","subject_id","age","gender","rocket_sides","red_planet_first_rocket","red_display_order","purple_display_order","interactions","blur_events","focus_events","fullscreenenter_events","fullscreenexit_events","rt","stimulus","key_press","button_pressed","success","duration","valid_pressed","rts","keys","planet_text","right_text","left_text","center_text","chosen_text","reward_text","trial_stage","practice_trial","transition_type","choice","transition","reward","timestamp"
"pavlovia","0","4","0.0-0.0","2696","4970","14","Male","false","false","true","true","
","
","
","
","
","","","","","","","","","","","","","","","","","","","","","",""
"html-keyboard-response","1","932","0.0-1.0","2696","4970","14","Male","false","false","true","true","
","
","
","
","
","926.5","Welcome! Press the space bar to begin.","32","","","","","","","","","","","","","","","","","","",""
"audio-keyboard-response","2","4354","0.0-2.0","2696","4970","14","Male","false","false","true","true","
","
","
","
","
","3339","audio/beep_loop.wav","32","","","","","","","","","","","","","","","","","","",""
"audio-button-response","3","7126","0.0-3.0","2696","4970","14","Male","false","false","true","true","
","
","
","
","
","NaN","audio/fish.mp3","","1","","","","","","","","","","","","","","","","","",""
"audio-button-response","4","9579","0.0-4.0","2696","4970","14","Male","false","false","true","true","""event"",""trial"",""time""
""fullscreenenter"",""5"",""13723""
","
","
","""event"",""trial"",""time""
""fullscreenenter"",""5"",""13723""
","
","NaN","audio/tiger.mp3","","4","","","","","","","","","","","","","","","","","",""
"fullscreen","5","14712","0.0-5.0","2696","4970","14","Male","false","false","true","true","""event"",""trial"",""time""
""fullscreenenter"",""5"",""13723""
","
","
","""event"",""trial"",""time""
""fullscreenenter"",""5"",""13723""
","
","","","","","true","","","","","","","","","","","","","","","","",""
"d3-instructions","6","20492","0.0-6.0","2696","4970","14","Male","false","false","true","true","""event"",""trial"",""time""
""fullscreenenter"",""5"",""13723""
","
","
","""event"",""trial"",""time""
""fullscreenenter"",""5"",""13723""
","
","","","","","","","","","","","","","","","","","","","","","",""
"d3-instructions","7","30409","0.0-7.0","2696","4970","14","Male","false","false","true","true","""event"",""trial"",""time""
""fullscreenenter"",""5"",""13723""
","
","
","""event"",""trial"",""time""
""fullscreenenter"",""5"",""13723""
","
","","","","","","","","","","","","","","","","","","","","","",""
"d3-instructions","8","34326","0.0-8.0","2696","4970","14","Male","false","false","true","true","""event"",""trial"",""time""
""fullscreenenter"",""5"",""13723""
","
","
","""event"",""trial"",""time""
""fullscreenenter"",""5"",""13723""
","
","","","","","","","","","","","","","","","","","","","","","",""
"d3-instructions","9","43176","0.0-9.0","2696","4970","14","Male","false","false","true","true","""event"",""trial"",""time""
""fullscreenenter"",""5"",""13723""
","
","
","""event"",""trial"",""time""
""fullscreenenter"",""5"",""13723""
","
","","","","","","","","","","","","","","","","","","","","","",""
"d3-instructions","10","49833","0.0-10.0","2696","4970","14","Male","false","false","true","true","""event"",""trial"",""time""
""fullscreenenter"",""5"",""13723""
","
","
","""event"",""trial"",""time""
""fullscreenenter"",""5"",""13723""
","
","","","","","","","","","","","","","","","","","","","","","",""
"d3-animate-choice","11","54936","0.0-11.0","2696","4970","14","Male","false","false","true","true","""event"",""trial"",""time""
""fullscreenenter"",""5"",""13723""
","
","
","""event"",""trial"",""time""
""fullscreenenter"",""5"",""13723""
","
","3090.100000023842","","49","","","3000","1","","","images/tutgreenplanet.jpg","images/tutalien1","images/tutalien2","null","images/tutalien2","","NA","practice","null","","","",""
"d3-animate-choice","12","58317","0.0-12.0","2696","4970","14","Male","false","false","true","true","""event"",""trial"",""time""
""fullscreenenter"",""5"",""13723""
","
","
","""event"",""trial"",""time""
""fullscreenenter"",""5"",""13723""
","
","1373.5","","48","","","3000","1","3246.7000000476837","49","images/tutgreenplanet.jpg","images/tutalien1","images/tutalien2","null","images/tutalien1","","NA","practice","null","","","",""
"d3-animate-choice","13","61265","0.0-13.0","2696","4970","14","Male","false","false","true","true","""event"",""trial"",""time""
""fullscreenenter"",""5"",""13723""
","
","
","""event"",""trial"",""time""
""fullscreenenter"",""5"",""13723""
","
","941.1000000238419","","49","","","3000","1","","","images/tutgreenplanet.jpg","images/tutalien1","images/tutalien2","null","images/tutalien2","","NA","practice","null","","","",""
"d3-animate-choice","14","63644","0.0-14.0","2696","4970","14","Male","false","false","true","true","""event"",""trial"",""time""
""fullscreenenter"",""5"",""13723""
","
","
","""event"",""trial"",""time""
""fullscreenenter"",""5"",""13723""
","
","372.2000000476837","","48","","","3000","1","","","images/tutgreenplanet.jpg","images/tutalien1","images/tutalien2","null","images/tutalien1","","NA","practice","null","","","",""
"d3-instructions","15","66501","0.0-15.0","2696","4970","14","Male","false","false","true","true","""event"",""trial"",""time""
""fullscreenenter"",""5"",""13723""
","
","
","""event"",""trial"",""time""
""fullscreenenter"",""5"",""13723""
","
","","","","","","","","","","","","","","","","","","","","","",""
"d3-instructions","16","68327","0.0-16.0","2696","4970","14","Male","false","false","true","true","""event"",""trial"",""time""
""fullscreenenter"",""5"",""13723""
","
","
","""event"",""trial"",""time""
""fullscreenenter"",""5"",""13723""
","
","","","","","","","","","","","","","","","","","","","","","",""
"d3-instructions","17","72455","0.0-17.0","2696","4970","14","Male","false","false","true","true","""event"",""trial"",""time""
""fullscreenenter"",""5"",""13723""
","
","
","""event"",""trial"",""time""
""fullscreenenter"",""5"",""13723""
","
","","","","","","","","","","","","","","","","","","","","","",""
"d3-instructions","18","77634","0.0-18.0","2696","4970","14","Male","false","false","true","true","""event"",""trial"",""time""
""fullscreenenter"",""5"",""13723""
","
","
","""event"",""trial"",""time""
""fullscreenenter"",""5"",""13723""
","
","","","","","","","","","","","","","","","","","","","","","",""
"d3-instructions","19","89079","0.0-19.0","2696","4970","14","Male","false","false","true","true","""event"",""trial"",""time""
""fullscreenenter"",""5"",""13723""
","
","
","""event"",""trial"",""time""
""fullscreenenter"",""5"",""13723""
","
","","","","","","","","","","","","","","","","","","","","","",""
"d3-animate-choice","20","91743","0.0-20.0","2696","4970","14","Male","false","false","true","true","""event"",""trial"",""time""
""fullscreenenter"",""5"",""13723""
","
","
","""event"",""trial"",""time""
""fullscreenenter"",""5"",""13723""
","
","659.2000000476837","","49","","","3000","1","1928.1000000238419","49","images/tutyellowplanet.jpg","null","images/tutalien3","null","images/tutalien3","images/t.png","NA","practice","null","","","",""
"d3-animate-choice","21","94319","0.0-21.0","2696","4970","14","Male","false","false","true","true","""event"",""trial"",""time""
""fullscreenenter"",""5"",""13723""
","
","
","""event"",""trial"",""time""
""fullscreenenter"",""5"",""13723""
","
","571.4000000953674","","49","","","3000","1","","","images/tutyellowplanet.jpg","null","images/tutalien3","null","images/tutalien3","images/nothing.png","NA","practice","null","","","",""
"d3-animate-choice","22","96751","0.0-22.0","2696","4970","14","Male","false","false","true","true","""event"",""trial"",""time""
""fullscreenenter"",""5"",""13723""
","
","
","""event"",""trial"",""time""
""fullscreenenter"",""5"",""13723""
","
","426.7000000476837","","49","","","3000","1","1946","49","images/tutyellowplanet.jpg","null","images/tutalien3","null","images/tutalien3","images/nothing.png","NA","practice","null","","","",""
"d3-animate-choice","23","98880","0.0-23.0","2696","4970","14","Male","false","false","true","true","""event"",""trial"",""time""
""fullscreenenter"",""5"",""13723""
","
","
","""event"",""trial"",""time""
""fullscreenenter"",""5"",""13723""
","
","120.20000004768372","","49","","","3000","1","795.6000000238419,1010.1000000238419,1211.5,1406.9000000953674,1605.5,1791.1000000238419,1979.4000000953674","49,49,49,49,49,49,49","images/tutyellowplanet.jpg","null","images/tutalien3","null","images/tutalien3","images/t.png","NA","practice","null","","","",""
"d3-animate-choice","24","100948","0.0-24.0","2696","4970","14","Male","false","false","true","true","""event"",""trial"",""time""
""fullscreenenter"",""5"",""13723""
","
","
","""event"",""trial"",""time""
""fullscreenenter"",""5"",""13723""
","
","60","","49","","","3000","1","259.7000000476837,497.39999997615814,743.6000000238419,1014.1000000238419,1253.3999999761581,1560.2999999523163,1789.7999999523163,2032.8999999761581","49,49,49,49,49,49,49,49","images/tutyellowplanet.jpg","null","images/tutalien3","null","images/tutalien3","images/t.png","NA","practice","null","","","",""
"d3-animate-choice","25","103188","0.0-25.0","2696","4970","14","Male","false","false","true","true","""event"",""trial"",""time""
""fullscreenenter"",""5"",""13723""
","
","
","""event"",""trial"",""time""
""fullscreenenter"",""5"",""13723""
","
","234.70000004768372","","49","","","3000","1","481,822.7000000476837,1113.3999999761581,1368.3000000715256,1605.8000000715256,1937.1000000238419","49,49,49,49,49,49","images/tutyellowplanet.jpg","null","images/tutalien3","null","images/tutalien3","images/t.png","NA","practice","null","","","",""
"d3-animate-choice","26","105250","0.0-26.0","2696","4970","14","Male","false","false","true","true","""event"",""trial"",""time""
""fullscreenenter"",""5"",""13723""
","
","
","""event"",""trial"",""time""
""fullscreenenter"",""5"",""13723""
","
","58.09999990463257","","49","","","3000","1","350.7999999523163,903.0999999046326,1205.8999999761581,1495.3999999761581,1792.1999999284744","49,49,49,49,49","images/tutyellowplanet.jpg","null","images/tutalien3","null","images/tutalien3","images/t.png","NA","practice","null","","","",""
"d3-animate-choice","27","107342","0.0-27.0","2696","4970","14","Male","false","false","true","true","""event"",""trial"",""time""
""fullscreenenter"",""5"",""13723""
","
","
","""event"",""trial"",""time""
""fullscreenenter"",""5"",""13723""
","
","88.89999997615814","","49","","","3000","1","368.89999997615814,777,1098,1402.6000000238419,1726.5","49,49,49,49,49","images/tutyellowplanet.jpg","null","images/tutalien3","null","images/tutalien3","images/nothing.png","NA","practice","null","","","",""
"d3-animate-choice","28","109374","0.0-28.0","2696","4970","14","Male","false","false","true","true","""event"",""trial"",""time""
""fullscreenenter"",""5"",""13723""
","
","
","""event"",""trial"",""time""
""fullscreenenter"",""5"",""13723""
","
","26.399999976158142","","49","","","3000","1","362.39999997615814,697,1007.7999999523163,1358.5,1681.6000000238419,1954.8999999761581","49,49,49,49,49,49","images/tutyellowplanet.jpg","null","images/tutalien3","null","images/tutalien3","images/t.png","NA","practice","null","","","",""
"d3-animate-choice","29","111562","0.0-29.0","2696","4970","14","Male","false","false","true","true","""event"",""trial"",""time""
""fullscreenenter"",""5"",""13723""
","
","
","""event"",""trial"",""time""
""fullscreenenter"",""5"",""13723""
","
","182.79999995231628","","49","","","3000","1","518.5999999046326,2060.6999999284744","49,49","images/tutyellowplanet.jpg","null","images/tutalien3","null","images/tutalien3","images/t.png","NA","practice","null","","","",""
"d3-instructions","30","114125","0.0-30.0","2696","4970","14","Male","false","false","true","true","""event"",""trial"",""time""
""fullscreenenter"",""5"",""13723""
","
","
","""event"",""trial"",""time""
""fullscreenenter"",""5"",""13723""
","
","","","","","","","","","","","","","","","","","","","","","",""
"d3-instructions","31","117094","0.0-31.0","2696","4970","14","Male","false","false","true","true","""event"",""trial"",""time""
""fullscreenenter"",""5"",""13723""
","
","
","""event"",""trial"",""time""
""fullscreenenter"",""5"",""13723""
","
","","","","","","","","","","","","","","","","","","","","","",""
"d3-instructions","32","121568","0.0-32.0","2696","4970","14","Male","false","false","true","true","""event"",""trial"",""time""
""fullscreenenter"",""5"",""13723""
","
","
","""event"",""trial"",""time""
""fullscreenenter"",""5"",""13723""
","
","","","","","","","","","","","","","","","","","","","","","",""
"d3-instructions","33","122971","0.0-33.0","2696","4970","14","Male","false","false","true","true","""event"",""trial"",""time""
""fullscreenenter"",""5"",""13723""
","
","
","""event"",""trial"",""time""
""fullscreenenter"",""5"",""13723""
","
","","","","","","","","","","","","","","","","","","","","","",""
"d3-animate-choice","34","125993","0.0-34.0","2696","4970","14","Male","false","false","true","true","""event"",""trial"",""time""
""fullscreenenter"",""5"",""13723""
","
","
","""event"",""trial"",""time""
""fullscreenenter"",""5"",""13723""
","
","1018.2000000476837","","49","","","3000","1","1295.6000000238419","32","images/tutgreenplanet.jpg","images/tutalien1","images/tutalien2","null","images/tutalien2","images/t.png","NA","practice","null","","","",""
"d3-animate-choice","35","128370","0.0-35.0","2696","4970","14","Male","false","false","true","true","""event"",""trial"",""time""
""fullscreenenter"",""5"",""13723""
","
","
","""event"",""trial"",""time""
""fullscreenenter"",""5"",""13723""
","
","372.5","","48","","","3000","1","2245.3000000715256","49","images/tutgreenplanet.jpg","images/tutalien1","images/tutalien2","null","images/tutalien1","images/nothing.png","NA","practice","null","","","",""
"d3-animate-choice","36","130488","0.0-36.0","2696","4970","14","Male","false","false","true","true","""event"",""trial"",""time""
""fullscreenenter"",""5"",""13723""
","
","
","""event"",""trial"",""time""
""fullscreenenter"",""5"",""13723""
","
","110.80000007152557","","49","","","3000","1","341,1857.3000000715256","49,49","images/tutgreenplanet.jpg","images/tutalien1","images/tutalien2","null","images/tutalien2","images/t.png","NA","practice","null","","","",""
"d3-animate-choice","37","132503","0.0-37.0","2696","4970","14","Male","false","false","true","true","""event"",""trial"",""time""
""fullscreenenter"",""5"",""13723""
","
","
","""event"",""trial"",""time""
""fullscreenenter"",""5"",""13723""
","
","10","","49","","","3000","1","254.20000004768372,1489.8999999761581,1764.2999999523163,2000.8999999761581","49,49,49,49","images/tutgreenplanet.jpg","images/tutalien1","images/tutalien2","null","images/tutalien2","images/t.png","NA","practice","null","","","",""
"d3-animate-choice","38","134695","0.0-38.0","2696","4970","14","Male","false","false","true","true","""event"",""trial"",""time""
""fullscreenenter"",""5"",""13723""
","
","
","""event"",""trial"",""time""
""fullscreenenter"",""5"",""13723""
","
","184","","49","","","3000","1","1607.6000000238419,1847.4000000953674,2037.8000000715256","49,49,49","images/tutgreenplanet.jpg","images/tutalien1","images/tutalien2","null","images/tutalien2","images/t.png","NA","practice","null","","","",""
"d3-animate-choice","39","136749","0.0-39.0","2696","4970","14","Male","false","false","true","true","""event"",""trial"",""time""
""fullscreenenter"",""5"",""13723""
","
","
","""event"",""trial"",""time""
""fullscreenenter"",""5"",""13723""
","
","45.5","","49","","","3000","1","1744.4000000953674,1967.1000000238419","49,49","images/tutgreenplanet.jpg","images/tutalien1","images/tutalien2","null","images/tutalien2","images/t.png","NA","practice","null","","","",""
"d3-animate-choice","40","138919","0.0-40.0","2696","4970","14","Male","false","false","true","true","""event"",""trial"",""time""
""fullscreenenter"",""5"",""13723""
","
","
","""event"",""trial"",""time""
""fullscreenenter"",""5"",""13723""
","
","161.10000002384186","","49","","","3000","1","1242.6000000238419,1517.5,1824.7000000476837,2141.5","49,49,49,49","images/tutgreenplanet.jpg","images/tutalien1","images/tutalien2","null","images/tutalien2","images/t.png","NA","practice","null","","","",""
"d3-animate-choice","41","141159","0.0-41.0","2696","4970","14","Male","false","false","true","true","""event"",""trial"",""time""
""fullscreenenter"",""5"",""13723""
","
","
","""event"",""trial"",""time""
""fullscreenenter"",""5"",""13723""
","
","236","","49","","","3000","1","524.2999999523163,891.6000000238419,1199.7999999523163,1527.7999999523163,1821.1000000238419,2122.1999999284744","49,49,49,49,49,49","images/tutgreenplanet.jpg","images/tutalien1","images/tutalien2","null","images/tutalien2","images/t.png","NA","practice","null","","","",""
"d3-animate-choice","42","143393","0.0-42.0","2696","4970","14","Male","false","false","true","true","""event"",""trial"",""time""
""fullscreenenter"",""5"",""13723""
","
","
","""event"",""trial"",""time""
""fullscreenenter"",""5"",""13723""
","
","229.40000009536743","","49","","","3000","1","1739.3000000715256,2044.9000000953674","49,49","images/tutgreenplanet.jpg","images/tutalien1","images/tutalien2","null","images/tutalien2","images/t.png","NA","practice","null","","","",""
"d3-animate-choice","43","145557","0.0-43.0","2696","4970","14","Male","false","false","true","true","""event"",""trial"",""time""
""fullscreenenter"",""5"",""13723""
","
","
","""event"",""trial"",""time""
""fullscreenenter"",""5"",""13723""
","
","156.39999997615814","","49","","","3000","1","509.60000002384186,854.6000000238419,1178.7000000476837,1522,1855.8999999761581","49,49,49,49,49","images/tutgreenplanet.jpg","images/tutalien1","images/tutalien2","null","images/tutalien2","images/t.png","NA","practice","null","","","",""
"d3-instructions","44","148399","0.0-44.0","2696","4970","14","Male","false","false","true","true","""event"",""trial"",""time""
""fullscreenenter"",""5"",""13723""
","
","
","""event"",""trial"",""time""
""fullscreenenter"",""5"",""13723""
","
","","","","","","","","","","","","","","","","","","","","","",""
"d3-instructions","45","150521","0.0-45.0","2696","4970","14","Male","false","false","true","true","""event"",""trial"",""time""
""fullscreenenter"",""5"",""13723""
","
","
","""event"",""trial"",""time""
""fullscreenenter"",""5"",""13723""
","
","","","","","","","","","","","","","","","","","","","","","",""
"d3-instructions","46","152240","0.0-46.0","2696","4970","14","Male","false","false","true","true","""event"",""trial"",""time""
""fullscreenenter"",""5"",""13723""
","
","
","""event"",""trial"",""time""
""fullscreenenter"",""5"",""13723""
","
","","","","","","","","","","","","","","","","","","","","","",""
"d3-instructions","47","162227","0.0-47.0","2696","4970","14","Male","false","false","true","true","""event"",""trial"",""time""
""fullscreenenter"",""5"",""13723""
","
","
","""event"",""trial"",""time""
""fullscreenenter"",""5"",""13723""
","
","","","","","","","","","","","","","","","","","","","","","",""
"d3-instructions","48","165809","0.0-48.0","2696","4970","14","Male","false","false","true","true","""event"",""trial"",""time""
""fullscreenenter"",""5"",""13723""
","
","
","""event"",""trial"",""time""
""fullscreenenter"",""5"",""13723""
","
","","","","","","","","","","","","","","","","","","","","","",""
"d3-instructions","49","169971","0.0-49.0","2696","4970","14","Male","false","false","true","true","""event"",""trial"",""time""
""fullscreenenter"",""5"",""13723""
","
","
","""event"",""trial"",""time""
""fullscreenenter"",""5"",""13723""
","
","","","","","","","","","","","","","","","","","","","","","",""
"d3-instructions","50","172183","0.0-50.0","2696","4970","14","Male","false","false","true","true","""event"",""trial"",""time""
""fullscreenenter"",""5"",""13723""
","
","
","""event"",""trial"",""time""
""fullscreenenter"",""5"",""13723""
","
","","","","","","","","","","","","","","","","","","","","","",""
"d3-instructions","51","173684","0.0-51.0","2696","4970","14","Male","false","false","true","true","""event"",""trial"",""time""
""fullscreenenter"",""5"",""13723""
","
","
","""event"",""trial"",""time""
""fullscreenenter"",""5"",""13723""
","
","","","","","","","","","","","","","","","","","","","","","",""
"d3-instructions","52","174605","0.0-52.0","2696","4970","14","Male","false","false","true","true","""event"",""trial"",""time""
""fullscreenenter"",""5"",""13723""
","
","
","""event"",""trial"",""time""
""fullscreenenter"",""5"",""13723""
","
","","","","","","","","","","","","","","","","","","","","","",""
"d3-instructions","53","177301","0.0-53.0","2696","4970","14","Male","false","false","true","true","""event"",""trial"",""time""
""fullscreenenter"",""5"",""13723""
","
","
","""event"",""trial"",""time""
""fullscreenenter"",""5"",""13723""
","
","","","","","","","","","","","","","","","","","","","","","",""
"d3-instructions","54","180231","0.0-54.0","2696","4970","14","Male","false","false","true","true","""event"",""trial"",""time""
""fullscreenenter"",""5"",""13723""
","
","
","""event"",""trial"",""time""
""fullscreenenter"",""5"",""13723""
","
","","","","","","","","","","","","","","","","","","","","","",""
"d3-instructions","55","182770","0.0-55.0","2696","4970","14","Male","false","false","true","true","""event"",""trial"",""time""
""fullscreenenter"",""5"",""13723""
","
","
","""event"",""trial"",""time""
""fullscreenenter"",""5"",""13723""
","
","","","","","","","","","","","","","","","","","","","","","",""
"d3-instructions","56","185940","0.0-56.0","2696","4970","14","Male","false","false","true","true","""event"",""trial"",""time""
""fullscreenenter"",""5"",""13723""
","
","
","""event"",""trial"",""time""
""fullscreenenter"",""5"",""13723""
","
","","","","","","","","","","","","","","","","","","","","","",""
"d3-instructions","57","187983","0.0-57.0","2696","4970","14","Male","false","false","true","true","""event"",""trial"",""time""
""fullscreenenter"",""5"",""13723""
","
","
","""event"",""trial"",""time""
""fullscreenenter"",""5"",""13723""
","
","","","","","","","","","","","","","","","","","","","","","",""
"d3-instructions","58","195933","0.0-58.0","2696","4970","14","Male","false","false","true","true","""event"",""trial"",""time""
""fullscreenenter"",""5"",""13723""
","
","
","""event"",""trial"",""time""
""fullscreenenter"",""5"",""13723""
","
","","","","","","","","","","","","","","","","","","","","","",""
"d3-instructions","59","198214","0.0-59.0","2696","4970","14","Male","false","false","true","true","""event"",""trial"",""time""
""fullscreenenter"",""5"",""13723""
","
","
","""event"",""trial"",""time""
""fullscreenenter"",""5"",""13723""
","
","","","","","","","","","","","","","","","","","","","","","",""
"d3-instructions","60","200081","0.0-60.0","2696","4970","14","Male","false","false","true","true","""event"",""trial"",""time""
""fullscreenenter"",""5"",""13723""
","
","
","""event"",""trial"",""time""
""fullscreenenter"",""5"",""13723""
","
","","","","","","","","","","","","","","","","","","","","","",""
"d3-animate-choice","61","202805","0.0-61.0-0.0","2696","4970","14","Male","false","false","true","true","""event"",""trial"",""time""
""fullscreenenter"",""5"",""13723""
","
","
","""event"",""trial"",""time""
""fullscreenenter"",""5"",""13723""
","
","717.4000000953674","","49","","","3000","1","","","images/earth.jpg","images/tutrocket2","images/tutrocket1","null","images/tutrocket1","","1","practice","null","1","","",""
"d3-animate-choice","62","206814","0.0-61.0-1.0","2696","4970","14","Male","false","false","true","true","""event"",""trial"",""time""
""fullscreenenter"",""5"",""13723""
","
","
","""event"",""trial"",""time""
""fullscreenenter"",""5"",""13723""
","
","2250.2999999523163","","49","","","3000","1","","","images/tutyellowplanet.jpg","images/tutalien4","images/tutalien3","images/tutrocket1","images/tutalien3","images/nothing.png","2","practice","true","1","common","0","2022-12-06 02:32:15.849"
"two-step-fixation","63","207822","0.0-61.0-2.0","2696","4970","14","Male","false","false","true","true","""event"",""trial"",""time""
""fullscreenenter"",""5"",""13723""
","
","
","""event"",""trial"",""time""
""fullscreenenter"",""5"",""13723""
","
","","images/earth.jpg","","","","","","","","","","","","","","fixation","","","","","",""
"d3-animate-choice","64","210495","0.0-61.0-0.1","2696","4970","14","Male","false","false","true","true","""event"",""trial"",""time""
""fullscreenenter"",""5"",""13723""
","
","
","""event"",""trial"",""time""
""fullscreenenter"",""5"",""13723""
","
","666.2999999523163","","49","","","3000","1","","","images/earth.jpg","images/tutrocket2","images/tutrocket1","null","images/tutrocket1","","1","practice","null","1","","",""
"d3-animate-choice","65","212996","0.0-61.0-1.1","2696","4970","14","Male","false","false","true","true","""event"",""trial"",""time""
""fullscreenenter"",""5"",""13723""
","
","
","""event"",""trial"",""time""
""fullscreenenter"",""5"",""13723""
","
","494.5","","48","","","3000","1","","","images/tutyellowplanet.jpg","images/tutalien4","images/tutalien3","images/tutrocket1","images/tutalien4","images/nothing.png","2","practice","true","2","common","0","2022-12-06 02:32:22.030"
"two-step-fixation","66","214003","0.0-61.0-2.1","2696","4970","14","Male","false","false","true","true","""event"",""trial"",""time""
""fullscreenenter"",""5"",""13723""
","
","
","""event"",""trial"",""time""
""fullscreenenter"",""5"",""13723""
","
","","images/earth.jpg","","","","","","","","","","","","","","fixation","","","","","",""
"d3-animate-choice","67","216565","0.0-61.0-0.2","2696","4970","14","Male","false","false","true","true","""event"",""trial"",""time""
""fullscreenenter"",""5"",""13723""
","
","
","""event"",""trial"",""time""
""fullscreenenter"",""5"",""13723""
","
","554","","49","","","3000","1","","","images/earth.jpg","images/tutrocket2","images/tutrocket1","null","images/tutrocket1","","1","practice","null","1","","",""
"d3-animate-choice","68","219087","0.0-61.0-1.2","2696","4970","14","Male","false","false","true","true","""event"",""trial"",""time""
""fullscreenenter"",""5"",""13723""
","
","
","""event"",""trial"",""time""
""fullscreenenter"",""5"",""13723""
","
","514.3999999761581","","49","","","3000","1","","","images/tutyellowplanet.jpg","images/tutalien4","images/tutalien3","images/tutrocket1","images/tutalien3","images/nothing.png","2","practice","true","1","common","0","2022-12-06 02:32:28.121"
"two-step-fixation","69","220096","0.0-61.0-2.2","2696","4970","14","Male","false","false","true","true","""event"",""trial"",""time""
""fullscreenenter"",""5"",""13723""
","
","
","""event"",""trial"",""time""
""fullscreenenter"",""5"",""13723""
","
","","images/earth.jpg","","","","","","","","","","","","","","fixation","","","","","",""
"d3-animate-choice","70","223803","0.0-61.0-0.3","2696","4970","14","Male","false","false","true","true","""event"",""trial"",""time""
""fullscreenenter"",""5"",""13723""
","
","
","""event"",""trial"",""time""
""fullscreenenter"",""5"",""13723""
","
","45.40000009536743","","50","","","3000","1","306.40000009536743,701.2000000476837,1121,1701.4000000953674","50,50,50,48","images/earth.jpg","images/tutrocket2","images/tutrocket1","null","images/tutrocket2","","1","practice","null","","","",""
"d3-animate-choice","71","226205","0.0-61.0-1.3","2696","4970","14","Male","false","false","true","true","""event"",""trial"",""time""
""fullscreenenter"",""5"",""13723""
","
","
","""event"",""trial"",""time""
""fullscreenenter"",""5"",""13723""
","
","394.10000002384186","","49","","","3000","1","","","images/tutgreenplanet.jpg","images/tutalien2","images/tutalien1","images/tutrocket2","images/tutalien1","images/t.png","2","practice","true","1","common","1","2022-12-06 02:32:35.239"
"two-step-fixation","72","227214","0.0-61.0-2.3","2696","4970","14","Male","false","false","true","true","""event"",""trial"",""time""
""fullscreenenter"",""5"",""13723""
","
","
","""event"",""trial"",""time""
""fullscreenenter"",""5"",""13723""
","
","","images/earth.jpg","","","","","","","","","","","","","","fixation","","","","","",""
"d3-animate-choice","73","229511","0.0-61.0-0.4","2696","4970","14","Male","false","false","true","true","""event"",""trial"",""time""
""fullscreenenter"",""5"",""13723""
","
","
","""event"",""trial"",""time""
""fullscreenenter"",""5"",""13723""
","
","290.8000000715256","","48","","","3000","1","","","images/earth.jpg","images/tutrocket2","images/tutrocket1","null","images/tutrocket2","","1","practice","null","2","","",""
"d3-animate-choice","74","233186","0.0-61.0-1.4","2696","4970","14","Male","false","false","true","true","""event"",""trial"",""time""
""fullscreenenter"",""5"",""13723""
","
","
","""event"",""trial"",""time""
""fullscreenenter"",""5"",""13723""
","
","1112.8000000715256","","50","","","3000","1","1666","49","images/tutyellowplanet.jpg","images/tutalien4","images/tutalien3","images/tutrocket2","images/tutalien3","images/nothing.png","2","practice","false","","rare","0","2022-12-06 02:32:42.220"
"two-step-fixation","75","234195","0.0-61.0-2.4","2696","4970","14","Male","false","false","true","true","""event"",""trial"",""time""
""fullscreenenter"",""5"",""13723""
","
","
","""event"",""trial"",""time""
""fullscreenenter"",""5"",""13723""
","
","","images/earth.jpg","","","","","","","","","","","","","","fixation","","","","","",""
"d3-animate-choice","76","236837","0.0-61.0-0.5","2696","4970","14","Male","false","false","true","true","""event"",""trial"",""time""
""fullscreenenter"",""5"",""13723""
","
","
","""event"",""trial"",""time""
""fullscreenenter"",""5"",""13723""
","
","637","","48","","","3000","1","","","images/earth.jpg","images/tutrocket2","images/tutrocket1","null","images/tutrocket2","","1","practice","null","2","","",""
"d3-animate-choice","77","239510","0.0-61.0-1.5","2696","4970","14","Male","false","false","true","true","""event"",""trial"",""time""
""fullscreenenter"",""5"",""13723""
","
","
","""event"",""trial"",""time""
""fullscreenenter"",""5"",""13723""
","
","667.5","","49","","","3000","1","","","images/tutgreenplanet.jpg","images/tutalien2","images/tutalien1","images/tutrocket2","images/tutalien1","images/t.png","2","practice","true","1","common","1","2022-12-06 02:32:48.544"
"two-step-fixation","78","240516","0.0-61.0-2.5","2696","4970","14","Male","false","false","true","true","""event"",""trial"",""time""
""fullscreenenter"",""5"",""13723""
","
","
","""event"",""trial"",""time""
""fullscreenenter"",""5"",""13723""
","
","","images/earth.jpg","","","","","","","","","","","","","","fixation","","","","","",""
"d3-animate-choice","79","243431","0.0-61.0-0.6","2696","4970","14","Male","false","false","true","true","""event"",""trial"",""time""
""fullscreenenter"",""5"",""13723""
","
","
","""event"",""trial"",""time""
""fullscreenenter"",""5"",""13723""
","
","907","","48","","","3000","1","","","images/earth.jpg","images/tutrocket2","images/tutrocket1","null","images/tutrocket2","","1","practice","null","2","","",""
"d3-animate-choice","80","246052","0.0-61.0-1.6","2696","4970","14","Male","false","false","true","true","""event"",""trial"",""time""
""fullscreenenter"",""5"",""13723""
","
","
","""event"",""trial"",""time""
""fullscreenenter"",""5"",""13723""
","
","614","","49","","","3000","1","","","images/tutgreenplanet.jpg","images/tutalien2","images/tutalien1","images/tutrocket2","images/tutalien1","images/nothing.png","2","practice","true","1","common","0","2022-12-06 02:32:55.086"
"two-step-fixation","81","247060","0.0-61.0-2.6","2696","4970","14","Male","false","false","true","true","""event"",""trial"",""time""
""fullscreenenter"",""5"",""13723""
","
","
","""event"",""trial"",""time""
""fullscreenenter"",""5"",""13723""
","
","","images/earth.jpg","","","","","","","","","","","","","","fixation","","","","","",""
"d3-animate-choice","82","249287","0.0-61.0-0.7","2696","4970","14","Male","false","false","true","true","""event"",""trial"",""time""
""fullscreenenter"",""5"",""13723""
","
","
","""event"",""trial"",""time""
""fullscreenenter"",""5"",""13723""
","
","222.60000002384186","","48","","","3000","1","","","images/earth.jpg","images/tutrocket2","images/tutrocket1","null","images/tutrocket2","","1","practice","null","2","","",""
"d3-animate-choice","83","251681","0.0-61.0-1.7","2696","4970","14","Male","false","false","true","true","""event"",""trial"",""time""
""fullscreenenter"",""5"",""13723""
","
","
","""event"",""trial"",""time""
""fullscreenenter"",""5"",""13723""
","
","385.7000000476837","","48","","","3000","1","","","images/tutyellowplanet.jpg","images/tutalien4","images/tutalien3","images/tutrocket2","images/tutalien4","images/t.png","2","practice","false","2","rare","1","2022-12-06 02:33:00.715"
"two-step-fixation","84","252689","0.0-61.0-2.7","2696","4970","14","Male","false","false","true","true","""event"",""trial"",""time""
""fullscreenenter"",""5"",""13723""
","
","
","""event"",""trial"",""time""
""fullscreenenter"",""5"",""13723""
","
","","images/earth.jpg","","","","","","","","","","","","","","fixation","","","","","",""
"d3-animate-choice","85","255283","0.0-61.0-0.8","2696","4970","14","Male","false","false","true","true","""event"",""trial"",""time""
""fullscreenenter"",""5"",""13723""
","
","
","""event"",""trial"",""time""
""fullscreenenter"",""5"",""13723""
","
","587.5","","49","","","3000","1","","","images/earth.jpg","images/tutrocket2","images/tutrocket1","null","images/tutrocket1","","1","practice","null","1","","",""
"d3-animate-choice","86","257801","0.0-61.0-1.8","2696","4970","14","Male","false","false","true","true","""event"",""trial"",""time""
""fullscreenenter"",""5"",""13723""
","
","
","""event"",""trial"",""time""
""fullscreenenter"",""5"",""13723""
","
","511.60000002384186","","48","","","3000","1","","","images/tutyellowplanet.jpg","images/tutalien4","images/tutalien3","images/tutrocket1","images/tutalien4","images/t.png","2","practice","true","2","common","1","2022-12-06 02:33:06.836"
"two-step-fixation","87","258808","0.0-61.0-2.8","2696","4970","14","Male","false","false","true","true","""event"",""trial"",""time""
""fullscreenenter"",""5"",""13723""
","
","
","""event"",""trial"",""time""
""fullscreenenter"",""5"",""13723""
","
","","images/earth.jpg","","","","","","","","","","","","","","fixation","","","","","",""
"d3-animate-choice","88","261469","0.0-61.0-0.9","2696","4970","14","Male","false","false","true","true","""event"",""trial"",""time""
""fullscreenenter"",""5"",""13723""
","
","
","""event"",""trial"",""time""
""fullscreenenter"",""5"",""13723""
","
","654.1000000238419","","49","","","3000","1","","","images/earth.jpg","images/tutrocket2","images/tutrocket1","null","images/tutrocket1","","1","practice","null","1","","",""
"d3-animate-choice","89","264098","0.0-61.0-1.9","2696","4970","14","Male","false","false","true","true","""event"",""trial"",""time""
""fullscreenenter"",""5"",""13723""
","
","
","""event"",""trial"",""time""
""fullscreenenter"",""5"",""13723""
","
","623.5999999046326","","48","","","3000","1","","","images/tutyellowplanet.jpg","images/tutalien4","images/tutalien3","images/tutrocket1","images/tutalien4","images/t.png","2","practice","true","2","common","1","2022-12-06 02:33:13.132"
"two-step-fixation","90","265104","0.0-61.0-2.9","2696","4970","14","Male","false","false","true","true","""event"",""trial"",""time""
""fullscreenenter"",""5"",""13723""
","
","
","""event"",""trial"",""time""
""fullscreenenter"",""5"",""13723""
","
","","images/earth.jpg","","","","","","","","","","","","","","fixation","","","","","",""
"d3-animate-choice","91","267816","0.0-61.0-0.10","2696","4970","14","Male","false","false","true","true","""event"",""trial"",""time""
""fullscreenenter"",""5"",""13723""
","
","
","""event"",""trial"",""time""
""fullscreenenter"",""5"",""13723""
","
","704.3000000715256","","49","","","3000","1","","","images/earth.jpg","images/tutrocket2","images/tutrocket1","null","images/tutrocket1","","1","practice","null","1","","",""
"d3-animate-choice","92","270469","0.0-61.0-1.10","2696","4970","14","Male","false","false","true","true","""event"",""trial"",""time""
""fullscreenenter"",""5"",""13723""
","
","
","""event"",""trial"",""time""
""fullscreenenter"",""5"",""13723""
","
","644.2999999523163","","48","","","3000","1","","","images/tutyellowplanet.jpg","images/tutalien4","images/tutalien3","images/tutrocket1","images/tutalien4","images/t.png","2","practice","true","2","common","1","2022-12-06 02:33:19.503"
"two-step-fixation","93","271474","0.0-61.0-2.10","2696","4970","14","Male","false","false","true","true","""event"",""trial"",""time""
""fullscreenenter"",""5"",""13723""
","
","
","""event"",""trial"",""time""
""fullscreenenter"",""5"",""13723""
","
","","images/earth.jpg","","","","","","","","","","","","","","fixation","","","","","",""
"d3-animate-choice","94","274088","0.0-61.0-0.11","2696","4970","14","Male","false","false","true","true","""event"",""trial"",""time""
""fullscreenenter"",""5"",""13723""
","
","
","""event"",""trial"",""time""
""fullscreenenter"",""5"",""13723""
","
","605.3000000715256","","49","","","3000","1","","","images/earth.jpg","images/tutrocket2","images/tutrocket1","null","images/tutrocket1","","1","practice","null","1","","",""
"d3-animate-choice","95","276658","0.0-61.0-1.11","2696","4970","14","Male","false","false","true","true","""event"",""trial"",""time""
""fullscreenenter"",""5"",""13723""
","
","
","""event"",""trial"",""time""
""fullscreenenter"",""5"",""13723""
","
","561.0999999046326","","48","","","3000","1","","","images/tutyellowplanet.jpg","images/tutalien4","images/tutalien3","images/tutrocket1","images/tutalien4","images/nothing.png","2","practice","true","2","common","0","2022-12-06 02:33:25.692"
"two-step-fixation","96","277666","0.0-61.0-2.11","2696","4970","14","Male","false","false","true","true","""event"",""trial"",""time""
""fullscreenenter"",""5"",""13723""
","
","
","""event"",""trial"",""time""
""fullscreenenter"",""5"",""13723""
","
","","images/earth.jpg","","","","","","","","","","","","","","fixation","","","","","",""
"d3-animate-choice","97","280012","0.0-61.0-0.12","2696","4970","14","Male","false","false","true","true","""event"",""trial"",""time""
""fullscreenenter"",""5"",""13723""
","
","
","""event"",""trial"",""time""
""fullscreenenter"",""5"",""13723""
","
","338.1999999284744","","49","","","3000","1","","","images/earth.jpg","images/tutrocket2","images/tutrocket1","null","images/tutrocket1","","1","practice","null","1","","",""
"d3-animate-choice","98","282956","0.0-61.0-1.12","2696","4970","14","Male","false","false","true","true","""event"",""trial"",""time""
""fullscreenenter"",""5"",""13723""
","
","
","""event"",""trial"",""time""
""fullscreenenter"",""5"",""13723""
","
","937.2999999523163","","48","","","3000","1","","","images/tutgreenplanet.jpg","images/tutalien2","images/tutalien1","images/tutrocket1","images/tutalien2","images/t.png","2","practice","false","2","rare","1","2022-12-06 02:33:31.990"
"two-step-fixation","99","283964","0.0-61.0-2.12","2696","4970","14","Male","false","false","true","true","""event"",""trial"",""time""
""fullscreenenter"",""5"",""13723""
","
","
","""event"",""trial"",""time""
""fullscreenenter"",""5"",""13723""
","
","","images/earth.jpg","","","","","","","","","","","","","","fixation","","","","","",""
"d3-animate-choice","100","286338","0.0-61.0-0.13","2696","4970","14","Male","false","false","true","true","""event"",""trial"",""time""
""fullscreenenter"",""5"",""13723""
","
","
","""event"",""trial"",""time""
""fullscreenenter"",""5"",""13723""
","
","366.40000009536743","","49","","","3000","1","","","images/earth.jpg","images/tutrocket2","images/tutrocket1","null","images/tutrocket1","","1","practice","null","1","","",""
"d3-animate-choice","101","288694","0.0-61.0-1.13","2696","4970","14","Male","false","false","true","true","""event"",""trial"",""time""
""fullscreenenter"",""5"",""13723""
","
","
","""event"",""trial"",""time""
""fullscreenenter"",""5"",""13723""
","
","349.2999999523163","","48","","","3000","1","","","images/tutgreenplanet.jpg","images/tutalien2","images/tutalien1","images/tutrocket1","images/tutalien2","images/nothing.png","2","practice","false","2","rare","0","2022-12-06 02:33:37.728"
"two-step-fixation","102","289703","0.0-61.0-2.13","2696","4970","14","Male","false","false","true","true","""event"",""trial"",""time""
""fullscreenenter"",""5"",""13723""
","
","
","""event"",""trial"",""time""
""fullscreenenter"",""5"",""13723""
","
","","images/earth.jpg","","","","","","","","","","","","","","fixation","","","","","",""
"d3-animate-choice","103","292188","0.0-61.0-0.14","2696","4970","14","Male","false","false","true","true","""event"",""trial"",""time""
""fullscreenenter"",""5"",""13723""
","
","
","""event"",""trial"",""time""
""fullscreenenter"",""5"",""13723""
","
","477.60000002384186","","48","","","3000","1","","","images/earth.jpg","images/tutrocket2","images/tutrocket1","null","images/tutrocket2","","1","practice","null","2","","",""
"d3-animate-choice","104","294700","0.0-61.0-1.14","2696","4970","14","Male","false","false","true","true","""event"",""trial"",""time""
""fullscreenenter"",""5"",""13723""
","
","
","""event"",""trial"",""time""
""fullscreenenter"",""5"",""13723""
","
","504.7999999523163","","49","","","3000","1","","","images/tutgreenplanet.jpg","images/tutalien2","images/tutalien1","images/tutrocket2","images/tutalien1","images/nothing.png","2","practice","true","1","common","0","2022-12-06 02:33:43.734"
"two-step-fixation","105","295709","0.0-61.0-2.14","2696","4970","14","Male","false","false","true","true","""event"",""trial"",""time""
""fullscreenenter"",""5"",""13723""
","
","
","""event"",""trial"",""time""
""fullscreenenter"",""5"",""13723""
","
","","images/earth.jpg","","","","","","","","","","","","","","fixation","","","","","",""
"d3-animate-choice","106","298206","0.0-61.0-0.15","2696","4970","14","Male","false","false","true","true","""event"",""trial"",""time""
""fullscreenenter"",""5"",""13723""
","
","
","""event"",""trial"",""time""
""fullscreenenter"",""5"",""13723""
","
","488","","49","","","3000","1","","","images/earth.jpg","images/tutrocket2","images/tutrocket1","null","images/tutrocket1","","1","practice","null","1","","",""
"d3-animate-choice","107","301380","0.0-61.0-1.15","2696","4970","14","Male","false","false","true","true","""event"",""trial"",""time""
""fullscreenenter"",""5"",""13723""
","
","
","""event"",""trial"",""time""
""fullscreenenter"",""5"",""13723""
","
","1165.6000000238419","","49","","","3000","1","","","images/tutyellowplanet.jpg","images/tutalien4","images/tutalien3","images/tutrocket1","images/tutalien3","images/nothing.png","2","practice","true","1","common","0","2022-12-06 02:33:50.414"
"two-step-fixation","108","302388","0.0-61.0-2.15","2696","4970","14","Male","false","false","true","true","""event"",""trial"",""time""
""fullscreenenter"",""5"",""13723""
","
","
","""event"",""trial"",""time""
""fullscreenenter"",""5"",""13723""
","
","","images/earth.jpg","","","","","","","","","","","","","","fixation","","","","","",""
"d3-animate-choice","109","304672","0.0-61.0-0.16","2696","4970","14","Male","false","false","true","true","""event"",""trial"",""time""
""fullscreenenter"",""5"",""13723""
","
","
","""event"",""trial"",""time""
""fullscreenenter"",""5"",""13723""
","
","277.39999997615814","","48","","","3000","1","","","images/earth.jpg","images/tutrocket2","images/tutrocket1","null","images/tutrocket2","","1","practice","null","2","","",""
"d3-animate-choice","110","307001","0.0-61.0-1.16","2696","4970","14","Male","false","false","true","true","""event"",""trial"",""time""
""fullscreenenter"",""5"",""13723""
","
","
","""event"",""trial"",""time""
""fullscreenenter"",""5"",""13723""
","
","323.10000002384186","","48","","","3000","1","","","images/tutgreenplanet.jpg","images/tutalien2","images/tutalien1","images/tutrocket2","images/tutalien2","images/nothing.png","2","practice","true","2","common","0","2022-12-06 02:33:56.035"
"two-step-fixation","111","308011","0.0-61.0-2.16","2696","4970","14","Male","false","false","true","true","""event"",""trial"",""time""
""fullscreenenter"",""5"",""13723""
","
","
","""event"",""trial"",""time""
""fullscreenenter"",""5"",""13723""
","
","","images/earth.jpg","","","","","","","","","","","","","","fixation","","","","","",""
"d3-animate-choice","112","310158","0.0-61.0-0.17","2696","4970","14","Male","false","false","true","true","""event"",""trial"",""time""
""fullscreenenter"",""5"",""13723""
","
","
","""event"",""trial"",""time""
""fullscreenenter"",""5"",""13723""
","
","142.90000009536743","","48","","","3000","1","","","images/earth.jpg","images/tutrocket2","images/tutrocket1","null","images/tutrocket2","","1","practice","null","2","","",""
"d3-animate-choice","113","313504","0.0-61.0-1.17","2696","4970","14","Male","false","false","true","true","""event"",""trial"",""time""
""fullscreenenter"",""5"",""13723""
","
","
","""event"",""trial"",""time""
""fullscreenenter"",""5"",""13723""
","
","1339.3999999761581","","48","","","3000","1","","","images/tutyellowplanet.jpg","images/tutalien4","images/tutalien3","images/tutrocket2","images/tutalien4","images/nothing.png","2","practice","false","2","rare","0","2022-12-06 02:34:02.539"
"two-step-fixation","114","314512","0.0-61.0-2.17","2696","4970","14","Male","false","false","true","true","""event"",""trial"",""time""
""fullscreenenter"",""5"",""13723""
","
","
","""event"",""trial"",""time""
""fullscreenenter"",""5"",""13723""
","
","","images/earth.jpg","","","","","","","","","","","","","","fixation","","","","","",""
"d3-animate-choice","115","316869","0.0-61.0-0.18","2696","4970","14","Male","false","false","true","true","""event"",""trial"",""time""
""fullscreenenter"",""5"",""13723""
","
","
","""event"",""trial"",""time""
""fullscreenenter"",""5"",""13723""
","
","348.2000000476837","","49","","","3000","1","","","images/earth.jpg","images/tutrocket2","images/tutrocket1","null","images/tutrocket1","","1","practice","null","1","","",""
"d3-animate-choice","116","319397","0.0-61.0-1.18","2696","4970","14","Male","false","false","true","true","""event"",""trial"",""time""
""fullscreenenter"",""5"",""13723""
","
","
","""event"",""trial"",""time""
""fullscreenenter"",""5"",""13723""
","
","519.8999999761581","","49","","","3000","1","","","images/tutyellowplanet.jpg","images/tutalien4","images/tutalien3","images/tutrocket1","images/tutalien3","images/nothing.png","2","practice","true","1","common","0","2022-12-06 02:34:08.431"
"two-step-fixation","117","320403","0.0-61.0-2.18","2696","4970","14","Male","false","false","true","true","""event"",""trial"",""time""
""fullscreenenter"",""5"",""13723""
","
","
","""event"",""trial"",""time""
""fullscreenenter"",""5"",""13723""
","
","","images/earth.jpg","","","","","","","","","","","","","","fixation","","","","","",""
"d3-animate-choice","118","322975","0.0-61.0-0.19","2696","4970","14","Male","false","false","true","true","""event"",""trial"",""time""
""fullscreenenter"",""5"",""13723""
","
","
","""event"",""trial"",""time""
""fullscreenenter"",""5"",""13723""
","
","566.5","","48","","","3000","1","","","images/earth.jpg","images/tutrocket2","images/tutrocket1","null","images/tutrocket2","","1","practice","null","2","","",""
"d3-animate-choice","119","325728","0.0-61.0-1.19","2696","4970","14","Male","false","false","true","true","""event"",""trial"",""time""
""fullscreenenter"",""5"",""13723""
","
","
","""event"",""trial"",""time""
""fullscreenenter"",""5"",""13723""
","
","745.3999999761581","","49","","","3000","1","","","images/tutgreenplanet.jpg","images/tutalien2","images/tutalien1","images/tutrocket2","images/tutalien1","images/nothing.png","2","practice","true","1","common","0","2022-12-06 02:34:14.762"
"two-step-fixation","120","326735","0.0-61.0-2.19","2696","4970","14","Male","false","false","true","true","""event"",""trial"",""time""
""fullscreenenter"",""5"",""13723""
","
","
","""event"",""trial"",""time""
""fullscreenenter"",""5"",""13723""
","
","","images/earth.jpg","","","","","","","","","","","","","","fixation","","","","","",""
"d3-instructions","121","329182","0.0-62.0","2696","4970","14","Male","false","false","true","true","""event"",""trial"",""time""
""fullscreenenter"",""5"",""13723""
","
","
","""event"",""trial"",""time""
""fullscreenenter"",""5"",""13723""
","
","","","","","","","","","","","","","","","","","","","","","",""
"audio-keyboard-response","122","331336","0.0-63.0","2696","4970","14","Male","false","false","true","true","""event"",""trial"",""time""
""fullscreenenter"",""5"",""13723""
","
","
","""event"",""trial"",""time""
""fullscreenenter"",""5"",""13723""
","
","2155","audio/instructions/treasure_feedback.wav","32","","","","","","","","","","","","","","","","","","",""
"d3-instructions","123","335890","0.0-64.0","2696","4970","14","Male","false","false","true","true","""event"",""trial"",""time""
""fullscreenenter"",""5"",""13723""
","
","
","""event"",""trial"",""time""
""fullscreenenter"",""5"",""13723""
","
","","","","","","","","","","","","","","","","","","","","","",""
"d3-instructions","124","346182","0.0-65.0","2696","4970","14","Male","false","false","true","true","""event"",""trial"",""time""
""fullscreenenter"",""5"",""13723""
","
","
","""event"",""trial"",""time""
""fullscreenenter"",""5"",""13723""
","
","","","","","","","","","","","","","","","","","","","","","",""
"d3-instructions","125","358200","0.0-66.0","2696","4970","14","Male","false","false","true","true","""event"",""trial"",""time""
""fullscreenenter"",""5"",""13723""
","
","
","""event"",""trial"",""time""
""fullscreenenter"",""5"",""13723""
","
","","","","","","","","","","","","","","","","","","","","","",""
"d3-instructions","126","366572","0.0-67.0","2696","4970","14","Male","false","false","true","true","""event"",""trial"",""time""
""fullscreenenter"",""5"",""13723""
","
","
","""event"",""trial"",""time""
""fullscreenenter"",""5"",""13723""
","
","","","","","","","","","","","","","","","","","","","","","",""
"d3-instructions","127","368847","0.0-68.0","2696","4970","14","Male","false","false","true","true","""event"",""trial"",""time""
""fullscreenenter"",""5"",""13723""
","
","
","""event"",""trial"",""time""
""fullscreenenter"",""5"",""13723""
","
","","","","","","","","","","","","","","","","","","","","","",""
"instructions-quiz","128","372022","0.0-69.0","2696","4970","14","Male","false","false","true","true","""event"",""trial"",""time""
""fullscreenenter"",""5"",""13723""
","
","
","""event"",""trial"",""time""
""fullscreenenter"",""5"",""13723""
","
","3172.100000023842","audio/quiz/Q1_Prompt.wav","","1","","","","","","","","","","","","","","","","","",""
"audio-keyboard-response","129","372825","0.0-70.0","2696","4970","14","Male","false","false","true","true","""event"",""trial"",""time""
""fullscreenenter"",""5"",""13723""
","
","
","""event"",""trial"",""time""
""fullscreenenter"",""5"",""13723""
","
","800","audio/quiz/Q1_Correct.wav","32","","","","","","","","","","","","","","","","","","",""
"instructions-quiz","130","376071","0.0-71.0","2696","4970","14","Male","false","false","true","true","""event"",""trial"",""time""
""fullscreenenter"",""5"",""13723""
","
","
","""event"",""trial"",""time""
""fullscreenenter"",""5"",""13723""
","
","3244.3000000715256","audio/quiz/Q2_Prompt.wav","","0","","","","","","","","","","","","","","","","","",""
"audio-keyboard-response","131","376670","0.0-72.0","2696","4970","14","Male","false","false","true","true","""event"",""trial"",""time""
""fullscreenenter"",""5"",""13723""
","
","
","""event"",""trial"",""time""
""fullscreenenter"",""5"",""13723""
","
","597","audio/quiz/Q2_Correct.wav","32","","","","","","","","","","","","","","","","","","",""
"instructions-quiz","132","378953","0.0-73.0","2696","4970","14","Male","false","false","true","true","""event"",""trial"",""time""
""fullscreenenter"",""5"",""13723""
","
","
","""event"",""trial"",""time""
""fullscreenenter"",""5"",""13723""
","
","2280.100000023842","audio/quiz/Q3_Prompt.wav","","1","","","","","","","","","","","","","","","","","",""
"audio-keyboard-response","133","379069","0.0-74.0","2696","4970","14","Male","false","false","true","true","""event"",""trial"",""time""
""fullscreenenter"",""5"",""13723""
","
","
","""event"",""trial"",""time""
""fullscreenenter"",""5"",""13723""
","
","117","audio/quiz/Q3_Correct.wav","32","","","","","","","","","","","","","","","","","","",""
"d3-instructions","134","380476","0.0-75.0","2696","4970","14","Male","false","false","true","true","""event"",""trial"",""time""
""fullscreenenter"",""5"",""13723""
","
","
","""event"",""trial"",""time""
""fullscreenenter"",""5"",""13723""
","
","","","","","","","","","","","","","","","","","","","","","",""
"d3-animate-choice","135","383455","0.0-76.0-0.0","2696","4970","14","Male","false","false","true","true","""event"",""trial"",""time""
""fullscreenenter"",""5"",""13723""
","
","
","""event"",""trial"",""time""
""fullscreenenter"",""5"",""13723""
","
","974.1000000238419","","48","","","3000","1","1146.3000000715256","87","images/earth.jpg","images/rocket1","images/rocket2","null","images/rocket1","","1","real","null","2","","",""
"d3-animate-choice","136","386175","0.0-76.0-1.0","2696","4970","14","Male","false","false","true","true","""event"",""trial"",""time""
""fullscreenenter"",""5"",""13723""
","
","
","""event"",""trial"",""time""
""fullscreenenter"",""5"",""13723""
","
","713.1999999284744","","49","","","3000","1","","","images/purpleplanet.jpg","images/alien4","images/alien3","images/rocket1","images/alien3","images/nothing.png","2","real","true","1","common","0","2022-12-06 02:35:15.210"
"two-step-fixation","137","387183","0.0-76.0-2.0","2696","4970","14","Male","false","false","true","true","""event"",""trial"",""time""
""fullscreenenter"",""5"",""13723""
","
","
","""event"",""trial"",""time""
""fullscreenenter"",""5"",""13723""
","
","","images/earth.jpg","","","","","","","","","","","","","","fixation","","","","","",""
"d3-animate-choice","138","389685","0.0-76.0-0.1","2696","4970","14","Male","false","false","true","true","""event"",""trial"",""time""
""fullscreenenter"",""5"",""13723""
","
","
","""event"",""trial"",""time""
""fullscreenenter"",""5"",""13723""
","
","492.7999999523163","","48","","","3000","1","","","images/earth.jpg","images/rocket1","images/rocket2","null","images/rocket1","","1","real","null","2","","",""
"d3-animate-choice","139","392254","0.0-76.0-1.1","2696","4970","14","Male","false","false","true","true","""event"",""trial"",""time""
""fullscreenenter"",""5"",""13723""
","
","
","""event"",""trial"",""time""
""fullscreenenter"",""5"",""13723""
","
","563.8999999761581","","48","","","3000","1","","","images/purpleplanet.jpg","images/alien4","images/alien3","images/rocket1","images/alien4","images/nothing.png","2","real","true","2","common","0","2022-12-06 02:35:21.289"
"two-step-fixation","140","393259","0.0-76.0-2.1","2696","4970","14","Male","false","false","true","true","""event"",""trial"",""time""
""fullscreenenter"",""5"",""13723""
","
","
","""event"",""trial"",""time""
""fullscreenenter"",""5"",""13723""
","
","","images/earth.jpg","","","","","","","","","","","","","","fixation","","","","","",""
"d3-animate-choice","141","395775","0.0-76.0-0.2","2696","4970","14","Male","false","false","true","true","""event"",""trial"",""time""
""fullscreenenter"",""5"",""13723""
","
","
","""event"",""trial"",""time""
""fullscreenenter"",""5"",""13723""
","
","509.5","","49","","","3000","1","","","images/earth.jpg","images/rocket1","images/rocket2","null","images/rocket2","","1","real","null","1","","",""
"d3-animate-choice","142","398508","0.0-76.0-1.2","2696","4970","14","Male","false","false","true","true","""event"",""trial"",""time""
""fullscreenenter"",""5"",""13723""
","
","
","""event"",""trial"",""time""
""fullscreenenter"",""5"",""13723""
","
","723.5","","49","","","3000","1","","","images/redplanet1.jpg","images/alien2","images/alien1","images/rocket2","images/alien1","images/nothing.png","2","real","true","1","common","0","2022-12-06 02:35:27.542"
"two-step-fixation","143","399512","0.0-76.0-2.2","2696","4970","14","Male","false","false","true","true","""event"",""trial"",""time""
""fullscreenenter"",""5"",""13723""
","
","
","""event"",""trial"",""time""
""fullscreenenter"",""5"",""13723""
","
","","images/earth.jpg","","","","","","","","","","","","","","fixation","","","","","",""
"d3-animate-choice","144","402041","0.0-76.0-0.3","2696","4970","14","Male","false","false","true","true","""event"",""trial"",""time""
""fullscreenenter"",""5"",""13723""
","
","
","""event"",""trial"",""time""
""fullscreenenter"",""5"",""13723""
","
","522.6999999284744","","48","","","3000","1","","","images/earth.jpg","images/rocket1","images/rocket2","null","images/rocket1","","1","real","null","2","","",""
"d3-animate-choice","145","404865","0.0-76.0-1.3","2696","4970","14","Male","false","false","true","true","""event"",""trial"",""time""
""fullscreenenter"",""5"",""13723""
","
","
","""event"",""trial"",""time""
""fullscreenenter"",""5"",""13723""
","
","813.5","","48","","","3000","1","","","images/redplanet1.jpg","images/alien2","images/alien1","images/rocket1","images/alien2","images/nothing.png","2","real","false","2","rare","0","2022-12-06 02:35:33.899"
"two-step-fixation","146","405870","0.0-76.0-2.3","2696","4970","14","Male","false","false","true","true","""event"",""trial"",""time""
""fullscreenenter"",""5"",""13723""
","
","
","""event"",""trial"",""time""
""fullscreenenter"",""5"",""13723""
","
","","images/earth.jpg","","","","","","","","","","","","","","fixation","","","","","",""
"d3-animate-choice","147","408404","0.0-76.0-0.4","2696","4970","14","Male","false","false","true","true","""event"",""trial"",""time""
""fullscreenenter"",""5"",""13723""
","
","
","""event"",""trial"",""time""
""fullscreenenter"",""5"",""13723""
","
","525.1000000238419","","48","","","3000","1","","","images/earth.jpg","images/rocket1","images/rocket2","null","images/rocket1","","1","real","null","2","","",""
"d3-animate-choice","148","411481","0.0-76.0-1.4","2696","4970","14","Male","false","false","true","true","""event"",""trial"",""time""
""fullscreenenter"",""5"",""13723""
","
","
","""event"",""trial"",""time""
""fullscreenenter"",""5"",""13723""
","
","1069","","49","","","3000","1","","","images/purpleplanet.jpg","images/alien4","images/alien3","images/rocket1","images/alien3","images/t.png","2","real","true","1","common","1","2022-12-06 02:35:40.515"
"two-step-fixation","149","412487","0.0-76.0-2.4","2696","4970","14","Male","false","false","true","true","""event"",""trial"",""time""
""fullscreenenter"",""5"",""13723""
","
","
","""event"",""trial"",""time""
""fullscreenenter"",""5"",""13723""
","
","","images/earth.jpg","","","","","","","","","","","","","","fixation","","","","","",""
"d3-animate-choice","150","415089","0.0-76.0-0.5","2696","4970","14","Male","false","false","true","true","""event"",""trial"",""time""
""fullscreenenter"",""5"",""13723""
","
","
","""event"",""trial"",""time""
""fullscreenenter"",""5"",""13723""
","
","595.2000000476837","","49","","","3000","1","","","images/earth.jpg","images/rocket1","images/rocket2","null","images/rocket2","","1","real","null","1","","",""
"d3-animate-choice","151","418278","0.0-76.0-1.5","2696","4970","14","Male","false","false","true","true","""event"",""trial"",""time""
""fullscreenenter"",""5"",""13723""
","
","
","""event"",""trial"",""time""
""fullscreenenter"",""5"",""13723""
","
","1181.7999999523163","","49","","","3000","1","","","images/redplanet1.jpg","images/alien2","images/alien1","images/rocket2","images/alien1","images/nothing.png","2","real","true","1","common","0","2022-12-06 02:35:47.312"
"two-step-fixation","152","419286","0.0-76.0-2.5","2696","4970","14","Male","false","false","true","true","""event"",""trial"",""time""
""fullscreenenter"",""5"",""13723""
","
","
","""event"",""trial"",""time""
""fullscreenenter"",""5"",""13723""
","
","","images/earth.jpg","","","","","","","","","","","","","","fixation","","","","","",""
"d3-animate-choice","153","421821","0.0-76.0-0.6","2696","4970","14","Male","false","false","true","true","""event"",""trial"",""time""
""fullscreenenter"",""5"",""13723""
","
","
","""event"",""trial"",""time""
""fullscreenenter"",""5"",""13723""
","
","527.7000000476837","","48","","","3000","1","","","images/earth.jpg","images/rocket1","images/rocket2","null","images/rocket1","","1","real","null","2","","",""
"d3-animate-choice","154","424558","0.0-76.0-1.6","2696","4970","14","Male","false","false","true","true","""event"",""trial"",""time""
""fullscreenenter"",""5"",""13723""
","
","
","""event"",""trial"",""time""
""fullscreenenter"",""5"",""13723""
","
","729.5","","49","","","3000","1","","","images/purpleplanet.jpg","images/alien4","images/alien3","images/rocket1","images/alien3","images/nothing.png","2","real","true","1","common","0","2022-12-06 02:35:53.592"
"two-step-fixation","155","425562","0.0-76.0-2.6","2696","4970","14","Male","false","false","true","true","""event"",""trial"",""time""
""fullscreenenter"",""5"",""13723""
","
","
","""event"",""trial"",""time""
""fullscreenenter"",""5"",""13723""
","
","","images/earth.jpg","","","","","","","","","","","","","","fixation","","","","","",""
"d3-animate-choice","156","427952","0.0-76.0-0.7","2696","4970","14","Male","false","false","true","true","""event"",""trial"",""time""
""fullscreenenter"",""5"",""13723""
","
","
","""event"",""trial"",""time""
""fullscreenenter"",""5"",""13723""
","
","381.89999997615814","","48","","","3000","1","","","images/earth.jpg","images/rocket1","images/rocket2","null","images/rocket1","","1","real","null","2","","",""
"d3-animate-choice","157","430932","0.0-76.0-1.7","2696","4970","14","Male","false","false","true","true","""event"",""trial"",""time""
""fullscreenenter"",""5"",""13723""
","
","
","""event"",""trial"",""time""
""fullscreenenter"",""5"",""13723""
","
","975.9000000953674","","48","","","3000","1","","","images/redplanet1.jpg","images/alien2","images/alien1","images/rocket1","images/alien2","images/t.png","2","real","false","2","rare","1","2022-12-06 02:35:59.967"
"two-step-fixation","158","431939","0.0-76.0-2.7","2696","4970","14","Male","false","false","true","true","""event"",""trial"",""time""
""fullscreenenter"",""5"",""13723""
","
","
","""event"",""trial"",""time""
""fullscreenenter"",""5"",""13723""
","
","","images/earth.jpg","","","","","","","","","","","","","","fixation","","","","","",""
"d3-animate-choice","159","434098","0.0-76.0-0.8","2696","4970","14","Male","false","false","true","true","""event"",""trial"",""time""
""fullscreenenter"",""5"",""13723""
","
","
","""event"",""trial"",""time""
""fullscreenenter"",""5"",""13723""
","
","152","","49","","","3000","1","","","images/earth.jpg","images/rocket1","images/rocket2","null","images/rocket2","","1","real","null","1","","",""
"d3-animate-choice","160","436930","0.0-76.0-1.8","2696","4970","14","Male","false","false","true","true","""event"",""trial"",""time""
""fullscreenenter"",""5"",""13723""
","
","
","""event"",""trial"",""time""
""fullscreenenter"",""5"",""13723""
","
","825.1000000238419","","48","","","3000","1","","","images/redplanet1.jpg","images/alien2","images/alien1","images/rocket2","images/alien2","images/t.png","2","real","true","2","common","1","2022-12-06 02:36:05.964"
"two-step-fixation","161","437936","0.0-76.0-2.8","2696","4970","14","Male","false","false","true","true","""event"",""trial"",""time""
""fullscreenenter"",""5"",""13723""
","
","
","""event"",""trial"",""time""
""fullscreenenter"",""5"",""13723""
","
","","images/earth.jpg","","","","","","","","","","","","","","fixation","","","","","",""
"d3-animate-choice","162","440008","0.0-76.0-0.9","2696","4970","14","Male","false","false","true","true","""event"",""trial"",""time""
""fullscreenenter"",""5"",""13723""
","
","
","""event"",""trial"",""time""
""fullscreenenter"",""5"",""13723""
","
","66.89999997615814","","49","","","3000","1","","","images/earth.jpg","images/rocket1","images/rocket2","null","images/rocket2","","1","real","null","1","","",""
"d3-animate-choice","163","442522","0.0-76.0-1.9","2696","4970","14","Male","false","false","true","true","""event"",""trial"",""time""
""fullscreenenter"",""5"",""13723""
","
","
","""event"",""trial"",""time""
""fullscreenenter"",""5"",""13723""
","
","506","","48","","","3000","1","","","images/redplanet1.jpg","images/alien2","images/alien1","images/rocket2","images/alien2","images/t.png","2","real","true","2","common","1","2022-12-06 02:36:11.556"
"two-step-fixation","164","443530","0.0-76.0-2.9","2696","4970","14","Male","false","false","true","true","""event"",""trial"",""time""
""fullscreenenter"",""5"",""13723""
","
","
","""event"",""trial"",""time""
""fullscreenenter"",""5"",""13723""
","
","","images/earth.jpg","","","","","","","","","","","","","","fixation","","","","","",""
"d3-animate-choice","165","445807","0.0-76.0-0.10","2696","4970","14","Male","false","false","true","true","""event"",""trial"",""time""
""fullscreenenter"",""5"",""13723""
","
","
","""event"",""trial"",""time""
""fullscreenenter"",""5"",""13723""
","
","269.39999997615814","","49","","","3000","1","","","images/earth.jpg","images/rocket1","images/rocket2","null","images/rocket2","","1","real","null","1","","",""
"d3-animate-choice","166","448284","0.0-76.0-1.10","2696","4970","14","Male","false","false","true","true","""event"",""trial"",""time""
""fullscreenenter"",""5"",""13723""
","
","
","""event"",""trial"",""time""
""fullscreenenter"",""5"",""13723""
","
","470.10000002384186","","48","","","3000","1","","","images/purpleplanet.jpg","images/alien4","images/alien3","images/rocket2","images/alien4","images/t.png","2","real","false","2","rare","1","2022-12-06 02:36:17.318"
"two-step-fixation","167","449292","0.0-76.0-2.10","2696","4970","14","Male","false","false","true","true","""event"",""trial"",""time""
""fullscreenenter"",""5"",""13723""
","
","
","""event"",""trial"",""time""
""fullscreenenter"",""5"",""13723""
","
","","images/earth.jpg","","","","","","","","","","","","","","fixation","","","","","",""
"d3-animate-choice","168","451694","0.0-76.0-0.11","2696","4970","14","Male","false","false","true","true","""event"",""trial"",""time""
""fullscreenenter"",""5"",""13723""
","
","
","""event"",""trial"",""time""
""fullscreenenter"",""5"",""13723""
","
","393.7999999523163","","49","","","3000","1","","","images/earth.jpg","images/rocket1","images/rocket2","null","images/rocket2","","1","real","null","1","","",""
"d3-animate-choice","169","454228","0.0-76.0-1.11","2696","4970","14","Male","false","false","true","true","""event"",""trial"",""time""
""fullscreenenter"",""5"",""13723""
","
","
","""event"",""trial"",""time""
""fullscreenenter"",""5"",""13723""
","
","526.8999999761581","","48","","","3000","1","","","images/purpleplanet.jpg","images/alien4","images/alien3","images/rocket2","images/alien4","images/t.png","2","real","false","2","rare","1","2022-12-06 02:36:23.262"
"two-step-fixation","170","455236","0.0-76.0-2.11","2696","4970","14","Male","false","false","true","true","""event"",""trial"",""time""
""fullscreenenter"",""5"",""13723""
","
","
","""event"",""trial"",""time""
""fullscreenenter"",""5"",""13723""
","
","","images/earth.jpg","","","","","","","","","","","","","","fixation","","","","","",""
"d3-animate-choice","171","457291","0.0-76.0-0.12","2696","4970","14","Male","false","false","true","true","""event"",""trial"",""time""
""fullscreenenter"",""5"",""13723""
","
","
","""event"",""trial"",""time""
""fullscreenenter"",""5"",""13723""
","
","45.59999990463257","","49","","","3000","1","","","images/earth.jpg","images/rocket1","images/rocket2","null","images/rocket2","","1","real","null","1","","",""
"d3-animate-choice","172","460161","0.0-76.0-1.12","2696","4970","14","Male","false","false","true","true","""event"",""trial"",""time""
""fullscreenenter"",""5"",""13723""
","
","
","""event"",""trial"",""time""
""fullscreenenter"",""5"",""13723""
","
","862.6000000238419","","48","","","3000","1","","","images/redplanet1.jpg","images/alien2","images/alien1","images/rocket2","images/alien2","images/nothing.png","2","real","true","2","common","0","2022-12-06 02:36:29.195"
"two-step-fixation","173","461169","0.0-76.0-2.12","2696","4970","14","Male","false","false","true","true","""event"",""trial"",""time""
""fullscreenenter"",""5"",""13723""
","
","
","""event"",""trial"",""time""
""fullscreenenter"",""5"",""13723""
","
","","images/earth.jpg","","","","","","","","","","","","","","fixation","","","","","",""
"d3-animate-choice","174","463414","0.0-76.0-0.13","2696","4970","14","Male","false","false","true","true","""event"",""trial"",""time""
""fullscreenenter"",""5"",""13723""
","
","
","""event"",""trial"",""time""
""fullscreenenter"",""5"",""13723""
","
","237.89999997615814","","48","","","3000","1","","","images/earth.jpg","images/rocket1","images/rocket2","null","images/rocket1","","1","real","null","2","","",""
"d3-animate-choice","175","466782","0.0-76.0-1.13","2696","4970","14","Male","false","false","true","true","""event"",""trial"",""time""
""fullscreenenter"",""5"",""13723""
","
","
","""event"",""trial"",""time""
""fullscreenenter"",""5"",""13723""
","
","1361.8000000715256","","48","","","3000","1","","","images/purpleplanet.jpg","images/alien4","images/alien3","images/rocket1","images/alien4","images/t.png","2","real","true","2","common","1","2022-12-06 02:36:35.816"
"two-step-fixation","176","467787","0.0-76.0-2.13","2696","4970","14","Male","false","false","true","true","""event"",""trial"",""time""
""fullscreenenter"",""5"",""13723""
","
","
","""event"",""trial"",""time""
""fullscreenenter"",""5"",""13723""
","
","","images/earth.jpg","","","","","","","","","","","","","","fixation","","","","","",""
"d3-animate-choice","177","470555","0.0-76.0-0.14","2696","4970","14","Male","false","false","true","true","""event"",""trial"",""time""
""fullscreenenter"",""5"",""13723""
","
","
","""event"",""trial"",""time""
""fullscreenenter"",""5"",""13723""
","
","763.1000000238419","","48","","","3000","1","","","images/earth.jpg","images/rocket1","images/rocket2","null","images/rocket1","","1","real","null","2","","",""
"d3-animate-choice","178","473309","0.0-76.0-1.14","2696","4970","14","Male","false","false","true","true","""event"",""trial"",""time""
""fullscreenenter"",""5"",""13723""
","
","
","""event"",""trial"",""time""
""fullscreenenter"",""5"",""13723""
","
","749.7000000476837","","49","","","3000","1","","","images/redplanet1.jpg","images/alien2","images/alien1","images/rocket1","images/alien1","images/t.png","2","real","false","1","rare","1","2022-12-06 02:36:42.344"
"two-step-fixation","179","474314","0.0-76.0-2.14","2696","4970","14","Male","false","false","true","true","""event"",""trial"",""time""
""fullscreenenter"",""5"",""13723""
","
","
","""event"",""trial"",""time""
""fullscreenenter"",""5"",""13723""
","
","","images/earth.jpg","","","","","","","","","","","","","","fixation","","","","","",""
"d3-animate-choice","180","476488","0.0-76.0-0.15","2696","4970","14","Male","false","false","true","true","""event"",""trial"",""time""
""fullscreenenter"",""5"",""13723""
","
","
","""event"",""trial"",""time""
""fullscreenenter"",""5"",""13723""
","
","168","","48","","","3000","1","","","images/earth.jpg","images/rocket1","images/rocket2","null","images/rocket1","","1","real","null","2","","",""
"d3-animate-choice","181","478992","0.0-76.0-1.15","2696","4970","14","Male","false","false","true","true","""event"",""trial"",""time""
""fullscreenenter"",""5"",""13723""
","
","
","""event"",""trial"",""time""
""fullscreenenter"",""5"",""13723""
","
","495.39999997615814","","48","","","3000","1","1181,1351.8999999761581,1517.5,1701","48,48,48,48","images/purpleplanet.jpg","images/alien4","images/alien3","images/rocket1","images/alien4","images/t.png","2","real","true","2","common","1","2022-12-06 02:36:48.026"
"two-step-fixation","182","480000","0.0-76.0-2.15","2696","4970","14","Male","false","false","true","true","""event"",""trial"",""time""
""fullscreenenter"",""5"",""13723""
","
","
","""event"",""trial"",""time""
""fullscreenenter"",""5"",""13723""
","
","","images/earth.jpg","","","","","","","","","","","","","","fixation","","","","","",""
"d3-animate-choice","183","482131","0.0-76.0-0.16","2696","4970","14","Male","false","false","true","true","""event"",""trial"",""time""
""fullscreenenter"",""5"",""13723""
","
","
","""event"",""trial"",""time""
""fullscreenenter"",""5"",""13723""
","
","122.79999995231628","","48","","","3000","1","322.2999999523163","48","images/earth.jpg","images/rocket1","images/rocket2","null","images/rocket1","","1","real","null","2","","",""
"d3-animate-choice","184","484661","0.0-76.0-1.16","2696","4970","14","Male","false","false","true","true","""event"",""trial"",""time""
""fullscreenenter"",""5"",""13723""
","
","
","""event"",""trial"",""time""
""fullscreenenter"",""5"",""13723""
","
","523.6000000238419","","48","","","3000","1","1372.7000000476837","48","images/purpleplanet.jpg","images/alien4","images/alien3","images/rocket1","images/alien4","images/t.png","2","real","true","2","common","1","2022-12-06 02:36:53.695"
"two-step-fixation","185","485667","0.0-76.0-2.16","2696","4970","14","Male","false","false","true","true","""event"",""trial"",""time""
""fullscreenenter"",""5"",""13723""
","
","
","""event"",""trial"",""time""
""fullscreenenter"",""5"",""13723""
","
","","images/earth.jpg","","","","","","","","","","","","","","fixation","","","","","",""
"d3-animate-choice","186","487965","0.0-76.0-0.17","2696","4970","14","Male","false","false","true","true","""event"",""trial"",""time""
""fullscreenenter"",""5"",""13723""
","
","
","""event"",""trial"",""time""
""fullscreenenter"",""5"",""13723""
","
","293.39999997615814","","48","","","3000","1","664.2000000476837","48","images/earth.jpg","images/rocket1","images/rocket2","null","images/rocket1","","1","real","null","2","","",""
"d3-animate-choice","187","490020","0.0-76.0-1.17","2696","4970","14","Male","false","false","true","true","""event"",""trial"",""time""
""fullscreenenter"",""5"",""13723""
","
","
","""event"",""trial"",""time""
""fullscreenenter"",""5"",""13723""
","
","48.299999952316284","","48","","","3000","1","","","images/redplanet1.jpg","images/alien2","images/alien1","images/rocket1","images/alien2","images/t.png","2","real","false","2","rare","1","2022-12-06 02:36:59.054"
"two-step-fixation","188","491028","0.0-76.0-2.17","2696","4970","14","Male","false","false","true","true","""event"",""trial"",""time""
""fullscreenenter"",""5"",""13723""
","
","
","""event"",""trial"",""time""
""fullscreenenter"",""5"",""13723""
","
","","images/earth.jpg","","","","","","","","","","","","","","fixation","","","","","",""
"d3-animate-choice","189","493325","0.0-76.0-0.18","2696","4970","14","Male","false","false","true","true","""event"",""trial"",""time""
""fullscreenenter"",""5"",""13723""
","
","
","""event"",""trial"",""time""
""fullscreenenter"",""5"",""13723""
","
","288.3000000715256","","49","","","3000","1","","","images/earth.jpg","images/rocket1","images/rocket2","null","images/rocket2","","1","real","null","1","","",""
"d3-animate-choice","190","495927","0.0-76.0-1.18","2696","4970","14","Male","false","false","true","true","""event"",""trial"",""time""
""fullscreenenter"",""5"",""13723""
","
","
","""event"",""trial"",""time""
""fullscreenenter"",""5"",""13723""
","
","594.8000000715256","","48","","","3000","1","","","images/redplanet1.jpg","images/alien2","images/alien1","images/rocket2","images/alien2","images/nothing.png","2","real","true","2","common","0","2022-12-06 02:37:04.961"
"two-step-fixation","191","496935","0.0-76.0-2.18","2696","4970","14","Male","false","false","true","true","""event"",""trial"",""time""
""fullscreenenter"",""5"",""13723""
","
","
","""event"",""trial"",""time""
""fullscreenenter"",""5"",""13723""
","
","","images/earth.jpg","","","","","","","","","","","","","","fixation","","","","","",""
"d3-animate-choice","192","498983","0.0-76.0-0.19","2696","4970","14","Male","false","false","true","true","""event"",""trial"",""time""
""fullscreenenter"",""5"",""13723""
","
","
","""event"",""trial"",""time""
""fullscreenenter"",""5"",""13723""
","
","40","","48","","","3000","1","","","images/earth.jpg","images/rocket1","images/rocket2","null","images/rocket1","","1","real","null","2","","",""
"d3-animate-choice","193","502372","0.0-76.0-1.19","2696","4970","14","Male","false","false","true","true","""event"",""trial"",""time""
""fullscreenenter"",""5"",""13723""
","
","
","""event"",""trial"",""time""
""fullscreenenter"",""5"",""13723""
","
","1382.4000000953674","","49","","","3000","1","","","images/purpleplanet.jpg","images/alien4","images/alien3","images/rocket1","images/alien3","images/t.png","2","real","true","1","common","1","2022-12-06 02:37:11.406"
"two-step-fixation","194","503380","0.0-76.0-2.19","2696","4970","14","Male","false","false","true","true","""event"",""trial"",""time""
""fullscreenenter"",""5"",""13723""
","
","
","""event"",""trial"",""time""
""fullscreenenter"",""5"",""13723""
","
","","images/earth.jpg","","","","","","","","","","","","","","fixation","","","","","",""
"d3-animate-choice","195","505620","0.0-76.0-0.20","2696","4970","14","Male","false","false","true","true","""event"",""trial"",""time""
""fullscreenenter"",""5"",""13723""
","
","
","""event"",""trial"",""time""
""fullscreenenter"",""5"",""13723""
","
","235.20000004768372","","49","","","3000","1","798.2000000476837","49","images/earth.jpg","images/rocket1","images/rocket2","null","images/rocket2","","1","real","null","1","","",""
"d3-animate-choice","196","509190","0.0-76.0-1.20","2696","4970","14","Male","false","false","true","true","""event"",""trial"",""time""
""fullscreenenter"",""5"",""13723""
","
","
","""event"",""trial"",""time""
""fullscreenenter"",""5"",""13723""
","
","1562.2999999523163","","49","","","3000","1","2705.399999976158","48","images/purpleplanet.jpg","images/alien4","images/alien3","images/rocket2","images/alien3","images/t.png","2","real","false","1","rare","1","2022-12-06 02:37:18.225"
"two-step-fixation","197","510200","0.0-76.0-2.20","2696","4970","14","Male","false","false","true","true","""event"",""trial"",""time""
""fullscreenenter"",""5"",""13723""
","
","
","""event"",""trial"",""time""
""fullscreenenter"",""5"",""13723""
","
","","images/earth.jpg","","","","","","","","","","","","","","fixation","","","","","",""
"d3-animate-choice","198","513348","0.0-76.0-0.21","2696","4970","14","Male","false","false","true","true","""event"",""trial"",""time""
""fullscreenenter"",""5"",""13723""
","
","
","""event"",""trial"",""time""
""fullscreenenter"",""5"",""13723""
","
","131","","189","","","3000","1","314.6999999284744,484.89999997615814,781.3999999761581,1143.3999999761581","189,189,189,48","images/earth.jpg","images/rocket1","images/rocket2","null","images/rocket1","","1","real","null","","","",""
"d3-animate-choice","199","515842","0.0-76.0-1.21","2696","4970","14","Male","false","false","true","true","""event"",""trial"",""time""
""fullscreenenter"",""5"",""13723""
","
","
","""event"",""trial"",""time""
""fullscreenenter"",""5"",""13723""
","
","486.1999999284744","","48","","","3000","1","","","images/purpleplanet.jpg","images/alien4","images/alien3","images/rocket1","images/alien4","images/t.png","2","real","true","2","common","1","2022-12-06 02:37:24.876"
"two-step-fixation","200","516851","0.0-76.0-2.21","2696","4970","14","Male","false","false","true","true","""event"",""trial"",""time""
""fullscreenenter"",""5"",""13723""
","
","
","""event"",""trial"",""time""
""fullscreenenter"",""5"",""13723""
","
","","images/earth.jpg","","","","","","","","","","","","","","fixation","","","","","",""
"d3-animate-choice","201","519126","0.0-76.0-0.22","2696","4970","14","Male","false","false","true","true","""event"",""trial"",""time""
""fullscreenenter"",""5"",""13723""
","
","
","""event"",""trial"",""time""
""fullscreenenter"",""5"",""13723""
","
","265.2999999523163","","49","","","3000","1","","","images/earth.jpg","images/rocket1","images/rocket2","null","images/rocket2","","1","real","null","1","","",""
"d3-animate-choice","202","522168","0.0-76.0-1.22","2696","4970","14","Male","false","false","true","true","""event"",""trial"",""time""
""fullscreenenter"",""5"",""13723""
","
","
","""event"",""trial"",""time""
""fullscreenenter"",""5"",""13723""
","
","1035.6000000238419","","49","","","3000","1","","","images/redplanet1.jpg","images/alien2","images/alien1","images/rocket2","images/alien1","images/nothing.png","2","real","true","1","common","0","2022-12-06 02:37:31.202"
"two-step-fixation","203","523176","0.0-76.0-2.22","2696","4970","14","Male","false","false","true","true","""event"",""trial"",""time""
""fullscreenenter"",""5"",""13723""
","
","
","""event"",""trial"",""time""
""fullscreenenter"",""5"",""13723""
","
","","images/earth.jpg","","","","","","","","","","","","","","fixation","","","","","",""
"d3-animate-choice","204","525566","0.0-76.0-0.23","2696","4970","14","Male","false","false","true","true","""event"",""trial"",""time""
""fullscreenenter"",""5"",""13723""
","
","
","""event"",""trial"",""time""
""fullscreenenter"",""5"",""13723""
","
","382.39999997615814","","48","","","3000","1","","","images/earth.jpg","images/rocket1","images/rocket2","null","images/rocket1","","1","real","null","2","","",""
"d3-animate-choice","205","529069","0.0-76.0-1.23","2696","4970","14","Male","false","false","true","true","""event"",""trial"",""time""
""fullscreenenter"",""5"",""13723""
","
","
","""event"",""trial"",""time""
""fullscreenenter"",""5"",""13723""
","
","1495.2000000476837","","49","","","3000","1","","","images/purpleplanet.jpg","images/alien4","images/alien3","images/rocket1","images/alien3","images/nothing.png","2","real","true","1","common","0","2022-12-06 02:37:38.104"
"two-step-fixation","206","530076","0.0-76.0-2.23","2696","4970","14","Male","false","false","true","true","""event"",""trial"",""time""
""fullscreenenter"",""5"",""13723""
","
","
","""event"",""trial"",""time""
""fullscreenenter"",""5"",""13723""
","
","","images/earth.jpg","","","","","","","","","","","","","","fixation","","","","","",""
"d3-animate-choice","207","532445","0.0-76.0-0.24","2696","4970","14","Male","false","false","true","true","""event"",""trial"",""time""
""fullscreenenter"",""5"",""13723""
","
","
","""event"",""trial"",""time""
""fullscreenenter"",""5"",""13723""
","
","356.60000002384186","","49","","","3000","1","","","images/earth.jpg","images/rocket1","images/rocket2","null","images/rocket2","","1","real","null","1","","",""
"d3-animate-choice","208","534997","0.0-76.0-1.24","2696","4970","14","Male","false","false","true","true","""event"",""trial"",""time""
""fullscreenenter"",""5"",""13723""
","
","
","""event"",""trial"",""time""
""fullscreenenter"",""5"",""13723""
","
","544.8000000715256","","48","","","3000","1","","","images/redplanet1.jpg","images/alien2","images/alien1","images/rocket2","images/alien2","images/t.png","2","real","true","2","common","1","2022-12-06 02:37:44.031"
"two-step-fixation","209","536002","0.0-76.0-2.24","2696","4970","14","Male","false","false","true","true","""event"",""trial"",""time""
""fullscreenenter"",""5"",""13723""
","
","
","""event"",""trial"",""time""
""fullscreenenter"",""5"",""13723""
","
","","images/earth.jpg","","","","","","","","","","","","","","fixation","","","","","",""
"d3-animate-choice","210","538498","0.0-76.0-0.25","2696","4970","14","Male","false","false","true","true","""event"",""trial"",""time""
""fullscreenenter"",""5"",""13723""
","
","
","""event"",""trial"",""time""
""fullscreenenter"",""5"",""13723""
","
","490.39999997615814","","49","","","3000","1","","","images/earth.jpg","images/rocket1","images/rocket2","null","images/rocket2","","1","real","null","1","","",""
"d3-animate-choice","211","541047","0.0-76.0-1.25","2696","4970","14","Male","false","false","true","true","""event"",""trial"",""time""
""fullscreenenter"",""5"",""13723""
","
","
","""event"",""trial"",""time""
""fullscreenenter"",""5"",""13723""
","
","544.1000000238419","","48","","","3000","1","","","images/redplanet1.jpg","images/alien2","images/alien1","images/rocket2","images/alien2","images/t.png","2","real","true","2","common","1","2022-12-06 02:37:50.082"
"two-step-fixation","212","542055","0.0-76.0-2.25","2696","4970","14","Male","false","false","true","true","""event"",""trial"",""time""
""fullscreenenter"",""5"",""13723""
","
","
","""event"",""trial"",""time""
""fullscreenenter"",""5"",""13723""
","
","","images/earth.jpg","","","","","","","","","","","","","","fixation","","","","","",""
"d3-animate-choice","213","544642","0.0-76.0-0.26","2696","4970","14","Male","false","false","true","true","""event"",""trial"",""time""
""fullscreenenter"",""5"",""13723""
","
","
","""event"",""trial"",""time""
""fullscreenenter"",""5"",""13723""
","
","582.8999999761581","","49","","","3000","1","","","images/earth.jpg","images/rocket1","images/rocket2","null","images/rocket2","","1","real","null","1","","",""
"d3-animate-choice","214","548175","0.0-76.0-1.26","2696","4970","14","Male","false","false","true","true","""event"",""trial"",""time""
""fullscreenenter"",""5"",""13723""
","
","
","""event"",""trial"",""time""
""fullscreenenter"",""5"",""13723""
","
","1524.2999999523163","","48","","","3000","1","","","images/purpleplanet.jpg","images/alien4","images/alien3","images/rocket2","images/alien4","images/nothing.png","2","real","false","2","rare","0","2022-12-06 02:37:57.209"
"two-step-fixation","215","549183","0.0-76.0-2.26","2696","4970","14","Male","false","false","true","true","""event"",""trial"",""time""
""fullscreenenter"",""5"",""13723""
","
","
","""event"",""trial"",""time""
""fullscreenenter"",""5"",""13723""
","
","","images/earth.jpg","","","","","","","","","","","","","","fixation","","","","","",""
"d3-animate-choice","216","551743","0.0-76.0-0.27","2696","4970","14","Male","false","false","true","true","""event"",""trial"",""time""
""fullscreenenter"",""5"",""13723""
","
","
","""event"",""trial"",""time""
""fullscreenenter"",""5"",""13723""
","
","553.3000000715256","","48","","","3000","1","","","images/earth.jpg","images/rocket1","images/rocket2","null","images/rocket1","","1","real","null","2","","",""
"d3-animate-choice","217","554673","0.0-76.0-1.27","2696","4970","14","Male","false","false","true","true","""event"",""trial"",""time""
""fullscreenenter"",""5"",""13723""
","
","
","""event"",""trial"",""time""
""fullscreenenter"",""5"",""13723""
","
","924.0999999046326","","48","","","3000","1","","","images/purpleplanet.jpg","images/alien4","images/alien3","images/rocket1","images/alien4","images/t.png","2","real","true","2","common","1","2022-12-06 02:38:03.707"
"two-step-fixation","218","555681","0.0-76.0-2.27","2696","4970","14","Male","false","false","true","true","""event"",""trial"",""time""
""fullscreenenter"",""5"",""13723""
","
","
","""event"",""trial"",""time""
""fullscreenenter"",""5"",""13723""
","
","","images/earth.jpg","","","","","","","","","","","","","","fixation","","","","","",""
"d3-animate-choice","219","557952","0.0-76.0-0.28","2696","4970","14","Male","false","false","true","true","""event"",""trial"",""time""
""fullscreenenter"",""5"",""13723""
","
","
","""event"",""trial"",""time""
""fullscreenenter"",""5"",""13723""
","
","263.10000002384186","","48","","","3000","1","","","images/earth.jpg","images/rocket1","images/rocket2","null","images/rocket1","","1","real","null","2","","",""
"d3-animate-choice","220","560664","0.0-76.0-1.28","2696","4970","14","Male","false","false","true","true","""event"",""trial"",""time""
""fullscreenenter"",""5"",""13723""
","
","
","""event"",""trial"",""time""
""fullscreenenter"",""5"",""13723""
","
","708.0999999046326","","48","","","3000","1","2630.0999999046326","48","images/purpleplanet.jpg","images/alien4","images/alien3","images/rocket1","images/alien4","images/t.png","2","real","true","2","common","1","2022-12-06 02:38:09.698"
"two-step-fixation","221","561673","0.0-76.0-2.28","2696","4970","14","Male","false","false","true","true","""event"",""trial"",""time""
""fullscreenenter"",""5"",""13723""
","
","
","""event"",""trial"",""time""
""fullscreenenter"",""5"",""13723""
","
","","images/earth.jpg","","","","","","","","","","","","","","fixation","","","","","",""
"d3-animate-choice","222","563990","0.0-76.0-0.29","2696","4970","14","Male","false","false","true","true","""event"",""trial"",""time""
""fullscreenenter"",""5"",""13723""
","
","
","""event"",""trial"",""time""
""fullscreenenter"",""5"",""13723""
","
","309.5","","49","","","3000","1","","","images/earth.jpg","images/rocket1","images/rocket2","null","images/rocket2","","1","real","null","1","","",""
"d3-animate-choice","223","567459","0.0-76.0-1.29","2696","4970","14","Male","false","false","true","true","""event"",""trial"",""time""
""fullscreenenter"",""5"",""13723""
","
","
","""event"",""trial"",""time""
""fullscreenenter"",""5"",""13723""
","
","1465.3000000715256","","49","","","3000","1","","","images/redplanet1.jpg","images/alien2","images/alien1","images/rocket2","images/alien1","images/t.png","2","real","true","1","common","1","2022-12-06 02:38:16.494"
"two-step-fixation","224","568467","0.0-76.0-2.29","2696","4970","14","Male","false","false","true","true","""event"",""trial"",""time""
""fullscreenenter"",""5"",""13723""
","
","
","""event"",""trial"",""time""
""fullscreenenter"",""5"",""13723""
","
","","images/earth.jpg","","","","","","","","","","","","","","fixation","","","","","",""
"d3-animate-choice","225","570971","0.0-76.0-0.30","2696","4970","14","Male","false","false","true","true","""event"",""trial"",""time""
""fullscreenenter"",""5"",""13723""
","
","
","""event"",""trial"",""time""
""fullscreenenter"",""5"",""13723""
","
","497.2000000476837","","49","","","3000","1","","","images/earth.jpg","images/rocket1","images/rocket2","null","images/rocket2","","1","real","null","1","","",""
"d3-animate-choice","226","573438","0.0-76.0-1.30","2696","4970","14","Male","false","false","true","true","""event"",""trial"",""time""
""fullscreenenter"",""5"",""13723""
","
","
","""event"",""trial"",""time""
""fullscreenenter"",""5"",""13723""
","
","460.8000000715256","","49","","","3000","1","","","images/redplanet1.jpg","images/alien2","images/alien1","images/rocket2","images/alien1","images/t.png","2","real","true","1","common","1","2022-12-06 02:38:22.472"
"two-step-fixation","227","574445","0.0-76.0-2.30","2696","4970","14","Male","false","false","true","true","""event"",""trial"",""time""
""fullscreenenter"",""5"",""13723""
","
","
","""event"",""trial"",""time""
""fullscreenenter"",""5"",""13723""
","
","","images/earth.jpg","","","","","","","","","","","","","","fixation","","","","","",""
"d3-animate-choice","228","576467","0.0-76.0-0.31","2696","4970","14","Male","false","false","true","true","""event"",""trial"",""time""
""fullscreenenter"",""5"",""13723""
","
","
","""event"",""trial"",""time""
""fullscreenenter"",""5"",""13723""
","
","10.799999952316284","","48","","","3000","1","","","images/earth.jpg","images/rocket1","images/rocket2","null","images/rocket1","","1","real","null","2","","",""
"d3-animate-choice","229","579882","0.0-76.0-1.31","2696","4970","14","Male","false","false","true","true","""event"",""trial"",""time""
""fullscreenenter"",""5"",""13723""
","
","
","""event"",""trial"",""time""
""fullscreenenter"",""5"",""13723""
","
","1407.5","","49","","","3000","1","","","images/purpleplanet.jpg","images/alien4","images/alien3","images/rocket1","images/alien3","images/nothing.png","2","real","true","1","common","0","2022-12-06 02:38:28.916"
"two-step-fixation","230","580888","0.0-76.0-2.31","2696","4970","14","Male","false","false","true","true","""event"",""trial"",""time""
""fullscreenenter"",""5"",""13723""
","
","
","""event"",""trial"",""time""
""fullscreenenter"",""5"",""13723""
","
","","images/earth.jpg","","","","","","","","","","","","","","fixation","","","","","",""
"d3-animate-choice","231","583028","0.0-76.0-0.32","2696","4970","14","Male","false","false","true","true","""event"",""trial"",""time""
""fullscreenenter"",""5"",""13723""
","
","
","""event"",""trial"",""time""
""fullscreenenter"",""5"",""13723""
","
","133.69999992847443","","49","","","3000","1","","","images/earth.jpg","images/rocket1","images/rocket2","null","images/rocket2","","1","real","null","1","","",""
"d3-animate-choice","232","585441","0.0-76.0-1.32","2696","4970","14","Male","false","false","true","true","""event"",""trial"",""time""
""fullscreenenter"",""5"",""13723""
","
","
","""event"",""trial"",""time""
""fullscreenenter"",""5"",""13723""
","
","401.10000002384186","","49","","","3000","1","","","images/purpleplanet.jpg","images/alien4","images/alien3","images/rocket2","images/alien3","images/t.png","2","real","false","1","rare","1","2022-12-06 02:38:34.475"
"two-step-fixation","233","586445","0.0-76.0-2.32","2696","4970","14","Male","false","false","true","true","""event"",""trial"",""time""
""fullscreenenter"",""5"",""13723""
","
","
","""event"",""trial"",""time""
""fullscreenenter"",""5"",""13723""
","
","","images/earth.jpg","","","","","","","","","","","","","","fixation","","","","","",""
"d3-animate-choice","234","588960","0.0-76.0-0.33","2696","4970","14","Male","false","false","true","true","""event"",""trial"",""time""
""fullscreenenter"",""5"",""13723""
","
","
","""event"",""trial"",""time""
""fullscreenenter"",""5"",""13723""
","
","506.60000002384186","","48","","","3000","1","","","images/earth.jpg","images/rocket1","images/rocket2","null","images/rocket1","","1","real","null","2","","",""
"d3-animate-choice","235","592124","0.0-76.0-1.33","2696","4970","14","Male","false","false","true","true","""event"",""trial"",""time""
""fullscreenenter"",""5"",""13723""
","
","
","""event"",""trial"",""time""
""fullscreenenter"",""5"",""13723""
","
","1155.5","","49","","","3000","1","","","images/redplanet1.jpg","images/alien2","images/alien1","images/rocket1","images/alien1","images/t.png","2","real","false","1","rare","1","2022-12-06 02:38:41.158"
"two-step-fixation","236","593133","0.0-76.0-2.33","2696","4970","14","Male","false","false","true","true","""event"",""trial"",""time""
""fullscreenenter"",""5"",""13723""
","
","
","""event"",""trial"",""time""
""fullscreenenter"",""5"",""13723""
","
","","images/earth.jpg","","","","","","","","","","","","","","fixation","","","","","",""
"d3-animate-choice","237","595495","0.0-76.0-0.34","2696","4970","14","Male","false","false","true","true","""event"",""trial"",""time""
""fullscreenenter"",""5"",""13723""
","
","
","""event"",""trial"",""time""
""fullscreenenter"",""5"",""13723""
","
","353.3000000715256","","48","","","3000","1","","","images/earth.jpg","images/rocket1","images/rocket2","null","images/rocket1","","1","real","null","2","","",""
"d3-animate-choice","238","598569","0.0-76.0-1.34","2696","4970","14","Male","false","false","true","true","""event"",""trial"",""time""
""fullscreenenter"",""5"",""13723""
","
","
","""event"",""trial"",""time""
""fullscreenenter"",""5"",""13723""
","
","1067.1999999284744","","48","","","3000","1","","","images/redplanet1.jpg","images/alien2","images/alien1","images/rocket1","images/alien2","images/nothing.png","2","real","false","2","rare","0","2022-12-06 02:38:47.603"
"two-step-fixation","239","599577","0.0-76.0-2.34","2696","4970","14","Male","false","false","true","true","""event"",""trial"",""time""
""fullscreenenter"",""5"",""13723""
","
","
","""event"",""trial"",""time""
""fullscreenenter"",""5"",""13723""
","
","","images/earth.jpg","","","","","","","","","","","","","","fixation","","","","","",""
"d3-animate-choice","240","601950","0.0-76.0-0.35","2696","4970","14","Male","false","false","true","true","""event"",""trial"",""time""
""fullscreenenter"",""5"",""13723""
","
","
","""event"",""trial"",""time""
""fullscreenenter"",""5"",""13723""
","
","367.3000000715256","","49","","","3000","1","","","images/earth.jpg","images/rocket1","images/rocket2","null","images/rocket2","","1","real","null","1","","",""
"d3-animate-choice","241","605697","0.0-76.0-1.35","2696","4970","14","Male","false","false","true","true","""event"",""trial"",""time""
""fullscreenenter"",""5"",""13723""
","
","
","""event"",""trial"",""time""
""fullscreenenter"",""5"",""13723""
","
","1740","","48","","","3000","1","","","images/purpleplanet.jpg","images/alien4","images/alien3","images/rocket2","images/alien4","images/t.png","2","real","false","2","rare","1","2022-12-06 02:38:54.731"
"two-step-fixation","242","606705","0.0-76.0-2.35","2696","4970","14","Male","false","false","true","true","""event"",""trial"",""time""
""fullscreenenter"",""5"",""13723""
","
","
","""event"",""trial"",""time""
""fullscreenenter"",""5"",""13723""
","
","","images/earth.jpg","","","","","","","","","","","","","","fixation","","","","","",""
