"trial_type","trial_index","time_elapsed","internal_node_id","participant_id","subject_id","age","gender","rocket_sides","red_planet_first_rocket","red_display_order","purple_display_order","interactions","blur_events","focus_events","fullscreenenter_events","fullscreenexit_events","rt","stimulus","key_press","button_pressed","success","duration","valid_pressed","rts","keys","planet_text","right_text","left_text","center_text","chosen_text","reward_text","trial_stage","practice_trial","transition_type","choice","transition","reward","timestamp"
"pavlovia","0","5","0.0-0.0","710","601","13","Female","true","false","false","true","
","
","
","
","
","","","","","","","","","","","","","","","","","","","","","",""
"html-keyboard-response","1","1555","0.0-1.0","710","601","13","Female","true","false","false","true","
","
","
","
","
","1548.5999999046326","Welcome! Press the space bar to begin.","32","","","","","","","","","","","","","","","","","","",""
"audio-keyboard-response","2","5059","0.0-2.0","710","601","13","Female","true","false","false","true","
","
","
","
","
","3440","audio/beep_loop.wav","32","","","","","","","","","","","","","","","","","","",""
"audio-button-response","3","7193","0.0-3.0","710","601","13","Female","true","false","false","true","
","
","
","
","
","NaN","audio/fish.mp3","","1","","","","","","","","","","","","","","","","","",""
"audio-button-response","4","9879","0.0-4.0","710","601","13","Female","true","false","false","true","""event"",""trial"",""time""
""fullscreenenter"",""5"",""32982""
","
","
","""event"",""trial"",""time""
""fullscreenenter"",""5"",""32982""
","
","NaN","audio/tiger.mp3","","4","","","","","","","","","","","","","","","","","",""
"fullscreen","5","33880","0.0-5.0","710","601","13","Female","true","false","false","true","""event"",""trial"",""time""
""fullscreenenter"",""5"",""32982""
","
","
","""event"",""trial"",""time""
""fullscreenenter"",""5"",""32982""
","
","","","","","true","","","","","","","","","","","","","","","","",""
"d3-instructions","6","48428","0.0-6.0","710","601","13","Female","true","false","false","true","""event"",""trial"",""time""
""fullscreenenter"",""5"",""32982""
","
","
","""event"",""trial"",""time""
""fullscreenenter"",""5"",""32982""
","
","","","","","","","","","","","","","","","","","","","","","",""
"d3-instructions","7","57112","0.0-7.0","710","601","13","Female","true","false","false","true","""event"",""trial"",""time""
""fullscreenenter"",""5"",""32982""
","
","
","""event"",""trial"",""time""
""fullscreenenter"",""5"",""32982""
","
","","","","","","","","","","","","","","","","","","","","","",""
"d3-instructions","8","64349","0.0-8.0","710","601","13","Female","true","false","false","true","""event"",""trial"",""time""
""fullscreenenter"",""5"",""32982""
","
","
","""event"",""trial"",""time""
""fullscreenenter"",""5"",""32982""
","
","","","","","","","","","","","","","","","","","","","","","",""
"d3-instructions","9","75713","0.0-9.0","710","601","13","Female","true","false","false","true","""event"",""trial"",""time""
""fullscreenenter"",""5"",""32982""
","
","
","""event"",""trial"",""time""
""fullscreenenter"",""5"",""32982""
","
","","","","","","","","","","","","","","","","","","","","","",""
"d3-instructions","10","96200","0.0-10.0","710","601","13","Female","true","false","false","true","""event"",""trial"",""time""
""fullscreenenter"",""5"",""32982""
","
","
","""event"",""trial"",""time""
""fullscreenenter"",""5"",""32982""
","
","","","","","","","","","","","","","","","","","","","","","",""
"d3-animate-choice","11","98952","0.0-11.0","710","601","13","Female","true","false","false","true","""event"",""trial"",""time""
""fullscreenenter"",""5"",""32982""
","
","
","""event"",""trial"",""time""
""fullscreenenter"",""5"",""32982""
","
","723.5","","49","","","3000","1","2407.2999999523163","48","images/tutgreenplanet.jpg","images/tutalien1","images/tutalien2","null","images/tutalien2","","NA","practice","null","","","",""
"d3-animate-choice","12","101728","0.0-12.0","710","601","13","Female","true","false","false","true","""event"",""trial"",""time""
""fullscreenenter"",""5"",""32982""
","
","
","""event"",""trial"",""time""
""fullscreenenter"",""5"",""32982""
","
","749.3000001907349","","48","","","3000","1","","","images/tutgreenplanet.jpg","images/tutalien1","images/tutalien2","null","images/tutalien1","","NA","practice","null","","","",""
"d3-animate-choice","13","105921","0.0-13.0","710","601","13","Female","true","false","false","true","""event"",""trial"",""time""
""fullscreenenter"",""5"",""32982""
","
","
","""event"",""trial"",""time""
""fullscreenenter"",""5"",""32982""
","
","1310.7999999523163","","97","","","3000","1","2177.4000000953674","49","images/tutgreenplanet.jpg","images/tutalien1","images/tutalien2","null","images/tutalien2","","NA","practice","null","","","",""
"d3-animate-choice","14","108448","0.0-14.0","710","601","13","Female","true","false","false","true","""event"",""trial"",""time""
""fullscreenenter"",""5"",""32982""
","
","
","""event"",""trial"",""time""
""fullscreenenter"",""5"",""32982""
","
","514.5","","49","","","3000","1","","","images/tutgreenplanet.jpg","images/tutalien1","images/tutalien2","null","images/tutalien2","","NA","practice","null","","","",""
"d3-instructions","15","116142","0.0-15.0","710","601","13","Female","true","false","false","true","""event"",""trial"",""time""
""fullscreenenter"",""5"",""32982""
","
","
","""event"",""trial"",""time""
""fullscreenenter"",""5"",""32982""
","
","","","","","","","","","","","","","","","","","","","","","",""
"d3-instructions","16","125393","0.0-16.0","710","601","13","Female","true","false","false","true","""event"",""trial"",""time""
""fullscreenenter"",""5"",""32982""
","
","
","""event"",""trial"",""time""
""fullscreenenter"",""5"",""32982""
","
","","","","","","","","","","","","","","","","","","","","","",""
"d3-instructions","17","134731","0.0-17.0","710","601","13","Female","true","false","false","true","""event"",""trial"",""time""
""fullscreenenter"",""5"",""32982""
","
","
","""event"",""trial"",""time""
""fullscreenenter"",""5"",""32982""
","
","","","","","","","","","","","","","","","","","","","","","",""
"d3-instructions","18","148206","0.0-18.0","710","601","13","Female","true","false","false","true","""event"",""trial"",""time""
""fullscreenenter"",""5"",""32982""
","
","
","""event"",""trial"",""time""
""fullscreenenter"",""5"",""32982""
","
","","","","","","","","","","","","","","","","","","","","","",""
"d3-instructions","19","158937","0.0-19.0","710","601","13","Female","true","false","false","true","""event"",""trial"",""time""
""fullscreenenter"",""5"",""32982""
","
","
","""event"",""trial"",""time""
""fullscreenenter"",""5"",""32982""
","
","","","","","","","","","","","","","","","","","","","","","",""
"d3-animate-choice","20","161895","0.0-20.0","710","601","13","Female","true","false","false","true","""event"",""trial"",""time""
""fullscreenenter"",""5"",""32982""
","
","
","""event"",""trial"",""time""
""fullscreenenter"",""5"",""32982""
","
","952.2999999523163","","49","","","3000","1","","","images/tutyellowplanet.jpg","null","images/tutalien3","null","images/tutalien3","images/t.png","NA","practice","null","","","",""
"d3-animate-choice","21","164323","0.0-21.0","710","601","13","Female","true","false","false","true","""event"",""trial"",""time""
""fullscreenenter"",""5"",""32982""
","
","
","""event"",""trial"",""time""
""fullscreenenter"",""5"",""32982""
","
","415.7999999523163","","49","","","3000","1","","","images/tutyellowplanet.jpg","null","images/tutalien3","null","images/tutalien3","images/t.png","NA","practice","null","","","",""
"d3-animate-choice","22","166668","0.0-22.0","710","601","13","Female","true","false","false","true","""event"",""trial"",""time""
""fullscreenenter"",""5"",""32982""
","
","
","""event"",""trial"",""time""
""fullscreenenter"",""5"",""32982""
","
","328.89999985694885","","49","","","3000","1","","","images/tutyellowplanet.jpg","null","images/tutalien3","null","images/tutalien3","images/t.png","NA","practice","null","","","",""
"d3-animate-choice","23","168916","0.0-23.0","710","601","13","Female","true","false","false","true","""event"",""trial"",""time""
""fullscreenenter"",""5"",""32982""
","
","
","""event"",""trial"",""time""
""fullscreenenter"",""5"",""32982""
","
","238.29999995231628","","49","","","3000","1","","","images/tutyellowplanet.jpg","null","images/tutalien3","null","images/tutalien3","images/t.png","NA","practice","null","","","",""
"d3-animate-choice","24","170983","0.0-24.0","710","601","13","Female","true","false","false","true","""event"",""trial"",""time""
""fullscreenenter"",""5"",""32982""
","
","
","""event"",""trial"",""time""
""fullscreenenter"",""5"",""32982""
","
","52.299999952316284","","49","","","3000","1","","","images/tutyellowplanet.jpg","null","images/tutalien3","null","images/tutalien3","images/nothing.png","NA","practice","null","","","",""
"d3-animate-choice","25","173274","0.0-25.0","710","601","13","Female","true","false","false","true","""event"",""trial"",""time""
""fullscreenenter"",""5"",""32982""
","
","
","""event"",""trial"",""time""
""fullscreenenter"",""5"",""32982""
","
","278.7000000476837","","49","","","3000","1","","","images/tutyellowplanet.jpg","null","images/tutalien3","null","images/tutalien3","images/t.png","NA","practice","null","","","",""
"d3-animate-choice","26","175539","0.0-26.0","710","601","13","Female","true","false","false","true","""event"",""trial"",""time""
""fullscreenenter"",""5"",""32982""
","
","
","""event"",""trial"",""time""
""fullscreenenter"",""5"",""32982""
","
","254.70000004768372","","49","","","3000","1","","","images/tutyellowplanet.jpg","null","images/tutalien3","null","images/tutalien3","images/t.png","NA","practice","null","","","",""
"d3-animate-choice","27","177802","0.0-27.0","710","601","13","Female","true","false","false","true","""event"",""trial"",""time""
""fullscreenenter"",""5"",""32982""
","
","
","""event"",""trial"",""time""
""fullscreenenter"",""5"",""32982""
","
","253.89999985694885","","49","","","3000","1","","","images/tutyellowplanet.jpg","null","images/tutalien3","null","images/tutalien3","images/nothing.png","NA","practice","null","","","",""
"d3-animate-choice","28","180429","0.0-28.0","710","601","13","Female","true","false","false","true","""event"",""trial"",""time""
""fullscreenenter"",""5"",""32982""
","
","
","""event"",""trial"",""time""
""fullscreenenter"",""5"",""32982""
","
","606","","49","","","3000","1","","","images/tutyellowplanet.jpg","null","images/tutalien3","null","images/tutalien3","images/t.png","NA","practice","null","","","",""
"d3-animate-choice","29","182707","0.0-29.0","710","601","13","Female","true","false","false","true","""event"",""trial"",""time""
""fullscreenenter"",""5"",""32982""
","
","
","""event"",""trial"",""time""
""fullscreenenter"",""5"",""32982""
","
","260","","49","","","3000","1","","","images/tutyellowplanet.jpg","null","images/tutalien3","null","images/tutalien3","images/t.png","NA","practice","null","","","",""
"d3-instructions","30","188740","0.0-30.0","710","601","13","Female","true","false","false","true","""event"",""trial"",""time""
""fullscreenenter"",""5"",""32982""
","
","
","""event"",""trial"",""time""
""fullscreenenter"",""5"",""32982""
","
","","","","","","","","","","","","","","","","","","","","","",""
"d3-instructions","31","199090","0.0-31.0","710","601","13","Female","true","false","false","true","""event"",""trial"",""time""
""fullscreenenter"",""5"",""32982""
","
","
","""event"",""trial"",""time""
""fullscreenenter"",""5"",""32982""
","
","","","","","","","","","","","","","","","","","","","","","",""
"d3-instructions","32","210107","0.0-32.0","710","601","13","Female","true","false","false","true","""event"",""trial"",""time""
""fullscreenenter"",""5"",""32982""
","
","
","""event"",""trial"",""time""
""fullscreenenter"",""5"",""32982""
","
","","","","","","","","","","","","","","","","","","","","","",""
"d3-instructions","33","215162","0.0-33.0","710","601","13","Female","true","false","false","true","""event"",""trial"",""time""
""fullscreenenter"",""5"",""32982""
","
","
","""event"",""trial"",""time""
""fullscreenenter"",""5"",""32982""
","
","","","","","","","","","","","","","","","","","","","","","",""
"d3-animate-choice","34","218102","0.0-34.0","710","601","13","Female","true","false","false","true","""event"",""trial"",""time""
""fullscreenenter"",""5"",""32982""
","
","
","""event"",""trial"",""time""
""fullscreenenter"",""5"",""32982""
","
","922.2000000476837","","49","","","3000","1","","","images/tutgreenplanet.jpg","images/tutalien1","images/tutalien2","null","images/tutalien2","images/t.png","NA","practice","null","","","",""
"d3-animate-choice","35","220637","0.0-35.0","710","601","13","Female","true","false","false","true","""event"",""trial"",""time""
""fullscreenenter"",""5"",""32982""
","
","
","""event"",""trial"",""time""
""fullscreenenter"",""5"",""32982""
","
","518.2000000476837","","49","","","3000","1","","","images/tutgreenplanet.jpg","images/tutalien1","images/tutalien2","null","images/tutalien2","images/nothing.png","NA","practice","null","","","",""
"d3-animate-choice","36","223218","0.0-36.0","710","601","13","Female","true","false","false","true","""event"",""trial"",""time""
""fullscreenenter"",""5"",""32982""
","
","
","""event"",""trial"",""time""
""fullscreenenter"",""5"",""32982""
","
","570.5","","49","","","3000","1","","","images/tutgreenplanet.jpg","images/tutalien1","images/tutalien2","null","images/tutalien2","images/nothing.png","NA","practice","null","","","",""
"d3-animate-choice","37","225514","0.0-37.0","710","601","13","Female","true","false","false","true","""event"",""trial"",""time""
""fullscreenenter"",""5"",""32982""
","
","
","""event"",""trial"",""time""
""fullscreenenter"",""5"",""32982""
","
","289.2000000476837","","48","","","3000","1","","","images/tutgreenplanet.jpg","images/tutalien1","images/tutalien2","null","images/tutalien1","images/nothing.png","NA","practice","null","","","",""
"d3-animate-choice","38","227908","0.0-38.0","710","601","13","Female","true","false","false","true","""event"",""trial"",""time""
""fullscreenenter"",""5"",""32982""
","
","
","""event"",""trial"",""time""
""fullscreenenter"",""5"",""32982""
","
","371.5","","48","","","3000","1","","","images/tutgreenplanet.jpg","images/tutalien1","images/tutalien2","null","images/tutalien1","images/nothing.png","NA","practice","null","","","",""
"d3-animate-choice","39","230258","0.0-39.0","710","601","13","Female","true","false","false","true","""event"",""trial"",""time""
""fullscreenenter"",""5"",""32982""
","
","
","""event"",""trial"",""time""
""fullscreenenter"",""5"",""32982""
","
","331.5","","48","","","3000","1","","","images/tutgreenplanet.jpg","images/tutalien1","images/tutalien2","null","images/tutalien1","images/nothing.png","NA","practice","null","","","",""
"d3-animate-choice","40","232298","0.0-40.0","710","601","13","Female","true","false","false","true","""event"",""trial"",""time""
""fullscreenenter"",""5"",""32982""
","
","
","""event"",""trial"",""time""
""fullscreenenter"",""5"",""32982""
","
","17.299999952316284","","49","","","3000","1","","","images/tutgreenplanet.jpg","images/tutalien1","images/tutalien2","null","images/tutalien2","images/t.png","NA","practice","null","","","",""
"d3-animate-choice","41","234627","0.0-41.0","710","601","13","Female","true","false","false","true","""event"",""trial"",""time""
""fullscreenenter"",""5"",""32982""
","
","
","""event"",""trial"",""time""
""fullscreenenter"",""5"",""32982""
","
","308.59999990463257","","49","","","3000","1","","","images/tutgreenplanet.jpg","images/tutalien1","images/tutalien2","null","images/tutalien2","images/t.png","NA","practice","null","","","",""
"d3-animate-choice","42","236730","0.0-42.0","710","601","13","Female","true","false","false","true","""event"",""trial"",""time""
""fullscreenenter"",""5"",""32982""
","
","
","""event"",""trial"",""time""
""fullscreenenter"",""5"",""32982""
","
","95","","49","","","3000","1","","","images/tutgreenplanet.jpg","images/tutalien1","images/tutalien2","null","images/tutalien2","images/t.png","NA","practice","null","","","",""
"d3-animate-choice","43","238924","0.0-43.0","710","601","13","Female","true","false","false","true","""event"",""trial"",""time""
""fullscreenenter"",""5"",""32982""
","
","
","""event"",""trial"",""time""
""fullscreenenter"",""5"",""32982""
","
","171.90000009536743","","49","","","3000","1","","","images/tutgreenplanet.jpg","images/tutalien1","images/tutalien2","null","images/tutalien2","images/t.png","NA","practice","null","","","",""
"d3-instructions","44","247577","0.0-44.0","710","601","13","Female","true","false","false","true","""event"",""trial"",""time""
""fullscreenenter"",""5"",""32982""
","
","
","""event"",""trial"",""time""
""fullscreenenter"",""5"",""32982""
","
","","","","","","","","","","","","","","","","","","","","","",""
"d3-instructions","45","254447","0.0-45.0","710","601","13","Female","true","false","false","true","""event"",""trial"",""time""
""fullscreenenter"",""5"",""32982""
","
","
","""event"",""trial"",""time""
""fullscreenenter"",""5"",""32982""
","
","","","","","","","","","","","","","","","","","","","","","",""
"d3-instructions","46","258696","0.0-46.0","710","601","13","Female","true","false","false","true","""event"",""trial"",""time""
""fullscreenenter"",""5"",""32982""
","
","
","""event"",""trial"",""time""
""fullscreenenter"",""5"",""32982""
","
","","","","","","","","","","","","","","","","","","","","","",""
"d3-instructions","47","275148","0.0-47.0","710","601","13","Female","true","false","false","true","""event"",""trial"",""time""
""fullscreenenter"",""5"",""32982""
","
","
","""event"",""trial"",""time""
""fullscreenenter"",""5"",""32982""
","
","","","","","","","","","","","","","","","","","","","","","",""
"d3-instructions","48","281594","0.0-48.0","710","601","13","Female","true","false","false","true","""event"",""trial"",""time""
""fullscreenenter"",""5"",""32982""
","
","
","""event"",""trial"",""time""
""fullscreenenter"",""5"",""32982""
","
","","","","","","","","","","","","","","","","","","","","","",""
"d3-instructions","49","293240","0.0-49.0","710","601","13","Female","true","false","false","true","""event"",""trial"",""time""
""fullscreenenter"",""5"",""32982""
","
","
","""event"",""trial"",""time""
""fullscreenenter"",""5"",""32982""
","
","","","","","","","","","","","","","","","","","","","","","",""
"d3-instructions","50","304645","0.0-50.0","710","601","13","Female","true","false","false","true","""event"",""trial"",""time""
""fullscreenenter"",""5"",""32982""
","
","
","""event"",""trial"",""time""
""fullscreenenter"",""5"",""32982""
","
","","","","","","","","","","","","","","","","","","","","","",""
"d3-instructions","51","307457","0.0-51.0","710","601","13","Female","true","false","false","true","""event"",""trial"",""time""
""fullscreenenter"",""5"",""32982""
","
","
","""event"",""trial"",""time""
""fullscreenenter"",""5"",""32982""
","
","","","","","","","","","","","","","","","","","","","","","",""
"d3-instructions","52","311169","0.0-52.0","710","601","13","Female","true","false","false","true","""event"",""trial"",""time""
""fullscreenenter"",""5"",""32982""
","
","
","""event"",""trial"",""time""
""fullscreenenter"",""5"",""32982""
","
","","","","","","","","","","","","","","","","","","","","","",""
"d3-instructions","53","326492","0.0-53.0","710","601","13","Female","true","false","false","true","""event"",""trial"",""time""
""fullscreenenter"",""5"",""32982""
","
","
","""event"",""trial"",""time""
""fullscreenenter"",""5"",""32982""
","
","","","","","","","","","","","","","","","","","","","","","",""
"d3-instructions","54","339630","0.0-54.0","710","601","13","Female","true","false","false","true","""event"",""trial"",""time""
""fullscreenenter"",""5"",""32982""
","
","
","""event"",""trial"",""time""
""fullscreenenter"",""5"",""32982""
","
","","","","","","","","","","","","","","","","","","","","","",""
"d3-instructions","55","344315","0.0-55.0","710","601","13","Female","true","false","false","true","""event"",""trial"",""time""
""fullscreenenter"",""5"",""32982""
","
","
","""event"",""trial"",""time""
""fullscreenenter"",""5"",""32982""
","
","","","","","","","","","","","","","","","","","","","","","",""
"d3-instructions","56","352661","0.0-56.0","710","601","13","Female","true","false","false","true","""event"",""trial"",""time""
""fullscreenenter"",""5"",""32982""
","
","
","""event"",""trial"",""time""
""fullscreenenter"",""5"",""32982""
","
","","","","","","","","","","","","","","","","","","","","","",""
"d3-instructions","57","356301","0.0-57.0","710","601","13","Female","true","false","false","true","""event"",""trial"",""time""
""fullscreenenter"",""5"",""32982""
","
","
","""event"",""trial"",""time""
""fullscreenenter"",""5"",""32982""
","
","","","","","","","","","","","","","","","","","","","","","",""
"d3-instructions","58","361447","0.0-58.0","710","601","13","Female","true","false","false","true","""event"",""trial"",""time""
""fullscreenenter"",""5"",""32982""
","
","
","""event"",""trial"",""time""
""fullscreenenter"",""5"",""32982""
","
","","","","","","","","","","","","","","","","","","","","","",""
"d3-instructions","59","366263","0.0-59.0","710","601","13","Female","true","false","false","true","""event"",""trial"",""time""
""fullscreenenter"",""5"",""32982""
","
","
","""event"",""trial"",""time""
""fullscreenenter"",""5"",""32982""
","
","","","","","","","","","","","","","","","","","","","","","",""
"d3-instructions","60","370830","0.0-60.0","710","601","13","Female","true","false","false","true","""event"",""trial"",""time""
""fullscreenenter"",""5"",""32982""
","
","
","""event"",""trial"",""time""
""fullscreenenter"",""5"",""32982""
","
","","","","","","","","","","","","","","","","","","","","","",""
"d3-animate-choice","61","373534","0.0-61.0-0.0","710","601","13","Female","true","false","false","true","""event"",""trial"",""time""
""fullscreenenter"",""5"",""32982""
","
","
","""event"",""trial"",""time""
""fullscreenenter"",""5"",""32982""
","
","685","","49","","","3000","1","","","images/earth.jpg","images/tutrocket1","images/tutrocket2","null","images/tutrocket2","","1","practice","null","1","","",""
"d3-animate-choice","62","376258","0.0-61.0-1.0","710","601","13","Female","true","false","false","true","""event"",""trial"",""time""
""fullscreenenter"",""5"",""32982""
","
","
","""event"",""trial"",""time""
""fullscreenenter"",""5"",""32982""
","
","691.8999998569489","","48","","","3000","1","","","images/tutgreenplanet.jpg","images/tutalien2","images/tutalien1","images/tutrocket2","images/tutalien2","images/t.png","2","practice","true","2","common","1","2022-02-04 00:16:38.901"
"two-step-fixation","63","377277","0.0-61.0-2.0","710","601","13","Female","true","false","false","true","""event"",""trial"",""time""
""fullscreenenter"",""5"",""32982""
","
","
","""event"",""trial"",""time""
""fullscreenenter"",""5"",""32982""
","
","","images/earth.jpg","","","","","","","","","","","","","","fixation","","","","","",""
"d3-animate-choice","64","380005","0.0-61.0-0.1","710","601","13","Female","true","false","false","true","""event"",""trial"",""time""
""fullscreenenter"",""5"",""32982""
","
","
","""event"",""trial"",""time""
""fullscreenenter"",""5"",""32982""
","
","716.5999999046326","","48","","","3000","1","","","images/earth.jpg","images/tutrocket1","images/tutrocket2","null","images/tutrocket1","","1","practice","null","2","","",""
"d3-animate-choice","65","382661","0.0-61.0-1.1","710","601","13","Female","true","false","false","true","""event"",""trial"",""time""
""fullscreenenter"",""5"",""32982""
","
","
","""event"",""trial"",""time""
""fullscreenenter"",""5"",""32982""
","
","651.8999998569489","","48","","","3000","1","","","images/tutyellowplanet.jpg","images/tutalien4","images/tutalien3","images/tutrocket1","images/tutalien4","images/nothing.png","2","practice","true","2","common","0","2022-02-04 00:16:45.303"
"two-step-fixation","66","383665","0.0-61.0-2.1","710","601","13","Female","true","false","false","true","""event"",""trial"",""time""
""fullscreenenter"",""5"",""32982""
","
","
","""event"",""trial"",""time""
""fullscreenenter"",""5"",""32982""
","
","","images/earth.jpg","","","","","","","","","","","","","","fixation","","","","","",""
"d3-animate-choice","67","385976","0.0-61.0-0.2","710","601","13","Female","true","false","false","true","""event"",""trial"",""time""
""fullscreenenter"",""5"",""32982""
","
","
","""event"",""trial"",""time""
""fullscreenenter"",""5"",""32982""
","
","300.2000000476837","","49","","","3000","1","","","images/earth.jpg","images/tutrocket1","images/tutrocket2","null","images/tutrocket2","","1","practice","null","1","","",""
"d3-animate-choice","68","388551","0.0-61.0-1.2","710","601","13","Female","true","false","false","true","""event"",""trial"",""time""
""fullscreenenter"",""5"",""32982""
","
","
","""event"",""trial"",""time""
""fullscreenenter"",""5"",""32982""
","
","557","","49","","","3000","1","","","images/tutyellowplanet.jpg","images/tutalien4","images/tutalien3","images/tutrocket2","images/tutalien3","images/nothing.png","2","practice","false","1","rare","0","2022-02-04 00:16:51.195"
"two-step-fixation","69","389573","0.0-61.0-2.2","710","601","13","Female","true","false","false","true","""event"",""trial"",""time""
""fullscreenenter"",""5"",""32982""
","
","
","""event"",""trial"",""time""
""fullscreenenter"",""5"",""32982""
","
","","images/earth.jpg","","","","","","","","","","","","","","fixation","","","","","",""
"d3-animate-choice","70","391828","0.0-61.0-0.3","710","601","13","Female","true","false","false","true","""event"",""trial"",""time""
""fullscreenenter"",""5"",""32982""
","
","
","""event"",""trial"",""time""
""fullscreenenter"",""5"",""32982""
","
","247.29999995231628","","49","","","3000","1","","","images/earth.jpg","images/tutrocket1","images/tutrocket2","null","images/tutrocket2","","1","practice","null","1","","",""
"d3-animate-choice","71","393895","0.0-61.0-1.3","710","601","13","Female","true","false","false","true","""event"",""trial"",""time""
""fullscreenenter"",""5"",""32982""
","
","
","""event"",""trial"",""time""
""fullscreenenter"",""5"",""32982""
","
","62.299999952316284","","48","","","3000","1","","","images/tutgreenplanet.jpg","images/tutalien2","images/tutalien1","images/tutrocket2","images/tutalien2","images/nothing.png","2","practice","true","2","common","0","2022-02-04 00:16:56.537"
"two-step-fixation","72","394902","0.0-61.0-2.3","710","601","13","Female","true","false","false","true","""event"",""trial"",""time""
""fullscreenenter"",""5"",""32982""
","
","
","""event"",""trial"",""time""
""fullscreenenter"",""5"",""32982""
","
","","images/earth.jpg","","","","","","","","","","","","","","fixation","","","","","",""
"d3-animate-choice","73","397152","0.0-61.0-0.4","710","601","13","Female","true","false","false","true","""event"",""trial"",""time""
""fullscreenenter"",""5"",""32982""
","
","
","""event"",""trial"",""time""
""fullscreenenter"",""5"",""32982""
","
","244.29999995231628","","49","","","3000","1","","","images/earth.jpg","images/tutrocket1","images/tutrocket2","null","images/tutrocket2","","1","practice","null","1","","",""
"d3-animate-choice","74","399443","0.0-61.0-1.4","710","601","13","Female","true","false","false","true","""event"",""trial"",""time""
""fullscreenenter"",""5"",""32982""
","
","
","""event"",""trial"",""time""
""fullscreenenter"",""5"",""32982""
","
","278.89999985694885","","48","","","3000","1","","","images/tutgreenplanet.jpg","images/tutalien2","images/tutalien1","images/tutrocket2","images/tutalien2","images/t.png","2","practice","true","2","common","1","2022-02-04 00:17:02.085"
"two-step-fixation","75","400447","0.0-61.0-2.4","710","601","13","Female","true","false","false","true","""event"",""trial"",""time""
""fullscreenenter"",""5"",""32982""
","
","
","""event"",""trial"",""time""
""fullscreenenter"",""5"",""32982""
","
","","images/earth.jpg","","","","","","","","","","","","","","fixation","","","","","",""
"d3-animate-choice","76","402712","0.0-61.0-0.5","710","601","13","Female","true","false","false","true","""event"",""trial"",""time""
""fullscreenenter"",""5"",""32982""
","
","
","""event"",""trial"",""time""
""fullscreenenter"",""5"",""32982""
","
","254","","49","","","3000","1","","","images/earth.jpg","images/tutrocket1","images/tutrocket2","null","images/tutrocket2","","1","practice","null","1","","",""
"d3-animate-choice","77","405043","0.0-61.0-1.5","710","601","13","Female","true","false","false","true","""event"",""trial"",""time""
""fullscreenenter"",""5"",""32982""
","
","
","""event"",""trial"",""time""
""fullscreenenter"",""5"",""32982""
","
","326.2000000476837","","48","","","3000","1","","","images/tutgreenplanet.jpg","images/tutalien2","images/tutalien1","images/tutrocket2","images/tutalien2","images/nothing.png","2","practice","true","2","common","0","2022-02-04 00:17:07.685"
"two-step-fixation","78","406049","0.0-61.0-2.5","710","601","13","Female","true","false","false","true","""event"",""trial"",""time""
""fullscreenenter"",""5"",""32982""
","
","
","""event"",""trial"",""time""
""fullscreenenter"",""5"",""32982""
","
","","images/earth.jpg","","","","","","","","","","","","","","fixation","","","","","",""
"d3-animate-choice","79","408663","0.0-61.0-0.6","710","601","13","Female","true","false","false","true","""event"",""trial"",""time""
""fullscreenenter"",""5"",""32982""
","
","
","""event"",""trial"",""time""
""fullscreenenter"",""5"",""32982""
","
","610.0999999046326","","48","","","3000","1","","","images/earth.jpg","images/tutrocket1","images/tutrocket2","null","images/tutrocket1","","1","practice","null","2","","",""
"d3-animate-choice","80","411016","0.0-61.0-1.6","710","601","13","Female","true","false","false","true","""event"",""trial"",""time""
""fullscreenenter"",""5"",""32982""
","
","
","""event"",""trial"",""time""
""fullscreenenter"",""5"",""32982""
","
","346.7999999523163","","49","","","3000","1","","","images/tutyellowplanet.jpg","images/tutalien4","images/tutalien3","images/tutrocket1","images/tutalien3","images/nothing.png","2","practice","true","1","common","0","2022-02-04 00:17:13.658"
"two-step-fixation","81","412025","0.0-61.0-2.6","710","601","13","Female","true","false","false","true","""event"",""trial"",""time""
""fullscreenenter"",""5"",""32982""
","
","
","""event"",""trial"",""time""
""fullscreenenter"",""5"",""32982""
","
","","images/earth.jpg","","","","","","","","","","","","","","fixation","","","","","",""
"d3-animate-choice","82","414114","0.0-61.0-0.7","710","601","13","Female","true","false","false","true","""event"",""trial"",""time""
""fullscreenenter"",""5"",""32982""
","
","
","""event"",""trial"",""time""
""fullscreenenter"",""5"",""32982""
","
","68","","49","","","3000","1","","","images/earth.jpg","images/tutrocket1","images/tutrocket2","null","images/tutrocket2","","1","practice","null","1","","",""
"d3-animate-choice","83","416870","0.0-61.0-1.7","710","601","13","Female","true","false","false","true","""event"",""trial"",""time""
""fullscreenenter"",""5"",""32982""
","
","
","""event"",""trial"",""time""
""fullscreenenter"",""5"",""32982""
","
","748.5","","48","","","3000","1","","","images/tutyellowplanet.jpg","images/tutalien4","images/tutalien3","images/tutrocket2","images/tutalien4","images/t.png","2","practice","false","2","rare","1","2022-02-04 00:17:19.513"
"two-step-fixation","84","417883","0.0-61.0-2.7","710","601","13","Female","true","false","false","true","""event"",""trial"",""time""
""fullscreenenter"",""5"",""32982""
","
","
","""event"",""trial"",""time""
""fullscreenenter"",""5"",""32982""
","
","","images/earth.jpg","","","","","","","","","","","","","","fixation","","","","","",""
"d3-animate-choice","85","420251","0.0-61.0-0.8","710","601","13","Female","true","false","false","true","""event"",""trial"",""time""
""fullscreenenter"",""5"",""32982""
","
","
","""event"",""trial"",""time""
""fullscreenenter"",""5"",""32982""
","
","359.89999985694885","","49","","","3000","1","","","images/earth.jpg","images/tutrocket1","images/tutrocket2","null","images/tutrocket2","","1","practice","null","1","","",""
"d3-animate-choice","86","422693","0.0-61.0-1.8","710","601","13","Female","true","false","false","true","""event"",""trial"",""time""
""fullscreenenter"",""5"",""32982""
","
","
","""event"",""trial"",""time""
""fullscreenenter"",""5"",""32982""
","
","432.10000014305115","","48","","","3000","1","","","images/tutgreenplanet.jpg","images/tutalien2","images/tutalien1","images/tutrocket2","images/tutalien2","images/t.png","2","practice","true","2","common","1","2022-02-04 00:17:25.335"
"two-step-fixation","87","423708","0.0-61.0-2.8","710","601","13","Female","true","false","false","true","""event"",""trial"",""time""
""fullscreenenter"",""5"",""32982""
","
","
","""event"",""trial"",""time""
""fullscreenenter"",""5"",""32982""
","
","","images/earth.jpg","","","","","","","","","","","","","","fixation","","","","","",""
"d3-animate-choice","88","426169","0.0-61.0-0.9","710","601","13","Female","true","false","false","true","""event"",""trial"",""time""
""fullscreenenter"",""5"",""32982""
","
","
","""event"",""trial"",""time""
""fullscreenenter"",""5"",""32982""
","
","449","","49","","","3000","1","","","images/earth.jpg","images/tutrocket1","images/tutrocket2","null","images/tutrocket2","","1","practice","null","1","","",""
"d3-animate-choice","89","428530","0.0-61.0-1.9","710","601","13","Female","true","false","false","true","""event"",""trial"",""time""
""fullscreenenter"",""5"",""32982""
","
","
","""event"",""trial"",""time""
""fullscreenenter"",""5"",""32982""
","
","353","","48","","","3000","1","","","images/tutgreenplanet.jpg","images/tutalien2","images/tutalien1","images/tutrocket2","images/tutalien2","images/nothing.png","2","practice","true","2","common","0","2022-02-04 00:17:31.172"
"two-step-fixation","90","429549","0.0-61.0-2.9","710","601","13","Female","true","false","false","true","""event"",""trial"",""time""
""fullscreenenter"",""5"",""32982""
","
","
","""event"",""trial"",""time""
""fullscreenenter"",""5"",""32982""
","
","","images/earth.jpg","","","","","","","","","","","","","","fixation","","","","","",""
"d3-animate-choice","91","431996","0.0-61.0-0.10","710","601","13","Female","true","false","false","true","""event"",""trial"",""time""
""fullscreenenter"",""5"",""32982""
","
","
","""event"",""trial"",""time""
""fullscreenenter"",""5"",""32982""
","
","438.90000009536743","","49","","","3000","1","","","images/earth.jpg","images/tutrocket1","images/tutrocket2","null","images/tutrocket2","","1","practice","null","1","","",""
"d3-animate-choice","92","434335","0.0-61.0-1.10","710","601","13","Female","true","false","false","true","""event"",""trial"",""time""
""fullscreenenter"",""5"",""32982""
","
","
","""event"",""trial"",""time""
""fullscreenenter"",""5"",""32982""
","
","330.69999980926514","","48","","","3000","1","","","images/tutgreenplanet.jpg","images/tutalien2","images/tutalien1","images/tutrocket2","images/tutalien2","images/t.png","2","practice","true","2","common","1","2022-02-04 00:17:36.977"
"two-step-fixation","93","435338","0.0-61.0-2.10","710","601","13","Female","true","false","false","true","""event"",""trial"",""time""
""fullscreenenter"",""5"",""32982""
","
","
","""event"",""trial"",""time""
""fullscreenenter"",""5"",""32982""
","
","","images/earth.jpg","","","","","","","","","","","","","","fixation","","","","","",""
"d3-animate-choice","94","437620","0.0-61.0-0.11","710","601","13","Female","true","false","false","true","""event"",""trial"",""time""
""fullscreenenter"",""5"",""32982""
","
","
","""event"",""trial"",""time""
""fullscreenenter"",""5"",""32982""
","
","274.5","","49","","","3000","1","","","images/earth.jpg","images/tutrocket1","images/tutrocket2","null","images/tutrocket2","","1","practice","null","1","","",""
"d3-animate-choice","95","439988","0.0-61.0-1.11","710","601","13","Female","true","false","false","true","""event"",""trial"",""time""
""fullscreenenter"",""5"",""32982""
","
","
","""event"",""trial"",""time""
""fullscreenenter"",""5"",""32982""
","
","358.5","","48","","","3000","1","","","images/tutyellowplanet.jpg","images/tutalien4","images/tutalien3","images/tutrocket2","images/tutalien4","images/t.png","2","practice","false","2","rare","1","2022-02-04 00:17:42.630"
"two-step-fixation","96","440998","0.0-61.0-2.11","710","601","13","Female","true","false","false","true","""event"",""trial"",""time""
""fullscreenenter"",""5"",""32982""
","
","
","""event"",""trial"",""time""
""fullscreenenter"",""5"",""32982""
","
","","images/earth.jpg","","","","","","","","","","","","","","fixation","","","","","",""
"d3-animate-choice","97","443284","0.0-61.0-0.12","710","601","13","Female","true","false","false","true","""event"",""trial"",""time""
""fullscreenenter"",""5"",""32982""
","
","
","""event"",""trial"",""time""
""fullscreenenter"",""5"",""32982""
","
","275.69999980926514","","49","","","3000","1","","","images/earth.jpg","images/tutrocket1","images/tutrocket2","null","images/tutrocket2","","1","practice","null","1","","",""
"d3-animate-choice","98","445701","0.0-61.0-1.12","710","601","13","Female","true","false","false","true","""event"",""trial"",""time""
""fullscreenenter"",""5"",""32982""
","
","
","""event"",""trial"",""time""
""fullscreenenter"",""5"",""32982""
","
","409.7000000476837","","48","","","3000","1","","","images/tutgreenplanet.jpg","images/tutalien2","images/tutalien1","images/tutrocket2","images/tutalien2","images/t.png","2","practice","true","2","common","1","2022-02-04 00:17:48.343"
"two-step-fixation","99","446711","0.0-61.0-2.12","710","601","13","Female","true","false","false","true","""event"",""trial"",""time""
""fullscreenenter"",""5"",""32982""
","
","
","""event"",""trial"",""time""
""fullscreenenter"",""5"",""32982""
","
","","images/earth.jpg","","","","","","","","","","","","","","fixation","","","","","",""
"d3-animate-choice","100","449577","0.0-61.0-0.13","710","601","13","Female","true","false","false","true","""event"",""trial"",""time""
""fullscreenenter"",""5"",""32982""
","
","
","""event"",""trial"",""time""
""fullscreenenter"",""5"",""32982""
","
","858.1999998092651","","49","","","3000","1","","","images/earth.jpg","images/tutrocket1","images/tutrocket2","null","images/tutrocket2","","1","practice","null","1","","",""
"d3-animate-choice","101","451906","0.0-61.0-1.13","710","601","13","Female","true","false","false","true","""event"",""trial"",""time""
""fullscreenenter"",""5"",""32982""
","
","
","""event"",""trial"",""time""
""fullscreenenter"",""5"",""32982""
","
","310.7999999523163","","48","","","3000","1","","","images/tutyellowplanet.jpg","images/tutalien4","images/tutalien3","images/tutrocket2","images/tutalien4","images/nothing.png","2","practice","false","2","rare","0","2022-02-04 00:17:54.548"
"two-step-fixation","102","452922","0.0-61.0-2.13","710","601","13","Female","true","false","false","true","""event"",""trial"",""time""
""fullscreenenter"",""5"",""32982""
","
","
","""event"",""trial"",""time""
""fullscreenenter"",""5"",""32982""
","
","","images/earth.jpg","","","","","","","","","","","","","","fixation","","","","","",""
"d3-animate-choice","103","455272","0.0-61.0-0.14","710","601","13","Female","true","false","false","true","""event"",""trial"",""time""
""fullscreenenter"",""5"",""32982""
","
","
","""event"",""trial"",""time""
""fullscreenenter"",""5"",""32982""
","
","341.2000000476837","","49","","","3000","1","","","images/earth.jpg","images/tutrocket1","images/tutrocket2","null","images/tutrocket2","","1","practice","null","1","","",""
"d3-animate-choice","104","457733","0.0-61.0-1.14","710","601","13","Female","true","false","false","true","""event"",""trial"",""time""
""fullscreenenter"",""5"",""32982""
","
","
","""event"",""trial"",""time""
""fullscreenenter"",""5"",""32982""
","
","447.69999980926514","","48","","","3000","1","","","images/tutgreenplanet.jpg","images/tutalien2","images/tutalien1","images/tutrocket2","images/tutalien2","images/nothing.png","2","practice","true","2","common","0","2022-02-04 00:18:00.376"
"two-step-fixation","105","458749","0.0-61.0-2.14","710","601","13","Female","true","false","false","true","""event"",""trial"",""time""
""fullscreenenter"",""5"",""32982""
","
","
","""event"",""trial"",""time""
""fullscreenenter"",""5"",""32982""
","
","","images/earth.jpg","","","","","","","","","","","","","","fixation","","","","","",""
"d3-animate-choice","106","461147","0.0-61.0-0.15","710","601","13","Female","true","false","false","true","""event"",""trial"",""time""
""fullscreenenter"",""5"",""32982""
","
","
","""event"",""trial"",""time""
""fullscreenenter"",""5"",""32982""
","
","378.40000009536743","","49","","","3000","1","","","images/earth.jpg","images/tutrocket1","images/tutrocket2","null","images/tutrocket2","","1","practice","null","1","","",""
"d3-animate-choice","107","463621","0.0-61.0-1.15","710","601","13","Female","true","false","false","true","""event"",""trial"",""time""
""fullscreenenter"",""5"",""32982""
","
","
","""event"",""trial"",""time""
""fullscreenenter"",""5"",""32982""
","
","458.90000009536743","","48","","","3000","1","","","images/tutgreenplanet.jpg","images/tutalien2","images/tutalien1","images/tutrocket2","images/tutalien2","images/nothing.png","2","practice","true","2","common","0","2022-02-04 00:18:06.263"
"two-step-fixation","108","464640","0.0-61.0-2.15","710","601","13","Female","true","false","false","true","""event"",""trial"",""time""
""fullscreenenter"",""5"",""32982""
","
","
","""event"",""trial"",""time""
""fullscreenenter"",""5"",""32982""
","
","","images/earth.jpg","","","","","","","","","","","","","","fixation","","","","","",""
"d3-animate-choice","109","467258","0.0-61.0-0.16","710","601","13","Female","true","false","false","true","""event"",""trial"",""time""
""fullscreenenter"",""5"",""32982""
","
","
","""event"",""trial"",""time""
""fullscreenenter"",""5"",""32982""
","
","599.2000000476837","","49","","","3000","1","","","images/earth.jpg","images/tutrocket1","images/tutrocket2","null","images/tutrocket2","","1","practice","null","1","","",""
"d3-animate-choice","110","469946","0.0-61.0-1.16","710","601","13","Female","true","false","false","true","""event"",""trial"",""time""
""fullscreenenter"",""5"",""32982""
","
","
","""event"",""trial"",""time""
""fullscreenenter"",""5"",""32982""
","
","675.9000000953674","","49","","","3000","1","","","images/tutyellowplanet.jpg","images/tutalien4","images/tutalien3","images/tutrocket2","images/tutalien3","images/nothing.png","2","practice","false","1","rare","0","2022-02-04 00:18:12.588"
"two-step-fixation","111","470954","0.0-61.0-2.16","710","601","13","Female","true","false","false","true","""event"",""trial"",""time""
""fullscreenenter"",""5"",""32982""
","
","
","""event"",""trial"",""time""
""fullscreenenter"",""5"",""32982""
","
","","images/earth.jpg","","","","","","","","","","","","","","fixation","","","","","",""
"d3-animate-choice","112","473129","0.0-61.0-0.17","710","601","13","Female","true","false","false","true","""event"",""trial"",""time""
""fullscreenenter"",""5"",""32982""
","
","
","""event"",""trial"",""time""
""fullscreenenter"",""5"",""32982""
","
","169.59999990463257","","48","","","3000","1","","","images/earth.jpg","images/tutrocket1","images/tutrocket2","null","images/tutrocket1","","1","practice","null","2","","",""
"d3-animate-choice","113","475728","0.0-61.0-1.17","710","601","13","Female","true","false","false","true","""event"",""trial"",""time""
""fullscreenenter"",""5"",""32982""
","
","
","""event"",""trial"",""time""
""fullscreenenter"",""5"",""32982""
","
","587.2000000476837","","48","","","3000","1","","","images/tutgreenplanet.jpg","images/tutalien2","images/tutalien1","images/tutrocket1","images/tutalien2","images/t.png","2","practice","false","2","rare","1","2022-02-04 00:18:18.370"
"two-step-fixation","114","476735","0.0-61.0-2.17","710","601","13","Female","true","false","false","true","""event"",""trial"",""time""
""fullscreenenter"",""5"",""32982""
","
","
","""event"",""trial"",""time""
""fullscreenenter"",""5"",""32982""
","
","","images/earth.jpg","","","","","","","","","","","","","","fixation","","","","","",""
"d3-animate-choice","115","479190","0.0-61.0-0.18","710","601","13","Female","true","false","false","true","""event"",""trial"",""time""
""fullscreenenter"",""5"",""32982""
","
","
","""event"",""trial"",""time""
""fullscreenenter"",""5"",""32982""
","
","440.09999990463257","","48","","","3000","1","","","images/earth.jpg","images/tutrocket1","images/tutrocket2","null","images/tutrocket1","","1","practice","null","2","","",""
"d3-animate-choice","116","481613","0.0-61.0-1.18","710","601","13","Female","true","false","false","true","""event"",""trial"",""time""
""fullscreenenter"",""5"",""32982""
","
","
","""event"",""trial"",""time""
""fullscreenenter"",""5"",""32982""
","
","415.5","","48","","","3000","1","","","images/tutgreenplanet.jpg","images/tutalien2","images/tutalien1","images/tutrocket1","images/tutalien2","images/t.png","2","practice","false","2","rare","1","2022-02-04 00:18:24.255"
"two-step-fixation","117","482618","0.0-61.0-2.18","710","601","13","Female","true","false","false","true","""event"",""trial"",""time""
""fullscreenenter"",""5"",""32982""
","
","
","""event"",""trial"",""time""
""fullscreenenter"",""5"",""32982""
","
","","images/earth.jpg","","","","","","","","","","","","","","fixation","","","","","",""
"d3-animate-choice","118","484896","0.0-61.0-0.19","710","601","13","Female","true","false","false","true","""event"",""trial"",""time""
""fullscreenenter"",""5"",""32982""
","
","
","""event"",""trial"",""time""
""fullscreenenter"",""5"",""32982""
","
","266.09999990463257","","48","","","3000","1","","","images/earth.jpg","images/tutrocket1","images/tutrocket2","null","images/tutrocket1","","1","practice","null","2","","",""
"d3-animate-choice","119","487311","0.0-61.0-1.19","710","601","13","Female","true","false","false","true","""event"",""trial"",""time""
""fullscreenenter"",""5"",""32982""
","
","
","""event"",""trial"",""time""
""fullscreenenter"",""5"",""32982""
","
","405.80000019073486","","48","","","3000","1","","","images/tutyellowplanet.jpg","images/tutalien4","images/tutalien3","images/tutrocket1","images/tutalien4","images/nothing.png","2","practice","true","2","common","0","2022-02-04 00:18:29.953"
"two-step-fixation","120","488317","0.0-61.0-2.19","710","601","13","Female","true","false","false","true","""event"",""trial"",""time""
""fullscreenenter"",""5"",""32982""
","
","
","""event"",""trial"",""time""
""fullscreenenter"",""5"",""32982""
","
","","images/earth.jpg","","","","","","","","","","","","","","fixation","","","","","",""
"d3-instructions","121","491752","0.0-62.0","710","601","13","Female","true","false","false","true","""event"",""trial"",""time""
""fullscreenenter"",""5"",""32982""
","
","
","""event"",""trial"",""time""
""fullscreenenter"",""5"",""32982""
","
","","","","","","","","","","","","","","","","","","","","","",""
"audio-keyboard-response","122","495187","0.0-63.0","710","601","13","Female","true","false","false","true","""event"",""trial"",""time""
""fullscreenenter"",""5"",""32982""
","
","
","""event"",""trial"",""time""
""fullscreenenter"",""5"",""32982""
","
","3440","audio/instructions/treasure_feedback.wav","32","","","","","","","","","","","","","","","","","","",""
"d3-instructions","123","514862","0.0-64.0","710","601","13","Female","true","false","false","true","""event"",""trial"",""time""
""fullscreenenter"",""5"",""32982""
","
","
","""event"",""trial"",""time""
""fullscreenenter"",""5"",""32982""
","
","","","","","","","","","","","","","","","","","","","","","",""
"d3-instructions","124","528286","0.0-65.0","710","601","13","Female","true","false","false","true","""event"",""trial"",""time""
""fullscreenenter"",""5"",""32982""
","
","
","""event"",""trial"",""time""
""fullscreenenter"",""5"",""32982""
","
","","","","","","","","","","","","","","","","","","","","","",""
"d3-instructions","125","553151","0.0-66.0","710","601","13","Female","true","false","false","true","""event"",""trial"",""time""
""fullscreenenter"",""5"",""32982""
","
","
","""event"",""trial"",""time""
""fullscreenenter"",""5"",""32982""
","
","","","","","","","","","","","","","","","","","","","","","",""
"d3-instructions","126","568785","0.0-67.0","710","601","13","Female","true","false","false","true","""event"",""trial"",""time""
""fullscreenenter"",""5"",""32982""
","
","
","""event"",""trial"",""time""
""fullscreenenter"",""5"",""32982""
","
","","","","","","","","","","","","","","","","","","","","","",""
"d3-instructions","127","570749","0.0-68.0","710","601","13","Female","true","false","false","true","""event"",""trial"",""time""
""fullscreenenter"",""5"",""32982""
","
","
","""event"",""trial"",""time""
""fullscreenenter"",""5"",""32982""
","
","","","","","","","","","","","","","","","","","","","","","",""
"instructions-quiz","128","578455","0.0-69.0","710","601","13","Female","true","false","false","true","""event"",""trial"",""time""
""fullscreenenter"",""5"",""32982""
","
","
","""event"",""trial"",""time""
""fullscreenenter"",""5"",""32982""
","
","7702.100000143051","audio/quiz/Q1_Prompt.wav","","1","","","","","","","","","","","","","","","","","",""
"audio-keyboard-response","129","587630","0.0-70.0","710","601","13","Female","true","false","false","true","""event"",""trial"",""time""
""fullscreenenter"",""5"",""32982""
","
","
","""event"",""trial"",""time""
""fullscreenenter"",""5"",""32982""
","
","null","audio/quiz/Q1_Correct.wav","null","","","","","","","","","","","","","","","","","","",""
"instructions-quiz","130","591168","0.0-71.0","710","601","13","Female","true","false","false","true","""event"",""trial"",""time""
""fullscreenenter"",""5"",""32982""
","
","
","""event"",""trial"",""time""
""fullscreenenter"",""5"",""32982""
","
","3534.600000143051","audio/quiz/Q2_Prompt.wav","","0","","","","","","","","","","","","","","","","","",""
"audio-keyboard-response","131","592933","0.0-72.0","710","601","13","Female","true","false","false","true","""event"",""trial"",""time""
""fullscreenenter"",""5"",""32982""
","
","
","""event"",""trial"",""time""
""fullscreenenter"",""5"",""32982""
","
","1760","audio/quiz/Q2_Correct.wav","32","","","","","","","","","","","","","","","","","","",""
"instructions-quiz","132","596096","0.0-73.0","710","601","13","Female","true","false","false","true","""event"",""trial"",""time""
""fullscreenenter"",""5"",""32982""
","
","
","""event"",""trial"",""time""
""fullscreenenter"",""5"",""32982""
","
","3158.899999856949","audio/quiz/Q3_Prompt.wav","","1","","","","","","","","","","","","","","","","","",""
"audio-keyboard-response","133","596752","0.0-74.0","710","601","13","Female","true","false","false","true","""event"",""trial"",""time""
""fullscreenenter"",""5"",""32982""
","
","
","""event"",""trial"",""time""
""fullscreenenter"",""5"",""32982""
","
","648","audio/quiz/Q3_Correct.wav","32","","","","","","","","","","","","","","","","","","",""
"d3-instructions","134","628912","0.0-75.0","710","601","13","Female","true","false","false","true","""event"",""trial"",""time""
""fullscreenenter"",""5"",""32982""
","
","
","""event"",""trial"",""time""
""fullscreenenter"",""5"",""32982""
","
","","","","","","","","","","","","","","","","","","","","","",""
"d3-animate-choice","135","631642","0.0-76.0-0.0","710","601","13","Female","true","false","false","true","""event"",""trial"",""time""
""fullscreenenter"",""5"",""32982""
","
","
","""event"",""trial"",""time""
""fullscreenenter"",""5"",""32982""
","
","724.2999999523163","","49","","","3000","1","","","images/earth.jpg","images/rocket2","images/rocket1","null","images/rocket1","","1","real","null","1","","",""
"d3-animate-choice","136","635653","0.0-76.0-1.0","710","601","13","Female","true","false","false","true","""event"",""trial"",""time""
""fullscreenenter"",""5"",""32982""
","
","
","""event"",""trial"",""time""
""fullscreenenter"",""5"",""32982""
","
","689.7999999523163","","189","","","3000","1","1297,1729.3999998569489,2300.5999999046326,2708.5","189,189,189,48","images/redplanet1.jpg","images/alien2","images/alien1","images/rocket1","images/alien2","","2","real","false","","rare","0","2022-02-04 00:20:58.295"
"two-step-fixation","137","636658","0.0-76.0-2.0","710","601","13","Female","true","false","false","true","""event"",""trial"",""time""
""fullscreenenter"",""5"",""32982""
","
","
","""event"",""trial"",""time""
""fullscreenenter"",""5"",""32982""
","
","","images/earth.jpg","","","","","","","","","","","","","","fixation","","","","","",""
"d3-animate-choice","138","639916","0.0-76.0-0.1","710","601","13","Female","true","false","false","true","""event"",""trial"",""time""
""fullscreenenter"",""5"",""32982""
","
","
","""event"",""trial"",""time""
""fullscreenenter"",""5"",""32982""
","
","1242.5999999046326","","49","","","3000","1","","","images/earth.jpg","images/rocket2","images/rocket1","null","images/rocket1","","1","real","null","1","","",""
"d3-animate-choice","139","642277","0.0-76.0-1.1","710","601","13","Female","true","false","false","true","""event"",""trial"",""time""
""fullscreenenter"",""5"",""32982""
","
","
","""event"",""trial"",""time""
""fullscreenenter"",""5"",""32982""
","
","355.09999990463257","","49","","","3000","1","","","images/redplanet1.jpg","images/alien2","images/alien1","images/rocket1","images/alien1","images/nothing.png","2","real","false","1","rare","0","2022-02-04 00:21:04.919"
"two-step-fixation","140","643289","0.0-76.0-2.1","710","601","13","Female","true","false","false","true","""event"",""trial"",""time""
""fullscreenenter"",""5"",""32982""
","
","
","""event"",""trial"",""time""
""fullscreenenter"",""5"",""32982""
","
","","images/earth.jpg","","","","","","","","","","","","","","fixation","","","","","",""
"d3-animate-choice","141","646445","0.0-76.0-0.2","710","601","13","Female","true","false","false","true","""event"",""trial"",""time""
""fullscreenenter"",""5"",""32982""
","
","
","""event"",""trial"",""time""
""fullscreenenter"",""5"",""32982""
","
","1147.7000000476837","","49","","","3000","1","","","images/earth.jpg","images/rocket2","images/rocket1","null","images/rocket1","","1","real","null","1","","",""
"d3-animate-choice","142","648859","0.0-76.0-1.2","710","601","13","Female","true","false","false","true","""event"",""trial"",""time""
""fullscreenenter"",""5"",""32982""
","
","
","""event"",""trial"",""time""
""fullscreenenter"",""5"",""32982""
","
","400.7999999523163","","48","","","3000","1","","","images/purpleplanet.jpg","images/alien4","images/alien3","images/rocket1","images/alien4","images/t.png","2","real","true","2","common","1","2022-02-04 00:21:11.501"
"two-step-fixation","143","649872","0.0-76.0-2.2","710","601","13","Female","true","false","false","true","""event"",""trial"",""time""
""fullscreenenter"",""5"",""32982""
","
","
","""event"",""trial"",""time""
""fullscreenenter"",""5"",""32982""
","
","","images/earth.jpg","","","","","","","","","","","","","","fixation","","","","","",""
"d3-animate-choice","144","652269","0.0-76.0-0.3","710","601","13","Female","true","false","false","true","""event"",""trial"",""time""
""fullscreenenter"",""5"",""32982""
","
","
","""event"",""trial"",""time""
""fullscreenenter"",""5"",""32982""
","
","381.40000009536743","","49","","","3000","1","","","images/earth.jpg","images/rocket2","images/rocket1","null","images/rocket1","","1","real","null","1","","",""
"d3-animate-choice","145","654636","0.0-76.0-1.3","710","601","13","Female","true","false","false","true","""event"",""trial"",""time""
""fullscreenenter"",""5"",""32982""
","
","
","""event"",""trial"",""time""
""fullscreenenter"",""5"",""32982""
","
","354.40000009536743","","48","","","3000","1","","","images/redplanet1.jpg","images/alien2","images/alien1","images/rocket1","images/alien2","images/t.png","2","real","false","2","rare","1","2022-02-04 00:21:17.278"
"two-step-fixation","146","655642","0.0-76.0-2.3","710","601","13","Female","true","false","false","true","""event"",""trial"",""time""
""fullscreenenter"",""5"",""32982""
","
","
","""event"",""trial"",""time""
""fullscreenenter"",""5"",""32982""
","
","","images/earth.jpg","","","","","","","","","","","","","","fixation","","","","","",""
"d3-animate-choice","147","657935","0.0-76.0-0.4","710","601","13","Female","true","false","false","true","""event"",""trial"",""time""
""fullscreenenter"",""5"",""32982""
","
","
","""event"",""trial"",""time""
""fullscreenenter"",""5"",""32982""
","
","287.19999980926514","","49","","","3000","1","","","images/earth.jpg","images/rocket2","images/rocket1","null","images/rocket1","","1","real","null","1","","",""
"d3-animate-choice","148","660190","0.0-76.0-1.4","710","601","13","Female","true","false","false","true","""event"",""trial"",""time""
""fullscreenenter"",""5"",""32982""
","
","
","""event"",""trial"",""time""
""fullscreenenter"",""5"",""32982""
","
","241.89999985694885","","48","","","3000","1","","","images/purpleplanet.jpg","images/alien4","images/alien3","images/rocket1","images/alien4","images/t.png","2","real","true","2","common","1","2022-02-04 00:21:22.832"
"two-step-fixation","149","661201","0.0-76.0-2.4","710","601","13","Female","true","false","false","true","""event"",""trial"",""time""
""fullscreenenter"",""5"",""32982""
","
","
","""event"",""trial"",""time""
""fullscreenenter"",""5"",""32982""
","
","","images/earth.jpg","","","","","","","","","","","","","","fixation","","","","","",""
"d3-animate-choice","150","663649","0.0-76.0-0.5","710","601","13","Female","true","false","false","true","""event"",""trial"",""time""
""fullscreenenter"",""5"",""32982""
","
","
","""event"",""trial"",""time""
""fullscreenenter"",""5"",""32982""
","
","436.7999999523163","","49","","","3000","1","","","images/earth.jpg","images/rocket2","images/rocket1","null","images/rocket1","","1","real","null","1","","",""
"d3-animate-choice","151","666034","0.0-76.0-1.5","710","601","13","Female","true","false","false","true","""event"",""trial"",""time""
""fullscreenenter"",""5"",""32982""
","
","
","""event"",""trial"",""time""
""fullscreenenter"",""5"",""32982""
","
","374","","48","","","3000","1","","","images/purpleplanet.jpg","images/alien4","images/alien3","images/rocket1","images/alien4","images/t.png","2","real","true","2","common","1","2022-02-04 00:21:28.676"
"two-step-fixation","152","667040","0.0-76.0-2.5","710","601","13","Female","true","false","false","true","""event"",""trial"",""time""
""fullscreenenter"",""5"",""32982""
","
","
","""event"",""trial"",""time""
""fullscreenenter"",""5"",""32982""
","
","","images/earth.jpg","","","","","","","","","","","","","","fixation","","","","","",""
"d3-animate-choice","153","669475","0.0-76.0-0.6","710","601","13","Female","true","false","false","true","""event"",""trial"",""time""
""fullscreenenter"",""5"",""32982""
","
","
","""event"",""trial"",""time""
""fullscreenenter"",""5"",""32982""
","
","426.2999999523163","","49","","","3000","1","","","images/earth.jpg","images/rocket2","images/rocket1","null","images/rocket1","","1","real","null","1","","",""
"d3-animate-choice","154","671890","0.0-76.0-1.6","710","601","13","Female","true","false","false","true","""event"",""trial"",""time""
""fullscreenenter"",""5"",""32982""
","
","
","""event"",""trial"",""time""
""fullscreenenter"",""5"",""32982""
","
","405.7999999523163","","48","","","3000","1","","","images/redplanet1.jpg","images/alien2","images/alien1","images/rocket1","images/alien2","images/nothing.png","2","real","false","2","rare","0","2022-02-04 00:21:34.532"
"two-step-fixation","155","672899","0.0-76.0-2.6","710","601","13","Female","true","false","false","true","""event"",""trial"",""time""
""fullscreenenter"",""5"",""32982""
","
","
","""event"",""trial"",""time""
""fullscreenenter"",""5"",""32982""
","
","","images/earth.jpg","","","","","","","","","","","","","","fixation","","","","","",""
"d3-animate-choice","156","675271","0.0-76.0-0.7","710","601","13","Female","true","false","false","true","""event"",""trial"",""time""
""fullscreenenter"",""5"",""32982""
","
","
","""event"",""trial"",""time""
""fullscreenenter"",""5"",""32982""
","
","378.60000014305115","","49","","","3000","1","521.9000000953674","49","images/earth.jpg","images/rocket2","images/rocket1","null","images/rocket1","","1","real","null","1","","",""
"d3-animate-choice","157","678642","0.0-76.0-1.7","710","601","13","Female","true","false","false","true","""event"",""trial"",""time""
""fullscreenenter"",""5"",""32982""
","
","
","""event"",""trial"",""time""
""fullscreenenter"",""5"",""32982""
","
","1363.1000001430511","","48","","","3000","1","","","images/purpleplanet.jpg","images/alien4","images/alien3","images/rocket1","images/alien4","images/t.png","2","real","true","2","common","1","2022-02-04 00:21:41.284"
"two-step-fixation","158","679651","0.0-76.0-2.7","710","601","13","Female","true","false","false","true","""event"",""trial"",""time""
""fullscreenenter"",""5"",""32982""
","
","
","""event"",""trial"",""time""
""fullscreenenter"",""5"",""32982""
","
","","images/earth.jpg","","","","","","","","","","","","","","fixation","","","","","",""
"d3-animate-choice","159","682334","0.0-76.0-0.8","710","601","13","Female","true","false","false","true","""event"",""trial"",""time""
""fullscreenenter"",""5"",""32982""
","
","
","""event"",""trial"",""time""
""fullscreenenter"",""5"",""32982""
","
","670","","49","","","3000","1","","","images/earth.jpg","images/rocket2","images/rocket1","null","images/rocket1","","1","real","null","1","","",""
"d3-animate-choice","160","684991","0.0-76.0-1.8","710","601","13","Female","true","false","false","true","""event"",""trial"",""time""
""fullscreenenter"",""5"",""32982""
","
","
","""event"",""trial"",""time""
""fullscreenenter"",""5"",""32982""
","
","650.7999999523163","","48","","","3000","1","","","images/purpleplanet.jpg","images/alien4","images/alien3","images/rocket1","images/alien4","images/t.png","2","real","true","2","common","1","2022-02-04 00:21:47.633"
"two-step-fixation","161","686000","0.0-76.0-2.8","710","601","13","Female","true","false","false","true","""event"",""trial"",""time""
""fullscreenenter"",""5"",""32982""
","
","
","""event"",""trial"",""time""
""fullscreenenter"",""5"",""32982""
","
","","images/earth.jpg","","","","","","","","","","","","","","fixation","","","","","",""
"d3-animate-choice","162","688300","0.0-76.0-0.9","710","601","13","Female","true","false","false","true","""event"",""trial"",""time""
""fullscreenenter"",""5"",""32982""
","
","
","""event"",""trial"",""time""
""fullscreenenter"",""5"",""32982""
","
","294.69999980926514","","49","","","3000","1","","","images/earth.jpg","images/rocket2","images/rocket1","null","images/rocket1","","1","real","null","1","","",""
"d3-animate-choice","163","690853","0.0-76.0-1.9","710","601","13","Female","true","false","false","true","""event"",""trial"",""time""
""fullscreenenter"",""5"",""32982""
","
","
","""event"",""trial"",""time""
""fullscreenenter"",""5"",""32982""
","
","542.0999999046326","","48","","","3000","1","","","images/purpleplanet.jpg","images/alien4","images/alien3","images/rocket1","images/alien4","images/t.png","2","real","true","2","common","1","2022-02-04 00:21:53.495"
"two-step-fixation","164","691865","0.0-76.0-2.9","710","601","13","Female","true","false","false","true","""event"",""trial"",""time""
""fullscreenenter"",""5"",""32982""
","
","
","""event"",""trial"",""time""
""fullscreenenter"",""5"",""32982""
","
","","images/earth.jpg","","","","","","","","","","","","","","fixation","","","","","",""
"d3-animate-choice","165","694332","0.0-76.0-0.10","710","601","13","Female","true","false","false","true","""event"",""trial"",""time""
""fullscreenenter"",""5"",""32982""
","
","
","""event"",""trial"",""time""
""fullscreenenter"",""5"",""32982""
","
","461.10000014305115","","49","","","3000","1","","","images/earth.jpg","images/rocket2","images/rocket1","null","images/rocket1","","1","real","null","1","","",""
"d3-animate-choice","166","696861","0.0-76.0-1.10","710","601","13","Female","true","false","false","true","""event"",""trial"",""time""
""fullscreenenter"",""5"",""32982""
","
","
","""event"",""trial"",""time""
""fullscreenenter"",""5"",""32982""
","
","520.7999999523163","","48","","","3000","1","","","images/redplanet1.jpg","images/alien2","images/alien1","images/rocket1","images/alien2","images/nothing.png","2","real","false","2","rare","0","2022-02-04 00:21:59.503"
"two-step-fixation","167","697871","0.0-76.0-2.10","710","601","13","Female","true","false","false","true","""event"",""trial"",""time""
""fullscreenenter"",""5"",""32982""
","
","
","""event"",""trial"",""time""
""fullscreenenter"",""5"",""32982""
","
","","images/earth.jpg","","","","","","","","","","","","","","fixation","","","","","",""
"d3-animate-choice","168","699973","0.0-76.0-0.11","710","601","13","Female","true","false","false","true","""event"",""trial"",""time""
""fullscreenenter"",""5"",""32982""
","
","
","""event"",""trial"",""time""
""fullscreenenter"",""5"",""32982""
","
","95","","49","","","3000","1","","","images/earth.jpg","images/rocket2","images/rocket1","null","images/rocket1","","1","real","null","1","","",""
"d3-animate-choice","169","702722","0.0-76.0-1.11","710","601","13","Female","true","false","false","true","""event"",""trial"",""time""
""fullscreenenter"",""5"",""32982""
","
","
","""event"",""trial"",""time""
""fullscreenenter"",""5"",""32982""
","
","736.0999999046326","","48","","","3000","1","","","images/purpleplanet.jpg","images/alien4","images/alien3","images/rocket1","images/alien4","images/t.png","2","real","true","2","common","1","2022-02-04 00:22:05.364"
"two-step-fixation","170","703729","0.0-76.0-2.11","710","601","13","Female","true","false","false","true","""event"",""trial"",""time""
""fullscreenenter"",""5"",""32982""
","
","
","""event"",""trial"",""time""
""fullscreenenter"",""5"",""32982""
","
","","images/earth.jpg","","","","","","","","","","","","","","fixation","","","","","",""
"d3-animate-choice","171","706121","0.0-76.0-0.12","710","601","13","Female","true","false","false","true","""event"",""trial"",""time""
""fullscreenenter"",""5"",""32982""
","
","
","""event"",""trial"",""time""
""fullscreenenter"",""5"",""32982""
","
","380.19999980926514","","49","","","3000","1","","","images/earth.jpg","images/rocket2","images/rocket1","null","images/rocket1","","1","real","null","1","","",""
"d3-animate-choice","172","708869","0.0-76.0-1.12","710","601","13","Female","true","false","false","true","""event"",""trial"",""time""
""fullscreenenter"",""5"",""32982""
","
","
","""event"",""trial"",""time""
""fullscreenenter"",""5"",""32982""
","
","736.5","","48","","","3000","1","","","images/purpleplanet.jpg","images/alien4","images/alien3","images/rocket1","images/alien4","images/t.png","2","real","true","2","common","1","2022-02-04 00:22:11.511"
"two-step-fixation","173","709879","0.0-76.0-2.12","710","601","13","Female","true","false","false","true","""event"",""trial"",""time""
""fullscreenenter"",""5"",""32982""
","
","
","""event"",""trial"",""time""
""fullscreenenter"",""5"",""32982""
","
","","images/earth.jpg","","","","","","","","","","","","","","fixation","","","","","",""
"d3-animate-choice","174","712205","0.0-76.0-0.13","710","601","13","Female","true","false","false","true","""event"",""trial"",""time""
""fullscreenenter"",""5"",""32982""
","
","
","""event"",""trial"",""time""
""fullscreenenter"",""5"",""32982""
","
","320.2000000476837","","49","","","3000","1","","","images/earth.jpg","images/rocket2","images/rocket1","null","images/rocket1","","1","real","null","1","","",""
"d3-animate-choice","175","715052","0.0-76.0-1.13","710","601","13","Female","true","false","false","true","""event"",""trial"",""time""
""fullscreenenter"",""5"",""32982""
","
","
","""event"",""trial"",""time""
""fullscreenenter"",""5"",""32982""
","
","842.1999998092651","","48","","","3000","1","","","images/purpleplanet.jpg","images/alien4","images/alien3","images/rocket1","images/alien4","images/t.png","2","real","true","2","common","1","2022-02-04 00:22:17.695"
"two-step-fixation","176","716064","0.0-76.0-2.13","710","601","13","Female","true","false","false","true","""event"",""trial"",""time""
""fullscreenenter"",""5"",""32982""
","
","
","""event"",""trial"",""time""
""fullscreenenter"",""5"",""32982""
","
","","images/earth.jpg","","","","","","","","","","","","","","fixation","","","","","",""
"d3-animate-choice","177","718532","0.0-76.0-0.14","710","601","13","Female","true","false","false","true","""event"",""trial"",""time""
""fullscreenenter"",""5"",""32982""
","
","
","""event"",""trial"",""time""
""fullscreenenter"",""5"",""32982""
","
","458.59999990463257","","49","","","3000","1","","","images/earth.jpg","images/rocket2","images/rocket1","null","images/rocket1","","1","real","null","1","","",""
"d3-animate-choice","178","720979","0.0-76.0-1.14","710","601","13","Female","true","false","false","true","""event"",""trial"",""time""
""fullscreenenter"",""5"",""32982""
","
","
","""event"",""trial"",""time""
""fullscreenenter"",""5"",""32982""
","
","435","","48","","","3000","1","","","images/purpleplanet.jpg","images/alien4","images/alien3","images/rocket1","images/alien4","images/t.png","2","real","true","2","common","1","2022-02-04 00:22:23.621"
"two-step-fixation","179","721985","0.0-76.0-2.14","710","601","13","Female","true","false","false","true","""event"",""trial"",""time""
""fullscreenenter"",""5"",""32982""
","
","
","""event"",""trial"",""time""
""fullscreenenter"",""5"",""32982""
","
","","images/earth.jpg","","","","","","","","","","","","","","fixation","","","","","",""
"d3-animate-choice","180","724634","0.0-76.0-0.15","710","601","13","Female","true","false","false","true","""event"",""trial"",""time""
""fullscreenenter"",""5"",""32982""
","
","
","""event"",""trial"",""time""
""fullscreenenter"",""5"",""32982""
","
","640.0999999046326","","49","","","3000","1","","","images/earth.jpg","images/rocket2","images/rocket1","null","images/rocket1","","1","real","null","1","","",""
"d3-animate-choice","181","727393","0.0-76.0-1.15","710","601","13","Female","true","false","false","true","""event"",""trial"",""time""
""fullscreenenter"",""5"",""32982""
","
","
","""event"",""trial"",""time""
""fullscreenenter"",""5"",""32982""
","
","747.0999999046326","","48","","","3000","1","","","images/purpleplanet.jpg","images/alien4","images/alien3","images/rocket1","images/alien4","images/nothing.png","2","real","true","2","common","0","2022-02-04 00:22:30.035"
"two-step-fixation","182","728400","0.0-76.0-2.15","710","601","13","Female","true","false","false","true","""event"",""trial"",""time""
""fullscreenenter"",""5"",""32982""
","
","
","""event"",""trial"",""time""
""fullscreenenter"",""5"",""32982""
","
","","images/earth.jpg","","","","","","","","","","","","","","fixation","","","","","",""
"d3-animate-choice","183","731014","0.0-76.0-0.16","710","601","13","Female","true","false","false","true","""event"",""trial"",""time""
""fullscreenenter"",""5"",""32982""
","
","
","""event"",""trial"",""time""
""fullscreenenter"",""5"",""32982""
","
","601.5999999046326","","49","","","3000","1","","","images/earth.jpg","images/rocket2","images/rocket1","null","images/rocket1","","1","real","null","1","","",""
"d3-animate-choice","184","733582","0.0-76.0-1.16","710","601","13","Female","true","false","false","true","""event"",""trial"",""time""
""fullscreenenter"",""5"",""32982""
""blur"",""185"",""733754""
","""event"",""trial"",""time""
""blur"",""185"",""733754""
","
","""event"",""trial"",""time""
""fullscreenenter"",""5"",""32982""
","
","559","","48","","","3000","1","1804.5999999046326","91","images/purpleplanet.jpg","images/alien4","images/alien3","images/rocket1","images/alien4","images/nothing.png","2","real","true","2","common","0","2022-02-04 00:22:36.224"
"two-step-fixation","185","734589","0.0-76.0-2.16","710","601","13","Female","true","false","false","true","""event"",""trial"",""time""
""fullscreenenter"",""5"",""32982""
""blur"",""185"",""733754""
""focus"",""186"",""737545""
","""event"",""trial"",""time""
""blur"",""185"",""733754""
","""event"",""trial"",""time""
""focus"",""186"",""737545""
","""event"",""trial"",""time""
""fullscreenenter"",""5"",""32982""
","
","","images/earth.jpg","","","","","","","","","","","","","","fixation","","","","","",""
"d3-animate-choice","186","738587","0.0-76.0-0.17","710","601","13","Female","true","false","false","true","""event"",""trial"",""time""
""fullscreenenter"",""5"",""32982""
""blur"",""185"",""733754""
""focus"",""186"",""737545""
","""event"",""trial"",""time""
""blur"",""185"",""733754""
","""event"",""trial"",""time""
""focus"",""186"",""737545""
","""event"",""trial"",""time""
""fullscreenenter"",""5"",""32982""
","
","3347.7999999523163","","49","","","3000","0","","","images/earth.jpg","images/rocket2","images/rocket1","null","","","1","real","null","1","","",""
"d3-animate-choice","187","739600","0.0-76.0-1.17","710","601","13","Female","true","false","false","true","""event"",""trial"",""time""
""fullscreenenter"",""5"",""32982""
""blur"",""185"",""733754""
""focus"",""186"",""737545""
","""event"",""trial"",""time""
""blur"",""185"",""733754""
","""event"",""trial"",""time""
""focus"",""186"",""737545""
","""event"",""trial"",""time""
""fullscreenenter"",""5"",""32982""
","
","null","","null","","","0","0","","","images/earth.jpg","images/rocket2","images/rocket1","null","","","2","real","null","","","0","2022-02-04 00:22:42.242"
"two-step-fixation","188","740611","0.0-76.0-2.17","710","601","13","Female","true","false","false","true","""event"",""trial"",""time""
""fullscreenenter"",""5"",""32982""
""blur"",""185"",""733754""
""focus"",""186"",""737545""
","""event"",""trial"",""time""
""blur"",""185"",""733754""
","""event"",""trial"",""time""
""focus"",""186"",""737545""
","""event"",""trial"",""time""
""fullscreenenter"",""5"",""32982""
","
","","images/earth.jpg","","","","","","","","","","","","","","fixation","","","","","",""
"d3-animate-choice","189","743647","0.0-76.0-0.18","710","601","13","Female","true","false","false","true","""event"",""trial"",""time""
""fullscreenenter"",""5"",""32982""
""blur"",""185"",""733754""
""focus"",""186"",""737545""
","""event"",""trial"",""time""
""blur"",""185"",""733754""
","""event"",""trial"",""time""
""focus"",""186"",""737545""
","""event"",""trial"",""time""
""fullscreenenter"",""5"",""32982""
","
","1023.8999998569489","","49","","","3000","1","","","images/earth.jpg","images/rocket2","images/rocket1","null","images/rocket1","","1","real","null","1","","",""
"d3-animate-choice","190","746677","0.0-76.0-1.18","710","601","13","Female","true","false","false","true","""event"",""trial"",""time""
""fullscreenenter"",""5"",""32982""
""blur"",""185"",""733754""
""focus"",""186"",""737545""
","""event"",""trial"",""time""
""blur"",""185"",""733754""
","""event"",""trial"",""time""
""focus"",""186"",""737545""
","""event"",""trial"",""time""
""fullscreenenter"",""5"",""32982""
","
","1011.1000001430511","","48","","","3000","1","","","images/purpleplanet.jpg","images/alien4","images/alien3","images/rocket1","images/alien4","images/t.png","2","real","true","2","common","1","2022-02-04 00:22:49.319"
"two-step-fixation","191","747683","0.0-76.0-2.18","710","601","13","Female","true","false","false","true","""event"",""trial"",""time""
""fullscreenenter"",""5"",""32982""
""blur"",""185"",""733754""
""focus"",""186"",""737545""
","""event"",""trial"",""time""
""blur"",""185"",""733754""
","""event"",""trial"",""time""
""focus"",""186"",""737545""
","""event"",""trial"",""time""
""fullscreenenter"",""5"",""32982""
","
","","images/earth.jpg","","","","","","","","","","","","","","fixation","","","","","",""
"d3-animate-choice","192","750141","0.0-76.0-0.19","710","601","13","Female","true","false","false","true","""event"",""trial"",""time""
""fullscreenenter"",""5"",""32982""
""blur"",""185"",""733754""
""focus"",""186"",""737545""
","""event"",""trial"",""time""
""blur"",""185"",""733754""
","""event"",""trial"",""time""
""focus"",""186"",""737545""
","""event"",""trial"",""time""
""fullscreenenter"",""5"",""32982""
","
","445.5","","49","","","3000","1","","","images/earth.jpg","images/rocket2","images/rocket1","null","images/rocket1","","1","real","null","1","","",""
"d3-animate-choice","193","752873","0.0-76.0-1.19","710","601","13","Female","true","false","false","true","""event"",""trial"",""time""
""fullscreenenter"",""5"",""32982""
""blur"",""185"",""733754""
""focus"",""186"",""737545""
","""event"",""trial"",""time""
""blur"",""185"",""733754""
","""event"",""trial"",""time""
""focus"",""186"",""737545""
","""event"",""trial"",""time""
""fullscreenenter"",""5"",""32982""
","
","725","","48","","","3000","1","","","images/purpleplanet.jpg","images/alien4","images/alien3","images/rocket1","images/alien4","images/t.png","2","real","true","2","common","1","2022-02-04 00:22:55.516"
"two-step-fixation","194","753884","0.0-76.0-2.19","710","601","13","Female","true","false","false","true","""event"",""trial"",""time""
""fullscreenenter"",""5"",""32982""
""blur"",""185"",""733754""
""focus"",""186"",""737545""
","""event"",""trial"",""time""
""blur"",""185"",""733754""
","""event"",""trial"",""time""
""focus"",""186"",""737545""
","""event"",""trial"",""time""
""fullscreenenter"",""5"",""32982""
","
","","images/earth.jpg","","","","","","","","","","","","","","fixation","","","","","",""
"d3-animate-choice","195","756408","0.0-76.0-0.20","710","601","13","Female","true","false","false","true","""event"",""trial"",""time""
""fullscreenenter"",""5"",""32982""
""blur"",""185"",""733754""
""focus"",""186"",""737545""
","""event"",""trial"",""time""
""blur"",""185"",""733754""
","""event"",""trial"",""time""
""focus"",""186"",""737545""
","""event"",""trial"",""time""
""fullscreenenter"",""5"",""32982""
","
","510.90000009536743","","49","","","3000","1","","","images/earth.jpg","images/rocket2","images/rocket1","null","images/rocket1","","1","real","null","1","","",""
"d3-animate-choice","196","758908","0.0-76.0-1.20","710","601","13","Female","true","false","false","true","""event"",""trial"",""time""
""fullscreenenter"",""5"",""32982""
""blur"",""185"",""733754""
""focus"",""186"",""737545""
","""event"",""trial"",""time""
""blur"",""185"",""733754""
","""event"",""trial"",""time""
""focus"",""186"",""737545""
","""event"",""trial"",""time""
""fullscreenenter"",""5"",""32982""
","
","489.90000009536743","","48","","","3000","1","","","images/purpleplanet.jpg","images/alien4","images/alien3","images/rocket1","images/alien4","images/t.png","2","real","true","2","common","1","2022-02-04 00:23:01.550"
"two-step-fixation","197","759920","0.0-76.0-2.20","710","601","13","Female","true","false","false","true","""event"",""trial"",""time""
""fullscreenenter"",""5"",""32982""
""blur"",""185"",""733754""
""focus"",""186"",""737545""
","""event"",""trial"",""time""
""blur"",""185"",""733754""
","""event"",""trial"",""time""
""focus"",""186"",""737545""
","""event"",""trial"",""time""
""fullscreenenter"",""5"",""32982""
","
","","images/earth.jpg","","","","","","","","","","","","","","fixation","","","","","",""
"d3-animate-choice","198","762255","0.0-76.0-0.21","710","601","13","Female","true","false","false","true","""event"",""trial"",""time""
""fullscreenenter"",""5"",""32982""
""blur"",""185"",""733754""
""focus"",""186"",""737545""
","""event"",""trial"",""time""
""blur"",""185"",""733754""
","""event"",""trial"",""time""
""focus"",""186"",""737545""
","""event"",""trial"",""time""
""fullscreenenter"",""5"",""32982""
","
","329.2000000476837","","49","","","3000","1","","","images/earth.jpg","images/rocket2","images/rocket1","null","images/rocket1","","1","real","null","1","","",""
"d3-animate-choice","199","764672","0.0-76.0-1.21","710","601","13","Female","true","false","false","true","""event"",""trial"",""time""
""fullscreenenter"",""5"",""32982""
""blur"",""185"",""733754""
""focus"",""186"",""737545""
","""event"",""trial"",""time""
""blur"",""185"",""733754""
","""event"",""trial"",""time""
""focus"",""186"",""737545""
","""event"",""trial"",""time""
""fullscreenenter"",""5"",""32982""
","
","409.40000009536743","","48","","","3000","1","","","images/purpleplanet.jpg","images/alien4","images/alien3","images/rocket1","images/alien4","images/nothing.png","2","real","true","2","common","0","2022-02-04 00:23:07.314"
"two-step-fixation","200","765681","0.0-76.0-2.21","710","601","13","Female","true","false","false","true","""event"",""trial"",""time""
""fullscreenenter"",""5"",""32982""
""blur"",""185"",""733754""
""focus"",""186"",""737545""
","""event"",""trial"",""time""
""blur"",""185"",""733754""
","""event"",""trial"",""time""
""focus"",""186"",""737545""
","""event"",""trial"",""time""
""fullscreenenter"",""5"",""32982""
","
","","images/earth.jpg","","","","","","","","","","","","","","fixation","","","","","",""
"d3-animate-choice","201","768077","0.0-76.0-0.22","710","601","13","Female","true","false","false","true","""event"",""trial"",""time""
""fullscreenenter"",""5"",""32982""
""blur"",""185"",""733754""
""focus"",""186"",""737545""
","""event"",""trial"",""time""
""blur"",""185"",""733754""
","""event"",""trial"",""time""
""focus"",""186"",""737545""
","""event"",""trial"",""time""
""fullscreenenter"",""5"",""32982""
","
","389.2999999523163","","49","","","3000","1","","","images/earth.jpg","images/rocket2","images/rocket1","null","images/rocket1","","1","real","null","1","","",""
"d3-animate-choice","202","770526","0.0-76.0-1.22","710","601","13","Female","true","false","false","true","""event"",""trial"",""time""
""fullscreenenter"",""5"",""32982""
""blur"",""185"",""733754""
""focus"",""186"",""737545""
","""event"",""trial"",""time""
""blur"",""185"",""733754""
","""event"",""trial"",""time""
""focus"",""186"",""737545""
","""event"",""trial"",""time""
""fullscreenenter"",""5"",""32982""
","
","440","","48","","","3000","1","","","images/purpleplanet.jpg","images/alien4","images/alien3","images/rocket1","images/alien4","images/t.png","2","real","true","2","common","1","2022-02-04 00:23:13.168"
"two-step-fixation","203","771535","0.0-76.0-2.22","710","601","13","Female","true","false","false","true","""event"",""trial"",""time""
""fullscreenenter"",""5"",""32982""
""blur"",""185"",""733754""
""focus"",""186"",""737545""
","""event"",""trial"",""time""
""blur"",""185"",""733754""
","""event"",""trial"",""time""
""focus"",""186"",""737545""
","""event"",""trial"",""time""
""fullscreenenter"",""5"",""32982""
","
","","images/earth.jpg","","","","","","","","","","","","","","fixation","","","","","",""
"d3-animate-choice","204","773957","0.0-76.0-0.23","710","601","13","Female","true","false","false","true","""event"",""trial"",""time""
""fullscreenenter"",""5"",""32982""
""blur"",""185"",""733754""
""focus"",""186"",""737545""
","""event"",""trial"",""time""
""blur"",""185"",""733754""
","""event"",""trial"",""time""
""focus"",""186"",""737545""
","""event"",""trial"",""time""
""fullscreenenter"",""5"",""32982""
","
","411.59999990463257","","49","","","3000","1","","","images/earth.jpg","images/rocket2","images/rocket1","null","images/rocket1","","1","real","null","1","","",""
"d3-animate-choice","205","776327","0.0-76.0-1.23","710","601","13","Female","true","false","false","true","""event"",""trial"",""time""
""fullscreenenter"",""5"",""32982""
""blur"",""185"",""733754""
""focus"",""186"",""737545""
","""event"",""trial"",""time""
""blur"",""185"",""733754""
","""event"",""trial"",""time""
""focus"",""186"",""737545""
","""event"",""trial"",""time""
""fullscreenenter"",""5"",""32982""
","
","360.2999999523163","","48","","","3000","1","","","images/purpleplanet.jpg","images/alien4","images/alien3","images/rocket1","images/alien4","images/t.png","2","real","true","2","common","1","2022-02-04 00:23:18.969"
"two-step-fixation","206","777331","0.0-76.0-2.23","710","601","13","Female","true","false","false","true","""event"",""trial"",""time""
""fullscreenenter"",""5"",""32982""
""blur"",""185"",""733754""
""focus"",""186"",""737545""
","""event"",""trial"",""time""
""blur"",""185"",""733754""
","""event"",""trial"",""time""
""focus"",""186"",""737545""
","""event"",""trial"",""time""
""fullscreenenter"",""5"",""32982""
","
","","images/earth.jpg","","","","","","","","","","","","","","fixation","","","","","",""
"d3-animate-choice","207","779843","0.0-76.0-0.24","710","601","13","Female","true","false","false","true","""event"",""trial"",""time""
""fullscreenenter"",""5"",""32982""
""blur"",""185"",""733754""
""focus"",""186"",""737545""
","""event"",""trial"",""time""
""blur"",""185"",""733754""
","""event"",""trial"",""time""
""focus"",""186"",""737545""
","""event"",""trial"",""time""
""fullscreenenter"",""5"",""32982""
","
","507.7999999523163","","49","","","3000","1","","","images/earth.jpg","images/rocket2","images/rocket1","null","images/rocket1","","1","real","null","1","","",""
"d3-animate-choice","208","782743","0.0-76.0-1.24","710","601","13","Female","true","false","false","true","""event"",""trial"",""time""
""fullscreenenter"",""5"",""32982""
""blur"",""185"",""733754""
""focus"",""186"",""737545""
","""event"",""trial"",""time""
""blur"",""185"",""733754""
","""event"",""trial"",""time""
""focus"",""186"",""737545""
","""event"",""trial"",""time""
""fullscreenenter"",""5"",""32982""
","
","888.2000000476837","","49","","","3000","1","","","images/redplanet1.jpg","images/alien2","images/alien1","images/rocket1","images/alien1","images/nothing.png","2","real","false","1","rare","0","2022-02-04 00:23:25.385"
"two-step-fixation","209","783752","0.0-76.0-2.24","710","601","13","Female","true","false","false","true","""event"",""trial"",""time""
""fullscreenenter"",""5"",""32982""
""blur"",""185"",""733754""
""focus"",""186"",""737545""
","""event"",""trial"",""time""
""blur"",""185"",""733754""
","""event"",""trial"",""time""
""focus"",""186"",""737545""
","""event"",""trial"",""time""
""fullscreenenter"",""5"",""32982""
","
","","images/earth.jpg","","","","","","","","","","","","","","fixation","","","","","",""
"d3-animate-choice","210","786027","0.0-76.0-0.25","710","601","13","Female","true","false","false","true","""event"",""trial"",""time""
""fullscreenenter"",""5"",""32982""
""blur"",""185"",""733754""
""focus"",""186"",""737545""
","""event"",""trial"",""time""
""blur"",""185"",""733754""
","""event"",""trial"",""time""
""focus"",""186"",""737545""
","""event"",""trial"",""time""
""fullscreenenter"",""5"",""32982""
","
","264.7999999523163","","49","","","3000","1","","","images/earth.jpg","images/rocket2","images/rocket1","null","images/rocket1","","1","real","null","1","","",""
"d3-animate-choice","211","788518","0.0-76.0-1.25","710","601","13","Female","true","false","false","true","""event"",""trial"",""time""
""fullscreenenter"",""5"",""32982""
""blur"",""185"",""733754""
""focus"",""186"",""737545""
","""event"",""trial"",""time""
""blur"",""185"",""733754""
","""event"",""trial"",""time""
""focus"",""186"",""737545""
","""event"",""trial"",""time""
""fullscreenenter"",""5"",""32982""
","
","477.19999980926514","","48","","","3000","1","","","images/purpleplanet.jpg","images/alien4","images/alien3","images/rocket1","images/alien4","images/t.png","2","real","true","2","common","1","2022-02-04 00:23:31.160"
"two-step-fixation","212","789538","0.0-76.0-2.25","710","601","13","Female","true","false","false","true","""event"",""trial"",""time""
""fullscreenenter"",""5"",""32982""
""blur"",""185"",""733754""
""focus"",""186"",""737545""
","""event"",""trial"",""time""
""blur"",""185"",""733754""
","""event"",""trial"",""time""
""focus"",""186"",""737545""
","""event"",""trial"",""time""
""fullscreenenter"",""5"",""32982""
","
","","images/earth.jpg","","","","","","","","","","","","","","fixation","","","","","",""
"d3-animate-choice","213","791789","0.0-76.0-0.26","710","601","13","Female","true","false","false","true","""event"",""trial"",""time""
""fullscreenenter"",""5"",""32982""
""blur"",""185"",""733754""
""focus"",""186"",""737545""
","""event"",""trial"",""time""
""blur"",""185"",""733754""
","""event"",""trial"",""time""
""focus"",""186"",""737545""
","""event"",""trial"",""time""
""fullscreenenter"",""5"",""32982""
","
","239","","49","","","3000","1","","","images/earth.jpg","images/rocket2","images/rocket1","null","images/rocket1","","1","real","null","1","","",""
"d3-animate-choice","214","794193","0.0-76.0-1.26","710","601","13","Female","true","false","false","true","""event"",""trial"",""time""
""fullscreenenter"",""5"",""32982""
""blur"",""185"",""733754""
""focus"",""186"",""737545""
","""event"",""trial"",""time""
""blur"",""185"",""733754""
","""event"",""trial"",""time""
""focus"",""186"",""737545""
","""event"",""trial"",""time""
""fullscreenenter"",""5"",""32982""
","
","394.2999999523163","","48","","","3000","1","","","images/purpleplanet.jpg","images/alien4","images/alien3","images/rocket1","images/alien4","images/t.png","2","real","true","2","common","1","2022-02-04 00:23:36.838"
"two-step-fixation","215","795195","0.0-76.0-2.26","710","601","13","Female","true","false","false","true","""event"",""trial"",""time""
""fullscreenenter"",""5"",""32982""
""blur"",""185"",""733754""
""focus"",""186"",""737545""
","""event"",""trial"",""time""
""blur"",""185"",""733754""
","""event"",""trial"",""time""
""focus"",""186"",""737545""
","""event"",""trial"",""time""
""fullscreenenter"",""5"",""32982""
","
","","images/earth.jpg","","","","","","","","","","","","","","fixation","","","","","",""
"d3-animate-choice","216","797507","0.0-76.0-0.27","710","601","13","Female","true","false","false","true","""event"",""trial"",""time""
""fullscreenenter"",""5"",""32982""
""blur"",""185"",""733754""
""focus"",""186"",""737545""
","""event"",""trial"",""time""
""blur"",""185"",""733754""
","""event"",""trial"",""time""
""focus"",""186"",""737545""
","""event"",""trial"",""time""
""fullscreenenter"",""5"",""32982""
","
","298.59999990463257","","49","","","3000","1","","","images/earth.jpg","images/rocket2","images/rocket1","null","images/rocket1","","1","real","null","1","","",""
"d3-animate-choice","217","800129","0.0-76.0-1.27","710","601","13","Female","true","false","false","true","""event"",""trial"",""time""
""fullscreenenter"",""5"",""32982""
""blur"",""185"",""733754""
""focus"",""186"",""737545""
","""event"",""trial"",""time""
""blur"",""185"",""733754""
","""event"",""trial"",""time""
""focus"",""186"",""737545""
","""event"",""trial"",""time""
""fullscreenenter"",""5"",""32982""
","
","614.0999999046326","","48","","","3000","1","","","images/redplanet1.jpg","images/alien2","images/alien1","images/rocket1","images/alien2","images/t.png","2","real","false","2","rare","1","2022-02-04 00:23:42.771"
"two-step-fixation","218","801135","0.0-76.0-2.27","710","601","13","Female","true","false","false","true","""event"",""trial"",""time""
""fullscreenenter"",""5"",""32982""
""blur"",""185"",""733754""
""focus"",""186"",""737545""
","""event"",""trial"",""time""
""blur"",""185"",""733754""
","""event"",""trial"",""time""
""focus"",""186"",""737545""
","""event"",""trial"",""time""
""fullscreenenter"",""5"",""32982""
","
","","images/earth.jpg","","","","","","","","","","","","","","fixation","","","","","",""
"d3-animate-choice","219","803520","0.0-76.0-0.28","710","601","13","Female","true","false","false","true","""event"",""trial"",""time""
""fullscreenenter"",""5"",""32982""
""blur"",""185"",""733754""
""focus"",""186"",""737545""
","""event"",""trial"",""time""
""blur"",""185"",""733754""
","""event"",""trial"",""time""
""focus"",""186"",""737545""
","""event"",""trial"",""time""
""fullscreenenter"",""5"",""32982""
","
","375.09999990463257","","49","","","3000","1","","","images/earth.jpg","images/rocket2","images/rocket1","null","images/rocket1","","1","real","null","1","","",""
"d3-animate-choice","220","805977","0.0-76.0-1.28","710","601","13","Female","true","false","false","true","""event"",""trial"",""time""
""fullscreenenter"",""5"",""32982""
""blur"",""185"",""733754""
""focus"",""186"",""737545""
","""event"",""trial"",""time""
""blur"",""185"",""733754""
","""event"",""trial"",""time""
""focus"",""186"",""737545""
","""event"",""trial"",""time""
""fullscreenenter"",""5"",""32982""
","
","444","","48","","","3000","1","","","images/redplanet1.jpg","images/alien2","images/alien1","images/rocket1","images/alien2","images/nothing.png","2","real","false","2","rare","0","2022-02-04 00:23:48.619"
"two-step-fixation","221","806983","0.0-76.0-2.28","710","601","13","Female","true","false","false","true","""event"",""trial"",""time""
""fullscreenenter"",""5"",""32982""
""blur"",""185"",""733754""
""focus"",""186"",""737545""
","""event"",""trial"",""time""
""blur"",""185"",""733754""
","""event"",""trial"",""time""
""focus"",""186"",""737545""
","""event"",""trial"",""time""
""fullscreenenter"",""5"",""32982""
","
","","images/earth.jpg","","","","","","","","","","","","","","fixation","","","","","",""
"d3-animate-choice","222","809288","0.0-76.0-0.29","710","601","13","Female","true","false","false","true","""event"",""trial"",""time""
""fullscreenenter"",""5"",""32982""
""blur"",""185"",""733754""
""focus"",""186"",""737545""
","""event"",""trial"",""time""
""blur"",""185"",""733754""
","""event"",""trial"",""time""
""focus"",""186"",""737545""
","""event"",""trial"",""time""
""fullscreenenter"",""5"",""32982""
","
","293","","49","","","3000","1","","","images/earth.jpg","images/rocket2","images/rocket1","null","images/rocket1","","1","real","null","1","","",""
"d3-animate-choice","223","811920","0.0-76.0-1.29","710","601","13","Female","true","false","false","true","""event"",""trial"",""time""
""fullscreenenter"",""5"",""32982""
""blur"",""185"",""733754""
""focus"",""186"",""737545""
","""event"",""trial"",""time""
""blur"",""185"",""733754""
","""event"",""trial"",""time""
""focus"",""186"",""737545""
","""event"",""trial"",""time""
""fullscreenenter"",""5"",""32982""
","
","621.5999999046326","","48","","","3000","1","","","images/redplanet1.jpg","images/alien2","images/alien1","images/rocket1","images/alien2","images/t.png","2","real","false","2","rare","1","2022-02-04 00:23:54.562"
"two-step-fixation","224","812927","0.0-76.0-2.29","710","601","13","Female","true","false","false","true","""event"",""trial"",""time""
""fullscreenenter"",""5"",""32982""
""blur"",""185"",""733754""
""focus"",""186"",""737545""
","""event"",""trial"",""time""
""blur"",""185"",""733754""
","""event"",""trial"",""time""
""focus"",""186"",""737545""
","""event"",""trial"",""time""
""fullscreenenter"",""5"",""32982""
","
","","images/earth.jpg","","","","","","","","","","","","","","fixation","","","","","",""
"d3-animate-choice","225","815526","0.0-76.0-0.30","710","601","13","Female","true","false","false","true","""event"",""trial"",""time""
""fullscreenenter"",""5"",""32982""
""blur"",""185"",""733754""
""focus"",""186"",""737545""
","""event"",""trial"",""time""
""blur"",""185"",""733754""
","""event"",""trial"",""time""
""focus"",""186"",""737545""
","""event"",""trial"",""time""
""fullscreenenter"",""5"",""32982""
","
","594.4000000953674","","49","","","3000","1","","","images/earth.jpg","images/rocket2","images/rocket1","null","images/rocket1","","1","real","null","1","","",""
"d3-animate-choice","226","817992","0.0-76.0-1.30","710","601","13","Female","true","false","false","true","""event"",""trial"",""time""
""fullscreenenter"",""5"",""32982""
""blur"",""185"",""733754""
""focus"",""186"",""737545""
","""event"",""trial"",""time""
""blur"",""185"",""733754""
","""event"",""trial"",""time""
""focus"",""186"",""737545""
","""event"",""trial"",""time""
""fullscreenenter"",""5"",""32982""
","
","454.89999985694885","","48","","","3000","1","","","images/purpleplanet.jpg","images/alien4","images/alien3","images/rocket1","images/alien4","images/nothing.png","2","real","true","2","common","0","2022-02-04 00:24:00.635"
"two-step-fixation","227","819001","0.0-76.0-2.30","710","601","13","Female","true","false","false","true","""event"",""trial"",""time""
""fullscreenenter"",""5"",""32982""
""blur"",""185"",""733754""
""focus"",""186"",""737545""
","""event"",""trial"",""time""
""blur"",""185"",""733754""
","""event"",""trial"",""time""
""focus"",""186"",""737545""
","""event"",""trial"",""time""
""fullscreenenter"",""5"",""32982""
","
","","images/earth.jpg","","","","","","","","","","","","","","fixation","","","","","",""
"d3-animate-choice","228","821375","0.0-76.0-0.31","710","601","13","Female","true","false","false","true","""event"",""trial"",""time""
""fullscreenenter"",""5"",""32982""
""blur"",""185"",""733754""
""focus"",""186"",""737545""
","""event"",""trial"",""time""
""blur"",""185"",""733754""
","""event"",""trial"",""time""
""focus"",""186"",""737545""
","""event"",""trial"",""time""
