"trial_type","trial_index","time_elapsed","internal_node_id","participant_id","subject_id","age","gender","rocket_sides","red_planet_first_rocket","red_display_order","purple_display_order","interactions","blur_events","focus_events","fullscreenenter_events","fullscreenexit_events","rt","stimulus","key_press","button_pressed","success","duration","valid_pressed","rts","keys","planet_text","right_text","left_text","center_text","chosen_text","reward_text","trial_stage","practice_trial","transition_type","choice","transition","reward","timestamp"
"pavlovia","0","6","0.0-0.0","404","5525","16","Female","false","true","true","false","
","
","
","
","
","","","","","","","","","","","","","","","","","","","","","",""
"html-keyboard-response","1","3032","0.0-1.0","404","5525","16","Female","false","true","true","false","
","
","
","
","
","3024.899999976158","Welcome! Press the space bar to begin.","32","","","","","","","","","","","","","","","","","","",""
"audio-keyboard-response","2","7223","0.0-2.0","404","5525","16","Female","false","true","true","false","
","
","
","
","
","4058","audio/beep_loop.wav","32","","","","","","","","","","","","","","","","","","",""
"audio-button-response","3","11089","0.0-3.0","404","5525","16","Female","false","true","true","false","
","
","
","
","
","NaN","audio/fish.mp3","","1","","","","","","","","","","","","","","","","","",""
"audio-button-response","4","14071","0.0-4.0","404","5525","16","Female","false","true","true","false","""event"",""trial"",""time""
""fullscreenenter"",""5"",""16864""
","
","
","""event"",""trial"",""time""
""fullscreenenter"",""5"",""16864""
","
","NaN","audio/tiger.mp3","","4","","","","","","","","","","","","","","","","","",""
"fullscreen","5","17830","0.0-5.0","404","5525","16","Female","false","true","true","false","""event"",""trial"",""time""
""fullscreenenter"",""5"",""16864""
","
","
","""event"",""trial"",""time""
""fullscreenenter"",""5"",""16864""
","
","","","","","true","","","","","","","","","","","","","","","","",""
"d3-instructions","6","25957","0.0-6.0","404","5525","16","Female","false","true","true","false","""event"",""trial"",""time""
""fullscreenenter"",""5"",""16864""
","
","
","""event"",""trial"",""time""
""fullscreenenter"",""5"",""16864""
","
","","","","","","","","","","","","","","","","","","","","","",""
"d3-instructions","7","33791","0.0-7.0","404","5525","16","Female","false","true","true","false","""event"",""trial"",""time""
""fullscreenenter"",""5"",""16864""
","
","
","""event"",""trial"",""time""
""fullscreenenter"",""5"",""16864""
","
","","","","","","","","","","","","","","","","","","","","","",""
"d3-instructions","8","35591","0.0-8.0","404","5525","16","Female","false","true","true","false","""event"",""trial"",""time""
""fullscreenenter"",""5"",""16864""
","
","
","""event"",""trial"",""time""
""fullscreenenter"",""5"",""16864""
","
","","","","","","","","","","","","","","","","","","","","","",""
"d3-instructions","9","44573","0.0-9.0","404","5525","16","Female","false","true","true","false","""event"",""trial"",""time""
""fullscreenenter"",""5"",""16864""
","
","
","""event"",""trial"",""time""
""fullscreenenter"",""5"",""16864""
","
","","","","","","","","","","","","","","","","","","","","","",""
"d3-instructions","10","49933","0.0-10.0","404","5525","16","Female","false","true","true","false","""event"",""trial"",""time""
""fullscreenenter"",""5"",""16864""
","
","
","""event"",""trial"",""time""
""fullscreenenter"",""5"",""16864""
","
","","","","","","","","","","","","","","","","","","","","","",""
"d3-animate-choice","11","55850","0.0-11.0","404","5525","16","Female","false","true","true","false","""event"",""trial"",""time""
""fullscreenenter"",""5"",""16864""
","
","
","""event"",""trial"",""time""
""fullscreenenter"",""5"",""16864""
","
","3910.9000000059605","","49","","","3000","1","","","images/tutgreenplanet.jpg","images/tutalien1","images/tutalien2","null","images/tutalien2","","NA","practice","null","","","",""
"d3-animate-choice","12","59094","0.0-12.0","404","5525","16","Female","false","true","true","false","""event"",""trial"",""time""
""fullscreenenter"",""5"",""16864""
","
","
","""event"",""trial"",""time""
""fullscreenenter"",""5"",""16864""
","
","1239.5999999940395","","48","","","3000","1","","","images/tutgreenplanet.jpg","images/tutalien1","images/tutalien2","null","images/tutalien1","","NA","practice","null","","","",""
"d3-animate-choice","13","62225","0.0-13.0","404","5525","16","Female","false","true","true","false","""event"",""trial"",""time""
""fullscreenenter"",""5"",""16864""
","
","
","""event"",""trial"",""time""
""fullscreenenter"",""5"",""16864""
","
","1128","","49","","","3000","1","","","images/tutgreenplanet.jpg","images/tutalien1","images/tutalien2","null","images/tutalien2","","NA","practice","null","","","",""
"d3-animate-choice","14","64797","0.0-14.0","404","5525","16","Female","false","true","true","false","""event"",""trial"",""time""
""fullscreenenter"",""5"",""16864""
","
","
","""event"",""trial"",""time""
""fullscreenenter"",""5"",""16864""
","
","566.5","","48","","","3000","1","","","images/tutgreenplanet.jpg","images/tutalien1","images/tutalien2","null","images/tutalien1","","NA","practice","null","","","",""
"d3-instructions","15","67398","0.0-15.0","404","5525","16","Female","false","true","true","false","""event"",""trial"",""time""
""fullscreenenter"",""5"",""16864""
","
","
","""event"",""trial"",""time""
""fullscreenenter"",""5"",""16864""
","
","","","","","","","","","","","","","","","","","","","","","",""
"d3-instructions","16","69683","0.0-16.0","404","5525","16","Female","false","true","true","false","""event"",""trial"",""time""
""fullscreenenter"",""5"",""16864""
","
","
","""event"",""trial"",""time""
""fullscreenenter"",""5"",""16864""
","
","","","","","","","","","","","","","","","","","","","","","",""
"d3-instructions","17","77623","0.0-17.0","404","5525","16","Female","false","true","true","false","""event"",""trial"",""time""
""fullscreenenter"",""5"",""16864""
","
","
","""event"",""trial"",""time""
""fullscreenenter"",""5"",""16864""
","
","","","","","","","","","","","","","","","","","","","","","",""
"d3-instructions","18","86043","0.0-18.0","404","5525","16","Female","false","true","true","false","""event"",""trial"",""time""
""fullscreenenter"",""5"",""16864""
","
","
","""event"",""trial"",""time""
""fullscreenenter"",""5"",""16864""
","
","","","","","","","","","","","","","","","","","","","","","",""
"d3-instructions","19","92275","0.0-19.0","404","5525","16","Female","false","true","true","false","""event"",""trial"",""time""
""fullscreenenter"",""5"",""16864""
","
","
","""event"",""trial"",""time""
""fullscreenenter"",""5"",""16864""
","
","","","","","","","","","","","","","","","","","","","","","",""
"d3-animate-choice","20","95093","0.0-20.0","404","5525","16","Female","false","true","true","false","""event"",""trial"",""time""
""fullscreenenter"",""5"",""16864""
","
","
","""event"",""trial"",""time""
""fullscreenenter"",""5"",""16864""
","
","806.7000000178814","","49","","","3000","1","","","images/tutyellowplanet.jpg","null","images/tutalien3","null","images/tutalien3","images/t.png","NA","practice","null","","","",""
"d3-animate-choice","21","97456","0.0-21.0","404","5525","16","Female","false","true","true","false","""event"",""trial"",""time""
""fullscreenenter"",""5"",""16864""
","
","
","""event"",""trial"",""time""
""fullscreenenter"",""5"",""16864""
","
","358.90000000596046","","49","","","3000","1","","","images/tutyellowplanet.jpg","null","images/tutalien3","null","images/tutalien3","images/t.png","NA","practice","null","","","",""
"d3-animate-choice","22","99778","0.0-22.0","404","5525","16","Female","false","true","true","false","""event"",""trial"",""time""
""fullscreenenter"",""5"",""16864""
","
","
","""event"",""trial"",""time""
""fullscreenenter"",""5"",""16864""
","
","319.80000001192093","","49","","","3000","1","","","images/tutyellowplanet.jpg","null","images/tutalien3","null","images/tutalien3","images/t.png","NA","practice","null","","","",""
"d3-animate-choice","23","102049","0.0-23.0","404","5525","16","Female","false","true","true","false","""event"",""trial"",""time""
""fullscreenenter"",""5"",""16864""
","
","
","""event"",""trial"",""time""
""fullscreenenter"",""5"",""16864""
","
","267.59999999403954","","49","","","3000","1","","","images/tutyellowplanet.jpg","null","images/tutalien3","null","images/tutalien3","images/t.png","NA","practice","null","","","",""
"d3-animate-choice","24","104440","0.0-24.0","404","5525","16","Female","false","true","true","false","""event"",""trial"",""time""
""fullscreenenter"",""5"",""16864""
","
","
","""event"",""trial"",""time""
""fullscreenenter"",""5"",""16864""
","
","387.80000001192093","","49","","","3000","1","","","images/tutyellowplanet.jpg","null","images/tutalien3","null","images/tutalien3","images/t.png","NA","practice","null","","","",""
"d3-animate-choice","25","106785","0.0-25.0","404","5525","16","Female","false","true","true","false","""event"",""trial"",""time""
""fullscreenenter"",""5"",""16864""
","
","
","""event"",""trial"",""time""
""fullscreenenter"",""5"",""16864""
","
","341.30000001192093","","49","","","3000","1","","","images/tutyellowplanet.jpg","null","images/tutalien3","null","images/tutalien3","images/t.png","NA","practice","null","","","",""
"d3-animate-choice","26","109268","0.0-26.0","404","5525","16","Female","false","true","true","false","""event"",""trial"",""time""
""fullscreenenter"",""5"",""16864""
","
","
","""event"",""trial"",""time""
""fullscreenenter"",""5"",""16864""
","
","479.40000000596046","","49","","","3000","1","","","images/tutyellowplanet.jpg","null","images/tutalien3","null","images/tutalien3","images/t.png","NA","practice","null","","","",""
"d3-animate-choice","27","111618","0.0-27.0","404","5525","16","Female","false","true","true","false","""event"",""trial"",""time""
""fullscreenenter"",""5"",""16864""
","
","
","""event"",""trial"",""time""
""fullscreenenter"",""5"",""16864""
","
","343.30000001192093","","49","","","3000","1","","","images/tutyellowplanet.jpg","null","images/tutalien3","null","images/tutalien3","images/nothing.png","NA","practice","null","","","",""
"d3-animate-choice","28","114612","0.0-28.0","404","5525","16","Female","false","true","true","false","""event"",""trial"",""time""
""fullscreenenter"",""5"",""16864""
","
","
","""event"",""trial"",""time""
""fullscreenenter"",""5"",""16864""
","
","991.0999999940395","","49","","","3000","1","","","images/tutyellowplanet.jpg","null","images/tutalien3","null","images/tutalien3","images/t.png","NA","practice","null","","","",""
"d3-animate-choice","29","117126","0.0-29.0","404","5525","16","Female","false","true","true","false","""event"",""trial"",""time""
""fullscreenenter"",""5"",""16864""
","
","
","""event"",""trial"",""time""
""fullscreenenter"",""5"",""16864""
","
","509.19999998807907","","49","","","3000","1","","","images/tutyellowplanet.jpg","null","images/tutalien3","null","images/tutalien3","images/t.png","NA","practice","null","","","",""
"d3-instructions","30","120381","0.0-30.0","404","5525","16","Female","false","true","true","false","""event"",""trial"",""time""
""fullscreenenter"",""5"",""16864""
","
","
","""event"",""trial"",""time""
""fullscreenenter"",""5"",""16864""
","
","","","","","","","","","","","","","","","","","","","","","",""
"d3-instructions","31","127148","0.0-31.0","404","5525","16","Female","false","true","true","false","""event"",""trial"",""time""
""fullscreenenter"",""5"",""16864""
","
","
","""event"",""trial"",""time""
""fullscreenenter"",""5"",""16864""
","
","","","","","","","","","","","","","","","","","","","","","",""
"d3-instructions","32","130646","0.0-32.0","404","5525","16","Female","false","true","true","false","""event"",""trial"",""time""
""fullscreenenter"",""5"",""16864""
","
","
","""event"",""trial"",""time""
""fullscreenenter"",""5"",""16864""
","
","","","","","","","","","","","","","","","","","","","","","",""
"d3-instructions","33","136549","0.0-33.0","404","5525","16","Female","false","true","true","false","""event"",""trial"",""time""
""fullscreenenter"",""5"",""16864""
","
","
","""event"",""trial"",""time""
""fullscreenenter"",""5"",""16864""
","
","","","","","","","","","","","","","","","","","","","","","",""
"d3-animate-choice","34","139626","0.0-34.0","404","5525","16","Female","false","true","true","false","""event"",""trial"",""time""
""fullscreenenter"",""5"",""16864""
","
","
","""event"",""trial"",""time""
""fullscreenenter"",""5"",""16864""
","
","1062.800000011921","","49","","","3000","1","","","images/tutgreenplanet.jpg","images/tutalien1","images/tutalien2","null","images/tutalien2","images/t.png","NA","practice","null","","","",""
"d3-animate-choice","35","142083","0.0-35.0","404","5525","16","Female","false","true","true","false","""event"",""trial"",""time""
""fullscreenenter"",""5"",""16864""
","
","
","""event"",""trial"",""time""
""fullscreenenter"",""5"",""16864""
","
","453.90000000596046","","48","","","3000","1","","","images/tutgreenplanet.jpg","images/tutalien1","images/tutalien2","null","images/tutalien1","images/nothing.png","NA","practice","null","","","",""
"d3-animate-choice","36","144390","0.0-36.0","404","5525","16","Female","false","true","true","false","""event"",""trial"",""time""
""fullscreenenter"",""5"",""16864""
","
","
","""event"",""trial"",""time""
""fullscreenenter"",""5"",""16864""
","
","301.80000001192093","","49","","","3000","1","","","images/tutgreenplanet.jpg","images/tutalien1","images/tutalien2","null","images/tutalien2","images/t.png","NA","practice","null","","","",""
"d3-animate-choice","37","146812","0.0-37.0","404","5525","16","Female","false","true","true","false","""event"",""trial"",""time""
""fullscreenenter"",""5"",""16864""
","
","
","""event"",""trial"",""time""
""fullscreenenter"",""5"",""16864""
","
","414.7000000178814","","49","","","3000","1","","","images/tutgreenplanet.jpg","images/tutalien1","images/tutalien2","null","images/tutalien2","images/t.png","NA","practice","null","","","",""
"d3-animate-choice","38","149147","0.0-38.0","404","5525","16","Female","false","true","true","false","""event"",""trial"",""time""
""fullscreenenter"",""5"",""16864""
","
","
","""event"",""trial"",""time""
""fullscreenenter"",""5"",""16864""
","
","333.30000001192093","","49","","","3000","1","","","images/tutgreenplanet.jpg","images/tutalien1","images/tutalien2","null","images/tutalien2","images/t.png","NA","practice","null","","","",""
"d3-animate-choice","39","151399","0.0-39.0","404","5525","16","Female","false","true","true","false","""event"",""trial"",""time""
""fullscreenenter"",""5"",""16864""
","
","
","""event"",""trial"",""time""
""fullscreenenter"",""5"",""16864""
","
","247.59999999403954","","49","","","3000","1","","","images/tutgreenplanet.jpg","images/tutalien1","images/tutalien2","null","images/tutalien2","images/t.png","NA","practice","null","","","",""
"d3-animate-choice","40","153713","0.0-40.0","404","5525","16","Female","false","true","true","false","""event"",""trial"",""time""
""fullscreenenter"",""5"",""16864""
","
","
","""event"",""trial"",""time""
""fullscreenenter"",""5"",""16864""
","
","311.90000000596046","","49","","","3000","1","","","images/tutgreenplanet.jpg","images/tutalien1","images/tutalien2","null","images/tutalien2","images/t.png","NA","practice","null","","","",""
"d3-animate-choice","41","156015","0.0-41.0","404","5525","16","Female","false","true","true","false","""event"",""trial"",""time""
""fullscreenenter"",""5"",""16864""
","
","
","""event"",""trial"",""time""
""fullscreenenter"",""5"",""16864""
","
","298.09999999403954","","49","","","3000","1","","","images/tutgreenplanet.jpg","images/tutalien1","images/tutalien2","null","images/tutalien2","images/t.png","NA","practice","null","","","",""
"d3-animate-choice","42","158269","0.0-42.0","404","5525","16","Female","false","true","true","false","""event"",""trial"",""time""
""fullscreenenter"",""5"",""16864""
","
","
","""event"",""trial"",""time""
""fullscreenenter"",""5"",""16864""
","
","247.40000000596046","","49","","","3000","1","","","images/tutgreenplanet.jpg","images/tutalien1","images/tutalien2","null","images/tutalien2","images/t.png","NA","practice","null","","","",""
"d3-animate-choice","43","160564","0.0-43.0","404","5525","16","Female","false","true","true","false","""event"",""trial"",""time""
""fullscreenenter"",""5"",""16864""
","
","
","""event"",""trial"",""time""
""fullscreenenter"",""5"",""16864""
","
","292.40000000596046","","49","","","3000","1","","","images/tutgreenplanet.jpg","images/tutalien1","images/tutalien2","null","images/tutalien2","images/t.png","NA","practice","null","","","",""
"d3-instructions","44","165912","0.0-44.0","404","5525","16","Female","false","true","true","false","""event"",""trial"",""time""
""fullscreenenter"",""5"",""16864""
","
","
","""event"",""trial"",""time""
""fullscreenenter"",""5"",""16864""
","
","","","","","","","","","","","","","","","","","","","","","",""
"d3-instructions","45","168065","0.0-45.0","404","5525","16","Female","false","true","true","false","""event"",""trial"",""time""
""fullscreenenter"",""5"",""16864""
","
","
","""event"",""trial"",""time""
""fullscreenenter"",""5"",""16864""
","
","","","","","","","","","","","","","","","","","","","","","",""
"d3-instructions","46","171161","0.0-46.0","404","5525","16","Female","false","true","true","false","""event"",""trial"",""time""
""fullscreenenter"",""5"",""16864""
","
","
","""event"",""trial"",""time""
""fullscreenenter"",""5"",""16864""
","
","","","","","","","","","","","","","","","","","","","","","",""
"d3-instructions","47","181010","0.0-47.0","404","5525","16","Female","false","true","true","false","""event"",""trial"",""time""
""fullscreenenter"",""5"",""16864""
","
","
","""event"",""trial"",""time""
""fullscreenenter"",""5"",""16864""
","
","","","","","","","","","","","","","","","","","","","","","",""
"d3-instructions","48","185389","0.0-48.0","404","5525","16","Female","false","true","true","false","""event"",""trial"",""time""
""fullscreenenter"",""5"",""16864""
","
","
","""event"",""trial"",""time""
""fullscreenenter"",""5"",""16864""
","
","","","","","","","","","","","","","","","","","","","","","",""
"d3-instructions","49","192973","0.0-49.0","404","5525","16","Female","false","true","true","false","""event"",""trial"",""time""
""fullscreenenter"",""5"",""16864""
","
","
","""event"",""trial"",""time""
""fullscreenenter"",""5"",""16864""
","
","","","","","","","","","","","","","","","","","","","","","",""
"d3-instructions","50","201696","0.0-50.0","404","5525","16","Female","false","true","true","false","""event"",""trial"",""time""
""fullscreenenter"",""5"",""16864""
","
","
","""event"",""trial"",""time""
""fullscreenenter"",""5"",""16864""
","
","","","","","","","","","","","","","","","","","","","","","",""
"d3-instructions","51","202948","0.0-51.0","404","5525","16","Female","false","true","true","false","""event"",""trial"",""time""
""fullscreenenter"",""5"",""16864""
","
","
","""event"",""trial"",""time""
""fullscreenenter"",""5"",""16864""
","
","","","","","","","","","","","","","","","","","","","","","",""
"d3-instructions","52","203915","0.0-52.0","404","5525","16","Female","false","true","true","false","""event"",""trial"",""time""
""fullscreenenter"",""5"",""16864""
","
","
","""event"",""trial"",""time""
""fullscreenenter"",""5"",""16864""
","
","","","","","","","","","","","","","","","","","","","","","",""
"d3-instructions","53","211757","0.0-53.0","404","5525","16","Female","false","true","true","false","""event"",""trial"",""time""
""fullscreenenter"",""5"",""16864""
","
","
","""event"",""trial"",""time""
""fullscreenenter"",""5"",""16864""
","
","","","","","","","","","","","","","","","","","","","","","",""
"d3-instructions","54","219668","0.0-54.0","404","5525","16","Female","false","true","true","false","""event"",""trial"",""time""
""fullscreenenter"",""5"",""16864""
","
","
","""event"",""trial"",""time""
""fullscreenenter"",""5"",""16864""
","
","","","","","","","","","","","","","","","","","","","","","",""
"d3-instructions","55","222732","0.0-55.0","404","5525","16","Female","false","true","true","false","""event"",""trial"",""time""
""fullscreenenter"",""5"",""16864""
","
","
","""event"",""trial"",""time""
""fullscreenenter"",""5"",""16864""
","
","","","","","","","","","","","","","","","","","","","","","",""
"d3-instructions","56","229315","0.0-56.0","404","5525","16","Female","false","true","true","false","""event"",""trial"",""time""
""fullscreenenter"",""5"",""16864""
","
","
","""event"",""trial"",""time""
""fullscreenenter"",""5"",""16864""
","
","","","","","","","","","","","","","","","","","","","","","",""
"d3-instructions","57","232965","0.0-57.0","404","5525","16","Female","false","true","true","false","""event"",""trial"",""time""
""fullscreenenter"",""5"",""16864""
","
","
","""event"",""trial"",""time""
""fullscreenenter"",""5"",""16864""
","
","","","","","","","","","","","","","","","","","","","","","",""
"d3-instructions","58","236195","0.0-58.0","404","5525","16","Female","false","true","true","false","""event"",""trial"",""time""
""fullscreenenter"",""5"",""16864""
","
","
","""event"",""trial"",""time""
""fullscreenenter"",""5"",""16864""
","
","","","","","","","","","","","","","","","","","","","","","",""
"d3-instructions","59","239242","0.0-59.0","404","5525","16","Female","false","true","true","false","""event"",""trial"",""time""
""fullscreenenter"",""5"",""16864""
","
","
","""event"",""trial"",""time""
""fullscreenenter"",""5"",""16864""
","
","","","","","","","","","","","","","","","","","","","","","",""
"d3-instructions","60","241301","0.0-60.0","404","5525","16","Female","false","true","true","false","""event"",""trial"",""time""
""fullscreenenter"",""5"",""16864""
","
","
","""event"",""trial"",""time""
""fullscreenenter"",""5"",""16864""
","
","","","","","","","","","","","","","","","","","","","","","",""
"d3-animate-choice","61","244684","0.0-61.0-0.0","404","5525","16","Female","false","true","true","false","""event"",""trial"",""time""
""fullscreenenter"",""5"",""16864""
","
","
","""event"",""trial"",""time""
""fullscreenenter"",""5"",""16864""
","
","1370","","49","","","3000","1","","","images/earth.jpg","images/tutrocket2","images/tutrocket1","null","images/tutrocket1","","1","practice","null","1","","",""
"d3-animate-choice","62","247905","0.0-61.0-1.0","404","5525","16","Female","false","true","true","false","""event"",""trial"",""time""
""fullscreenenter"",""5"",""16864""
","
","
","""event"",""trial"",""time""
""fullscreenenter"",""5"",""16864""
","
","1205.199999988079","","49","","","3000","1","","","images/tutgreenplanet.jpg","images/tutalien2","images/tutalien1","images/tutrocket1","images/tutalien1","images/nothing.png","2","practice","true","1","common","0","2023-01-02 19:31:04.898"
"two-step-fixation","63","248911","0.0-61.0-2.0","404","5525","16","Female","false","true","true","false","""event"",""trial"",""time""
""fullscreenenter"",""5"",""16864""
","
","
","""event"",""trial"",""time""
""fullscreenenter"",""5"",""16864""
","
","","images/earth.jpg","","","","","","","","","","","","","","fixation","","","","","",""
"d3-animate-choice","64","251845","0.0-61.0-0.1","404","5525","16","Female","false","true","true","false","""event"",""trial"",""time""
""fullscreenenter"",""5"",""16864""
","
","
","""event"",""trial"",""time""
""fullscreenenter"",""5"",""16864""
","
","929.0999999940395","","49","","","3000","1","","","images/earth.jpg","images/tutrocket2","images/tutrocket1","null","images/tutrocket1","","1","practice","null","1","","",""
"d3-animate-choice","65","254316","0.0-61.0-1.1","404","5525","16","Female","false","true","true","false","""event"",""trial"",""time""
""fullscreenenter"",""5"",""16864""
","
","
","""event"",""trial"",""time""
""fullscreenenter"",""5"",""16864""
","
","463.80000001192093","","48","","","3000","1","","","images/tutgreenplanet.jpg","images/tutalien2","images/tutalien1","images/tutrocket1","images/tutalien2","images/nothing.png","2","practice","true","2","common","0","2023-01-02 19:31:11.309"
"two-step-fixation","66","255319","0.0-61.0-2.1","404","5525","16","Female","false","true","true","false","""event"",""trial"",""time""
""fullscreenenter"",""5"",""16864""
","
","
","""event"",""trial"",""time""
""fullscreenenter"",""5"",""16864""
","
","","images/earth.jpg","","","","","","","","","","","","","","fixation","","","","","",""
"d3-animate-choice","67","258154","0.0-61.0-0.2","404","5525","16","Female","false","true","true","false","""event"",""trial"",""time""
""fullscreenenter"",""5"",""16864""
","
","
","""event"",""trial"",""time""
""fullscreenenter"",""5"",""16864""
","
","831.5","","48","","","3000","1","","","images/earth.jpg","images/tutrocket2","images/tutrocket1","null","images/tutrocket2","","1","practice","null","2","","",""
"d3-animate-choice","68","261034","0.0-61.0-1.2","404","5525","16","Female","false","true","true","false","""event"",""trial"",""time""
""fullscreenenter"",""5"",""16864""
","
","
","""event"",""trial"",""time""
""fullscreenenter"",""5"",""16864""
","
","873.1000000238419","","49","","","3000","1","","","images/tutyellowplanet.jpg","images/tutalien4","images/tutalien3","images/tutrocket2","images/tutalien3","images/nothing.png","2","practice","true","1","common","0","2023-01-02 19:31:18.027"
"two-step-fixation","69","262038","0.0-61.0-2.2","404","5525","16","Female","false","true","true","false","""event"",""trial"",""time""
""fullscreenenter"",""5"",""16864""
","
","
","""event"",""trial"",""time""
""fullscreenenter"",""5"",""16864""
","
","","images/earth.jpg","","","","","","","","","","","","","","fixation","","","","","",""
"d3-animate-choice","70","264765","0.0-61.0-0.3","404","5525","16","Female","false","true","true","false","""event"",""trial"",""time""
""fullscreenenter"",""5"",""16864""
","
","
","""event"",""trial"",""time""
""fullscreenenter"",""5"",""16864""
","
","714.5","","48","","","3000","1","","","images/earth.jpg","images/tutrocket2","images/tutrocket1","null","images/tutrocket2","","1","practice","null","2","","",""
"d3-animate-choice","71","267350","0.0-61.0-1.3","404","5525","16","Female","false","true","true","false","""event"",""trial"",""time""
""fullscreenenter"",""5"",""16864""
","
","
","""event"",""trial"",""time""
""fullscreenenter"",""5"",""16864""
","
","581.8000000119209","","48","","","3000","1","","","images/tutyellowplanet.jpg","images/tutalien4","images/tutalien3","images/tutrocket2","images/tutalien4","images/nothing.png","2","practice","true","2","common","0","2023-01-02 19:31:24.343"
"two-step-fixation","72","268362","0.0-61.0-2.3","404","5525","16","Female","false","true","true","false","""event"",""trial"",""time""
""fullscreenenter"",""5"",""16864""
","
","
","""event"",""trial"",""time""
""fullscreenenter"",""5"",""16864""
","
","","images/earth.jpg","","","","","","","","","","","","","","fixation","","","","","",""
"d3-animate-choice","73","270765","0.0-61.0-0.4","404","5525","16","Female","false","true","true","false","""event"",""trial"",""time""
""fullscreenenter"",""5"",""16864""
","
","
","""event"",""trial"",""time""
""fullscreenenter"",""5"",""16864""
","
","397.90000000596046","","49","","","3000","1","","","images/earth.jpg","images/tutrocket2","images/tutrocket1","null","images/tutrocket1","","1","practice","null","1","","",""
"d3-animate-choice","74","273336","0.0-61.0-1.4","404","5525","16","Female","false","true","true","false","""event"",""trial"",""time""
""fullscreenenter"",""5"",""16864""
","
","
","""event"",""trial"",""time""
""fullscreenenter"",""5"",""16864""
","
","566.3999999761581","","49","","","3000","1","","","images/tutgreenplanet.jpg","images/tutalien2","images/tutalien1","images/tutrocket1","images/tutalien1","images/nothing.png","2","practice","true","1","common","0","2023-01-02 19:31:30.329"
"two-step-fixation","75","274339","0.0-61.0-2.4","404","5525","16","Female","false","true","true","false","""event"",""trial"",""time""
""fullscreenenter"",""5"",""16864""
","
","
","""event"",""trial"",""time""
""fullscreenenter"",""5"",""16864""
","
","","images/earth.jpg","","","","","","","","","","","","","","fixation","","","","","",""
"d3-animate-choice","76","276709","0.0-61.0-0.5","404","5525","16","Female","false","true","true","false","""event"",""trial"",""time""
""fullscreenenter"",""5"",""16864""
","
","
","""event"",""trial"",""time""
""fullscreenenter"",""5"",""16864""
","
","366.7000000178814","","49","","","3000","1","","","images/earth.jpg","images/tutrocket2","images/tutrocket1","null","images/tutrocket1","","1","practice","null","1","","",""
"d3-animate-choice","77","279499","0.0-61.0-1.5","404","5525","16","Female","false","true","true","false","""event"",""trial"",""time""
""fullscreenenter"",""5"",""16864""
","
","
","""event"",""trial"",""time""
""fullscreenenter"",""5"",""16864""
","
","784.9000000059605","","48","","","3000","1","","","images/tutgreenplanet.jpg","images/tutalien2","images/tutalien1","images/tutrocket1","images/tutalien2","images/t.png","2","practice","true","2","common","1","2023-01-02 19:31:36.492"
"two-step-fixation","78","280512","0.0-61.0-2.5","404","5525","16","Female","false","true","true","false","""event"",""trial"",""time""
""fullscreenenter"",""5"",""16864""
","
","
","""event"",""trial"",""time""
""fullscreenenter"",""5"",""16864""
","
","","images/earth.jpg","","","","","","","","","","","","","","fixation","","","","","",""
"d3-animate-choice","79","283180","0.0-61.0-0.6","404","5525","16","Female","false","true","true","false","""event"",""trial"",""time""
""fullscreenenter"",""5"",""16864""
","
","
","""event"",""trial"",""time""
""fullscreenenter"",""5"",""16864""
","
","662.2000000178814","","48","","","3000","1","","","images/earth.jpg","images/tutrocket2","images/tutrocket1","null","images/tutrocket2","","1","practice","null","2","","",""
"d3-animate-choice","80","285701","0.0-61.0-1.6","404","5525","16","Female","false","true","true","false","""event"",""trial"",""time""
""fullscreenenter"",""5"",""16864""
","
","
","""event"",""trial"",""time""
""fullscreenenter"",""5"",""16864""
","
","516.9000000059605","","49","","","3000","1","","","images/tutyellowplanet.jpg","images/tutalien4","images/tutalien3","images/tutrocket2","images/tutalien3","images/nothing.png","2","practice","true","1","common","0","2023-01-02 19:31:42.694"
"two-step-fixation","81","286704","0.0-61.0-2.6","404","5525","16","Female","false","true","true","false","""event"",""trial"",""time""
""fullscreenenter"",""5"",""16864""
","
","
","""event"",""trial"",""time""
""fullscreenenter"",""5"",""16864""
","
","","images/earth.jpg","","","","","","","","","","","","","","fixation","","","","","",""
"d3-animate-choice","82","289070","0.0-61.0-0.7","404","5525","16","Female","false","true","true","false","""event"",""trial"",""time""
""fullscreenenter"",""5"",""16864""
","
","
","""event"",""trial"",""time""
""fullscreenenter"",""5"",""16864""
","
","362.09999999403954","","48","","","3000","1","","","images/earth.jpg","images/tutrocket2","images/tutrocket1","null","images/tutrocket2","","1","practice","null","2","","",""
"d3-animate-choice","83","291482","0.0-61.0-1.7","404","5525","16","Female","false","true","true","false","""event"",""trial"",""time""
""fullscreenenter"",""5"",""16864""
","
","
","""event"",""trial"",""time""
""fullscreenenter"",""5"",""16864""
","
","407.89999997615814","","48","","","3000","1","","","images/tutyellowplanet.jpg","images/tutalien4","images/tutalien3","images/tutrocket2","images/tutalien4","images/nothing.png","2","practice","true","2","common","0","2023-01-02 19:31:48.475"
"two-step-fixation","84","292485","0.0-61.0-2.7","404","5525","16","Female","false","true","true","false","""event"",""trial"",""time""
""fullscreenenter"",""5"",""16864""
","
","
","""event"",""trial"",""time""
""fullscreenenter"",""5"",""16864""
","
","","images/earth.jpg","","","","","","","","","","","","","","fixation","","","","","",""
"d3-animate-choice","85","294836","0.0-61.0-0.8","404","5525","16","Female","false","true","true","false","""event"",""trial"",""time""
""fullscreenenter"",""5"",""16864""
","
","
","""event"",""trial"",""time""
""fullscreenenter"",""5"",""16864""
","
","345.69999998807907","","49","","","3000","1","","","images/earth.jpg","images/tutrocket2","images/tutrocket1","null","images/tutrocket1","","1","practice","null","1","","",""
"d3-animate-choice","86","297454","0.0-61.0-1.8","404","5525","16","Female","false","true","true","false","""event"",""trial"",""time""
""fullscreenenter"",""5"",""16864""
","
","
","""event"",""trial"",""time""
""fullscreenenter"",""5"",""16864""
","
","611.0999999940395","","48","","","3000","1","","","images/tutyellowplanet.jpg","images/tutalien4","images/tutalien3","images/tutrocket1","images/tutalien4","images/t.png","2","practice","false","2","rare","1","2023-01-02 19:31:54.447"
"two-step-fixation","87","298460","0.0-61.0-2.8","404","5525","16","Female","false","true","true","false","""event"",""trial"",""time""
""fullscreenenter"",""5"",""16864""
","
","
","""event"",""trial"",""time""
""fullscreenenter"",""5"",""16864""
","
","","images/earth.jpg","","","","","","","","","","","","","","fixation","","","","","",""
"d3-animate-choice","88","300863","0.0-61.0-0.9","404","5525","16","Female","false","true","true","false","""event"",""trial"",""time""
""fullscreenenter"",""5"",""16864""
","
","
","""event"",""trial"",""time""
""fullscreenenter"",""5"",""16864""
","
","399.7999999821186","","49","","","3000","1","","","images/earth.jpg","images/tutrocket2","images/tutrocket1","null","images/tutrocket1","","1","practice","null","1","","",""
"d3-animate-choice","89","303446","0.0-61.0-1.9","404","5525","16","Female","false","true","true","false","""event"",""trial"",""time""
""fullscreenenter"",""5"",""16864""
","
","
","""event"",""trial"",""time""
""fullscreenenter"",""5"",""16864""
","
","578.5999999940395","","48","","","3000","1","","","images/tutgreenplanet.jpg","images/tutalien2","images/tutalien1","images/tutrocket1","images/tutalien2","images/nothing.png","2","practice","true","2","common","0","2023-01-02 19:32:00.439"
"two-step-fixation","90","304449","0.0-61.0-2.9","404","5525","16","Female","false","true","true","false","""event"",""trial"",""time""
""fullscreenenter"",""5"",""16864""
","
","
","""event"",""trial"",""time""
""fullscreenenter"",""5"",""16864""
","
","","images/earth.jpg","","","","","","","","","","","","","","fixation","","","","","",""
"d3-animate-choice","91","306794","0.0-61.0-0.10","404","5525","16","Female","false","true","true","false","""event"",""trial"",""time""
""fullscreenenter"",""5"",""16864""
","
","
","""event"",""trial"",""time""
""fullscreenenter"",""5"",""16864""
","
","340","","49","","","3000","1","","","images/earth.jpg","images/tutrocket2","images/tutrocket1","null","images/tutrocket1","","1","practice","null","1","","",""
"d3-animate-choice","92","309315","0.0-61.0-1.10","404","5525","16","Female","false","true","true","false","""event"",""trial"",""time""
""fullscreenenter"",""5"",""16864""
","
","
","""event"",""trial"",""time""
""fullscreenenter"",""5"",""16864""
","
","516.0999999940395","","49","","","3000","1","","","images/tutgreenplanet.jpg","images/tutalien2","images/tutalien1","images/tutrocket1","images/tutalien1","images/nothing.png","2","practice","true","1","common","0","2023-01-02 19:32:06.308"
"two-step-fixation","93","310318","0.0-61.0-2.10","404","5525","16","Female","false","true","true","false","""event"",""trial"",""time""
""fullscreenenter"",""5"",""16864""
","
","
","""event"",""trial"",""time""
""fullscreenenter"",""5"",""16864""
","
","","images/earth.jpg","","","","","","","","","","","","","","fixation","","","","","",""
"d3-animate-choice","94","312612","0.0-61.0-0.11","404","5525","16","Female","false","true","true","false","""event"",""trial"",""time""
""fullscreenenter"",""5"",""16864""
","
","
","""event"",""trial"",""time""
""fullscreenenter"",""5"",""16864""
","
","286.2999999821186","","48","","","3000","1","","","images/earth.jpg","images/tutrocket2","images/tutrocket1","null","images/tutrocket2","","1","practice","null","2","","",""
"d3-animate-choice","95","315020","0.0-61.0-1.11","404","5525","16","Female","false","true","true","false","""event"",""trial"",""time""
""fullscreenenter"",""5"",""16864""
","
","
","""event"",""trial"",""time""
""fullscreenenter"",""5"",""16864""
","
","401.5","","48","","","3000","1","","","images/tutyellowplanet.jpg","images/tutalien4","images/tutalien3","images/tutrocket2","images/tutalien4","images/nothing.png","2","practice","true","2","common","0","2023-01-02 19:32:12.013"
"two-step-fixation","96","316026","0.0-61.0-2.11","404","5525","16","Female","false","true","true","false","""event"",""trial"",""time""
""fullscreenenter"",""5"",""16864""
","
","
","""event"",""trial"",""time""
""fullscreenenter"",""5"",""16864""
","
","","images/earth.jpg","","","","","","","","","","","","","","fixation","","","","","",""
"d3-animate-choice","97","318386","0.0-61.0-0.12","404","5525","16","Female","false","true","true","false","""event"",""trial"",""time""
""fullscreenenter"",""5"",""16864""
","
","
","""event"",""trial"",""time""
""fullscreenenter"",""5"",""16864""
","
","355.5","","48","","","3000","1","","","images/earth.jpg","images/tutrocket2","images/tutrocket1","null","images/tutrocket2","","1","practice","null","2","","",""
"d3-animate-choice","98","321629","0.0-61.0-1.12","404","5525","16","Female","false","true","true","false","""event"",""trial"",""time""
""fullscreenenter"",""5"",""16864""
","
","
","""event"",""trial"",""time""
""fullscreenenter"",""5"",""16864""
","
","1237.3999999761581","","49","","","3000","1","","","images/tutgreenplanet.jpg","images/tutalien2","images/tutalien1","images/tutrocket2","images/tutalien1","images/nothing.png","2","practice","false","1","rare","0","2023-01-02 19:32:18.622"
"two-step-fixation","99","322643","0.0-61.0-2.12","404","5525","16","Female","false","true","true","false","""event"",""trial"",""time""
""fullscreenenter"",""5"",""16864""
","
","
","""event"",""trial"",""time""
""fullscreenenter"",""5"",""16864""
","
","","images/earth.jpg","","","","","","","","","","","","","","fixation","","","","","",""
"d3-animate-choice","100","324947","0.0-61.0-0.13","404","5525","16","Female","false","true","true","false","""event"",""trial"",""time""
""fullscreenenter"",""5"",""16864""
","
","
","""event"",""trial"",""time""
""fullscreenenter"",""5"",""16864""
","
","297.60000002384186","","48","","","3000","1","","","images/earth.jpg","images/tutrocket2","images/tutrocket1","null","images/tutrocket2","","1","practice","null","2","","",""
"d3-animate-choice","101","327493","0.0-61.0-1.13","404","5525","16","Female","false","true","true","false","""event"",""trial"",""time""
""fullscreenenter"",""5"",""16864""
","
","
","""event"",""trial"",""time""
""fullscreenenter"",""5"",""16864""
","
","539.9000000059605","","49","","","3000","1","","","images/tutyellowplanet.jpg","images/tutalien4","images/tutalien3","images/tutrocket2","images/tutalien3","images/t.png","2","practice","true","1","common","1","2023-01-02 19:32:24.486"
"two-step-fixation","102","328500","0.0-61.0-2.13","404","5525","16","Female","false","true","true","false","""event"",""trial"",""time""
""fullscreenenter"",""5"",""16864""
","
","
","""event"",""trial"",""time""
""fullscreenenter"",""5"",""16864""
","
","","images/earth.jpg","","","","","","","","","","","","","","fixation","","","","","",""
"d3-animate-choice","103","330825","0.0-61.0-0.14","404","5525","16","Female","false","true","true","false","""event"",""trial"",""time""
""fullscreenenter"",""5"",""16864""
","
","
","""event"",""trial"",""time""
""fullscreenenter"",""5"",""16864""
","
","321.80000001192093","","48","","","3000","1","","","images/earth.jpg","images/tutrocket2","images/tutrocket1","null","images/tutrocket2","","1","practice","null","2","","",""
"d3-animate-choice","104","333211","0.0-61.0-1.14","404","5525","16","Female","false","true","true","false","""event"",""trial"",""time""
""fullscreenenter"",""5"",""16864""
","
","
","""event"",""trial"",""time""
""fullscreenenter"",""5"",""16864""
","
","382.5","","49","","","3000","1","","","images/tutyellowplanet.jpg","images/tutalien4","images/tutalien3","images/tutrocket2","images/tutalien3","images/t.png","2","practice","true","1","common","1","2023-01-02 19:32:30.204"
"two-step-fixation","105","334215","0.0-61.0-2.14","404","5525","16","Female","false","true","true","false","""event"",""trial"",""time""
""fullscreenenter"",""5"",""16864""
","
","
","""event"",""trial"",""time""
""fullscreenenter"",""5"",""16864""
","
","","images/earth.jpg","","","","","","","","","","","","","","fixation","","","","","",""
"d3-animate-choice","106","336552","0.0-61.0-0.15","404","5525","16","Female","false","true","true","false","""event"",""trial"",""time""
""fullscreenenter"",""5"",""16864""
","
","
","""event"",""trial"",""time""
""fullscreenenter"",""5"",""16864""
","
","333.5","","48","","","3000","1","","","images/earth.jpg","images/tutrocket2","images/tutrocket1","null","images/tutrocket2","","1","practice","null","2","","",""
"d3-animate-choice","107","338955","0.0-61.0-1.15","404","5525","16","Female","false","true","true","false","""event"",""trial"",""time""
""fullscreenenter"",""5"",""16864""
","
","
","""event"",""trial"",""time""
""fullscreenenter"",""5"",""16864""
","
","395.19999998807907","","49","","","3000","1","","","images/tutyellowplanet.jpg","images/tutalien4","images/tutalien3","images/tutrocket2","images/tutalien3","images/t.png","2","practice","true","1","common","1","2023-01-02 19:32:35.948"
"two-step-fixation","108","339959","0.0-61.0-2.15","404","5525","16","Female","false","true","true","false","""event"",""trial"",""time""
""fullscreenenter"",""5"",""16864""
","
","
","""event"",""trial"",""time""
""fullscreenenter"",""5"",""16864""
","
","","images/earth.jpg","","","","","","","","","","","","","","fixation","","","","","",""
"d3-animate-choice","109","342284","0.0-61.0-0.16","404","5525","16","Female","false","true","true","false","""event"",""trial"",""time""
""fullscreenenter"",""5"",""16864""
","
","
","""event"",""trial"",""time""
""fullscreenenter"",""5"",""16864""
","
","320.90000000596046","","48","","","3000","1","","","images/earth.jpg","images/tutrocket2","images/tutrocket1","null","images/tutrocket2","","1","practice","null","2","","",""
"d3-animate-choice","110","344673","0.0-61.0-1.16","404","5525","16","Female","false","true","true","false","""event"",""trial"",""time""
""fullscreenenter"",""5"",""16864""
","
","
","""event"",""trial"",""time""
""fullscreenenter"",""5"",""16864""
","
","385.30000001192093","","49","","","3000","1","","","images/tutyellowplanet.jpg","images/tutalien4","images/tutalien3","images/tutrocket2","images/tutalien3","images/nothing.png","2","practice","true","1","common","0","2023-01-02 19:32:41.666"
"two-step-fixation","111","345676","0.0-61.0-2.16","404","5525","16","Female","false","true","true","false","""event"",""trial"",""time""
""fullscreenenter"",""5"",""16864""
","
","
","""event"",""trial"",""time""
""fullscreenenter"",""5"",""16864""
","
","","images/earth.jpg","","","","","","","","","","","","","","fixation","","","","","",""
"d3-animate-choice","112","348338","0.0-61.0-0.17","404","5525","16","Female","false","true","true","false","""event"",""trial"",""time""
""fullscreenenter"",""5"",""16864""
","
","
","""event"",""trial"",""time""
""fullscreenenter"",""5"",""16864""
","
","654.6999999880791","","49","","","3000","1","","","images/earth.jpg","images/tutrocket2","images/tutrocket1","null","images/tutrocket1","","1","practice","null","1","","",""
"d3-animate-choice","113","351094","0.0-61.0-1.17","404","5525","16","Female","false","true","true","false","""event"",""trial"",""time""
""fullscreenenter"",""5"",""16864""
","
","
","""event"",""trial"",""time""
""fullscreenenter"",""5"",""16864""
","
","751.5999999940395","","49","","","3000","1","","","images/tutyellowplanet.jpg","images/tutalien4","images/tutalien3","images/tutrocket1","images/tutalien3","images/nothing.png","2","practice","false","1","rare","0","2023-01-02 19:32:48.087"
"two-step-fixation","114","352098","0.0-61.0-2.17","404","5525","16","Female","false","true","true","false","""event"",""trial"",""time""
""fullscreenenter"",""5"",""16864""
","
","
","""event"",""trial"",""time""
""fullscreenenter"",""5"",""16864""
","
","","images/earth.jpg","","","","","","","","","","","","","","fixation","","","","","",""
"d3-animate-choice","115","354394","0.0-61.0-0.18","404","5525","16","Female","false","true","true","false","""event"",""trial"",""time""
""fullscreenenter"",""5"",""16864""
","
","
","""event"",""trial"",""time""
""fullscreenenter"",""5"",""16864""
","
","291.10000002384186","","49","","","3000","1","","","images/earth.jpg","images/tutrocket2","images/tutrocket1","null","images/tutrocket1","","1","practice","null","1","","",""
"d3-animate-choice","116","356760","0.0-61.0-1.18","404","5525","16","Female","false","true","true","false","""event"",""trial"",""time""
""fullscreenenter"",""5"",""16864""
","
","
","""event"",""trial"",""time""
""fullscreenenter"",""5"",""16864""
","
","361.19999998807907","","48","","","3000","1","","","images/tutgreenplanet.jpg","images/tutalien2","images/tutalien1","images/tutrocket1","images/tutalien2","images/nothing.png","2","practice","true","2","common","0","2023-01-02 19:32:53.753"
"two-step-fixation","117","357764","0.0-61.0-2.18","404","5525","16","Female","false","true","true","false","""event"",""trial"",""time""
""fullscreenenter"",""5"",""16864""
","
","
","""event"",""trial"",""time""
""fullscreenenter"",""5"",""16864""
","
","","images/earth.jpg","","","","","","","","","","","","","","fixation","","","","","",""
"d3-animate-choice","118","360093","0.0-61.0-0.19","404","5525","16","Female","false","true","true","false","""event"",""trial"",""time""
""fullscreenenter"",""5"",""16864""
","
","
","""event"",""trial"",""time""
""fullscreenenter"",""5"",""16864""
","
","324.30000001192093","","49","","","3000","1","","","images/earth.jpg","images/tutrocket2","images/tutrocket1","null","images/tutrocket1","","1","practice","null","1","","",""
"d3-animate-choice","119","362712","0.0-61.0-1.19","404","5525","16","Female","false","true","true","false","""event"",""trial"",""time""
""fullscreenenter"",""5"",""16864""
","
","
","""event"",""trial"",""time""
""fullscreenenter"",""5"",""16864""
","
","614.8000000119209","","49","","","3000","1","","","images/tutgreenplanet.jpg","images/tutalien2","images/tutalien1","images/tutrocket1","images/tutalien1","images/nothing.png","2","practice","true","1","common","0","2023-01-02 19:32:59.705"
"two-step-fixation","120","363718","0.0-61.0-2.19","404","5525","16","Female","false","true","true","false","""event"",""trial"",""time""
""fullscreenenter"",""5"",""16864""
","
","
","""event"",""trial"",""time""
""fullscreenenter"",""5"",""16864""
","
","","images/earth.jpg","","","","","","","","","","","","","","fixation","","","","","",""
"d3-instructions","121","367224","0.0-62.0","404","5525","16","Female","false","true","true","false","""event"",""trial"",""time""
""fullscreenenter"",""5"",""16864""
","
","
","""event"",""trial"",""time""
""fullscreenenter"",""5"",""16864""
","
","","","","","","","","","","","","","","","","","","","","","",""
"audio-keyboard-response","122","369484","0.0-63.0","404","5525","16","Female","false","true","true","false","""event"",""trial"",""time""
""fullscreenenter"",""5"",""16864""
","
","
","""event"",""trial"",""time""
""fullscreenenter"",""5"",""16864""
","
","2258","audio/instructions/treasure_feedback.wav","32","","","","","","","","","","","","","","","","","","",""
"d3-instructions","123","377813","0.0-64.0","404","5525","16","Female","false","true","true","false","""event"",""trial"",""time""
""fullscreenenter"",""5"",""16864""
","
","
","""event"",""trial"",""time""
""fullscreenenter"",""5"",""16864""
","
","","","","","","","","","","","","","","","","","","","","","",""
"d3-instructions","124","384065","0.0-65.0","404","5525","16","Female","false","true","true","false","""event"",""trial"",""time""
""fullscreenenter"",""5"",""16864""
","
","
","""event"",""trial"",""time""
""fullscreenenter"",""5"",""16864""
","
","","","","","","","","","","","","","","","","","","","","","",""
"d3-instructions","125","402511","0.0-66.0","404","5525","16","Female","false","true","true","false","""event"",""trial"",""time""
""fullscreenenter"",""5"",""16864""
","
","
","""event"",""trial"",""time""
""fullscreenenter"",""5"",""16864""
","
","","","","","","","","","","","","","","","","","","","","","",""
"d3-instructions","126","411571","0.0-67.0","404","5525","16","Female","false","true","true","false","""event"",""trial"",""time""
""fullscreenenter"",""5"",""16864""
","
","
","""event"",""trial"",""time""
""fullscreenenter"",""5"",""16864""
","
","","","","","","","","","","","","","","","","","","","","","",""
"d3-instructions","127","413747","0.0-68.0","404","5525","16","Female","false","true","true","false","""event"",""trial"",""time""
""fullscreenenter"",""5"",""16864""
","
","
","""event"",""trial"",""time""
""fullscreenenter"",""5"",""16864""
","
","","","","","","","","","","","","","","","","","","","","","",""
"instructions-quiz","128","416991","0.0-69.0","404","5525","16","Female","false","true","true","false","""event"",""trial"",""time""
""fullscreenenter"",""5"",""16864""
","
","
","""event"",""trial"",""time""
""fullscreenenter"",""5"",""16864""
","
","3239.9000000059605","audio/quiz/Q1_Prompt.wav","","1","","","","","","","","","","","","","","","","","",""
"audio-keyboard-response","129","426173","0.0-70.0","404","5525","16","Female","false","true","true","false","""event"",""trial"",""time""
""fullscreenenter"",""5"",""16864""
","
","
","""event"",""trial"",""time""
""fullscreenenter"",""5"",""16864""
","
","null","audio/quiz/Q1_Correct.wav","null","","","","","","","","","","","","","","","","","","",""
"instructions-quiz","130","430427","0.0-71.0","404","5525","16","Female","false","true","true","false","""event"",""trial"",""time""
""fullscreenenter"",""5"",""16864""
","
","
","""event"",""trial"",""time""
""fullscreenenter"",""5"",""16864""
","
","4252.9000000059605","audio/quiz/Q2_Prompt.wav","","0","","","","","","","","","","","","","","","","","",""
"audio-keyboard-response","131","443298","0.0-72.0","404","5525","16","Female","false","true","true","false","""event"",""trial"",""time""
""fullscreenenter"",""5"",""16864""
","
","
","""event"",""trial"",""time""
""fullscreenenter"",""5"",""16864""
","
","null","audio/quiz/Q2_Correct.wav","null","","","","","","","","","","","","","","","","","","",""
"instructions-quiz","132","446867","0.0-73.0","404","5525","16","Female","false","true","true","false","""event"",""trial"",""time""
""fullscreenenter"",""5"",""16864""
","
","
","""event"",""trial"",""time""
""fullscreenenter"",""5"",""16864""
","
","3567","audio/quiz/Q3_Prompt.wav","","1","","","","","","","","","","","","","","","","","",""
"audio-keyboard-response","133","452668","0.0-74.0","404","5525","16","Female","false","true","true","false","""event"",""trial"",""time""
""fullscreenenter"",""5"",""16864""
","
","
","""event"",""trial"",""time""
""fullscreenenter"",""5"",""16864""
","
","null","audio/quiz/Q3_Correct.wav","null","","","","","","","","","","","","","","","","","","",""
"d3-instructions","134","455858","0.0-75.0","404","5525","16","Female","false","true","true","false","""event"",""trial"",""time""
""fullscreenenter"",""5"",""16864""
","
","
","""event"",""trial"",""time""
""fullscreenenter"",""5"",""16864""
","
","","","","","","","","","","","","","","","","","","","","","",""
"pavlovia","135","455860","0.0-76.0","404","5525","16","Female","false","true","true","false","""event"",""trial"",""time""
""fullscreenenter"",""5"",""16864""
","
","
","""event"",""trial"",""time""
""fullscreenenter"",""5"",""16864""
","
","","","","","","","","","","","","","","","","","","","","","",""
"d3-animate-choice","136","458729","0.0-77.0-0.0","404","5525","16","Female","false","true","true","false","""event"",""trial"",""time""
""fullscreenenter"",""5"",""16864""
","
","
","""event"",""trial"",""time""
""fullscreenenter"",""5"",""16864""
","
","865","","49","","","3000","1","","","images/earth.jpg","images/rocket1","images/rocket2","null","images/rocket2","","1","real","null","1","","",""
"d3-animate-choice","137","461510","0.0-77.0-1.0","404","5525","16","Female","false","true","true","false","""event"",""trial"",""time""
""fullscreenenter"",""5"",""16864""
","
","
","""event"",""trial"",""time""
""fullscreenenter"",""5"",""16864""
","
","778.4000000059605","","49","","","3000","1","","","images/redplanet1.jpg","images/alien2","images/alien1","images/rocket2","images/alien1","images/nothing.png","2","real","false","1","rare","0","2023-01-02 19:34:38.503"
"two-step-fixation","138","462523","0.0-77.0-2.0","404","5525","16","Female","false","true","true","false","""event"",""trial"",""time""
""fullscreenenter"",""5"",""16864""
","
","
","""event"",""trial"",""time""
""fullscreenenter"",""5"",""16864""
","
","","images/earth.jpg","","","","","","","","","","","","","","fixation","","","","","",""
"d3-animate-choice","139","464853","0.0-77.0-0.1","404","5525","16","Female","false","true","true","false","""event"",""trial"",""time""
""fullscreenenter"",""5"",""16864""
","
","
","""event"",""trial"",""time""
""fullscreenenter"",""5"",""16864""
","
","326.7999999821186","","49","","","3000","1","","","images/earth.jpg","images/rocket1","images/rocket2","null","images/rocket2","","1","real","null","1","","",""
"d3-animate-choice","140","467277","0.0-77.0-1.1","404","5525","16","Female","false","true","true","false","""event"",""trial"",""time""
""fullscreenenter"",""5"",""16864""
","
","
","""event"",""trial"",""time""
""fullscreenenter"",""5"",""16864""
","
","420.40000000596046","","48","","","3000","1","","","images/redplanet1.jpg","images/alien2","images/alien1","images/rocket2","images/alien2","images/t.png","2","real","false","2","rare","1","2023-01-02 19:34:44.271"
"two-step-fixation","141","468281","0.0-77.0-2.1","404","5525","16","Female","false","true","true","false","""event"",""trial"",""time""
""fullscreenenter"",""5"",""16864""
","
","
","""event"",""trial"",""time""
""fullscreenenter"",""5"",""16864""
","
","","images/earth.jpg","","","","","","","","","","","","","","fixation","","","","","",""
"d3-animate-choice","142","470830","0.0-77.0-0.2","404","5525","16","Female","false","true","true","false","""event"",""trial"",""time""
""fullscreenenter"",""5"",""16864""
","
","
","""event"",""trial"",""time""
""fullscreenenter"",""5"",""16864""
","
","543.7999999821186","","48","","","3000","1","","","images/earth.jpg","images/rocket1","images/rocket2","null","images/rocket1","","1","real","null","2","","",""
"d3-animate-choice","143","473846","0.0-77.0-1.2","404","5525","16","Female","false","true","true","false","""event"",""trial"",""time""
""fullscreenenter"",""5"",""16864""
","
","
","""event"",""trial"",""time""
""fullscreenenter"",""5"",""16864""
","
","1011.7999999821186","","48","","","3000","1","","","images/redplanet1.jpg","images/alien2","images/alien1","images/rocket1","images/alien2","images/t.png","2","real","true","2","common","1","2023-01-02 19:34:50.839"
"two-step-fixation","144","474850","0.0-77.0-2.2","404","5525","16","Female","false","true","true","false","""event"",""trial"",""time""
""fullscreenenter"",""5"",""16864""
","
","
","""event"",""trial"",""time""
""fullscreenenter"",""5"",""16864""
","
","","images/earth.jpg","","","","","","","","","","","","","","fixation","","","","","",""
"d3-animate-choice","145","477170","0.0-77.0-0.3","404","5525","16","Female","false","true","true","false","""event"",""trial"",""time""
""fullscreenenter"",""5"",""16864""
","
","
","""event"",""trial"",""time""
""fullscreenenter"",""5"",""16864""
","
","316.69999998807907","","48","","","3000","1","","","images/earth.jpg","images/rocket1","images/rocket2","null","images/rocket1","","1","real","null","2","","",""
"d3-animate-choice","146","479820","0.0-77.0-1.3","404","5525","16","Female","false","true","true","false","""event"",""trial"",""time""
""fullscreenenter"",""5"",""16864""
","
","
","""event"",""trial"",""time""
""fullscreenenter"",""5"",""16864""
","
","643.7000000178814","","49","","","3000","1","","","images/purpleplanet.jpg","images/alien4","images/alien3","images/rocket1","images/alien3","images/nothing.png","2","real","false","1","rare","0","2023-01-02 19:34:56.813"
"two-step-fixation","147","480824","0.0-77.0-2.3","404","5525","16","Female","false","true","true","false","""event"",""trial"",""time""
""fullscreenenter"",""5"",""16864""
","
","
","""event"",""trial"",""time""
""fullscreenenter"",""5"",""16864""
","
","","images/earth.jpg","","","","","","","","","","","","","","fixation","","","","","",""
"d3-animate-choice","148","483143","0.0-77.0-0.4","404","5525","16","Female","false","true","true","false","""event"",""trial"",""time""
""fullscreenenter"",""5"",""16864""
","
","
","""event"",""trial"",""time""
""fullscreenenter"",""5"",""16864""
","
","313.60000002384186","","48","","","3000","1","","","images/earth.jpg","images/rocket1","images/rocket2","null","images/rocket1","","1","real","null","2","","",""
"d3-animate-choice","149","485798","0.0-77.0-1.4","404","5525","16","Female","false","true","true","false","""event"",""trial"",""time""
""fullscreenenter"",""5"",""16864""
","
","
","""event"",""trial"",""time""
""fullscreenenter"",""5"",""16864""
","
","650.5","","48","","","3000","1","","","images/redplanet1.jpg","images/alien2","images/alien1","images/rocket1","images/alien2","images/t.png","2","real","true","2","common","1","2023-01-02 19:35:02.791"
"two-step-fixation","150","486802","0.0-77.0-2.4","404","5525","16","Female","false","true","true","false","""event"",""trial"",""time""
""fullscreenenter"",""5"",""16864""
","
","
","""event"",""trial"",""time""
""fullscreenenter"",""5"",""16864""
","
","","images/earth.jpg","","","","","","","","","","","","","","fixation","","","","","",""
"d3-animate-choice","151","489159","0.0-77.0-0.5","404","5525","16","Female","false","true","true","false","""event"",""trial"",""time""
""fullscreenenter"",""5"",""16864""
","
","
","""event"",""trial"",""time""
""fullscreenenter"",""5"",""16864""
","
","353.19999998807907","","48","","","3000","1","","","images/earth.jpg","images/rocket1","images/rocket2","null","images/rocket1","","1","real","null","2","","",""
"d3-animate-choice","152","491890","0.0-77.0-1.5","404","5525","16","Female","false","true","true","false","""event"",""trial"",""time""
""fullscreenenter"",""5"",""16864""
","
","
","""event"",""trial"",""time""
""fullscreenenter"",""5"",""16864""
","
","726.1000000238419","","48","","","3000","1","","","images/redplanet1.jpg","images/alien2","images/alien1","images/rocket1","images/alien2","images/nothing.png","2","real","true","2","common","0","2023-01-02 19:35:08.884"
"two-step-fixation","153","492894","0.0-77.0-2.5","404","5525","16","Female","false","true","true","false","""event"",""trial"",""time""
""fullscreenenter"",""5"",""16864""
","
","
","""event"",""trial"",""time""
""fullscreenenter"",""5"",""16864""
","
","","images/earth.jpg","","","","","","","","","","","","","","fixation","","","","","",""
"d3-animate-choice","154","495210","0.0-77.0-0.6","404","5525","16","Female","false","true","true","false","""event"",""trial"",""time""
""fullscreenenter"",""5"",""16864""
","
","
","""event"",""trial"",""time""
""fullscreenenter"",""5"",""16864""
","
","311.2999999821186","","48","","","3000","1","","","images/earth.jpg","images/rocket1","images/rocket2","null","images/rocket1","","1","real","null","2","","",""
"d3-animate-choice","155","497736","0.0-77.0-1.6","404","5525","16","Female","false","true","true","false","""event"",""trial"",""time""
""fullscreenenter"",""5"",""16864""
","
","
","""event"",""trial"",""time""
""fullscreenenter"",""5"",""16864""
","
","521.2000000178814","","48","","","3000","1","","","images/purpleplanet.jpg","images/alien4","images/alien3","images/rocket1","images/alien4","images/t.png","2","real","false","2","rare","1","2023-01-02 19:35:14.729"
"two-step-fixation","156","498740","0.0-77.0-2.6","404","5525","16","Female","false","true","true","false","""event"",""trial"",""time""
""fullscreenenter"",""5"",""16864""
","
","
","""event"",""trial"",""time""
""fullscreenenter"",""5"",""16864""
","
","","images/earth.jpg","","","","","","","","","","","","","","fixation","","","","","",""
"d3-animate-choice","157","501107","0.0-77.0-0.7","404","5525","16","Female","false","true","true","false","""event"",""trial"",""time""
""fullscreenenter"",""5"",""16864""
","
","
","""event"",""trial"",""time""
""fullscreenenter"",""5"",""16864""
","
","360.30000001192093","","49","","","3000","1","","","images/earth.jpg","images/rocket1","images/rocket2","null","images/rocket2","","1","real","null","1","","",""
"d3-animate-choice","158","503615","0.0-77.0-1.7","404","5525","16","Female","false","true","true","false","""event"",""trial"",""time""
""fullscreenenter"",""5"",""16864""
","
","
","""event"",""trial"",""time""
""fullscreenenter"",""5"",""16864""
","
","503.7999999821186","","48","","","3000","1","","","images/purpleplanet.jpg","images/alien4","images/alien3","images/rocket2","images/alien4","images/t.png","2","real","true","2","common","1","2023-01-02 19:35:20.608"
"two-step-fixation","159","504619","0.0-77.0-2.7","404","5525","16","Female","false","true","true","false","""event"",""trial"",""time""
""fullscreenenter"",""5"",""16864""
","
","
","""event"",""trial"",""time""
""fullscreenenter"",""5"",""16864""
","
","","images/earth.jpg","","","","","","","","","","","","","","fixation","","","","","",""
"d3-animate-choice","160","506981","0.0-77.0-0.8","404","5525","16","Female","false","true","true","false","""event"",""trial"",""time""
""fullscreenenter"",""5"",""16864""
","
","
","""event"",""trial"",""time""
""fullscreenenter"",""5"",""16864""
","
","355.80000001192093","","49","","","3000","1","","","images/earth.jpg","images/rocket1","images/rocket2","null","images/rocket2","","1","real","null","1","","",""
"d3-animate-choice","161","509456","0.0-77.0-1.8","404","5525","16","Female","false","true","true","false","""event"",""trial"",""time""
""fullscreenenter"",""5"",""16864""
","
","
","""event"",""trial"",""time""
""fullscreenenter"",""5"",""16864""
","
","465.69999998807907","","48","","","3000","1","","","images/purpleplanet.jpg","images/alien4","images/alien3","images/rocket2","images/alien4","images/t.png","2","real","true","2","common","1","2023-01-02 19:35:26.449"
"two-step-fixation","162","510459","0.0-77.0-2.8","404","5525","16","Female","false","true","true","false","""event"",""trial"",""time""
""fullscreenenter"",""5"",""16864""
","
","
","""event"",""trial"",""time""
""fullscreenenter"",""5"",""16864""
","
","","images/earth.jpg","","","","","","","","","","","","","","fixation","","","","","",""
"d3-animate-choice","163","512880","0.0-77.0-0.9","404","5525","16","Female","false","true","true","false","""event"",""trial"",""time""
""fullscreenenter"",""5"",""16864""
","
","
","""event"",""trial"",""time""
""fullscreenenter"",""5"",""16864""
","
","416.80000001192093","","49","","","3000","1","","","images/earth.jpg","images/rocket1","images/rocket2","null","images/rocket2","","1","real","null","1","","",""
"d3-animate-choice","164","515289","0.0-77.0-1.9","404","5525","16","Female","false","true","true","false","""event"",""trial"",""time""
""fullscreenenter"",""5"",""16864""
","
","
","""event"",""trial"",""time""
""fullscreenenter"",""5"",""16864""
","
","404.5","","48","","","3000","1","","","images/purpleplanet.jpg","images/alien4","images/alien3","images/rocket2","images/alien4","images/t.png","2","real","true","2","common","1","2023-01-02 19:35:32.282"
"two-step-fixation","165","516292","0.0-77.0-2.9","404","5525","16","Female","false","true","true","false","""event"",""trial"",""time""
""fullscreenenter"",""5"",""16864""
","
","
","""event"",""trial"",""time""
""fullscreenenter"",""5"",""16864""
","
","","images/earth.jpg","","","","","","","","","","","","","","fixation","","","","","",""
"d3-animate-choice","166","518663","0.0-77.0-0.10","404","5525","16","Female","false","true","true","false","""event"",""trial"",""time""
""fullscreenenter"",""5"",""16864""
","
","
","""event"",""trial"",""time""
""fullscreenenter"",""5"",""16864""
","
","366.80000001192093","","48","","","3000","1","","","images/earth.jpg","images/rocket1","images/rocket2","null","images/rocket1","","1","real","null","2","","",""
"d3-animate-choice","167","521366","0.0-77.0-1.10","404","5525","16","Female","false","true","true","false","""event"",""trial"",""time""
""fullscreenenter"",""5"",""16864""
","
","
","""event"",""trial"",""time""
""fullscreenenter"",""5"",""16864""
","
","696.6999999880791","","48","","","3000","1","","","images/redplanet1.jpg","images/alien2","images/alien1","images/rocket1","images/alien2","images/nothing.png","2","real","true","2","common","0","2023-01-02 19:35:38.359"
"two-step-fixation","168","522370","0.0-77.0-2.10","404","5525","16","Female","false","true","true","false","""event"",""trial"",""time""
""fullscreenenter"",""5"",""16864""
","
","
","""event"",""trial"",""time""
""fullscreenenter"",""5"",""16864""
","
","","images/earth.jpg","","","","","","","","","","","","","","fixation","","","","","",""
"d3-animate-choice","169","524690","0.0-77.0-0.11","404","5525","16","Female","false","true","true","false","""event"",""trial"",""time""
""fullscreenenter"",""5"",""16864""
","
","
","""event"",""trial"",""time""
""fullscreenenter"",""5"",""16864""
","
","315.90000000596046","","48","","","3000","1","","","images/earth.jpg","images/rocket1","images/rocket2","null","images/rocket1","","1","real","null","2","","",""
"d3-animate-choice","170","527331","0.0-77.0-1.11","404","5525","16","Female","false","true","true","false","""event"",""trial"",""time""
""fullscreenenter"",""5"",""16864""
","
","
","""event"",""trial"",""time""
""fullscreenenter"",""5"",""16864""
","
","636.9000000059605","","48","","","3000","1","","","images/purpleplanet.jpg","images/alien4","images/alien3","images/rocket1","images/alien4","images/nothing.png","2","real","false","2","rare","0","2023-01-02 19:35:44.324"
"two-step-fixation","171","528335","0.0-77.0-2.11","404","5525","16","Female","false","true","true","false","""event"",""trial"",""time""
""fullscreenenter"",""5"",""16864""
","
","
","""event"",""trial"",""time""
""fullscreenenter"",""5"",""16864""
","
","","images/earth.jpg","","","","","","","","","","","","","","fixation","","","","","",""
"d3-animate-choice","172","530690","0.0-77.0-0.12","404","5525","16","Female","false","true","true","false","""event"",""trial"",""time""
""fullscreenenter"",""5"",""16864""
","
","
","""event"",""trial"",""time""
""fullscreenenter"",""5"",""16864""
","
","351.69999998807907","","48","","","3000","1","","","images/earth.jpg","images/rocket1","images/rocket2","null","images/rocket1","","1","real","null","2","","",""
"d3-animate-choice","173","533186","0.0-77.0-1.12","404","5525","16","Female","false","true","true","false","""event"",""trial"",""time""
""fullscreenenter"",""5"",""16864""
","
","
","""event"",""trial"",""time""
""fullscreenenter"",""5"",""16864""
","
","492.40000000596046","","49","","","3000","1","","","images/redplanet1.jpg","images/alien2","images/alien1","images/rocket1","images/alien1","images/t.png","2","real","true","1","common","1","2023-01-02 19:35:50.179"
"two-step-fixation","174","534191","0.0-77.0-2.12","404","5525","16","Female","false","true","true","false","""event"",""trial"",""time""
""fullscreenenter"",""5"",""16864""
","
","
","""event"",""trial"",""time""
""fullscreenenter"",""5"",""16864""
","
","","images/earth.jpg","","","","","","","","","","","","","","fixation","","","","","",""
"d3-animate-choice","175","536602","0.0-77.0-0.13","404","5525","16","Female","false","true","true","false","""event"",""trial"",""time""
""fullscreenenter"",""5"",""16864""
","
","
","""event"",""trial"",""time""
""fullscreenenter"",""5"",""16864""
","
","406","","48","","","3000","1","","","images/earth.jpg","images/rocket1","images/rocket2","null","images/rocket1","","1","real","null","2","","",""
"d3-animate-choice","176","539062","0.0-77.0-1.13","404","5525","16","Female","false","true","true","false","""event"",""trial"",""time""
""fullscreenenter"",""5"",""16864""
","
","
","""event"",""trial"",""time""
""fullscreenenter"",""5"",""16864""
","
","453","","48","","","3000","1","","","images/purpleplanet.jpg","images/alien4","images/alien3","images/rocket1","images/alien4","images/nothing.png","2","real","false","2","rare","0","2023-01-02 19:35:56.055"
"two-step-fixation","177","540066","0.0-77.0-2.13","404","5525","16","Female","false","true","true","false","""event"",""trial"",""time""
""fullscreenenter"",""5"",""16864""
","
","
","""event"",""trial"",""time""
""fullscreenenter"",""5"",""16864""
","
","","images/earth.jpg","","","","","","","","","","","","","","fixation","","","","","",""
"d3-animate-choice","178","542425","0.0-77.0-0.14","404","5525","16","Female","false","true","true","false","""event"",""trial"",""time""
""fullscreenenter"",""5"",""16864""
","
","
","""event"",""trial"",""time""
""fullscreenenter"",""5"",""16864""
","
","353.5","","48","","","3000","1","","","images/earth.jpg","images/rocket1","images/rocket2","null","images/rocket1","","1","real","null","2","","",""
"d3-animate-choice","179","544821","0.0-77.0-1.14","404","5525","16","Female","false","true","true","false","""event"",""trial"",""time""
""fullscreenenter"",""5"",""16864""
","
","
","""event"",""trial"",""time""
""fullscreenenter"",""5"",""16864""
","
","391.5","","49","","","3000","1","","","images/redplanet1.jpg","images/alien2","images/alien1","images/rocket1","images/alien1","images/t.png","2","real","true","1","common","1","2023-01-02 19:36:01.814"
"two-step-fixation","180","545824","0.0-77.0-2.14","404","5525","16","Female","false","true","true","false","""event"",""trial"",""time""
""fullscreenenter"",""5"",""16864""
","
","
","""event"",""trial"",""time""
""fullscreenenter"",""5"",""16864""
","
","","images/earth.jpg","","","","","","","","","","","","","","fixation","","","","","",""
"d3-animate-choice","181","548172","0.0-77.0-0.15","404","5525","16","Female","false","true","true","false","""event"",""trial"",""time""
""fullscreenenter"",""5"",""16864""
","
","
","""event"",""trial"",""time""
""fullscreenenter"",""5"",""16864""
","
","343.10000002384186","","48","","","3000","1","","","images/earth.jpg","images/rocket1","images/rocket2","null","images/rocket1","","1","real","null","2","","",""
"d3-animate-choice","182","550638","0.0-77.0-1.15","404","5525","16","Female","false","true","true","false","""event"",""trial"",""time""
""fullscreenenter"",""5"",""16864""
","
","
","""event"",""trial"",""time""
""fullscreenenter"",""5"",""16864""
","
","458.09999999403954","","49","","","3000","1","","","images/redplanet1.jpg","images/alien2","images/alien1","images/rocket1","images/alien1","images/t.png","2","real","true","1","common","1","2023-01-02 19:36:07.631"
"two-step-fixation","183","551646","0.0-77.0-2.15","404","5525","16","Female","false","true","true","false","""event"",""trial"",""time""
""fullscreenenter"",""5"",""16864""
","
","
","""event"",""trial"",""time""
""fullscreenenter"",""5"",""16864""
","
","","images/earth.jpg","","","","","","","","","","","","","","fixation","","","","","",""
"d3-animate-choice","184","554155","0.0-77.0-0.16","404","5525","16","Female","false","true","true","false","""event"",""trial"",""time""
""fullscreenenter"",""5"",""16864""
","
","
","""event"",""trial"",""time""
""fullscreenenter"",""5"",""16864""
","
","504.40000000596046","","48","","","3000","1","","","images/earth.jpg","images/rocket1","images/rocket2","null","images/rocket1","","1","real","null","2","","",""
"d3-animate-choice","185","556633","0.0-77.0-1.16","404","5525","16","Female","false","true","true","false","""event"",""trial"",""time""
""fullscreenenter"",""5"",""16864""
","
","
","""event"",""trial"",""time""
""fullscreenenter"",""5"",""16864""
","
","470.09999999403954","","49","","","3000","1","","","images/redplanet1.jpg","images/alien2","images/alien1","images/rocket1","images/alien1","images/nothing.png","2","real","true","1","common","0","2023-01-02 19:36:13.626"
"two-step-fixation","186","557639","0.0-77.0-2.16","404","5525","16","Female","false","true","true","false","""event"",""trial"",""time""
""fullscreenenter"",""5"",""16864""
","
","
","""event"",""trial"",""time""
""fullscreenenter"",""5"",""16864""
","
","","images/earth.jpg","","","","","","","","","","","","","","fixation","","","","","",""
"d3-animate-choice","187","559972","0.0-77.0-0.17","404","5525","16","Female","false","true","true","false","""event"",""trial"",""time""
""fullscreenenter"",""5"",""16864""
","
","
","""event"",""trial"",""time""
""fullscreenenter"",""5"",""16864""
","
","329.30000001192093","","49","","","3000","1","","","images/earth.jpg","images/rocket1","images/rocket2","null","images/rocket2","","1","real","null","1","","",""
"d3-animate-choice","188","562402","0.0-77.0-1.17","404","5525","16","Female","false","true","true","false","""event"",""trial"",""time""
""fullscreenenter"",""5"",""16864""
","
","
","""event"",""trial"",""time""
""fullscreenenter"",""5"",""16864""
","
","426.5","","48","","","3000","1","","","images/purpleplanet.jpg","images/alien4","images/alien3","images/rocket2","images/alien4","images/t.png","2","real","true","2","common","1","2023-01-02 19:36:19.395"
"two-step-fixation","189","563406","0.0-77.0-2.17","404","5525","16","Female","false","true","true","false","""event"",""trial"",""time""
""fullscreenenter"",""5"",""16864""
","
","
","""event"",""trial"",""time""
""fullscreenenter"",""5"",""16864""
","
","","images/earth.jpg","","","","","","","","","","","","","","fixation","","","","","",""
"d3-animate-choice","190","565767","0.0-77.0-0.18","404","5525","16","Female","false","true","true","false","""event"",""trial"",""time""
""fullscreenenter"",""5"",""16864""
","
","
","""event"",""trial"",""time""
""fullscreenenter"",""5"",""16864""
","
","355.90000000596046","","49","","","3000","1","","","images/earth.jpg","images/rocket1","images/rocket2","null","images/rocket2","","1","real","null","1","","",""
"d3-animate-choice","191","568232","0.0-77.0-1.18","404","5525","16","Female","false","true","true","false","""event"",""trial"",""time""
""fullscreenenter"",""5"",""16864""
","
","
","""event"",""trial"",""time""
""fullscreenenter"",""5"",""16864""
","
","459.59999999403954","","48","","","3000","1","","","images/purpleplanet.jpg","images/alien4","images/alien3","images/rocket2","images/alien4","images/t.png","2","real","true","2","common","1","2023-01-02 19:36:25.225"
"two-step-fixation","192","569235","0.0-77.0-2.18","404","5525","16","Female","false","true","true","false","""event"",""trial"",""time""
""fullscreenenter"",""5"",""16864""
","
","
","""event"",""trial"",""time""
""fullscreenenter"",""5"",""16864""
","
","","images/earth.jpg","","","","","","","","","","","","","","fixation","","","","","",""
"d3-animate-choice","193","571628","0.0-77.0-0.19","404","5525","16","Female","false","true","true","false","""event"",""trial"",""time""
""fullscreenenter"",""5"",""16864""
","
","
","""event"",""trial"",""time""
""fullscreenenter"",""5"",""16864""
","
","388.5","","49","","","3000","1","","","images/earth.jpg","images/rocket1","images/rocket2","null","images/rocket2","","1","real","null","1","","",""
"d3-animate-choice","194","574153","0.0-77.0-1.19","404","5525","16","Female","false","true","true","false","""event"",""trial"",""time""
""fullscreenenter"",""5"",""16864""
","
","
","""event"",""trial"",""time""
""fullscreenenter"",""5"",""16864""
","
","522","","48","","","3000","1","","","images/purpleplanet.jpg","images/alien4","images/alien3","images/rocket2","images/alien4","images/nothing.png","2","real","true","2","common","0","2023-01-02 19:36:31.146"
"two-step-fixation","195","575157","0.0-77.0-2.19","404","5525","16","Female","false","true","true","false","""event"",""trial"",""time""
""fullscreenenter"",""5"",""16864""
","
","
","""event"",""trial"",""time""
""fullscreenenter"",""5"",""16864""
","
","","images/earth.jpg","","","","","","","","","","","","","","fixation","","","","","",""
"d3-animate-choice","196","577508","0.0-77.0-0.20","404","5525","16","Female","false","true","true","false","""event"",""trial"",""time""
""fullscreenenter"",""5"",""16864""
","
","
","""event"",""trial"",""time""
""fullscreenenter"",""5"",""16864""
","
","347.59999999403954","","48","","","3000","1","","","images/earth.jpg","images/rocket1","images/rocket2","null","images/rocket1","","1","real","null","2","","",""
"d3-animate-choice","197","580324","0.0-77.0-1.20","404","5525","16","Female","false","true","true","false","""event"",""trial"",""time""
""fullscreenenter"",""5"",""16864""
","
","
","""event"",""trial"",""time""
""fullscreenenter"",""5"",""16864""
","
","810.8000000119209","","48","","","3000","1","","","images/purpleplanet.jpg","images/alien4","images/alien3","images/rocket1","images/alien4","images/t.png","2","real","false","2","rare","1","2023-01-02 19:36:37.317"
"two-step-fixation","198","581327","0.0-77.0-2.20","404","5525","16","Female","false","true","true","false","""event"",""trial"",""time""
""fullscreenenter"",""5"",""16864""
","
","
","""event"",""trial"",""time""
""fullscreenenter"",""5"",""16864""
","
","","images/earth.jpg","","","","","","","","","","","","","","fixation","","","","","",""
"d3-animate-choice","199","583814","0.0-77.0-0.21","404","5525","16","Female","false","true","true","false","""event"",""trial"",""time""
""fullscreenenter"",""5"",""16864""
","
","
","""event"",""trial"",""time""
""fullscreenenter"",""5"",""16864""
","
","482.59999999403954","","48","","","3000","1","","","images/earth.jpg","images/rocket1","images/rocket2","null","images/rocket1","","1","real","null","2","","",""
"d3-animate-choice","200","586324","0.0-77.0-1.21","404","5525","16","Female","false","true","true","false","""event"",""trial"",""time""
""fullscreenenter"",""5"",""16864""
","
","
","""event"",""trial"",""time""
""fullscreenenter"",""5"",""16864""
","
","503.30000001192093","","48","","","3000","1","","","images/redplanet1.jpg","images/alien2","images/alien1","images/rocket1","images/alien2","images/t.png","2","real","true","2","common","1","2023-01-02 19:36:43.317"
"two-step-fixation","201","587327","0.0-77.0-2.21","404","5525","16","Female","false","true","true","false","""event"",""trial"",""time""
""fullscreenenter"",""5"",""16864""
","
","
","""event"",""trial"",""time""
""fullscreenenter"",""5"",""16864""
","
","","images/earth.jpg","","","","","","","","","","","","","","fixation","","","","","",""
"d3-animate-choice","202","589654","0.0-77.0-0.22","404","5525","16","Female","false","true","true","false","""event"",""trial"",""time""
""fullscreenenter"",""5"",""16864""
","
","
","""event"",""trial"",""time""
""fullscreenenter"",""5"",""16864""
","
","323.90000000596046","","48","","","3000","1","","","images/earth.jpg","images/rocket1","images/rocket2","null","images/rocket1","","1","real","null","2","","",""
"d3-animate-choice","203","592160","0.0-77.0-1.22","404","5525","16","Female","false","true","true","false","""event"",""trial"",""time""
""fullscreenenter"",""5"",""16864""
","
","
","""event"",""trial"",""time""
""fullscreenenter"",""5"",""16864""
","
","499.90000000596046","","49","","","3000","1","","","images/redplanet1.jpg","images/alien2","images/alien1","images/rocket1","images/alien1","images/t.png","2","real","true","1","common","1","2023-01-02 19:36:49.153"
"two-step-fixation","204","593165","0.0-77.0-2.22","404","5525","16","Female","false","true","true","false","""event"",""trial"",""time""
""fullscreenenter"",""5"",""16864""
","
","
","""event"",""trial"",""time""
""fullscreenenter"",""5"",""16864""
","
","","images/earth.jpg","","","","","","","","","","","","","","fixation","","","","","",""
"d3-animate-choice","205","595487","0.0-77.0-0.23","404","5525","16","Female","false","true","true","false","""event"",""trial"",""time""
""fullscreenenter"",""5"",""16864""
","
","
","""event"",""trial"",""time""
""fullscreenenter"",""5"",""16864""
","
","317.59999999403954","","48","","","3000","1","","","images/earth.jpg","images/rocket1","images/rocket2","null","images/rocket1","","1","real","null","2","","",""
"d3-animate-choice","206","598187","0.0-77.0-1.23","404","5525","16","Female","false","true","true","false","""event"",""trial"",""time""
""fullscreenenter"",""5"",""16864""
","
","
","""event"",""trial"",""time""
""fullscreenenter"",""5"",""16864""
","
","696.7000000178814","","49","","","3000","1","","","images/purpleplanet.jpg","images/alien4","images/alien3","images/rocket1","images/alien3","images/nothing.png","2","real","false","1","rare","0","2023-01-02 19:36:55.181"
"two-step-fixation","207","599191","0.0-77.0-2.23","404","5525","16","Female","false","true","true","false","""event"",""trial"",""time""
""fullscreenenter"",""5"",""16864""
","
","
","""event"",""trial"",""time""
""fullscreenenter"",""5"",""16864""
","
","","images/earth.jpg","","","","","","","","","","","","","","fixation","","","","","",""
"d3-animate-choice","208","601559","0.0-77.0-0.24","404","5525","16","Female","false","true","true","false","""event"",""trial"",""time""
""fullscreenenter"",""5"",""16864""
","
","
","""event"",""trial"",""time""
""fullscreenenter"",""5"",""16864""
","
","363.09999999403954","","49","","","3000","1","","","images/earth.jpg","images/rocket1","images/rocket2","null","images/rocket2","","1","real","null","1","","",""
"d3-animate-choice","209","604039","0.0-77.0-1.24","404","5525","16","Female","false","true","true","false","""event"",""trial"",""time""
""fullscreenenter"",""5"",""16864""
","
","
","""event"",""trial"",""time""
""fullscreenenter"",""5"",""16864""
","
","473.10000002384186","","49","","","3000","1","","","images/redplanet1.jpg","images/alien2","images/alien1","images/rocket2","images/alien1","images/t.png","2","real","false","1","rare","1","2023-01-02 19:37:01.032"
"two-step-fixation","210","605042","0.0-77.0-2.24","404","5525","16","Female","false","true","true","false","""event"",""trial"",""time""
""fullscreenenter"",""5"",""16864""
","
","
","""event"",""trial"",""time""
""fullscreenenter"",""5"",""16864""
","
","","images/earth.jpg","","","","","","","","","","","","","","fixation","","","","","",""
"d3-animate-choice","211","607375","0.0-77.0-0.25","404","5525","16","Female","false","true","true","false","""event"",""trial"",""time""
""fullscreenenter"",""5"",""16864""
","
","
","""event"",""trial"",""time""
""fullscreenenter"",""5"",""16864""
","
","325.19999998807907","","49","","","3000","1","","","images/earth.jpg","images/rocket1","images/rocket2","null","images/rocket2","","1","real","null","1","","",""
"d3-animate-choice","212","609767","0.0-77.0-1.25","404","5525","16","Female","false","true","true","false","""event"",""trial"",""time""
""fullscreenenter"",""5"",""16864""
","
","
","""event"",""trial"",""time""
""fullscreenenter"",""5"",""16864""
","
","388.30000001192093","","48","","","3000","1","","","images/purpleplanet.jpg","images/alien4","images/alien3","images/rocket2","images/alien4","images/nothing.png","2","real","true","2","common","0","2023-01-02 19:37:06.761"
"two-step-fixation","213","610772","0.0-77.0-2.25","404","5525","16","Female","false","true","true","false","""event"",""trial"",""time""
""fullscreenenter"",""5"",""16864""
","
","
","""event"",""trial"",""time""
""fullscreenenter"",""5"",""16864""
","
","","images/earth.jpg","","","","","","","","","","","","","","fixation","","","","","",""
"d3-animate-choice","214","613159","0.0-77.0-0.26","404","5525","16","Female","false","true","true","false","""event"",""trial"",""time""
""fullscreenenter"",""5"",""16864""
","
","
","""event"",""trial"",""time""
""fullscreenenter"",""5"",""16864""
","
","383","","48","","","3000","1","","","images/earth.jpg","images/rocket1","images/rocket2","null","images/rocket1","","1","real","null","2","","",""
"d3-animate-choice","215","615613","0.0-77.0-1.26","404","5525","16","Female","false","true","true","false","""event"",""trial"",""time""
""fullscreenenter"",""5"",""16864""
","
","
","""event"",""trial"",""time""
""fullscreenenter"",""5"",""16864""
","
","450","","49","","","3000","1","","","images/redplanet1.jpg","images/alien2","images/alien1","images/rocket1","images/alien1","images/t.png","2","real","true","1","common","1","2023-01-02 19:37:12.606"
"two-step-fixation","216","616618","0.0-77.0-2.26","404","5525","16","Female","false","true","true","false","""event"",""trial"",""time""
""fullscreenenter"",""5"",""16864""
","
","
","""event"",""trial"",""time""
""fullscreenenter"",""5"",""16864""
","
","","images/earth.jpg","","","","","","","","","","","","","","fixation","","","","","",""
"d3-animate-choice","217","618982","0.0-77.0-0.27","404","5525","16","Female","false","true","true","false","""event"",""trial"",""time""
""fullscreenenter"",""5"",""16864""
","
","
","""event"",""trial"",""time""
""fullscreenenter"",""5"",""16864""
","
","360.40000000596046","","48","","","3000","1","","","images/earth.jpg","images/rocket1","images/rocket2","null","images/rocket1","","1","real","null","2","","",""
"d3-animate-choice","218","621660","0.0-77.0-1.27","404","5525","16","Female","false","true","true","false","""event"",""trial"",""time""
""fullscreenenter"",""5"",""16864""
","
","
","""event"",""trial"",""time""
""fullscreenenter"",""5"",""16864""
","
","674.0999999940395","","49","","","3000","1","","","images/redplanet1.jpg","images/alien2","images/alien1","images/rocket1","images/alien1","images/t.png","2","real","true","1","common","1","2023-01-02 19:37:18.653"
"two-step-fixation","219","622664","0.0-77.0-2.27","404","5525","16","Female","false","true","true","false","""event"",""trial"",""time""
""fullscreenenter"",""5"",""16864""
","
","
","""event"",""trial"",""time""
""fullscreenenter"",""5"",""16864""
","
","","images/earth.jpg","","","","","","","","","","","","","","fixation","","","","","",""
"d3-animate-choice","220","624960","0.0-77.0-0.28","404","5525","16","Female","false","true","true","false","""event"",""trial"",""time""
""fullscreenenter"",""5"",""16864""
","
","
","""event"",""trial"",""time""
""fullscreenenter"",""5"",""16864""
","
","287.90000000596046","","48","","","3000","1","","","images/earth.jpg","images/rocket1","images/rocket2","null","images/rocket1","","1","real","null","2","","",""
"d3-animate-choice","221","627413","0.0-77.0-1.28","404","5525","16","Female","false","true","true","false","""event"",""trial"",""time""
""fullscreenenter"",""5"",""16864""
","
","
","""event"",""trial"",""time""
""fullscreenenter"",""5"",""16864""
","
","449.90000000596046","","49","","","3000","1","","","images/purpleplanet.jpg","images/alien4","images/alien3","images/rocket1","images/alien3","images/t.png","2","real","false","1","rare","1","2023-01-02 19:37:24.406"
"two-step-fixation","222","628417","0.0-77.0-2.28","404","5525","16","Female","false","true","true","false","""event"",""trial"",""time""
""fullscreenenter"",""5"",""16864""
","
","
","""event"",""trial"",""time""
""fullscreenenter"",""5"",""16864""
","
","","images/earth.jpg","","","","","","","","","","","","","","fixation","","","","","",""
"d3-animate-choice","223","630741","0.0-77.0-0.29","404","5525","16","Female","false","true","true","false","""event"",""trial"",""time""
""fullscreenenter"",""5"",""16864""
","
","
","""event"",""trial"",""time""
""fullscreenenter"",""5"",""16864""
","
","319.2000000178814","","48","","","3000","1","","","images/earth.jpg","images/rocket1","images/rocket2","null","images/rocket1","","1","real","null","2","","",""
"d3-animate-choice","224","633174","0.0-77.0-1.29","404","5525","16","Female","false","true","true","false","""event"",""trial"",""time""
""fullscreenenter"",""5"",""16864""
","
","
","""event"",""trial"",""time""
""fullscreenenter"",""5"",""16864""
","
","429.90000000596046","","49","","","3000","1","","","images/redplanet1.jpg","images/alien2","images/alien1","images/rocket1","images/alien1","images/t.png","2","real","true","1","common","1","2023-01-02 19:37:30.167"
"two-step-fixation","225","634178","0.0-77.0-2.29","404","5525","16","Female","false","true","true","false","""event"",""trial"",""time""
""fullscreenenter"",""5"",""16864""
","
","
","""event"",""trial"",""time""
""fullscreenenter"",""5"",""16864""
","
","","images/earth.jpg","","","","","","","","","","","","","","fixation","","","","","",""
"d3-animate-choice","226","636514","0.0-77.0-0.30","404","5525","16","Female","false","true","true","false","""event"",""trial"",""time""
""fullscreenenter"",""5"",""16864""
","
","
","""event"",""trial"",""time""
""fullscreenenter"",""5"",""16864""
","
","332.30000001192093","","48","","","3000","1","","","images/earth.jpg","images/rocket1","images/rocket2","null","images/rocket1","","1","real","null","2","","",""
"d3-animate-choice","227","639066","0.0-77.0-1.30","404","5525","16","Female","false","true","true","false","""event"",""trial"",""time""
""fullscreenenter"",""5"",""16864""
","
","
","""event"",""trial"",""time""
""fullscreenenter"",""5"",""16864""
","
","547.5999999940395","","49","","","3000","1","","","images/redplanet1.jpg","images/alien2","images/alien1","images/rocket1","images/alien1","images/t.png","2","real","true","1","common","1","2023-01-02 19:37:36.059"
"two-step-fixation","228","640070","0.0-77.0-2.30","404","5525","16","Female","false","true","true","false","""event"",""trial"",""time""
""fullscreenenter"",""5"",""16864""
","
","
","""event"",""trial"",""time""
""fullscreenenter"",""5"",""16864""
","
","","images/earth.jpg","","","","","","","","","","","","","","fixation","","","","","",""
"d3-animate-choice","229","642381","0.0-77.0-0.31","404","5525","16","Female","false","true","true","false","""event"",""trial"",""time""
""fullscreenenter"",""5"",""16864""
","
","
","""event"",""trial"",""time""
""fullscreenenter"",""5"",""16864""
","
","306","","48","","","3000","1","","","images/earth.jpg","images/rocket1","images/rocket2","null","images/rocket1","","1","real","null","2","","",""
"d3-animate-choice","230","644904","0.0-77.0-1.31","404","5525","16","Female","false","true","true","false","""event"",""trial"",""time""
""fullscreenenter"",""5"",""16864""
","
","
","""event"",""trial"",""time""
""fullscreenenter"",""5"",""16864""
","
","518.9000000059605","","49","","","3000","1","","","images/redplanet1.jpg","images/alien2","images/alien1","images/rocket1","images/alien1","images/nothing.png","2","real","true","1","common","0","2023-01-02 19:37:41.897"
"two-step-fixation","231","645909","0.0-77.0-2.31","404","5525","16","Female","false","true","true","false","""event"",""trial"",""time""
""fullscreenenter"",""5"",""16864""
","
","
","""event"",""trial"",""time""
""fullscreenenter"",""5"",""16864""
","
","","images/earth.jpg","","","","","","","","","","","","","","fixation","","","","","",""
"d3-animate-choice","232","648347","0.0-77.0-0.32","404","5525","16","Female","false","true","true","false","""event"",""trial"",""time""
""fullscreenenter"",""5"",""16864""
","
","
","""event"",""trial"",""time""
""fullscreenenter"",""5"",""16864""
","
","434.5","","49","","","3000","1","","","images/earth.jpg","images/rocket1","images/rocket2","null","images/rocket2","","1","real","null","1","","",""
"d3-animate-choice","233","650769","0.0-77.0-1.32","404","5525","16","Female","false","true","true","false","""event"",""trial"",""time""
""fullscreenenter"",""5"",""16864""
","
","
","""event"",""trial"",""time""
""fullscreenenter"",""5"",""16864""
","
","417.90000000596046","","48","","","3000","1","","","images/purpleplanet.jpg","images/alien4","images/alien3","images/rocket2","images/alien4","images/t.png","2","real","true","2","common","1","2023-01-02 19:37:47.762"
"two-step-fixation","234","651775","0.0-77.0-2.32","404","5525","16","Female","false","true","true","false","""event"",""trial"",""time""
""fullscreenenter"",""5"",""16864""
","
","
","""event"",""trial"",""time""
""fullscreenenter"",""5"",""16864""
","
","","images/earth.jpg","","","","","","","","","","","","","","fixation","","","","","",""
"d3-animate-choice","235","654119","0.0-77.0-0.33","404","5525","16","Female","false","true","true","false","""event"",""trial"",""time""
""fullscreenenter"",""5"",""16864""
","
","
","""event"",""trial"",""time""
""fullscreenenter"",""5"",""16864""
","
","336.40000000596046","","49","","","3000","1","","","images/earth.jpg","images/rocket1","images/rocket2","null","images/rocket2","","1","real","null","1","","",""
"d3-animate-choice","236","656638","0.0-77.0-1.33","404","5525","16","Female","false","true","true","false","""event"",""trial"",""time""
""fullscreenenter"",""5"",""16864""
","
","
","""event"",""trial"",""time""
""fullscreenenter"",""5"",""16864""
","
","512.2999999821186","","49","","","3000","1","","","images/purpleplanet.jpg","images/alien4","images/alien3","images/rocket2","images/alien3","images/t.png","2","real","true","1","common","1","2023-01-02 19:37:53.632"
"two-step-fixation","237","657643","0.0-77.0-2.33","404","5525","16","Female","false","true","true","false","""event"",""trial"",""time""
""fullscreenenter"",""5"",""16864""
","
","
","""event"",""trial"",""time""
""fullscreenenter"",""5"",""16864""
","
","","images/earth.jpg","","","","","","","","","","","","","","fixation","","","","","",""
"d3-animate-choice","238","659978","0.0-77.0-0.34","404","5525","16","Female","false","true","true","false","""event"",""trial"",""time""
""fullscreenenter"",""5"",""16864""
","
","
","""event"",""trial"",""time""
""fullscreenenter"",""5"",""16864""
","
","331.09999999403954","","49","","","3000","1","","","images/earth.jpg","images/rocket1","images/rocket2","null","images/rocket2","","1","real","null","1","","",""
"d3-animate-choice","239","662380","0.0-77.0-1.34","404","5525","16","Female","false","true","true","false","""event"",""trial"",""time""
""fullscreenenter"",""5"",""16864""
","
","
","""event"",""trial"",""time""
""fullscreenenter"",""5"",""16864""
","
","394.09999999403954","","49","","","3000","1","","","images/purpleplanet.jpg","images/alien4","images/alien3","images/rocket2","images/alien3","images/nothing.png","2","real","true","1","common","0","2023-01-02 19:37:59.373"
"two-step-fixation","240","663383","0.0-77.0-2.34","404","5525","16","Female","false","true","true","false","""event"",""trial"",""time""
""fullscreenenter"",""5"",""16864""
","
","
","""event"",""trial"",""time""
""fullscreenenter"",""5"",""16864""
","
","","images/earth.jpg","","","","","","","","","","","","","","fixation","","","","","",""
"d3-animate-choice","241","665700","0.0-77.0-0.35","404","5525","16","Female","false","true","true","false","""event"",""trial"",""time""
""fullscreenenter"",""5"",""16864""
","
","
","""event"",""trial"",""time""
""fullscreenenter"",""5"",""16864""
","
","313.90000000596046","","49","","","3000","1","","","images/earth.jpg","images/rocket1","images/rocket2","null","images/rocket2","","1","real","null","1","","",""
"d3-animate-choice","242","668295","0.0-77.0-1.35","404","5525","16","Female","false","true","true","false","""event"",""trial"",""time""
""fullscreenenter"",""5"",""16864""
","
","
","""event"",""trial"",""time""
""fullscreenenter"",""5"",""16864""
","
","590","","48","","","3000","1","","","images/purpleplanet.jpg","images/alien4","images/alien3","images/rocket2","images/alien4","images/nothing.png","2","real","true","2","common","0","2023-01-02 19:38:05.288"
"two-step-fixation","243","669298","0.0-77.0-2.35","404","5525","16","Female","false","true","true","false","""event"",""trial"",""time""
""fullscreenenter"",""5"",""16864""
","
","
","""event"",""trial"",""time""
""fullscreenenter"",""5"",""16864""
","
","","images/earth.jpg","","","","","","","","","","","","","","fixation","","","","","",""
"d3-animate-choice","244","671650","0.0-77.0-0.36","404","5525","16","Female","false","true","true","false","""event"",""trial"",""time""
""fullscreenenter"",""5"",""16864""
","
","
","""event"",""trial"",""time""
""fullscreenenter"",""5"",""16864""
","
","347.2000000178814","","48","","","3000","1","","","images/earth.jpg","images/rocket1","images/rocket2","null","images/rocket1","","1","real","null","2","","",""
"d3-animate-choice","245","674065","0.0-77.0-1.36","404","5525","16","Female","false","true","true","false","""event"",""trial"",""time""
""fullscreenenter"",""5"",""16864""
","
","
","""event"",""trial"",""time""
""fullscreenenter"",""5"",""16864""
","
","408.10000002384186","","49","","","3000","1","","","images/redplanet1.jpg","images/alien2","images/alien1","images/rocket1","images/alien1","images/t.png","2","real","true","1","common","1","2023-01-02 19:38:11.058"
"two-step-fixation","246","675070","0.0-77.0-2.36","404","5525","16","Female","false","true","true","false","""event"",""trial"",""time""
