"trial_type","trial_index","time_elapsed","internal_node_id","participant_id","subject_id","age","gender","rocket_sides","red_planet_first_rocket","red_display_order","purple_display_order","interactions","blur_events","focus_events","fullscreenenter_events","fullscreenexit_events","rt","stimulus","key_press","button_pressed","success","duration","valid_pressed","rts","keys","planet_text","right_text","left_text","center_text","chosen_text","reward_text","trial_stage","practice_trial","transition_type","choice","transition","reward","timestamp"
"pavlovia","0","2","0.0-0.0","2669","5594","19","Female","true","true","false","false","""event"",""trial"",""time""
""blur"",""0"",""0""
""focus"",""0"",""0""
","""event"",""trial"",""time""
""blur"",""0"",""0""
","""event"",""trial"",""time""
""focus"",""0"",""0""
","
","
","","","","","","","","","","","","","","","","","","","","","",""
"html-keyboard-response","1","787","0.0-1.0","2669","5594","19","Female","true","true","false","false","""event"",""trial"",""time""
""blur"",""0"",""0""
""focus"",""0"",""0""
","""event"",""trial"",""time""
""blur"",""0"",""0""
","""event"",""trial"",""time""
""focus"",""0"",""0""
","
","
","784.6999999880791","Welcome! Press the space bar to begin.","32","","","","","","","","","","","","","","","","","","",""
"audio-keyboard-response","2","2866","0.0-2.0","2669","5594","19","Female","true","true","false","false","""event"",""trial"",""time""
""blur"",""0"",""0""
""focus"",""0"",""0""
","""event"",""trial"",""time""
""blur"",""0"",""0""
","""event"",""trial"",""time""
""focus"",""0"",""0""
","
","
","1892","audio/beep_loop.wav","32","","","","","","","","","","","","","","","","","","",""
"audio-button-response","3","4379","0.0-3.0","2669","5594","19","Female","true","true","false","false","""event"",""trial"",""time""
""blur"",""0"",""0""
""focus"",""0"",""0""
","""event"",""trial"",""time""
""blur"",""0"",""0""
","""event"",""trial"",""time""
""focus"",""0"",""0""
","
","
","NaN","audio/fish.mp3","","1","","","","","","","","","","","","","","","","","",""
"audio-button-response","4","6894","0.0-4.0","2669","5594","19","Female","true","true","false","false","""event"",""trial"",""time""
""blur"",""0"",""0""
""focus"",""0"",""0""
""fullscreenenter"",""5"",""9385""
","""event"",""trial"",""time""
""blur"",""0"",""0""
","""event"",""trial"",""time""
""focus"",""0"",""0""
","""event"",""trial"",""time""
""fullscreenenter"",""5"",""9385""
","
","NaN","audio/tiger.mp3","","4","","","","","","","","","","","","","","","","","",""
"fullscreen","5","10381","0.0-5.0","2669","5594","19","Female","true","true","false","false","""event"",""trial"",""time""
""blur"",""0"",""0""
""focus"",""0"",""0""
""fullscreenenter"",""5"",""9385""
","""event"",""trial"",""time""
""blur"",""0"",""0""
","""event"",""trial"",""time""
""focus"",""0"",""0""
","""event"",""trial"",""time""
""fullscreenenter"",""5"",""9385""
","
","","","","","true","","","","","","","","","","","","","","","","",""
"d3-instructions","6","16335","0.0-6.0","2669","5594","19","Female","true","true","false","false","""event"",""trial"",""time""
""blur"",""0"",""0""
""focus"",""0"",""0""
""fullscreenenter"",""5"",""9385""
","""event"",""trial"",""time""
""blur"",""0"",""0""
","""event"",""trial"",""time""
""focus"",""0"",""0""
","""event"",""trial"",""time""
""fullscreenenter"",""5"",""9385""
","
","","","","","","","","","","","","","","","","","","","","","",""
"d3-instructions","7","23428","0.0-7.0","2669","5594","19","Female","true","true","false","false","""event"",""trial"",""time""
""blur"",""0"",""0""
""focus"",""0"",""0""
""fullscreenenter"",""5"",""9385""
","""event"",""trial"",""time""
""blur"",""0"",""0""
","""event"",""trial"",""time""
""focus"",""0"",""0""
","""event"",""trial"",""time""
""fullscreenenter"",""5"",""9385""
","
","","","","","","","","","","","","","","","","","","","","","",""
"d3-instructions","8","26702","0.0-8.0","2669","5594","19","Female","true","true","false","false","""event"",""trial"",""time""
""blur"",""0"",""0""
""focus"",""0"",""0""
""fullscreenenter"",""5"",""9385""
","""event"",""trial"",""time""
""blur"",""0"",""0""
","""event"",""trial"",""time""
""focus"",""0"",""0""
","""event"",""trial"",""time""
""fullscreenenter"",""5"",""9385""
","
","","","","","","","","","","","","","","","","","","","","","",""
"d3-instructions","9","29726","0.0-9.0","2669","5594","19","Female","true","true","false","false","""event"",""trial"",""time""
""blur"",""0"",""0""
""focus"",""0"",""0""
""fullscreenenter"",""5"",""9385""
","""event"",""trial"",""time""
""blur"",""0"",""0""
","""event"",""trial"",""time""
""focus"",""0"",""0""
","""event"",""trial"",""time""
""fullscreenenter"",""5"",""9385""
","
","","","","","","","","","","","","","","","","","","","","","",""
"d3-instructions","10","36203","0.0-10.0","2669","5594","19","Female","true","true","false","false","""event"",""trial"",""time""
""blur"",""0"",""0""
""focus"",""0"",""0""
""fullscreenenter"",""5"",""9385""
","""event"",""trial"",""time""
""blur"",""0"",""0""
","""event"",""trial"",""time""
""focus"",""0"",""0""
","""event"",""trial"",""time""
""fullscreenenter"",""5"",""9385""
","
","","","","","","","","","","","","","","","","","","","","","",""
"d3-animate-choice","11","39682","0.0-11.0","2669","5594","19","Female","true","true","false","false","""event"",""trial"",""time""
""blur"",""0"",""0""
""focus"",""0"",""0""
""fullscreenenter"",""5"",""9385""
","""event"",""trial"",""time""
""blur"",""0"",""0""
","""event"",""trial"",""time""
""focus"",""0"",""0""
","""event"",""trial"",""time""
""fullscreenenter"",""5"",""9385""
","
","1471.5","","49","","","3000","1","2715","32","images/tutgreenplanet.jpg","images/tutalien1","images/tutalien2","null","images/tutalien2","","NA","practice","null","","","",""
"d3-animate-choice","12","42834","0.0-12.0","2669","5594","19","Female","true","true","false","false","""event"",""trial"",""time""
""blur"",""0"",""0""
""focus"",""0"",""0""
""fullscreenenter"",""5"",""9385""
","""event"",""trial"",""time""
""blur"",""0"",""0""
","""event"",""trial"",""time""
""focus"",""0"",""0""
","""event"",""trial"",""time""
""fullscreenenter"",""5"",""9385""
","
","1142.3999999761581","","48","","","3000","1","","","images/tutgreenplanet.jpg","images/tutalien1","images/tutalien2","null","images/tutalien1","","NA","practice","null","","","",""
"d3-animate-choice","13","45591","0.0-13.0","2669","5594","19","Female","true","true","false","false","""event"",""trial"",""time""
""blur"",""0"",""0""
""focus"",""0"",""0""
""fullscreenenter"",""5"",""9385""
","""event"",""trial"",""time""
""blur"",""0"",""0""
","""event"",""trial"",""time""
""focus"",""0"",""0""
","""event"",""trial"",""time""
""fullscreenenter"",""5"",""9385""
","
","748.6999999880791","","49","","","3000","1","","","images/tutgreenplanet.jpg","images/tutalien1","images/tutalien2","null","images/tutalien2","","NA","practice","null","","","",""
"d3-animate-choice","14","47985","0.0-14.0","2669","5594","19","Female","true","true","false","false","""event"",""trial"",""time""
""blur"",""0"",""0""
""focus"",""0"",""0""
""fullscreenenter"",""5"",""9385""
","""event"",""trial"",""time""
""blur"",""0"",""0""
","""event"",""trial"",""time""
""focus"",""0"",""0""
","""event"",""trial"",""time""
""fullscreenenter"",""5"",""9385""
","
","387.80000001192093","","48","","","3000","1","","","images/tutgreenplanet.jpg","images/tutalien1","images/tutalien2","null","images/tutalien1","","NA","practice","null","","","",""
"d3-instructions","15","52301","0.0-15.0","2669","5594","19","Female","true","true","false","false","""event"",""trial"",""time""
""blur"",""0"",""0""
""focus"",""0"",""0""
""fullscreenenter"",""5"",""9385""
","""event"",""trial"",""time""
""blur"",""0"",""0""
","""event"",""trial"",""time""
""focus"",""0"",""0""
","""event"",""trial"",""time""
""fullscreenenter"",""5"",""9385""
","
","","","","","","","","","","","","","","","","","","","","","",""
"d3-instructions","16","53961","0.0-16.0","2669","5594","19","Female","true","true","false","false","""event"",""trial"",""time""
""blur"",""0"",""0""
""focus"",""0"",""0""
""fullscreenenter"",""5"",""9385""
","""event"",""trial"",""time""
""blur"",""0"",""0""
","""event"",""trial"",""time""
""focus"",""0"",""0""
","""event"",""trial"",""time""
""fullscreenenter"",""5"",""9385""
","
","","","","","","","","","","","","","","","","","","","","","",""
"d3-instructions","17","57780","0.0-17.0","2669","5594","19","Female","true","true","false","false","""event"",""trial"",""time""
""blur"",""0"",""0""
""focus"",""0"",""0""
""fullscreenenter"",""5"",""9385""
","""event"",""trial"",""time""
""blur"",""0"",""0""
","""event"",""trial"",""time""
""focus"",""0"",""0""
","""event"",""trial"",""time""
""fullscreenenter"",""5"",""9385""
","
","","","","","","","","","","","","","","","","","","","","","",""
"d3-instructions","18","60373","0.0-18.0","2669","5594","19","Female","true","true","false","false","""event"",""trial"",""time""
""blur"",""0"",""0""
""focus"",""0"",""0""
""fullscreenenter"",""5"",""9385""
","""event"",""trial"",""time""
""blur"",""0"",""0""
","""event"",""trial"",""time""
""focus"",""0"",""0""
","""event"",""trial"",""time""
""fullscreenenter"",""5"",""9385""
","
","","","","","","","","","","","","","","","","","","","","","",""
"d3-instructions","19","63463","0.0-19.0","2669","5594","19","Female","true","true","false","false","""event"",""trial"",""time""
""blur"",""0"",""0""
""focus"",""0"",""0""
""fullscreenenter"",""5"",""9385""
","""event"",""trial"",""time""
""blur"",""0"",""0""
","""event"",""trial"",""time""
""focus"",""0"",""0""
","""event"",""trial"",""time""
""fullscreenenter"",""5"",""9385""
","
","","","","","","","","","","","","","","","","","","","","","",""
"d3-animate-choice","20","66234","0.0-20.0","2669","5594","19","Female","true","true","false","false","""event"",""trial"",""time""
""blur"",""0"",""0""
""focus"",""0"",""0""
""fullscreenenter"",""5"",""9385""
","""event"",""trial"",""time""
""blur"",""0"",""0""
","""event"",""trial"",""time""
""focus"",""0"",""0""
","""event"",""trial"",""time""
""fullscreenenter"",""5"",""9385""
","
","763.3000000119209","","49","","","3000","1","","","images/tutyellowplanet.jpg","null","images/tutalien3","null","images/tutalien3","images/t.png","NA","practice","null","","","",""
"d3-animate-choice","21","68465","0.0-21.0","2669","5594","19","Female","true","true","false","false","""event"",""trial"",""time""
""blur"",""0"",""0""
""focus"",""0"",""0""
""fullscreenenter"",""5"",""9385""
","""event"",""trial"",""time""
""blur"",""0"",""0""
","""event"",""trial"",""time""
""focus"",""0"",""0""
","""event"",""trial"",""time""
""fullscreenenter"",""5"",""9385""
","
","223.19999998807907","","49","","","3000","1","1783.800000011921","49","images/tutyellowplanet.jpg","null","images/tutalien3","null","images/tutalien3","images/t.png","NA","practice","null","","","",""
"d3-animate-choice","22","70704","0.0-22.0","2669","5594","19","Female","true","true","false","false","""event"",""trial"",""time""
""blur"",""0"",""0""
""focus"",""0"",""0""
""fullscreenenter"",""5"",""9385""
","""event"",""trial"",""time""
""blur"",""0"",""0""
","""event"",""trial"",""time""
""focus"",""0"",""0""
","""event"",""trial"",""time""
""fullscreenenter"",""5"",""9385""
","
","234.70000004768372","","49","","","3000","1","","","images/tutyellowplanet.jpg","null","images/tutalien3","null","images/tutalien3","images/nothing.png","NA","practice","null","","","",""
"d3-animate-choice","23","73020","0.0-23.0","2669","5594","19","Female","true","true","false","false","""event"",""trial"",""time""
""blur"",""0"",""0""
""focus"",""0"",""0""
""fullscreenenter"",""5"",""9385""
","""event"",""trial"",""time""
""blur"",""0"",""0""
","""event"",""trial"",""time""
""focus"",""0"",""0""
","""event"",""trial"",""time""
""fullscreenenter"",""5"",""9385""
","
","311.5","","49","","","3000","1","","","images/tutyellowplanet.jpg","null","images/tutalien3","null","images/tutalien3","images/t.png","NA","practice","null","","","",""
"d3-animate-choice","24","75057","0.0-24.0","2669","5594","19","Female","true","true","false","false","""event"",""trial"",""time""
""blur"",""0"",""0""
""focus"",""0"",""0""
""fullscreenenter"",""5"",""9385""
","""event"",""trial"",""time""
""blur"",""0"",""0""
","""event"",""trial"",""time""
""focus"",""0"",""0""
","""event"",""trial"",""time""
""fullscreenenter"",""5"",""9385""
","
","28","","49","","","3000","1","2017.699999988079","49","images/tutyellowplanet.jpg","null","images/tutalien3","null","images/tutalien3","images/t.png","NA","practice","null","","","",""
"d3-animate-choice","25","77558","0.0-25.0","2669","5594","19","Female","true","true","false","false","""event"",""trial"",""time""
""blur"",""0"",""0""
""focus"",""0"",""0""
""fullscreenenter"",""5"",""9385""
","""event"",""trial"",""time""
""blur"",""0"",""0""
","""event"",""trial"",""time""
""focus"",""0"",""0""
","""event"",""trial"",""time""
""fullscreenenter"",""5"",""9385""
","
","495.5999999642372","","49","","","3000","1","2132.300000011921","49","images/tutyellowplanet.jpg","null","images/tutalien3","null","images/tutalien3","images/t.png","NA","practice","null","","","",""
"d3-animate-choice","26","79828","0.0-26.0","2669","5594","19","Female","true","true","false","false","""event"",""trial"",""time""
""blur"",""0"",""0""
""focus"",""0"",""0""
""fullscreenenter"",""5"",""9385""
","""event"",""trial"",""time""
""blur"",""0"",""0""
","""event"",""trial"",""time""
""focus"",""0"",""0""
","""event"",""trial"",""time""
""fullscreenenter"",""5"",""9385""
","
","265.7999999523163","","49","","","3000","1","","","images/tutyellowplanet.jpg","null","images/tutalien3","null","images/tutalien3","images/nothing.png","NA","practice","null","","","",""
"d3-animate-choice","27","82153","0.0-27.0","2669","5594","19","Female","true","true","false","false","""event"",""trial"",""time""
""blur"",""0"",""0""
""focus"",""0"",""0""
""fullscreenenter"",""5"",""9385""
","""event"",""trial"",""time""
""blur"",""0"",""0""
","""event"",""trial"",""time""
""focus"",""0"",""0""
","""event"",""trial"",""time""
""fullscreenenter"",""5"",""9385""
","
","321","","49","","","3000","1","","","images/tutyellowplanet.jpg","null","images/tutalien3","null","images/tutalien3","images/t.png","NA","practice","null","","","",""
"d3-animate-choice","28","84340","0.0-28.0","2669","5594","19","Female","true","true","false","false","""event"",""trial"",""time""
""blur"",""0"",""0""
""focus"",""0"",""0""
""fullscreenenter"",""5"",""9385""
","""event"",""trial"",""time""
""blur"",""0"",""0""
","""event"",""trial"",""time""
""focus"",""0"",""0""
","""event"",""trial"",""time""
""fullscreenenter"",""5"",""9385""
","
","180.70000004768372","","49","","","3000","1","","","images/tutyellowplanet.jpg","null","images/tutalien3","null","images/tutalien3","images/nothing.png","NA","practice","null","","","",""
"d3-animate-choice","29","86603","0.0-29.0","2669","5594","19","Female","true","true","false","false","""event"",""trial"",""time""
""blur"",""0"",""0""
""focus"",""0"",""0""
""fullscreenenter"",""5"",""9385""
","""event"",""trial"",""time""
""blur"",""0"",""0""
","""event"",""trial"",""time""
""focus"",""0"",""0""
","""event"",""trial"",""time""
""fullscreenenter"",""5"",""9385""
","
","256.39999997615814","","49","","","3000","1","","","images/tutyellowplanet.jpg","null","images/tutalien3","null","images/tutalien3","images/t.png","NA","practice","null","","","",""
"d3-instructions","30","88608","0.0-30.0","2669","5594","19","Female","true","true","false","false","""event"",""trial"",""time""
""blur"",""0"",""0""
""focus"",""0"",""0""
""fullscreenenter"",""5"",""9385""
","""event"",""trial"",""time""
""blur"",""0"",""0""
","""event"",""trial"",""time""
""focus"",""0"",""0""
","""event"",""trial"",""time""
""fullscreenenter"",""5"",""9385""
","
","","","","","","","","","","","","","","","","","","","","","",""
"d3-instructions","31","91043","0.0-31.0","2669","5594","19","Female","true","true","false","false","""event"",""trial"",""time""
""blur"",""0"",""0""
""focus"",""0"",""0""
""fullscreenenter"",""5"",""9385""
","""event"",""trial"",""time""
""blur"",""0"",""0""
","""event"",""trial"",""time""
""focus"",""0"",""0""
","""event"",""trial"",""time""
""fullscreenenter"",""5"",""9385""
","
","","","","","","","","","","","","","","","","","","","","","",""
"d3-instructions","32","93056","0.0-32.0","2669","5594","19","Female","true","true","false","false","""event"",""trial"",""time""
""blur"",""0"",""0""
""focus"",""0"",""0""
""fullscreenenter"",""5"",""9385""
","""event"",""trial"",""time""
""blur"",""0"",""0""
","""event"",""trial"",""time""
""focus"",""0"",""0""
","""event"",""trial"",""time""
""fullscreenenter"",""5"",""9385""
","
","","","","","","","","","","","","","","","","","","","","","",""
"d3-instructions","33","94266","0.0-33.0","2669","5594","19","Female","true","true","false","false","""event"",""trial"",""time""
""blur"",""0"",""0""
""focus"",""0"",""0""
""fullscreenenter"",""5"",""9385""
","""event"",""trial"",""time""
""blur"",""0"",""0""
","""event"",""trial"",""time""
""focus"",""0"",""0""
","""event"",""trial"",""time""
""fullscreenenter"",""5"",""9385""
","
","","","","","","","","","","","","","","","","","","","","","",""
"d3-animate-choice","34","96773","0.0-34.0","2669","5594","19","Female","true","true","false","false","""event"",""trial"",""time""
""blur"",""0"",""0""
""focus"",""0"",""0""
""fullscreenenter"",""5"",""9385""
","""event"",""trial"",""time""
""blur"",""0"",""0""
","""event"",""trial"",""time""
""focus"",""0"",""0""
","""event"",""trial"",""time""
""fullscreenenter"",""5"",""9385""
","
","503.5","","49","","","3000","1","1874.1000000238419","48","images/tutgreenplanet.jpg","images/tutalien1","images/tutalien2","null","images/tutalien2","images/t.png","NA","practice","null","","","",""
"d3-animate-choice","35","98986","0.0-35.0","2669","5594","19","Female","true","true","false","false","""event"",""trial"",""time""
""blur"",""0"",""0""
""focus"",""0"",""0""
""fullscreenenter"",""5"",""9385""
","""event"",""trial"",""time""
""blur"",""0"",""0""
","""event"",""trial"",""time""
""focus"",""0"",""0""
","""event"",""trial"",""time""
""fullscreenenter"",""5"",""9385""
","
","205.19999998807907","","49","","","3000","1","1594.800000011921","48","images/tutgreenplanet.jpg","images/tutalien1","images/tutalien2","null","images/tutalien2","images/nothing.png","NA","practice","null","","","",""
"d3-animate-choice","36","101325","0.0-36.0","2669","5594","19","Female","true","true","false","false","""event"",""trial"",""time""
""blur"",""0"",""0""
""focus"",""0"",""0""
""fullscreenenter"",""5"",""9385""
","""event"",""trial"",""time""
""blur"",""0"",""0""
","""event"",""trial"",""time""
""focus"",""0"",""0""
","""event"",""trial"",""time""
""fullscreenenter"",""5"",""9385""
","
","329.0999999642372","","48","","","3000","1","","","images/tutgreenplanet.jpg","images/tutalien1","images/tutalien2","null","images/tutalien1","images/nothing.png","NA","practice","null","","","",""
"d3-animate-choice","37","103563","0.0-37.0","2669","5594","19","Female","true","true","false","false","""event"",""trial"",""time""
""blur"",""0"",""0""
""focus"",""0"",""0""
""fullscreenenter"",""5"",""9385""
","""event"",""trial"",""time""
""blur"",""0"",""0""
","""event"",""trial"",""time""
""focus"",""0"",""0""
","""event"",""trial"",""time""
""fullscreenenter"",""5"",""9385""
","
","232.80000001192093","","48","","","3000","1","","","images/tutgreenplanet.jpg","images/tutalien1","images/tutalien2","null","images/tutalien1","images/nothing.png","NA","practice","null","","","",""
"d3-animate-choice","38","105665","0.0-38.0","2669","5594","19","Female","true","true","false","false","""event"",""trial"",""time""
""blur"",""0"",""0""
""focus"",""0"",""0""
""fullscreenenter"",""5"",""9385""
","""event"",""trial"",""time""
""blur"",""0"",""0""
","""event"",""trial"",""time""
""focus"",""0"",""0""
","""event"",""trial"",""time""
""fullscreenenter"",""5"",""9385""
","
","95.60000002384186","","48","","","3000","1","","","images/tutgreenplanet.jpg","images/tutalien1","images/tutalien2","null","images/tutalien1","images/nothing.png","NA","practice","null","","","",""
"d3-animate-choice","39","107761","0.0-39.0","2669","5594","19","Female","true","true","false","false","""event"",""trial"",""time""
""blur"",""0"",""0""
""focus"",""0"",""0""
""fullscreenenter"",""5"",""9385""
","""event"",""trial"",""time""
""blur"",""0"",""0""
","""event"",""trial"",""time""
""focus"",""0"",""0""
","""event"",""trial"",""time""
""fullscreenenter"",""5"",""9385""
","
","92.5","","49","","","3000","1","2075.199999988079","48","images/tutgreenplanet.jpg","images/tutalien1","images/tutalien2","null","images/tutalien2","images/t.png","NA","practice","null","","","",""
"d3-animate-choice","40","110087","0.0-40.0","2669","5594","19","Female","true","true","false","false","""event"",""trial"",""time""
""blur"",""0"",""0""
""focus"",""0"",""0""
""fullscreenenter"",""5"",""9385""
","""event"",""trial"",""time""
""blur"",""0"",""0""
","""event"",""trial"",""time""
""focus"",""0"",""0""
","""event"",""trial"",""time""
""fullscreenenter"",""5"",""9385""
","
","322.69999998807907","","48","","","3000","1","","","images/tutgreenplanet.jpg","images/tutalien1","images/tutalien2","null","images/tutalien1","images/nothing.png","NA","practice","null","","","",""
"d3-animate-choice","41","112146","0.0-41.0","2669","5594","19","Female","true","true","false","false","""event"",""trial"",""time""
""blur"",""0"",""0""
""focus"",""0"",""0""
""fullscreenenter"",""5"",""9385""
","""event"",""trial"",""time""
""blur"",""0"",""0""
","""event"",""trial"",""time""
""focus"",""0"",""0""
","""event"",""trial"",""time""
""fullscreenenter"",""5"",""9385""
","
","50.19999998807907","","49","","","3000","1","","","images/tutgreenplanet.jpg","images/tutalien1","images/tutalien2","null","images/tutalien2","images/nothing.png","NA","practice","null","","","",""
"d3-animate-choice","42","114290","0.0-42.0","2669","5594","19","Female","true","true","false","false","""event"",""trial"",""time""
""blur"",""0"",""0""
""focus"",""0"",""0""
""fullscreenenter"",""5"",""9385""
","""event"",""trial"",""time""
""blur"",""0"",""0""
","""event"",""trial"",""time""
""focus"",""0"",""0""
","""event"",""trial"",""time""
""fullscreenenter"",""5"",""9385""
","
","135.69999998807907","","49","","","3000","1","1636.3999999761581","49","images/tutgreenplanet.jpg","images/tutalien1","images/tutalien2","null","images/tutalien2","images/nothing.png","NA","practice","null","","","",""
"d3-animate-choice","43","116494","0.0-43.0","2669","5594","19","Female","true","true","false","false","""event"",""trial"",""time""
""blur"",""0"",""0""
""focus"",""0"",""0""
""fullscreenenter"",""5"",""9385""
","""event"",""trial"",""time""
""blur"",""0"",""0""
","""event"",""trial"",""time""
""focus"",""0"",""0""
","""event"",""trial"",""time""
""fullscreenenter"",""5"",""9385""
","
","195.69999998807907","","49","","","3000","1","","","images/tutgreenplanet.jpg","images/tutalien1","images/tutalien2","null","images/tutalien2","images/t.png","NA","practice","null","","","",""
"d3-instructions","44","120870","0.0-44.0","2669","5594","19","Female","true","true","false","false","""event"",""trial"",""time""
""blur"",""0"",""0""
""focus"",""0"",""0""
""fullscreenenter"",""5"",""9385""
","""event"",""trial"",""time""
""blur"",""0"",""0""
","""event"",""trial"",""time""
""focus"",""0"",""0""
","""event"",""trial"",""time""
""fullscreenenter"",""5"",""9385""
","
","","","","","","","","","","","","","","","","","","","","","",""
"d3-instructions","45","121950","0.0-45.0","2669","5594","19","Female","true","true","false","false","""event"",""trial"",""time""
""blur"",""0"",""0""
""focus"",""0"",""0""
""fullscreenenter"",""5"",""9385""
","""event"",""trial"",""time""
""blur"",""0"",""0""
","""event"",""trial"",""time""
""focus"",""0"",""0""
","""event"",""trial"",""time""
""fullscreenenter"",""5"",""9385""
","
","","","","","","","","","","","","","","","","","","","","","",""
"d3-instructions","46","122920","0.0-46.0","2669","5594","19","Female","true","true","false","false","""event"",""trial"",""time""
""blur"",""0"",""0""
""focus"",""0"",""0""
""fullscreenenter"",""5"",""9385""
","""event"",""trial"",""time""
""blur"",""0"",""0""
","""event"",""trial"",""time""
""focus"",""0"",""0""
","""event"",""trial"",""time""
""fullscreenenter"",""5"",""9385""
","
","","","","","","","","","","","","","","","","","","","","","",""
"d3-instructions","47","128783","0.0-47.0","2669","5594","19","Female","true","true","false","false","""event"",""trial"",""time""
""blur"",""0"",""0""
""focus"",""0"",""0""
""fullscreenenter"",""5"",""9385""
","""event"",""trial"",""time""
""blur"",""0"",""0""
","""event"",""trial"",""time""
""focus"",""0"",""0""
","""event"",""trial"",""time""
""fullscreenenter"",""5"",""9385""
","
","","","","","","","","","","","","","","","","","","","","","",""
"d3-instructions","48","131867","0.0-48.0","2669","5594","19","Female","true","true","false","false","""event"",""trial"",""time""
""blur"",""0"",""0""
""focus"",""0"",""0""
""fullscreenenter"",""5"",""9385""
","""event"",""trial"",""time""
""blur"",""0"",""0""
","""event"",""trial"",""time""
""focus"",""0"",""0""
","""event"",""trial"",""time""
""fullscreenenter"",""5"",""9385""
","
","","","","","","","","","","","","","","","","","","","","","",""
"d3-instructions","49","134093","0.0-49.0","2669","5594","19","Female","true","true","false","false","""event"",""trial"",""time""
""blur"",""0"",""0""
""focus"",""0"",""0""
""fullscreenenter"",""5"",""9385""
","""event"",""trial"",""time""
""blur"",""0"",""0""
","""event"",""trial"",""time""
""focus"",""0"",""0""
","""event"",""trial"",""time""
""fullscreenenter"",""5"",""9385""
","
","","","","","","","","","","","","","","","","","","","","","",""
"d3-instructions","50","136580","0.0-50.0","2669","5594","19","Female","true","true","false","false","""event"",""trial"",""time""
""blur"",""0"",""0""
""focus"",""0"",""0""
""fullscreenenter"",""5"",""9385""
","""event"",""trial"",""time""
""blur"",""0"",""0""
","""event"",""trial"",""time""
""focus"",""0"",""0""
","""event"",""trial"",""time""
""fullscreenenter"",""5"",""9385""
","
","","","","","","","","","","","","","","","","","","","","","",""
"d3-instructions","51","137702","0.0-51.0","2669","5594","19","Female","true","true","false","false","""event"",""trial"",""time""
""blur"",""0"",""0""
""focus"",""0"",""0""
""fullscreenenter"",""5"",""9385""
","""event"",""trial"",""time""
""blur"",""0"",""0""
","""event"",""trial"",""time""
""focus"",""0"",""0""
","""event"",""trial"",""time""
""fullscreenenter"",""5"",""9385""
","
","","","","","","","","","","","","","","","","","","","","","",""
"d3-instructions","52","138418","0.0-52.0","2669","5594","19","Female","true","true","false","false","""event"",""trial"",""time""
""blur"",""0"",""0""
""focus"",""0"",""0""
""fullscreenenter"",""5"",""9385""
","""event"",""trial"",""time""
""blur"",""0"",""0""
","""event"",""trial"",""time""
""focus"",""0"",""0""
","""event"",""trial"",""time""
""fullscreenenter"",""5"",""9385""
","
","","","","","","","","","","","","","","","","","","","","","",""
"d3-instructions","53","140945","0.0-53.0","2669","5594","19","Female","true","true","false","false","""event"",""trial"",""time""
""blur"",""0"",""0""
""focus"",""0"",""0""
""fullscreenenter"",""5"",""9385""
","""event"",""trial"",""time""
""blur"",""0"",""0""
","""event"",""trial"",""time""
""focus"",""0"",""0""
","""event"",""trial"",""time""
""fullscreenenter"",""5"",""9385""
","
","","","","","","","","","","","","","","","","","","","","","",""
"d3-instructions","54","144554","0.0-54.0","2669","5594","19","Female","true","true","false","false","""event"",""trial"",""time""
""blur"",""0"",""0""
""focus"",""0"",""0""
""fullscreenenter"",""5"",""9385""
","""event"",""trial"",""time""
""blur"",""0"",""0""
","""event"",""trial"",""time""
""focus"",""0"",""0""
","""event"",""trial"",""time""
""fullscreenenter"",""5"",""9385""
","
","","","","","","","","","","","","","","","","","","","","","",""
"d3-instructions","55","146317","0.0-55.0","2669","5594","19","Female","true","true","false","false","""event"",""trial"",""time""
""blur"",""0"",""0""
""focus"",""0"",""0""
""fullscreenenter"",""5"",""9385""
","""event"",""trial"",""time""
""blur"",""0"",""0""
","""event"",""trial"",""time""
""focus"",""0"",""0""
","""event"",""trial"",""time""
""fullscreenenter"",""5"",""9385""
","
","","","","","","","","","","","","","","","","","","","","","",""
"d3-instructions","56","147534","0.0-56.0","2669","5594","19","Female","true","true","false","false","""event"",""trial"",""time""
""blur"",""0"",""0""
""focus"",""0"",""0""
""fullscreenenter"",""5"",""9385""
","""event"",""trial"",""time""
""blur"",""0"",""0""
","""event"",""trial"",""time""
""focus"",""0"",""0""
","""event"",""trial"",""time""
""fullscreenenter"",""5"",""9385""
","
","","","","","","","","","","","","","","","","","","","","","",""
"d3-instructions","57","149755","0.0-57.0","2669","5594","19","Female","true","true","false","false","""event"",""trial"",""time""
""blur"",""0"",""0""
""focus"",""0"",""0""
""fullscreenenter"",""5"",""9385""
","""event"",""trial"",""time""
""blur"",""0"",""0""
","""event"",""trial"",""time""
""focus"",""0"",""0""
","""event"",""trial"",""time""
""fullscreenenter"",""5"",""9385""
","
","","","","","","","","","","","","","","","","","","","","","",""
"d3-instructions","58","152500","0.0-58.0","2669","5594","19","Female","true","true","false","false","""event"",""trial"",""time""
""blur"",""0"",""0""
""focus"",""0"",""0""
""fullscreenenter"",""5"",""9385""
","""event"",""trial"",""time""
""blur"",""0"",""0""
","""event"",""trial"",""time""
""focus"",""0"",""0""
","""event"",""trial"",""time""
""fullscreenenter"",""5"",""9385""
","
","","","","","","","","","","","","","","","","","","","","","",""
"d3-instructions","59","153558","0.0-59.0","2669","5594","19","Female","true","true","false","false","""event"",""trial"",""time""
""blur"",""0"",""0""
""focus"",""0"",""0""
""fullscreenenter"",""5"",""9385""
","""event"",""trial"",""time""
""blur"",""0"",""0""
","""event"",""trial"",""time""
""focus"",""0"",""0""
","""event"",""trial"",""time""
""fullscreenenter"",""5"",""9385""
","
","","","","","","","","","","","","","","","","","","","","","",""
"d3-instructions","60","154486","0.0-60.0","2669","5594","19","Female","true","true","false","false","""event"",""trial"",""time""
""blur"",""0"",""0""
""focus"",""0"",""0""
""fullscreenenter"",""5"",""9385""
","""event"",""trial"",""time""
""blur"",""0"",""0""
","""event"",""trial"",""time""
""focus"",""0"",""0""
","""event"",""trial"",""time""
""fullscreenenter"",""5"",""9385""
","
","","","","","","","","","","","","","","","","","","","","","",""
"d3-animate-choice","61","157004","0.0-61.0-0.0","2669","5594","19","Female","true","true","false","false","""event"",""trial"",""time""
""blur"",""0"",""0""
""focus"",""0"",""0""
""fullscreenenter"",""5"",""9385""
","""event"",""trial"",""time""
""blur"",""0"",""0""
","""event"",""trial"",""time""
""focus"",""0"",""0""
","""event"",""trial"",""time""
""fullscreenenter"",""5"",""9385""
","
","512.4000000357628","","49","","","3000","1","","","images/earth.jpg","images/tutrocket2","images/tutrocket1","null","images/tutrocket1","","1","practice","null","1","","",""
"d3-animate-choice","62","160355","0.0-61.0-1.0","2669","5594","19","Female","true","true","false","false","""event"",""trial"",""time""
""blur"",""0"",""0""
""focus"",""0"",""0""
""fullscreenenter"",""5"",""9385""
","""event"",""trial"",""time""
""blur"",""0"",""0""
","""event"",""trial"",""time""
""focus"",""0"",""0""
","""event"",""trial"",""time""
""fullscreenenter"",""5"",""9385""
","
","1340.3999999761581","","49","","","3000","1","","","images/tutyellowplanet.jpg","images/tutalien4","images/tutalien3","images/tutrocket1","images/tutalien3","images/nothing.png","2","practice","false","1","rare","0","2023-01-13 04:28:17.064"
"two-step-fixation","63","161363","0.0-61.0-2.0","2669","5594","19","Female","true","true","false","false","""event"",""trial"",""time""
""blur"",""0"",""0""
""focus"",""0"",""0""
""fullscreenenter"",""5"",""9385""
","""event"",""trial"",""time""
""blur"",""0"",""0""
","""event"",""trial"",""time""
""focus"",""0"",""0""
","""event"",""trial"",""time""
""fullscreenenter"",""5"",""9385""
","
","","images/earth.jpg","","","","","","","","","","","","","","fixation","","","","","",""
"d3-animate-choice","64","164099","0.0-61.0-0.1","2669","5594","19","Female","true","true","false","false","""event"",""trial"",""time""
""blur"",""0"",""0""
""focus"",""0"",""0""
""fullscreenenter"",""5"",""9385""
","""event"",""trial"",""time""
""blur"",""0"",""0""
","""event"",""trial"",""time""
""focus"",""0"",""0""
","""event"",""trial"",""time""
""fullscreenenter"",""5"",""9385""
","
","485.69999998807907","","50","","","3000","1","729.3999999761581","48","images/earth.jpg","images/tutrocket2","images/tutrocket1","null","images/tutrocket2","","1","practice","null","","","",""
"d3-animate-choice","65","166500","0.0-61.0-1.1","2669","5594","19","Female","true","true","false","false","""event"",""trial"",""time""
""blur"",""0"",""0""
""focus"",""0"",""0""
""fullscreenenter"",""5"",""9385""
","""event"",""trial"",""time""
""blur"",""0"",""0""
","""event"",""trial"",""time""
""focus"",""0"",""0""
","""event"",""trial"",""time""
""fullscreenenter"",""5"",""9385""
","
","392.4000000357628","","49","","","3000","1","","","images/tutgreenplanet.jpg","images/tutalien2","images/tutalien1","images/tutrocket2","images/tutalien1","images/nothing.png","2","practice","false","1","rare","0","2023-01-13 04:28:23.209"
"two-step-fixation","66","167508","0.0-61.0-2.1","2669","5594","19","Female","true","true","false","false","""event"",""trial"",""time""
""blur"",""0"",""0""
""focus"",""0"",""0""
""fullscreenenter"",""5"",""9385""
","""event"",""trial"",""time""
""blur"",""0"",""0""
","""event"",""trial"",""time""
""focus"",""0"",""0""
","""event"",""trial"",""time""
""fullscreenenter"",""5"",""9385""
","
","","images/earth.jpg","","","","","","","","","","","","","","fixation","","","","","",""
"d3-animate-choice","67","169800","0.0-61.0-0.2","2669","5594","19","Female","true","true","false","false","""event"",""trial"",""time""
""blur"",""0"",""0""
""focus"",""0"",""0""
""fullscreenenter"",""5"",""9385""
","""event"",""trial"",""time""
""blur"",""0"",""0""
","""event"",""trial"",""time""
""focus"",""0"",""0""
","""event"",""trial"",""time""
""fullscreenenter"",""5"",""9385""
","
","288.30000001192093","","49","","","3000","1","","","images/earth.jpg","images/tutrocket2","images/tutrocket1","null","images/tutrocket1","","1","practice","null","1","","",""
"d3-animate-choice","68","172058","0.0-61.0-1.2","2669","5594","19","Female","true","true","false","false","""event"",""trial"",""time""
""blur"",""0"",""0""
""focus"",""0"",""0""
""fullscreenenter"",""5"",""9385""
","""event"",""trial"",""time""
""blur"",""0"",""0""
","""event"",""trial"",""time""
""focus"",""0"",""0""
","""event"",""trial"",""time""
""fullscreenenter"",""5"",""9385""
","
","251.19999998807907","","48","","","3000","1","","","images/tutyellowplanet.jpg","images/tutalien4","images/tutalien3","images/tutrocket1","images/tutalien4","images/nothing.png","2","practice","false","2","rare","0","2023-01-13 04:28:28.767"
"two-step-fixation","69","173067","0.0-61.0-2.2","2669","5594","19","Female","true","true","false","false","""event"",""trial"",""time""
""blur"",""0"",""0""
""focus"",""0"",""0""
""fullscreenenter"",""5"",""9385""
","""event"",""trial"",""time""
""blur"",""0"",""0""
","""event"",""trial"",""time""
""focus"",""0"",""0""
","""event"",""trial"",""time""
""fullscreenenter"",""5"",""9385""
","
","","images/earth.jpg","","","","","","","","","","","","","","fixation","","","","","",""
"d3-animate-choice","70","175334","0.0-61.0-0.3","2669","5594","19","Female","true","true","false","false","""event"",""trial"",""time""
""blur"",""0"",""0""
""focus"",""0"",""0""
""fullscreenenter"",""5"",""9385""
","""event"",""trial"",""time""
""blur"",""0"",""0""
","""event"",""trial"",""time""
""focus"",""0"",""0""
","""event"",""trial"",""time""
""fullscreenenter"",""5"",""9385""
","
","264","","48","","","3000","1","","","images/earth.jpg","images/tutrocket2","images/tutrocket1","null","images/tutrocket2","","1","practice","null","2","","",""
"d3-animate-choice","71","177573","0.0-61.0-1.3","2669","5594","19","Female","true","true","false","false","""event"",""trial"",""time""
""blur"",""0"",""0""
""focus"",""0"",""0""
""fullscreenenter"",""5"",""9385""
","""event"",""trial"",""time""
""blur"",""0"",""0""
","""event"",""trial"",""time""
""focus"",""0"",""0""
","""event"",""trial"",""time""
""fullscreenenter"",""5"",""9385""
","
","232.5999999642372","","48","","","3000","1","","","images/tutyellowplanet.jpg","images/tutalien4","images/tutalien3","images/tutrocket2","images/tutalien4","images/t.png","2","practice","true","2","common","1","2023-01-13 04:28:34.282"
"two-step-fixation","72","178578","0.0-61.0-2.3","2669","5594","19","Female","true","true","false","false","""event"",""trial"",""time""
""blur"",""0"",""0""
""focus"",""0"",""0""
""fullscreenenter"",""5"",""9385""
","""event"",""trial"",""time""
""blur"",""0"",""0""
","""event"",""trial"",""time""
""focus"",""0"",""0""
","""event"",""trial"",""time""
""fullscreenenter"",""5"",""9385""
","
","","images/earth.jpg","","","","","","","","","","","","","","fixation","","","","","",""
"d3-animate-choice","73","180810","0.0-61.0-0.4","2669","5594","19","Female","true","true","false","false","""event"",""trial"",""time""
""blur"",""0"",""0""
""focus"",""0"",""0""
""fullscreenenter"",""5"",""9385""
","""event"",""trial"",""time""
""blur"",""0"",""0""
","""event"",""trial"",""time""
""focus"",""0"",""0""
","""event"",""trial"",""time""
""fullscreenenter"",""5"",""9385""
","
","225.39999997615814","","48","","","3000","1","","","images/earth.jpg","images/tutrocket2","images/tutrocket1","null","images/tutrocket2","","1","practice","null","2","","",""
"d3-animate-choice","74","182958","0.0-61.0-1.4","2669","5594","19","Female","true","true","false","false","""event"",""trial"",""time""
""blur"",""0"",""0""
""focus"",""0"",""0""
""fullscreenenter"",""5"",""9385""
","""event"",""trial"",""time""
""blur"",""0"",""0""
","""event"",""trial"",""time""
""focus"",""0"",""0""
","""event"",""trial"",""time""
""fullscreenenter"",""5"",""9385""
","
","138.79999995231628","","48","","","3000","1","","","images/tutyellowplanet.jpg","images/tutalien4","images/tutalien3","images/tutrocket2","images/tutalien4","images/t.png","2","practice","true","2","common","1","2023-01-13 04:28:39.667"
"two-step-fixation","75","183965","0.0-61.0-2.4","2669","5594","19","Female","true","true","false","false","""event"",""trial"",""time""
""blur"",""0"",""0""
""focus"",""0"",""0""
""fullscreenenter"",""5"",""9385""
","""event"",""trial"",""time""
""blur"",""0"",""0""
","""event"",""trial"",""time""
""focus"",""0"",""0""
","""event"",""trial"",""time""
""fullscreenenter"",""5"",""9385""
","
","","images/earth.jpg","","","","","","","","","","","","","","fixation","","","","","",""
"d3-animate-choice","76","186242","0.0-61.0-0.5","2669","5594","19","Female","true","true","false","false","""event"",""trial"",""time""
""blur"",""0"",""0""
""focus"",""0"",""0""
""fullscreenenter"",""5"",""9385""
","""event"",""trial"",""time""
""blur"",""0"",""0""
","""event"",""trial"",""time""
""focus"",""0"",""0""
","""event"",""trial"",""time""
""fullscreenenter"",""5"",""9385""
","
","268.60000002384186","","48","","","3000","1","","","images/earth.jpg","images/tutrocket2","images/tutrocket1","null","images/tutrocket2","","1","practice","null","2","","",""
"d3-animate-choice","77","188494","0.0-61.0-1.5","2669","5594","19","Female","true","true","false","false","""event"",""trial"",""time""
""blur"",""0"",""0""
""focus"",""0"",""0""
""fullscreenenter"",""5"",""9385""
","""event"",""trial"",""time""
""blur"",""0"",""0""
","""event"",""trial"",""time""
""focus"",""0"",""0""
","""event"",""trial"",""time""
""fullscreenenter"",""5"",""9385""
","
","242.19999998807907","","48","","","3000","1","","","images/tutgreenplanet.jpg","images/tutalien2","images/tutalien1","images/tutrocket2","images/tutalien2","images/nothing.png","2","practice","false","2","rare","0","2023-01-13 04:28:45.203"
"two-step-fixation","78","189503","0.0-61.0-2.5","2669","5594","19","Female","true","true","false","false","""event"",""trial"",""time""
""blur"",""0"",""0""
""focus"",""0"",""0""
""fullscreenenter"",""5"",""9385""
","""event"",""trial"",""time""
""blur"",""0"",""0""
","""event"",""trial"",""time""
""focus"",""0"",""0""
","""event"",""trial"",""time""
""fullscreenenter"",""5"",""9385""
","
","","images/earth.jpg","","","","","","","","","","","","","","fixation","","","","","",""
"d3-animate-choice","79","191865","0.0-61.0-0.6","2669","5594","19","Female","true","true","false","false","""event"",""trial"",""time""
""blur"",""0"",""0""
""focus"",""0"",""0""
""fullscreenenter"",""5"",""9385""
","""event"",""trial"",""time""
""blur"",""0"",""0""
","""event"",""trial"",""time""
""focus"",""0"",""0""
","""event"",""trial"",""time""
""fullscreenenter"",""5"",""9385""
","
","352.89999997615814","","48","","","3000","1","","","images/earth.jpg","images/tutrocket2","images/tutrocket1","null","images/tutrocket2","","1","practice","null","2","","",""
"d3-animate-choice","80","194504","0.0-61.0-1.6","2669","5594","19","Female","true","true","false","false","""event"",""trial"",""time""
""blur"",""0"",""0""
""focus"",""0"",""0""
""fullscreenenter"",""5"",""9385""
","""event"",""trial"",""time""
""blur"",""0"",""0""
","""event"",""trial"",""time""
""focus"",""0"",""0""
","""event"",""trial"",""time""
""fullscreenenter"",""5"",""9385""
","
","630.4000000357628","","49","","","3000","1","","","images/tutgreenplanet.jpg","images/tutalien2","images/tutalien1","images/tutrocket2","images/tutalien1","images/nothing.png","2","practice","false","1","rare","0","2023-01-13 04:28:51.213"
"two-step-fixation","81","195512","0.0-61.0-2.6","2669","5594","19","Female","true","true","false","false","""event"",""trial"",""time""
""blur"",""0"",""0""
""focus"",""0"",""0""
""fullscreenenter"",""5"",""9385""
","""event"",""trial"",""time""
""blur"",""0"",""0""
","""event"",""trial"",""time""
""focus"",""0"",""0""
","""event"",""trial"",""time""
""fullscreenenter"",""5"",""9385""
","
","","images/earth.jpg","","","","","","","","","","","","","","fixation","","","","","",""
"d3-animate-choice","82","197596","0.0-61.0-0.7","2669","5594","19","Female","true","true","false","false","""event"",""trial"",""time""
""blur"",""0"",""0""
""focus"",""0"",""0""
""fullscreenenter"",""5"",""9385""
","""event"",""trial"",""time""
""blur"",""0"",""0""
","""event"",""trial"",""time""
""focus"",""0"",""0""
","""event"",""trial"",""time""
""fullscreenenter"",""5"",""9385""
","
","79.10000002384186","","49","","","3000","1","","","images/earth.jpg","images/tutrocket2","images/tutrocket1","null","images/tutrocket1","","1","practice","null","1","","",""
"d3-animate-choice","83","200185","0.0-61.0-1.7","2669","5594","19","Female","true","true","false","false","""event"",""trial"",""time""
""blur"",""0"",""0""
""focus"",""0"",""0""
""fullscreenenter"",""5"",""9385""
","""event"",""trial"",""time""
""blur"",""0"",""0""
","""event"",""trial"",""time""
""focus"",""0"",""0""
","""event"",""trial"",""time""
""fullscreenenter"",""5"",""9385""
","
","579.4000000357628","","49","","","3000","1","","","images/tutgreenplanet.jpg","images/tutalien2","images/tutalien1","images/tutrocket1","images/tutalien1","images/t.png","2","practice","true","1","common","1","2023-01-13 04:28:56.894"
"two-step-fixation","84","201191","0.0-61.0-2.7","2669","5594","19","Female","true","true","false","false","""event"",""trial"",""time""
""blur"",""0"",""0""
""focus"",""0"",""0""
""fullscreenenter"",""5"",""9385""
","""event"",""trial"",""time""
""blur"",""0"",""0""
","""event"",""trial"",""time""
""focus"",""0"",""0""
","""event"",""trial"",""time""
""fullscreenenter"",""5"",""9385""
","
","","images/earth.jpg","","","","","","","","","","","","","","fixation","","","","","",""
"d3-animate-choice","85","203293","0.0-61.0-0.8","2669","5594","19","Female","true","true","false","false","""event"",""trial"",""time""
""blur"",""0"",""0""
""focus"",""0"",""0""
""fullscreenenter"",""5"",""9385""
","""event"",""trial"",""time""
""blur"",""0"",""0""
","""event"",""trial"",""time""
""focus"",""0"",""0""
","""event"",""trial"",""time""
""fullscreenenter"",""5"",""9385""
","
","93","","49","","","3000","1","","","images/earth.jpg","images/tutrocket2","images/tutrocket1","null","images/tutrocket1","","1","practice","null","1","","",""
"d3-animate-choice","86","205624","0.0-61.0-1.8","2669","5594","19","Female","true","true","false","false","""event"",""trial"",""time""
""blur"",""0"",""0""
""focus"",""0"",""0""
""fullscreenenter"",""5"",""9385""
","""event"",""trial"",""time""
""blur"",""0"",""0""
","""event"",""trial"",""time""
""focus"",""0"",""0""
","""event"",""trial"",""time""
""fullscreenenter"",""5"",""9385""
","
","325.0999999642372","","49","","","3000","1","","","images/tutgreenplanet.jpg","images/tutalien2","images/tutalien1","images/tutrocket1","images/tutalien1","images/nothing.png","2","practice","true","1","common","0","2023-01-13 04:29:02.333"
"two-step-fixation","87","206633","0.0-61.0-2.8","2669","5594","19","Female","true","true","false","false","""event"",""trial"",""time""
""blur"",""0"",""0""
""focus"",""0"",""0""
""fullscreenenter"",""5"",""9385""
","""event"",""trial"",""time""
""blur"",""0"",""0""
","""event"",""trial"",""time""
""focus"",""0"",""0""
","""event"",""trial"",""time""
""fullscreenenter"",""5"",""9385""
","
","","images/earth.jpg","","","","","","","","","","","","","","fixation","","","","","",""
"d3-animate-choice","88","208756","0.0-61.0-0.9","2669","5594","19","Female","true","true","false","false","""event"",""trial"",""time""
""blur"",""0"",""0""
""focus"",""0"",""0""
""fullscreenenter"",""5"",""9385""
","""event"",""trial"",""time""
""blur"",""0"",""0""
","""event"",""trial"",""time""
""focus"",""0"",""0""
","""event"",""trial"",""time""
""fullscreenenter"",""5"",""9385""
","
","117.80000001192093","","48","","","3000","1","","","images/earth.jpg","images/tutrocket2","images/tutrocket1","null","images/tutrocket2","","1","practice","null","2","","",""
"d3-animate-choice","89","211094","0.0-61.0-1.9","2669","5594","19","Female","true","true","false","false","""event"",""trial"",""time""
""blur"",""0"",""0""
""focus"",""0"",""0""
""fullscreenenter"",""5"",""9385""
","""event"",""trial"",""time""
""blur"",""0"",""0""
","""event"",""trial"",""time""
""focus"",""0"",""0""
","""event"",""trial"",""time""
""fullscreenenter"",""5"",""9385""
","
","335.30000001192093","","48","","","3000","1","","","images/tutyellowplanet.jpg","images/tutalien4","images/tutalien3","images/tutrocket2","images/tutalien4","images/nothing.png","2","practice","true","2","common","0","2023-01-13 04:29:07.804"
"two-step-fixation","90","212103","0.0-61.0-2.9","2669","5594","19","Female","true","true","false","false","""event"",""trial"",""time""
""blur"",""0"",""0""
""focus"",""0"",""0""
""fullscreenenter"",""5"",""9385""
","""event"",""trial"",""time""
""blur"",""0"",""0""
","""event"",""trial"",""time""
""focus"",""0"",""0""
","""event"",""trial"",""time""
""fullscreenenter"",""5"",""9385""
","
","","images/earth.jpg","","","","","","","","","","","","","","fixation","","","","","",""
"d3-animate-choice","91","214133","0.0-61.0-0.10","2669","5594","19","Female","true","true","false","false","""event"",""trial"",""time""
""blur"",""0"",""0""
""focus"",""0"",""0""
""fullscreenenter"",""5"",""9385""
","""event"",""trial"",""time""
""blur"",""0"",""0""
","""event"",""trial"",""time""
""focus"",""0"",""0""
","""event"",""trial"",""time""
""fullscreenenter"",""5"",""9385""
","
","27.69999998807907","","48","","","3000","1","","","images/earth.jpg","images/tutrocket2","images/tutrocket1","null","images/tutrocket2","","1","practice","null","2","","",""
"d3-animate-choice","92","216599","0.0-61.0-1.10","2669","5594","19","Female","true","true","false","false","""event"",""trial"",""time""
""blur"",""0"",""0""
""focus"",""0"",""0""
""fullscreenenter"",""5"",""9385""
","""event"",""trial"",""time""
""blur"",""0"",""0""
","""event"",""trial"",""time""
""focus"",""0"",""0""
","""event"",""trial"",""time""
""fullscreenenter"",""5"",""9385""
","
","458.89999997615814","","48","","","3000","1","","","images/tutyellowplanet.jpg","images/tutalien4","images/tutalien3","images/tutrocket2","images/tutalien4","images/t.png","2","practice","true","2","common","1","2023-01-13 04:29:13.308"
"two-step-fixation","93","217607","0.0-61.0-2.10","2669","5594","19","Female","true","true","false","false","""event"",""trial"",""time""
""blur"",""0"",""0""
""focus"",""0"",""0""
""fullscreenenter"",""5"",""9385""
","""event"",""trial"",""time""
""blur"",""0"",""0""
","""event"",""trial"",""time""
""focus"",""0"",""0""
","""event"",""trial"",""time""
""fullscreenenter"",""5"",""9385""
","
","","images/earth.jpg","","","","","","","","","","","","","","fixation","","","","","",""
"d3-animate-choice","94","220182","0.0-61.0-0.11","2669","5594","19","Female","true","true","false","false","""event"",""trial"",""time""
""blur"",""0"",""0""
""focus"",""0"",""0""
""fullscreenenter"",""5"",""9385""
","""event"",""trial"",""time""
""blur"",""0"",""0""
","""event"",""trial"",""time""
""focus"",""0"",""0""
","""event"",""trial"",""time""
""fullscreenenter"",""5"",""9385""
","
","565.8000000119209","","48","","","3000","1","","","images/earth.jpg","images/tutrocket2","images/tutrocket1","null","images/tutrocket2","","1","practice","null","2","","",""
"d3-animate-choice","95","222421","0.0-61.0-1.11","2669","5594","19","Female","true","true","false","false","""event"",""trial"",""time""
""blur"",""0"",""0""
""focus"",""0"",""0""
""fullscreenenter"",""5"",""9385""
","""event"",""trial"",""time""
""blur"",""0"",""0""
","""event"",""trial"",""time""
""focus"",""0"",""0""
","""event"",""trial"",""time""
""fullscreenenter"",""5"",""9385""
","
","233.9000000357628","","48","","","3000","1","","","images/tutgreenplanet.jpg","images/tutalien2","images/tutalien1","images/tutrocket2","images/tutalien2","images/nothing.png","2","practice","false","2","rare","0","2023-01-13 04:29:19.130"
"two-step-fixation","96","223430","0.0-61.0-2.11","2669","5594","19","Female","true","true","false","false","""event"",""trial"",""time""
""blur"",""0"",""0""
""focus"",""0"",""0""
""fullscreenenter"",""5"",""9385""
","""event"",""trial"",""time""
""blur"",""0"",""0""
","""event"",""trial"",""time""
""focus"",""0"",""0""
","""event"",""trial"",""time""
""fullscreenenter"",""5"",""9385""
","
","","images/earth.jpg","","","","","","","","","","","","","","fixation","","","","","",""
"d3-animate-choice","97","225674","0.0-61.0-0.12","2669","5594","19","Female","true","true","false","false","""event"",""trial"",""time""
""blur"",""0"",""0""
""focus"",""0"",""0""
""fullscreenenter"",""5"",""9385""
","""event"",""trial"",""time""
""blur"",""0"",""0""
","""event"",""trial"",""time""
""focus"",""0"",""0""
","""event"",""trial"",""time""
""fullscreenenter"",""5"",""9385""
","
","237.70000004768372","","48","","","3000","1","","","images/earth.jpg","images/tutrocket2","images/tutrocket1","null","images/tutrocket2","","1","practice","null","2","","",""
"d3-animate-choice","98","227967","0.0-61.0-1.12","2669","5594","19","Female","true","true","false","false","""event"",""trial"",""time""
""blur"",""0"",""0""
""focus"",""0"",""0""
""fullscreenenter"",""5"",""9385""
","""event"",""trial"",""time""
""blur"",""0"",""0""
","""event"",""trial"",""time""
""focus"",""0"",""0""
","""event"",""trial"",""time""
""fullscreenenter"",""5"",""9385""
","
","289.10000002384186","","48","","","3000","1","","","images/tutyellowplanet.jpg","images/tutalien4","images/tutalien3","images/tutrocket2","images/tutalien4","images/t.png","2","practice","true","2","common","1","2023-01-13 04:29:24.676"
"two-step-fixation","99","228971","0.0-61.0-2.12","2669","5594","19","Female","true","true","false","false","""event"",""trial"",""time""
""blur"",""0"",""0""
""focus"",""0"",""0""
""fullscreenenter"",""5"",""9385""
","""event"",""trial"",""time""
""blur"",""0"",""0""
","""event"",""trial"",""time""
""focus"",""0"",""0""
","""event"",""trial"",""time""
""fullscreenenter"",""5"",""9385""
","
","","images/earth.jpg","","","","","","","","","","","","","","fixation","","","","","",""
"d3-animate-choice","100","231033","0.0-61.0-0.13","2669","5594","19","Female","true","true","false","false","""event"",""trial"",""time""
""blur"",""0"",""0""
""focus"",""0"",""0""
""fullscreenenter"",""5"",""9385""
","""event"",""trial"",""time""
""blur"",""0"",""0""
","""event"",""trial"",""time""
""focus"",""0"",""0""
","""event"",""trial"",""time""
""fullscreenenter"",""5"",""9385""
","
","53.80000001192093","","48","","","3000","1","","","images/earth.jpg","images/tutrocket2","images/tutrocket1","null","images/tutrocket2","","1","practice","null","2","","",""
"d3-animate-choice","101","233371","0.0-61.0-1.13","2669","5594","19","Female","true","true","false","false","""event"",""trial"",""time""
""blur"",""0"",""0""
""focus"",""0"",""0""
""fullscreenenter"",""5"",""9385""
","""event"",""trial"",""time""
""blur"",""0"",""0""
","""event"",""trial"",""time""
""focus"",""0"",""0""
","""event"",""trial"",""time""
""fullscreenenter"",""5"",""9385""
","
","331","","48","","","3000","1","","","images/tutyellowplanet.jpg","images/tutalien4","images/tutalien3","images/tutrocket2","images/tutalien4","images/nothing.png","2","practice","true","2","common","0","2023-01-13 04:29:30.080"
"two-step-fixation","102","234376","0.0-61.0-2.13","2669","5594","19","Female","true","true","false","false","""event"",""trial"",""time""
""blur"",""0"",""0""
""focus"",""0"",""0""
""fullscreenenter"",""5"",""9385""
","""event"",""trial"",""time""
""blur"",""0"",""0""
","""event"",""trial"",""time""
""focus"",""0"",""0""
","""event"",""trial"",""time""
""fullscreenenter"",""5"",""9385""
","
","","images/earth.jpg","","","","","","","","","","","","","","fixation","","","","","",""
"d3-animate-choice","103","236658","0.0-61.0-0.14","2669","5594","19","Female","true","true","false","false","""event"",""trial"",""time""
""blur"",""0"",""0""
""focus"",""0"",""0""
""fullscreenenter"",""5"",""9385""
","""event"",""trial"",""time""
""blur"",""0"",""0""
","""event"",""trial"",""time""
""focus"",""0"",""0""
","""event"",""trial"",""time""
""fullscreenenter"",""5"",""9385""
","
","275.30000001192093","","48","","","3000","1","","","images/earth.jpg","images/tutrocket2","images/tutrocket1","null","images/tutrocket2","","1","practice","null","2","","",""
"d3-animate-choice","104","238949","0.0-61.0-1.14","2669","5594","19","Female","true","true","false","false","""event"",""trial"",""time""
""blur"",""0"",""0""
""focus"",""0"",""0""
""fullscreenenter"",""5"",""9385""
","""event"",""trial"",""time""
""blur"",""0"",""0""
","""event"",""trial"",""time""
""focus"",""0"",""0""
","""event"",""trial"",""time""
""fullscreenenter"",""5"",""9385""
","
","282","","48","","","3000","1","","","images/tutyellowplanet.jpg","images/tutalien4","images/tutalien3","images/tutrocket2","images/tutalien4","images/t.png","2","practice","true","2","common","1","2023-01-13 04:29:35.658"
"two-step-fixation","105","239955","0.0-61.0-2.14","2669","5594","19","Female","true","true","false","false","""event"",""trial"",""time""
""blur"",""0"",""0""
""focus"",""0"",""0""
""fullscreenenter"",""5"",""9385""
","""event"",""trial"",""time""
""blur"",""0"",""0""
","""event"",""trial"",""time""
""focus"",""0"",""0""
","""event"",""trial"",""time""
""fullscreenenter"",""5"",""9385""
","
","","images/earth.jpg","","","","","","","","","","","","","","fixation","","","","","",""
"d3-animate-choice","106","242227","0.0-61.0-0.15","2669","5594","19","Female","true","true","false","false","""event"",""trial"",""time""
""blur"",""0"",""0""
""focus"",""0"",""0""
""fullscreenenter"",""5"",""9385""
","""event"",""trial"",""time""
""blur"",""0"",""0""
","""event"",""trial"",""time""
""focus"",""0"",""0""
","""event"",""trial"",""time""
""fullscreenenter"",""5"",""9385""
","
","263.39999997615814","","48","","","3000","1","","","images/earth.jpg","images/tutrocket2","images/tutrocket1","null","images/tutrocket2","","1","practice","null","2","","",""
"d3-animate-choice","107","244529","0.0-61.0-1.15","2669","5594","19","Female","true","true","false","false","""event"",""trial"",""time""
""blur"",""0"",""0""
""focus"",""0"",""0""
""fullscreenenter"",""5"",""9385""
","""event"",""trial"",""time""
""blur"",""0"",""0""
","""event"",""trial"",""time""
""focus"",""0"",""0""
","""event"",""trial"",""time""
""fullscreenenter"",""5"",""9385""
","
","292.9000000357628","","48","","","3000","1","711.5","48","images/tutgreenplanet.jpg","images/tutalien2","images/tutalien1","images/tutrocket2","images/tutalien2","images/t.png","2","practice","false","2","rare","1","2023-01-13 04:29:41.238"
"two-step-fixation","108","245530","0.0-61.0-2.15","2669","5594","19","Female","true","true","false","false","""event"",""trial"",""time""
""blur"",""0"",""0""
""focus"",""0"",""0""
""fullscreenenter"",""5"",""9385""
","""event"",""trial"",""time""
""blur"",""0"",""0""
","""event"",""trial"",""time""
""focus"",""0"",""0""
","""event"",""trial"",""time""
""fullscreenenter"",""5"",""9385""
","
","","images/earth.jpg","","","","","","","","","","","","","","fixation","","","","","",""
"d3-animate-choice","109","247751","0.0-61.0-0.16","2669","5594","19","Female","true","true","false","false","""event"",""trial"",""time""
""blur"",""0"",""0""
""focus"",""0"",""0""
""fullscreenenter"",""5"",""9385""
","""event"",""trial"",""time""
""blur"",""0"",""0""
","""event"",""trial"",""time""
""focus"",""0"",""0""
","""event"",""trial"",""time""
""fullscreenenter"",""5"",""9385""
","
","216","","48","","","3000","1","","","images/earth.jpg","images/tutrocket2","images/tutrocket1","null","images/tutrocket2","","1","practice","null","2","","",""
"d3-animate-choice","110","250123","0.0-61.0-1.16","2669","5594","19","Female","true","true","false","false","""event"",""trial"",""time""
""blur"",""0"",""0""
""focus"",""0"",""0""
""fullscreenenter"",""5"",""9385""
","""event"",""trial"",""time""
""blur"",""0"",""0""
","""event"",""trial"",""time""
""focus"",""0"",""0""
","""event"",""trial"",""time""
""fullscreenenter"",""5"",""9385""
","
","366","","48","","","3000","1","","","images/tutyellowplanet.jpg","images/tutalien4","images/tutalien3","images/tutrocket2","images/tutalien4","images/nothing.png","2","practice","true","2","common","0","2023-01-13 04:29:46.833"
"two-step-fixation","111","251130","0.0-61.0-2.16","2669","5594","19","Female","true","true","false","false","""event"",""trial"",""time""
""blur"",""0"",""0""
""focus"",""0"",""0""
""fullscreenenter"",""5"",""9385""
","""event"",""trial"",""time""
""blur"",""0"",""0""
","""event"",""trial"",""time""
""focus"",""0"",""0""
","""event"",""trial"",""time""
""fullscreenenter"",""5"",""9385""
","
","","images/earth.jpg","","","","","","","","","","","","","","fixation","","","","","",""
"d3-animate-choice","112","253196","0.0-61.0-0.17","2669","5594","19","Female","true","true","false","false","""event"",""trial"",""time""
""blur"",""0"",""0""
""focus"",""0"",""0""
""fullscreenenter"",""5"",""9385""
","""event"",""trial"",""time""
""blur"",""0"",""0""
","""event"",""trial"",""time""
""focus"",""0"",""0""
","""event"",""trial"",""time""
""fullscreenenter"",""5"",""9385""
","
","61.19999998807907","","48","","","3000","1","","","images/earth.jpg","images/tutrocket2","images/tutrocket1","null","images/tutrocket2","","1","practice","null","2","","",""
"d3-animate-choice","113","255436","0.0-61.0-1.17","2669","5594","19","Female","true","true","false","false","""event"",""trial"",""time""
""blur"",""0"",""0""
""focus"",""0"",""0""
""fullscreenenter"",""5"",""9385""
","""event"",""trial"",""time""
""blur"",""0"",""0""
","""event"",""trial"",""time""
""focus"",""0"",""0""
","""event"",""trial"",""time""
""fullscreenenter"",""5"",""9385""
","
","233","","48","","","3000","1","","","images/tutyellowplanet.jpg","images/tutalien4","images/tutalien3","images/tutrocket2","images/tutalien4","images/t.png","2","practice","true","2","common","1","2023-01-13 04:29:52.146"
"two-step-fixation","114","256441","0.0-61.0-2.17","2669","5594","19","Female","true","true","false","false","""event"",""trial"",""time""
""blur"",""0"",""0""
""focus"",""0"",""0""
""fullscreenenter"",""5"",""9385""
","""event"",""trial"",""time""
""blur"",""0"",""0""
","""event"",""trial"",""time""
""focus"",""0"",""0""
","""event"",""trial"",""time""
""fullscreenenter"",""5"",""9385""
","
","","images/earth.jpg","","","","","","","","","","","","","","fixation","","","","","",""
"d3-animate-choice","115","258683","0.0-61.0-0.18","2669","5594","19","Female","true","true","false","false","""event"",""trial"",""time""
""blur"",""0"",""0""
""focus"",""0"",""0""
""fullscreenenter"",""5"",""9385""
","""event"",""trial"",""time""
""blur"",""0"",""0""
","""event"",""trial"",""time""
""focus"",""0"",""0""
","""event"",""trial"",""time""
""fullscreenenter"",""5"",""9385""
","
","234.80000001192093","","48","","","3000","1","","","images/earth.jpg","images/tutrocket2","images/tutrocket1","null","images/tutrocket2","","1","practice","null","2","","",""
"d3-animate-choice","116","260958","0.0-61.0-1.18","2669","5594","19","Female","true","true","false","false","""event"",""trial"",""time""
""blur"",""0"",""0""
""focus"",""0"",""0""
""fullscreenenter"",""5"",""9385""
","""event"",""trial"",""time""
""blur"",""0"",""0""
","""event"",""trial"",""time""
""focus"",""0"",""0""
","""event"",""trial"",""time""
""fullscreenenter"",""5"",""9385""
","
","265.60000002384186","","48","","","3000","1","","","images/tutyellowplanet.jpg","images/tutalien4","images/tutalien3","images/tutrocket2","images/tutalien4","images/t.png","2","practice","true","2","common","1","2023-01-13 04:29:57.668"
"two-step-fixation","117","261966","0.0-61.0-2.18","2669","5594","19","Female","true","true","false","false","""event"",""trial"",""time""
""blur"",""0"",""0""
""focus"",""0"",""0""
""fullscreenenter"",""5"",""9385""
","""event"",""trial"",""time""
""blur"",""0"",""0""
","""event"",""trial"",""time""
""focus"",""0"",""0""
","""event"",""trial"",""time""
""fullscreenenter"",""5"",""9385""
","
","","images/earth.jpg","","","","","","","","","","","","","","fixation","","","","","",""
"d3-animate-choice","118","264115","0.0-61.0-0.19","2669","5594","19","Female","true","true","false","false","""event"",""trial"",""time""
""blur"",""0"",""0""
""focus"",""0"",""0""
""fullscreenenter"",""5"",""9385""
","""event"",""trial"",""time""
""blur"",""0"",""0""
","""event"",""trial"",""time""
""focus"",""0"",""0""
","""event"",""trial"",""time""
""fullscreenenter"",""5"",""9385""
","
","145.0999999642372","","48","","","3000","1","","","images/earth.jpg","images/tutrocket2","images/tutrocket1","null","images/tutrocket2","","1","practice","null","2","","",""
"d3-animate-choice","119","266496","0.0-61.0-1.19","2669","5594","19","Female","true","true","false","false","""event"",""trial"",""time""
""blur"",""0"",""0""
""focus"",""0"",""0""
""fullscreenenter"",""5"",""9385""
","""event"",""trial"",""time""
""blur"",""0"",""0""
","""event"",""trial"",""time""
""focus"",""0"",""0""
","""event"",""trial"",""time""
""fullscreenenter"",""5"",""9385""
","
","375.19999998807907","","48","","","3000","1","","","images/tutgreenplanet.jpg","images/tutalien2","images/tutalien1","images/tutrocket2","images/tutalien2","images/nothing.png","2","practice","false","2","rare","0","2023-01-13 04:30:03.205"
"two-step-fixation","120","267503","0.0-61.0-2.19","2669","5594","19","Female","true","true","false","false","""event"",""trial"",""time""
""blur"",""0"",""0""
""focus"",""0"",""0""
""fullscreenenter"",""5"",""9385""
","""event"",""trial"",""time""
""blur"",""0"",""0""
","""event"",""trial"",""time""
""focus"",""0"",""0""
","""event"",""trial"",""time""
""fullscreenenter"",""5"",""9385""
","
","","images/earth.jpg","","","","","","","","","","","","","","fixation","","","","","",""
"d3-instructions","121","270587","0.0-62.0","2669","5594","19","Female","true","true","false","false","""event"",""trial"",""time""
""blur"",""0"",""0""
""focus"",""0"",""0""
""fullscreenenter"",""5"",""9385""
","""event"",""trial"",""time""
""blur"",""0"",""0""
","""event"",""trial"",""time""
""focus"",""0"",""0""
","""event"",""trial"",""time""
""fullscreenenter"",""5"",""9385""
","
","","","","","","","","","","","","","","","","","","","","","",""
"audio-keyboard-response","122","273278","0.0-63.0","2669","5594","19","Female","true","true","false","false","""event"",""trial"",""time""
""blur"",""0"",""0""
""focus"",""0"",""0""
""fullscreenenter"",""5"",""9385""
","""event"",""trial"",""time""
""blur"",""0"",""0""
","""event"",""trial"",""time""
""focus"",""0"",""0""
","""event"",""trial"",""time""
""fullscreenenter"",""5"",""9385""
","
","2694","audio/instructions/treasure_feedback.wav","32","","","","","","","","","","","","","","","","","","",""
"d3-instructions","123","278057","0.0-64.0","2669","5594","19","Female","true","true","false","false","""event"",""trial"",""time""
""blur"",""0"",""0""
""focus"",""0"",""0""
""fullscreenenter"",""5"",""9385""
","""event"",""trial"",""time""
""blur"",""0"",""0""
","""event"",""trial"",""time""
""focus"",""0"",""0""
","""event"",""trial"",""time""
""fullscreenenter"",""5"",""9385""
","
","","","","","","","","","","","","","","","","","","","","","",""
"d3-instructions","124","281162","0.0-65.0","2669","5594","19","Female","true","true","false","false","""event"",""trial"",""time""
""blur"",""0"",""0""
""focus"",""0"",""0""
""fullscreenenter"",""5"",""9385""
","""event"",""trial"",""time""
""blur"",""0"",""0""
","""event"",""trial"",""time""
""focus"",""0"",""0""
","""event"",""trial"",""time""
""fullscreenenter"",""5"",""9385""
","
","","","","","","","","","","","","","","","","","","","","","",""
"d3-instructions","125","286707","0.0-66.0","2669","5594","19","Female","true","true","false","false","""event"",""trial"",""time""
""blur"",""0"",""0""
""focus"",""0"",""0""
""fullscreenenter"",""5"",""9385""
","""event"",""trial"",""time""
""blur"",""0"",""0""
","""event"",""trial"",""time""
""focus"",""0"",""0""
","""event"",""trial"",""time""
""fullscreenenter"",""5"",""9385""
","
","","","","","","","","","","","","","","","","","","","","","",""
"d3-instructions","126","291994","0.0-67.0","2669","5594","19","Female","true","true","false","false","""event"",""trial"",""time""
""blur"",""0"",""0""
""focus"",""0"",""0""
""fullscreenenter"",""5"",""9385""
","""event"",""trial"",""time""
""blur"",""0"",""0""
","""event"",""trial"",""time""
""focus"",""0"",""0""
","""event"",""trial"",""time""
""fullscreenenter"",""5"",""9385""
","
","","","","","","","","","","","","","","","","","","","","","",""
"d3-instructions","127","293348","0.0-68.0","2669","5594","19","Female","true","true","false","false","""event"",""trial"",""time""
""blur"",""0"",""0""
""focus"",""0"",""0""
""fullscreenenter"",""5"",""9385""
","""event"",""trial"",""time""
""blur"",""0"",""0""
","""event"",""trial"",""time""
""focus"",""0"",""0""
","""event"",""trial"",""time""
""fullscreenenter"",""5"",""9385""
","
","","","","","","","","","","","","","","","","","","","","","",""
"instructions-quiz","128","296048","0.0-69.0","2669","5594","19","Female","true","true","false","false","""event"",""trial"",""time""
""blur"",""0"",""0""
""focus"",""0"",""0""
""fullscreenenter"",""5"",""9385""
","""event"",""trial"",""time""
""blur"",""0"",""0""
","""event"",""trial"",""time""
""focus"",""0"",""0""
","""event"",""trial"",""time""
""fullscreenenter"",""5"",""9385""
","
","2695.900000035763","audio/quiz/Q1_Prompt.wav","","1","","","","","","","","","","","","","","","","","",""
"audio-keyboard-response","129","296978","0.0-70.0","2669","5594","19","Female","true","true","false","false","""event"",""trial"",""time""
""blur"",""0"",""0""
""focus"",""0"",""0""
""fullscreenenter"",""5"",""9385""
","""event"",""trial"",""time""
""blur"",""0"",""0""
","""event"",""trial"",""time""
""focus"",""0"",""0""
","""event"",""trial"",""time""
""fullscreenenter"",""5"",""9385""
","
","923","audio/quiz/Q1_Correct.wav","32","","","","","","","","","","","","","","","","","","",""
"instructions-quiz","130","298811","0.0-71.0","2669","5594","19","Female","true","true","false","false","""event"",""trial"",""time""
""blur"",""0"",""0""
""focus"",""0"",""0""
""fullscreenenter"",""5"",""9385""
","""event"",""trial"",""time""
""blur"",""0"",""0""
","""event"",""trial"",""time""
""focus"",""0"",""0""
","""event"",""trial"",""time""
""fullscreenenter"",""5"",""9385""
","
","1831.2999999523163","audio/quiz/Q2_Prompt.wav","","0","","","","","","","","","","","","","","","","","",""
"audio-keyboard-response","131","299326","0.0-72.0","2669","5594","19","Female","true","true","false","false","""event"",""trial"",""time""
""blur"",""0"",""0""
""focus"",""0"",""0""
""fullscreenenter"",""5"",""9385""
","""event"",""trial"",""time""
""blur"",""0"",""0""
","""event"",""trial"",""time""
""focus"",""0"",""0""
","""event"",""trial"",""time""
""fullscreenenter"",""5"",""9385""
","
","517","audio/quiz/Q2_Correct.wav","32","","","","","","","","","","","","","","","","","","",""
"instructions-quiz","132","301065","0.0-73.0","2669","5594","19","Female","true","true","false","false","""event"",""trial"",""time""
""blur"",""0"",""0""
""focus"",""0"",""0""
""fullscreenenter"",""5"",""9385""
","""event"",""trial"",""time""
""blur"",""0"",""0""
","""event"",""trial"",""time""
""focus"",""0"",""0""
","""event"",""trial"",""time""
""fullscreenenter"",""5"",""9385""
","
","1736","audio/quiz/Q3_Prompt.wav","","1","","","","","","","","","","","","","","","","","",""
"audio-keyboard-response","133","301419","0.0-74.0","2669","5594","19","Female","true","true","false","false","""event"",""trial"",""time""
""blur"",""0"",""0""
""focus"",""0"",""0""
""fullscreenenter"",""5"",""9385""
","""event"",""trial"",""time""
""blur"",""0"",""0""
","""event"",""trial"",""time""
""focus"",""0"",""0""
","""event"",""trial"",""time""
""fullscreenenter"",""5"",""9385""
","
","348","audio/quiz/Q3_Correct.wav","32","","","","","","","","","","","","","","","","","","",""
"d3-instructions","134","303633","0.0-75.0","2669","5594","19","Female","true","true","false","false","""event"",""trial"",""time""
""blur"",""0"",""0""
""focus"",""0"",""0""
""fullscreenenter"",""5"",""9385""
","""event"",""trial"",""time""
""blur"",""0"",""0""
","""event"",""trial"",""time""
""focus"",""0"",""0""
","""event"",""trial"",""time""
""fullscreenenter"",""5"",""9385""
","
","","","","","","","","","","","","","","","","","","","","","",""
"pavlovia","135","303635","0.0-76.0","2669","5594","19","Female","true","true","false","false","""event"",""trial"",""time""
""blur"",""0"",""0""
""focus"",""0"",""0""
""fullscreenenter"",""5"",""9385""
","""event"",""trial"",""time""
""blur"",""0"",""0""
","""event"",""trial"",""time""
""focus"",""0"",""0""
","""event"",""trial"",""time""
""fullscreenenter"",""5"",""9385""
","
","","","","","","","","","","","","","","","","","","","","","",""
"d3-animate-choice","136","306687","0.0-77.0-0.0","2669","5594","19","Female","true","true","false","false","""event"",""trial"",""time""
""blur"",""0"",""0""
""focus"",""0"",""0""
""fullscreenenter"",""5"",""9385""
","""event"",""trial"",""time""
""blur"",""0"",""0""
","""event"",""trial"",""time""
""focus"",""0"",""0""
","""event"",""trial"",""time""
""fullscreenenter"",""5"",""9385""
","
","1047.0999999642372","","49","","","3000","1","","","images/earth.jpg","images/rocket2","images/rocket1","null","images/rocket1","","1","real","null","1","","",""
"d3-animate-choice","137","309069","0.0-77.0-1.0","2669","5594","19","Female","true","true","false","false","""event"",""trial"",""time""
""blur"",""0"",""0""
""focus"",""0"",""0""
""fullscreenenter"",""5"",""9385""
","""event"",""trial"",""time""
""blur"",""0"",""0""
","""event"",""trial"",""time""
""focus"",""0"",""0""
","""event"",""trial"",""time""
""fullscreenenter"",""5"",""9385""
","
","372.39999997615814","","49","","","3000","1","","","images/redplanet1.jpg","images/alien2","images/alien1","images/rocket1","images/alien1","images/nothing.png","2","real","true","1","common","0","2023-01-13 04:30:45.778"
"two-step-fixation","138","310075","0.0-77.0-2.0","2669","5594","19","Female","true","true","false","false","""event"",""trial"",""time""
""blur"",""0"",""0""
""focus"",""0"",""0""
""fullscreenenter"",""5"",""9385""
","""event"",""trial"",""time""
""blur"",""0"",""0""
","""event"",""trial"",""time""
""focus"",""0"",""0""
","""event"",""trial"",""time""
""fullscreenenter"",""5"",""9385""
","
","","images/earth.jpg","","","","","","","","","","","","","","fixation","","","","","",""
"d3-animate-choice","139","312386","0.0-77.0-0.1","2669","5594","19","Female","true","true","false","false","""event"",""trial"",""time""
""blur"",""0"",""0""
""focus"",""0"",""0""
""fullscreenenter"",""5"",""9385""
","""event"",""trial"",""time""
""blur"",""0"",""0""
","""event"",""trial"",""time""
""focus"",""0"",""0""
","""event"",""trial"",""time""
""fullscreenenter"",""5"",""9385""
","
","305.69999998807907","","49","","","3000","1","","","images/earth.jpg","images/rocket2","images/rocket1","null","images/rocket1","","1","real","null","1","","",""
"d3-animate-choice","140","314731","0.0-77.0-1.1","2669","5594","19","Female","true","true","false","false","""event"",""trial"",""time""
""blur"",""0"",""0""
""focus"",""0"",""0""
""fullscreenenter"",""5"",""9385""
","""event"",""trial"",""time""
""blur"",""0"",""0""
","""event"",""trial"",""time""
""focus"",""0"",""0""
","""event"",""trial"",""time""
""fullscreenenter"",""5"",""9385""
","
","340.4000000357628","","48","","","3000","1","","","images/redplanet1.jpg","images/alien2","images/alien1","images/rocket1","images/alien2","images/nothing.png","2","real","true","2","common","0","2023-01-13 04:30:51.440"
"two-step-fixation","141","315737","0.0-77.0-2.1","2669","5594","19","Female","true","true","false","false","""event"",""trial"",""time""
""blur"",""0"",""0""
""focus"",""0"",""0""
""fullscreenenter"",""5"",""9385""
","""event"",""trial"",""time""
""blur"",""0"",""0""
","""event"",""trial"",""time""
""focus"",""0"",""0""
","""event"",""trial"",""time""
""fullscreenenter"",""5"",""9385""
","
","","images/earth.jpg","","","","","","","","","","","","","","fixation","","","","","",""
"d3-animate-choice","142","317830","0.0-77.0-0.2","2669","5594","19","Female","true","true","false","false","""event"",""trial"",""time""
""blur"",""0"",""0""
""focus"",""0"",""0""
""fullscreenenter"",""5"",""9385""
","""event"",""trial"",""time""
""blur"",""0"",""0""
","""event"",""trial"",""time""
""focus"",""0"",""0""
","""event"",""trial"",""time""
""fullscreenenter"",""5"",""9385""
","
","83.20000004768372","","49","","","3000","1","","","images/earth.jpg","images/rocket2","images/rocket1","null","images/rocket1","","1","real","null","1","","",""
"d3-animate-choice","143","320488","0.0-77.0-1.2","2669","5594","19","Female","true","true","false","false","""event"",""trial"",""time""
""blur"",""0"",""0""
""focus"",""0"",""0""
""fullscreenenter"",""5"",""9385""
","""event"",""trial"",""time""
""blur"",""0"",""0""
","""event"",""trial"",""time""
""focus"",""0"",""0""
","""event"",""trial"",""time""
""fullscreenenter"",""5"",""9385""
","
","651.6000000238419","","49","","","3000","1","","","images/purpleplanet.jpg","images/alien4","images/alien3","images/rocket1","images/alien3","images/t.png","2","real","false","1","rare","1","2023-01-13 04:30:57.198"
"two-step-fixation","144","321495","0.0-77.0-2.2","2669","5594","19","Female","true","true","false","false","""event"",""trial"",""time""
""blur"",""0"",""0""
""focus"",""0"",""0""
""fullscreenenter"",""5"",""9385""
","""event"",""trial"",""time""
""blur"",""0"",""0""
","""event"",""trial"",""time""
""focus"",""0"",""0""
","""event"",""trial"",""time""
""fullscreenenter"",""5"",""9385""
","
","","images/earth.jpg","","","","","","","","","","","","","","fixation","","","","","",""
"d3-animate-choice","145","323556","0.0-77.0-0.3","2669","5594","19","Female","true","true","false","false","""event"",""trial"",""time""
""blur"",""0"",""0""
""focus"",""0"",""0""
""fullscreenenter"",""5"",""9385""
","""event"",""trial"",""time""
""blur"",""0"",""0""
","""event"",""trial"",""time""
""focus"",""0"",""0""
","""event"",""trial"",""time""
""fullscreenenter"",""5"",""9385""
","
","51.30000001192093","","49","","","3000","1","","","images/earth.jpg","images/rocket2","images/rocket1","null","images/rocket1","","1","real","null","1","","",""
"d3-animate-choice","146","325900","0.0-77.0-1.3","2669","5594","19","Female","true","true","false","false","""event"",""trial"",""time""
""blur"",""0"",""0""
""focus"",""0"",""0""
""fullscreenenter"",""5"",""9385""
","""event"",""trial"",""time""
""blur"",""0"",""0""
","""event"",""trial"",""time""
""focus"",""0"",""0""
","""event"",""trial"",""time""
""fullscreenenter"",""5"",""9385""
","
","335.5","","48","","","3000","1","","","images/purpleplanet.jpg","images/alien4","images/alien3","images/rocket1","images/alien4","images/t.png","2","real","false","2","rare","1","2023-01-13 04:31:02.610"
"two-step-fixation","147","326911","0.0-77.0-2.3","2669","5594","19","Female","true","true","false","false","""event"",""trial"",""time""
""blur"",""0"",""0""
""focus"",""0"",""0""
""fullscreenenter"",""5"",""9385""
","""event"",""trial"",""time""
""blur"",""0"",""0""
","""event"",""trial"",""time""
""focus"",""0"",""0""
","""event"",""trial"",""time""
""fullscreenenter"",""5"",""9385""
","
","","images/earth.jpg","","","","","","","","","","","","","","fixation","","","","","",""
"d3-animate-choice","148","329204","0.0-77.0-0.4","2669","5594","19","Female","true","true","false","false","""event"",""trial"",""time""
""blur"",""0"",""0""
""focus"",""0"",""0""
""fullscreenenter"",""5"",""9385""
","""event"",""trial"",""time""
""blur"",""0"",""0""
","""event"",""trial"",""time""
""focus"",""0"",""0""
","""event"",""trial"",""time""
""fullscreenenter"",""5"",""9385""
","
","287","","49","","","3000","1","","","images/earth.jpg","images/rocket2","images/rocket1","null","images/rocket1","","1","real","null","1","","",""
"d3-animate-choice","149","332234","0.0-77.0-1.4","2669","5594","19","Female","true","true","false","false","""event"",""trial"",""time""
""blur"",""0"",""0""
""focus"",""0"",""0""
""fullscreenenter"",""5"",""9385""
","""event"",""trial"",""time""
""blur"",""0"",""0""
","""event"",""trial"",""time""
""focus"",""0"",""0""
","""event"",""trial"",""time""
""fullscreenenter"",""5"",""9385""
","
","1020.8999999761581","","49","","","3000","1","","","images/redplanet1.jpg","images/alien2","images/alien1","images/rocket1","images/alien1","images/nothing.png","2","real","true","1","common","0","2023-01-13 04:31:08.944"
"two-step-fixation","150","333243","0.0-77.0-2.4","2669","5594","19","Female","true","true","false","false","""event"",""trial"",""time""
""blur"",""0"",""0""
""focus"",""0"",""0""
""fullscreenenter"",""5"",""9385""
","""event"",""trial"",""time""
""blur"",""0"",""0""
","""event"",""trial"",""time""
""focus"",""0"",""0""
","""event"",""trial"",""time""
""fullscreenenter"",""5"",""9385""
","
","","images/earth.jpg","","","","","","","","","","","","","","fixation","","","","","",""
"d3-animate-choice","151","335501","0.0-77.0-0.5","2669","5594","19","Female","true","true","false","false","""event"",""trial"",""time""
""blur"",""0"",""0""
""focus"",""0"",""0""
""fullscreenenter"",""5"",""9385""
","""event"",""trial"",""time""
""blur"",""0"",""0""
","""event"",""trial"",""time""
""focus"",""0"",""0""
","""event"",""trial"",""time""
""fullscreenenter"",""5"",""9385""
","
","248.80000001192093","","49","","","3000","1","","","images/earth.jpg","images/rocket2","images/rocket1","null","images/rocket1","","1","real","null","1","","",""
"d3-animate-choice","152","337776","0.0-77.0-1.5","2669","5594","19","Female","true","true","false","false","""event"",""trial"",""time""
""blur"",""0"",""0""
""focus"",""0"",""0""
""fullscreenenter"",""5"",""9385""
","""event"",""trial"",""time""
""blur"",""0"",""0""
","""event"",""trial"",""time""
""focus"",""0"",""0""
","""event"",""trial"",""time""
""fullscreenenter"",""5"",""9385""
","
","271.60000002384186","","48","","","3000","1","697.4000000357628","48","images/redplanet1.jpg","images/alien2","images/alien1","images/rocket1","images/alien2","images/t.png","2","real","true","2","common","1","2023-01-13 04:31:14.486"
"two-step-fixation","153","338783","0.0-77.0-2.5","2669","5594","19","Female","true","true","false","false","""event"",""trial"",""time""
""blur"",""0"",""0""
""focus"",""0"",""0""
""fullscreenenter"",""5"",""9385""
","""event"",""trial"",""time""
""blur"",""0"",""0""
","""event"",""trial"",""time""
""focus"",""0"",""0""
","""event"",""trial"",""time""
""fullscreenenter"",""5"",""9385""
","
","","images/earth.jpg","","","","","","","","","","","","","","fixation","","","","","",""
"d3-animate-choice","154","341058","0.0-77.0-0.6","2669","5594","19","Female","true","true","false","false","""event"",""trial"",""time""
""blur"",""0"",""0""
""focus"",""0"",""0""
""fullscreenenter"",""5"",""9385""
","""event"",""trial"",""time""
""blur"",""0"",""0""
","""event"",""trial"",""time""
""focus"",""0"",""0""
","""event"",""trial"",""time""
""fullscreenenter"",""5"",""9385""
","
","268.69999998807907","","48","","","3000","1","","","images/earth.jpg","images/rocket2","images/rocket1","null","images/rocket2","","1","real","null","2","","",""
"d3-animate-choice","155","343538","0.0-77.0-1.6","2669","5594","19","Female","true","true","false","false","""event"",""trial"",""time""
""blur"",""0"",""0""
""focus"",""0"",""0""
""fullscreenenter"",""5"",""9385""
","""event"",""trial"",""time""
""blur"",""0"",""0""
","""event"",""trial"",""time""
""focus"",""0"",""0""
","""event"",""trial"",""time""
""fullscreenenter"",""5"",""9385""
","
","473.0999999642372","","49","","","3000","1","","","images/purpleplanet.jpg","images/alien4","images/alien3","images/rocket2","images/alien3","images/t.png","2","real","true","1","common","1","2023-01-13 04:31:20.247"
"two-step-fixation","156","344544","0.0-77.0-2.6","2669","5594","19","Female","true","true","false","false","""event"",""trial"",""time""
""blur"",""0"",""0""
""focus"",""0"",""0""
""fullscreenenter"",""5"",""9385""
","""event"",""trial"",""time""
""blur"",""0"",""0""
","""event"",""trial"",""time""
""focus"",""0"",""0""
","""event"",""trial"",""time""
""fullscreenenter"",""5"",""9385""
","
","","images/earth.jpg","","","","","","","","","","","","","","fixation","","","","","",""
"d3-animate-choice","157","346780","0.0-77.0-0.7","2669","5594","19","Female","true","true","false","false","""event"",""trial"",""time""
""blur"",""0"",""0""
""focus"",""0"",""0""
""fullscreenenter"",""5"",""9385""
","""event"",""trial"",""time""
""blur"",""0"",""0""
","""event"",""trial"",""time""
""focus"",""0"",""0""
","""event"",""trial"",""time""
""fullscreenenter"",""5"",""9385""
","
","230.80000001192093","","48","","","3000","1","","","images/earth.jpg","images/rocket2","images/rocket1","null","images/rocket2","","1","real","null","2","","",""
"d3-animate-choice","158","349220","0.0-77.0-1.7","2669","5594","19","Female","true","true","false","false","""event"",""trial"",""time""
""blur"",""0"",""0""
""focus"",""0"",""0""
""fullscreenenter"",""5"",""9385""
","""event"",""trial"",""time""
""blur"",""0"",""0""
","""event"",""trial"",""time""
""focus"",""0"",""0""
","""event"",""trial"",""time""
""fullscreenenter"",""5"",""9385""
","
","429.7999999523163","","49","","","3000","1","","","images/purpleplanet.jpg","images/alien4","images/alien3","images/rocket2","images/alien3","images/t.png","2","real","true","1","common","1","2023-01-13 04:31:25.929"
"two-step-fixation","159","350230","0.0-77.0-2.7","2669","5594","19","Female","true","true","false","false","""event"",""trial"",""time""
""blur"",""0"",""0""
""focus"",""0"",""0""
""fullscreenenter"",""5"",""9385""
","""event"",""trial"",""time""
""blur"",""0"",""0""
","""event"",""trial"",""time""
""focus"",""0"",""0""
","""event"",""trial"",""time""
""fullscreenenter"",""5"",""9385""
","
","","images/earth.jpg","","","","","","","","","","","","","","fixation","","","","","",""
"d3-animate-choice","160","352413","0.0-77.0-0.8","2669","5594","19","Female","true","true","false","false","""event"",""trial"",""time""
""blur"",""0"",""0""
""focus"",""0"",""0""
""fullscreenenter"",""5"",""9385""
","""event"",""trial"",""time""
""blur"",""0"",""0""
","""event"",""trial"",""time""
""focus"",""0"",""0""
","""event"",""trial"",""time""
""fullscreenenter"",""5"",""9385""
","
","177.30000001192093","","48","","","3000","1","","","images/earth.jpg","images/rocket2","images/rocket1","null","images/rocket2","","1","real","null","2","","",""
"d3-animate-choice","161","354643","0.0-77.0-1.8","2669","5594","19","Female","true","true","false","false","""event"",""trial"",""time""
""blur"",""0"",""0""
""focus"",""0"",""0""
""fullscreenenter"",""5"",""9385""
","""event"",""trial"",""time""
""blur"",""0"",""0""
","""event"",""trial"",""time""
""focus"",""0"",""0""
","""event"",""trial"",""time""
""fullscreenenter"",""5"",""9385""
","
","220.5999999642372","","49","","","3000","1","1898.2999999523163","48","images/purpleplanet.jpg","images/alien4","images/alien3","images/rocket2","images/alien3","images/t.png","2","real","true","1","common","1","2023-01-13 04:31:31.352"
"two-step-fixation","162","355652","0.0-77.0-2.8","2669","5594","19","Female","true","true","false","false","""event"",""trial"",""time""
""blur"",""0"",""0""
""focus"",""0"",""0""
""fullscreenenter"",""5"",""9385""
","""event"",""trial"",""time""
""blur"",""0"",""0""
","""event"",""trial"",""time""
""focus"",""0"",""0""
","""event"",""trial"",""time""
""fullscreenenter"",""5"",""9385""
","
","","images/earth.jpg","","","","","","","","","","","","","","fixation","","","","","",""
"d3-animate-choice","163","357676","0.0-77.0-0.9","2669","5594","19","Female","true","true","false","false","""event"",""trial"",""time""
""blur"",""0"",""0""
""focus"",""0"",""0""
""fullscreenenter"",""5"",""9385""
","""event"",""trial"",""time""
""blur"",""0"",""0""
","""event"",""trial"",""time""
""focus"",""0"",""0""
","""event"",""trial"",""time""
""fullscreenenter"",""5"",""9385""
","
","16.900000035762787","","48","","","3000","1","","","images/earth.jpg","images/rocket2","images/rocket1","null","images/rocket2","","1","real","null","2","","",""
"d3-animate-choice","164","359901","0.0-77.0-1.9","2669","5594","19","Female","true","true","false","false","""event"",""trial"",""time""
""blur"",""0"",""0""
""focus"",""0"",""0""
""fullscreenenter"",""5"",""9385""
","""event"",""trial"",""time""
""blur"",""0"",""0""
","""event"",""trial"",""time""
""focus"",""0"",""0""
","""event"",""trial"",""time""
""fullscreenenter"",""5"",""9385""
","
","217.30000001192093","","49","","","3000","1","659.3999999761581","49","images/purpleplanet.jpg","images/alien4","images/alien3","images/rocket2","images/alien3","images/nothing.png","2","real","true","1","common","0","2023-01-13 04:31:36.610"
"two-step-fixation","165","360909","0.0-77.0-2.9","2669","5594","19","Female","true","true","false","false","""event"",""trial"",""time""
""blur"",""0"",""0""
""focus"",""0"",""0""
""fullscreenenter"",""5"",""9385""
","""event"",""trial"",""time""
""blur"",""0"",""0""
","""event"",""trial"",""time""
""focus"",""0"",""0""
","""event"",""trial"",""time""
""fullscreenenter"",""5"",""9385""
","
","","images/earth.jpg","","","","","","","","","","","","","","fixation","","","","","",""
"d3-animate-choice","166","363200","0.0-77.0-0.10","2669","5594","19","Female","true","true","false","false","""event"",""trial"",""time""
""blur"",""0"",""0""
""focus"",""0"",""0""
""fullscreenenter"",""5"",""9385""
""blur"",""167"",""364777""
","""event"",""trial"",""time""
""blur"",""0"",""0""
""blur"",""167"",""364777""
","""event"",""trial"",""time""
""focus"",""0"",""0""
","""event"",""trial"",""time""
""fullscreenenter"",""5"",""9385""
","
","283.5","","48","","","3000","1","","","images/earth.jpg","images/rocket2","images/rocket1","null","images/rocket2","","1","real","null","2","","",""
"d3-animate-choice","167","365467","0.0-77.0-1.10","2669","5594","19","Female","true","true","false","false","""event"",""trial"",""time""
""blur"",""0"",""0""
""focus"",""0"",""0""
""fullscreenenter"",""5"",""9385""
""blur"",""167"",""364777""
""focus"",""168"",""366147""
","""event"",""trial"",""time""
""blur"",""0"",""0""
""blur"",""167"",""364777""
","""event"",""trial"",""time""
""focus"",""0"",""0""
""focus"",""168"",""366147""
","""event"",""trial"",""time""
""fullscreenenter"",""5"",""9385""
","
","260.80000001192093","","49","","","3000","1","","","images/purpleplanet.jpg","images/alien4","images/alien3","images/rocket2","images/alien3","images/t.png","2","real","true","1","common","1","2023-01-13 04:31:42.176"
"two-step-fixation","168","366472","0.0-77.0-2.10","2669","5594","19","Female","true","true","false","false","""event"",""trial"",""time""
""blur"",""0"",""0""
""focus"",""0"",""0""
""fullscreenenter"",""5"",""9385""
""blur"",""167"",""364777""
""focus"",""168"",""366147""
","""event"",""trial"",""time""
""blur"",""0"",""0""
""blur"",""167"",""364777""
","""event"",""trial"",""time""
""focus"",""0"",""0""
""focus"",""168"",""366147""
","""event"",""trial"",""time""
""fullscreenenter"",""5"",""9385""
","
","","images/earth.jpg","","","","","","","","","","","","","","fixation","","","","","",""
"d3-animate-choice","169","368766","0.0-77.0-0.11","2669","5594","19","Female","true","true","false","false","""event"",""trial"",""time""
""blur"",""0"",""0""
""focus"",""0"",""0""
""fullscreenenter"",""5"",""9385""
""blur"",""167"",""364777""
""focus"",""168"",""366147""
","""event"",""trial"",""time""
""blur"",""0"",""0""
""blur"",""167"",""364777""
","""event"",""trial"",""time""
""focus"",""0"",""0""
""focus"",""168"",""366147""
","""event"",""trial"",""time""
""fullscreenenter"",""5"",""9385""
","
","287.69999998807907","","48","","","3000","1","","","images/earth.jpg","images/rocket2","images/rocket1","null","images/rocket2","","1","real","null","2","","",""
"d3-animate-choice","170","371155","0.0-77.0-1.11","2669","5594","19","Female","true","true","false","false","""event"",""trial"",""time""
""blur"",""0"",""0""
""focus"",""0"",""0""
""fullscreenenter"",""5"",""9385""
""blur"",""167"",""364777""
""focus"",""168"",""366147""
""blur"",""171"",""371806""
","""event"",""trial"",""time""
""blur"",""0"",""0""
""blur"",""167"",""364777""
""blur"",""171"",""371806""
","""event"",""trial"",""time""
""focus"",""0"",""0""
""focus"",""168"",""366147""
","""event"",""trial"",""time""
""fullscreenenter"",""5"",""9385""
","
","382.69999998807907","","49","","","3000","1","","","images/redplanet1.jpg","images/alien2","images/alien1","images/rocket2","images/alien1","images/t.png","2","real","false","1","rare","1","2023-01-13 04:31:47.864"
"two-step-fixation","171","372617","0.0-77.0-2.11","2669","5594","19","Female","true","true","false","false","""event"",""trial"",""time""
""blur"",""0"",""0""
""focus"",""0"",""0""
""fullscreenenter"",""5"",""9385""
""blur"",""167"",""364777""
""focus"",""168"",""366147""
""blur"",""171"",""371806""
""focus"",""172"",""373748""
","""event"",""trial"",""time""
""blur"",""0"",""0""
""blur"",""167"",""364777""
""blur"",""171"",""371806""
","""event"",""trial"",""time""
""focus"",""0"",""0""
""focus"",""168"",""366147""
""focus"",""172"",""373748""
","""event"",""trial"",""time""
""fullscreenenter"",""5"",""9385""
","
","","images/earth.jpg","","","","","","","","","","","","","","fixation","","","","","",""
"d3-animate-choice","172","375755","0.0-77.0-0.12","2669","5594","19","Female","true","true","false","false","""event"",""trial"",""time""
""blur"",""0"",""0""
""focus"",""0"",""0""
""fullscreenenter"",""5"",""9385""
""blur"",""167"",""364777""
""focus"",""168"",""366147""
""blur"",""171"",""371806""
""focus"",""172"",""373748""
","""event"",""trial"",""time""
""blur"",""0"",""0""
""blur"",""167"",""364777""
""blur"",""171"",""371806""
","""event"",""trial"",""time""
""focus"",""0"",""0""
""focus"",""168"",""366147""
""focus"",""172"",""373748""
","""event"",""trial"",""time""
""fullscreenenter"",""5"",""9385""
","
","1130.3999999761581","","48","","","3000","1","","","images/earth.jpg","images/rocket2","images/rocket1","null","images/rocket2","","1","real","null","2","","",""
"d3-animate-choice","173","378226","0.0-77.0-1.12","2669","5594","19","Female","true","true","false","false","""event"",""trial"",""time""
""blur"",""0"",""0""
""focus"",""0"",""0""
""fullscreenenter"",""5"",""9385""
""blur"",""167"",""364777""
""focus"",""168"",""366147""
""blur"",""171"",""371806""
""focus"",""172"",""373748""
","""event"",""trial"",""time""
""blur"",""0"",""0""
""blur"",""167"",""364777""
""blur"",""171"",""371806""
","""event"",""trial"",""time""
""focus"",""0"",""0""
""focus"",""168"",""366147""
""focus"",""172"",""373748""
","""event"",""trial"",""time""
""fullscreenenter"",""5"",""9385""
","
","460.80000001192093","","48","","","3000","1","","","images/purpleplanet.jpg","images/alien4","images/alien3","images/rocket2","images/alien4","images/t.png","2","real","true","2","common","1","2023-01-13 04:31:54.935"
"two-step-fixation","174","379232","0.0-77.0-2.12","2669","5594","19","Female","true","true","false","false","""event"",""trial"",""time""
""blur"",""0"",""0""
""focus"",""0"",""0""
""fullscreenenter"",""5"",""9385""
""blur"",""167"",""364777""
""focus"",""168"",""366147""
""blur"",""171"",""371806""
""focus"",""172"",""373748""
","""event"",""trial"",""time""
""blur"",""0"",""0""
""blur"",""167"",""364777""
""blur"",""171"",""371806""
","""event"",""trial"",""time""
""focus"",""0"",""0""
""focus"",""168"",""366147""
""focus"",""172"",""373748""
","""event"",""trial"",""time""
""fullscreenenter"",""5"",""9385""
","
","","images/earth.jpg","","","","","","","","","","","","","","fixation","","","","","",""
"d3-animate-choice","175","381676","0.0-77.0-0.13","2669","5594","19","Female","true","true","false","false","""event"",""trial"",""time""
""blur"",""0"",""0""
""focus"",""0"",""0""
""fullscreenenter"",""5"",""9385""
""blur"",""167"",""364777""
""focus"",""168"",""366147""
""blur"",""171"",""371806""
""focus"",""172"",""373748""
","""event"",""trial"",""time""
""blur"",""0"",""0""
""blur"",""167"",""364777""
""blur"",""171"",""371806""
","""event"",""trial"",""time""
""focus"",""0"",""0""
""focus"",""168"",""366147""
""focus"",""172"",""373748""
","""event"",""trial"",""time""
""fullscreenenter"",""5"",""9385""
","
","432.30000001192093","","48","","","3000","1","","","images/earth.jpg","images/rocket2","images/rocket1","null","images/rocket2","","1","real","null","2","","",""
"d3-animate-choice","176","384134","0.0-77.0-1.13","2669","5594","19","Female","true","true","false","false","""event"",""trial"",""time""
""blur"",""0"",""0""
""focus"",""0"",""0""
""fullscreenenter"",""5"",""9385""
""blur"",""167"",""364777""
""focus"",""168"",""366147""
""blur"",""171"",""371806""
""focus"",""172"",""373748""
","""event"",""trial"",""time""
""blur"",""0"",""0""
""blur"",""167"",""364777""
""blur"",""171"",""371806""
","""event"",""trial"",""time""
""focus"",""0"",""0""
""focus"",""168"",""366147""
""focus"",""172"",""373748""
","""event"",""trial"",""time""
""fullscreenenter"",""5"",""9385""
","
","448.30000001192093","","48","","","3000","1","","","images/redplanet1.jpg","images/alien2","images/alien1","images/rocket2","images/alien2","images/t.png","2","real","false","2","rare","1","2023-01-13 04:32:00.843"
"two-step-fixation","177","385143","0.0-77.0-2.13","2669","5594","19","Female","true","true","false","false","""event"",""trial"",""time""
""blur"",""0"",""0""
""focus"",""0"",""0""
""fullscreenenter"",""5"",""9385""
""blur"",""167"",""364777""
""focus"",""168"",""366147""
""blur"",""171"",""371806""
""focus"",""172"",""373748""
","""event"",""trial"",""time""
""blur"",""0"",""0""
""blur"",""167"",""364777""
""blur"",""171"",""371806""
","""event"",""trial"",""time""
""focus"",""0"",""0""
""focus"",""168"",""366147""
""focus"",""172"",""373748""
","""event"",""trial"",""time""
""fullscreenenter"",""5"",""9385""
","
","","images/earth.jpg","","","","","","","","","","","","","","fixation","","","","","",""
"d3-animate-choice","178","387180","0.0-77.0-0.14","2669","5594","19","Female","true","true","false","false","""event"",""trial"",""time""
""blur"",""0"",""0""
""focus"",""0"",""0""
""fullscreenenter"",""5"",""9385""
""blur"",""167"",""364777""
""focus"",""168"",""366147""
""blur"",""171"",""371806""
""focus"",""172"",""373748""
","""event"",""trial"",""time""
""blur"",""0"",""0""
