"trial_type","trial_index","time_elapsed","internal_node_id","participant_id","subject_id","age","gender","rocket_sides","red_planet_first_rocket","red_display_order","purple_display_order","interactions","blur_events","focus_events","fullscreenenter_events","fullscreenexit_events","rt","stimulus","key_press","button_pressed","success","duration","valid_pressed","rts","keys","planet_text","right_text","left_text","center_text","chosen_text","reward_text","trial_stage","practice_trial","transition_type","choice","transition","reward","timestamp"
"pavlovia","0","2","0.0-0.0","3955","7581","19","Male","false","false","false","true","
","
","
","
","
","","","","","","","","","","","","","","","","","","","","","",""
"html-keyboard-response","1","879","0.0-1.0","3955","7581","19","Male","false","false","false","true","
","
","
","
","
","876","Welcome! Press the space bar to begin.","32","","","","","","","","","","","","","","","","","","",""
"audio-keyboard-response","2","886","0.0-2.0","3955","7581","19","Male","false","false","false","true","
","
","
","
","
","0","audio/beep_loop.wav","78","","","","","","","","","","","","","","","","","","",""
"audio-button-response","3","5270","0.0-3.0","3955","7581","19","Male","false","false","false","true","
","
","
","
","
","NaN","audio/fish.mp3","","1","","","","","","","","","","","","","","","","","",""
"audio-button-response","4","8039","0.0-4.0","3955","7581","19","Male","false","false","false","true","""event"",""trial"",""time""
""fullscreenenter"",""5"",""11070""
","
","
","""event"",""trial"",""time""
""fullscreenenter"",""5"",""11070""
","
","NaN","audio/tiger.mp3","","4","","","","","","","","","","","","","","","","","",""
"fullscreen","5","12070","0.0-5.0","3955","7581","19","Male","false","false","false","true","""event"",""trial"",""time""
""fullscreenenter"",""5"",""11070""
","
","
","""event"",""trial"",""time""
""fullscreenenter"",""5"",""11070""
","
","","","","","true","","","","","","","","","","","","","","","","",""
"d3-instructions","6","24393","0.0-6.0","3955","7581","19","Male","false","false","false","true","""event"",""trial"",""time""
""fullscreenenter"",""5"",""11070""
","
","
","""event"",""trial"",""time""
""fullscreenenter"",""5"",""11070""
","
","","","","","","","","","","","","","","","","","","","","","",""
"d3-instructions","7","31721","0.0-7.0","3955","7581","19","Male","false","false","false","true","""event"",""trial"",""time""
""fullscreenenter"",""5"",""11070""
","
","
","""event"",""trial"",""time""
""fullscreenenter"",""5"",""11070""
","
","","","","","","","","","","","","","","","","","","","","","",""
"d3-instructions","8","38527","0.0-8.0","3955","7581","19","Male","false","false","false","true","""event"",""trial"",""time""
""fullscreenenter"",""5"",""11070""
","
","
","""event"",""trial"",""time""
""fullscreenenter"",""5"",""11070""
","
","","","","","","","","","","","","","","","","","","","","","",""
"d3-instructions","9","47562","0.0-9.0","3955","7581","19","Male","false","false","false","true","""event"",""trial"",""time""
""fullscreenenter"",""5"",""11070""
","
","
","""event"",""trial"",""time""
""fullscreenenter"",""5"",""11070""
","
","","","","","","","","","","","","","","","","","","","","","",""
"d3-instructions","10","55876","0.0-10.0","3955","7581","19","Male","false","false","false","true","""event"",""trial"",""time""
""fullscreenenter"",""5"",""11070""
","
","
","""event"",""trial"",""time""
""fullscreenenter"",""5"",""11070""
","
","","","","","","","","","","","","","","","","","","","","","",""
"d3-animate-choice","11","58937","0.0-11.0","3955","7581","19","Male","false","false","false","true","""event"",""trial"",""time""
""fullscreenenter"",""5"",""11070""
","
","
","""event"",""trial"",""time""
""fullscreenenter"",""5"",""11070""
","
","745","","50","","","3000","1","1050,1656,2539","49,50,50","images/tutgreenplanet.jpg","images/tutalien1","images/tutalien2","null","images/tutalien2","","NA","practice","null","","","",""
"d3-animate-choice","12","62601","0.0-12.0","3955","7581","19","Male","false","false","false","true","""event"",""trial"",""time""
""fullscreenenter"",""5"",""11070""
","
","
","""event"",""trial"",""time""
""fullscreenenter"",""5"",""11070""
","
","299","","50","","","3000","1","769,1651,2202,2407,2630,2845","50,49,50,50,50,50","images/tutgreenplanet.jpg","images/tutalien1","images/tutalien2","null","images/tutalien2","","NA","practice","null","","","",""
"d3-animate-choice","13","67098","0.0-13.0","3955","7581","19","Male","false","false","false","true","""event"",""trial"",""time""
""fullscreenenter"",""5"",""11070""
","
","
","""event"",""trial"",""time""
""fullscreenenter"",""5"",""11070""
","
","586","","50","","","3000","1","910,1402,1601,1772,1996,2160,2490","50,50,50,50,50,50,48","images/tutgreenplanet.jpg","images/tutalien1","images/tutalien2","null","images/tutalien1","","NA","practice","null","","","",""
"d3-animate-choice","14","69910","0.0-14.0","3955","7581","19","Male","false","false","false","true","""event"",""trial"",""time""
""fullscreenenter"",""5"",""11070""
","
","
","""event"",""trial"",""time""
""fullscreenenter"",""5"",""11070""
","
","810","","48","","","3000","1","966,1128","48,48","images/tutgreenplanet.jpg","images/tutalien1","images/tutalien2","null","images/tutalien1","","NA","practice","null","","","",""
"d3-instructions","15","73862","0.0-15.0","3955","7581","19","Male","false","false","false","true","""event"",""trial"",""time""
""fullscreenenter"",""5"",""11070""
","
","
","""event"",""trial"",""time""
""fullscreenenter"",""5"",""11070""
","
","","","","","","","","","","","","","","","","","","","","","",""
"d3-instructions","16","76181","0.0-16.0","3955","7581","19","Male","false","false","false","true","""event"",""trial"",""time""
""fullscreenenter"",""5"",""11070""
","
","
","""event"",""trial"",""time""
""fullscreenenter"",""5"",""11070""
","
","","","","","","","","","","","","","","","","","","","","","",""
"d3-instructions","17","82869","0.0-17.0","3955","7581","19","Male","false","false","false","true","""event"",""trial"",""time""
""fullscreenenter"",""5"",""11070""
","
","
","""event"",""trial"",""time""
""fullscreenenter"",""5"",""11070""
","
","","","","","","","","","","","","","","","","","","","","","",""
"d3-instructions","18","90648","0.0-18.0","3955","7581","19","Male","false","false","false","true","""event"",""trial"",""time""
""fullscreenenter"",""5"",""11070""
","
","
","""event"",""trial"",""time""
""fullscreenenter"",""5"",""11070""
","
","","","","","","","","","","","","","","","","","","","","","",""
"d3-instructions","19","98696","0.0-19.0","3955","7581","19","Male","false","false","false","true","""event"",""trial"",""time""
""fullscreenenter"",""5"",""11070""
","
","
","""event"",""trial"",""time""
""fullscreenenter"",""5"",""11070""
","
","","","","","","","","","","","","","","","","","","","","","",""
"d3-animate-choice","20","100975","0.0-20.0","3955","7581","19","Male","false","false","false","true","""event"",""trial"",""time""
""fullscreenenter"",""5"",""11070""
","
","
","""event"",""trial"",""time""
""fullscreenenter"",""5"",""11070""
","
","273","","49","","","3000","1","1975","49","images/tutyellowplanet.jpg","null","images/tutalien3","null","images/tutalien3","images/nothing.png","NA","practice","null","","","",""
"d3-animate-choice","21","103130","0.0-21.0","3955","7581","19","Male","false","false","false","true","""event"",""trial"",""time""
""fullscreenenter"",""5"",""11070""
","
","
","""event"",""trial"",""time""
""fullscreenenter"",""5"",""11070""
","
","146","","49","","","3000","1","418,658,898,1179,1449,1711,1964","49,49,49,49,49,49,49","images/tutyellowplanet.jpg","null","images/tutalien3","null","images/tutalien3","images/t.png","NA","practice","null","","","",""
"d3-animate-choice","22","105266","0.0-22.0","3955","7581","19","Male","false","false","false","true","""event"",""trial"",""time""
""fullscreenenter"",""5"",""11070""
","
","
","""event"",""trial"",""time""
""fullscreenenter"",""5"",""11070""
","
","121","","49","","","3000","1","391,679,954,1215,1462,1733,1995","49,49,49,49,49,49,49","images/tutyellowplanet.jpg","null","images/tutalien3","null","images/tutalien3","images/t.png","NA","practice","null","","","",""
"d3-animate-choice","23","107397","0.0-23.0","3955","7581","19","Male","false","false","false","true","""event"",""trial"",""time""
""fullscreenenter"",""5"",""11070""
","
","
","""event"",""trial"",""time""
""fullscreenenter"",""5"",""11070""
","
","114","","49","","","3000","1","367,617,886,1178,1450,1720,1969","49,49,49,49,49,49,49","images/tutyellowplanet.jpg","null","images/tutalien3","null","images/tutalien3","images/t.png","NA","practice","null","","","",""
"d3-animate-choice","24","109492","0.0-24.0","3955","7581","19","Male","false","false","false","true","""event"",""trial"",""time""
""fullscreenenter"",""5"",""11070""
","
","
","""event"",""trial"",""time""
""fullscreenenter"",""5"",""11070""
","
","91","","49","","","3000","1","282,506,784,1038,1507,1759,2015","49,49,49,49,49,49,49","images/tutyellowplanet.jpg","null","images/tutalien3","null","images/tutalien3","images/t.png","NA","practice","null","","","",""
"d3-animate-choice","25","111671","0.0-25.0","3955","7581","19","Male","false","false","false","true","""event"",""trial"",""time""
""fullscreenenter"",""5"",""11070""
","
","
","""event"",""trial"",""time""
""fullscreenenter"",""5"",""11070""
","
","176","","49","","","3000","1","438,680,841,1125,1500,1760,2044","49,49,49,49,49,49,49","images/tutyellowplanet.jpg","null","images/tutalien3","null","images/tutalien3","images/nothing.png","NA","practice","null","","","",""
"d3-animate-choice","26","113782","0.0-26.0","3955","7581","19","Male","false","false","false","true","""event"",""trial"",""time""
""fullscreenenter"",""5"",""11070""
","
","
","""event"",""trial"",""time""
""fullscreenenter"",""5"",""11070""
","
","109","","49","","","3000","1","370,629,894,1165,1419,1694,1959","49,49,49,49,49,49,49","images/tutyellowplanet.jpg","null","images/tutalien3","null","images/tutalien3","images/t.png","NA","practice","null","","","",""
"d3-animate-choice","27","115901","0.0-27.0","3955","7581","19","Male","false","false","false","true","""event"",""trial"",""time""
""fullscreenenter"",""5"",""11070""
","
","
","""event"",""trial"",""time""
""fullscreenenter"",""5"",""11070""
","
","118","","49","","","3000","1","387,644,899,1168,1404,1641,1866","49,49,49,49,49,49,49","images/tutyellowplanet.jpg","null","images/tutalien3","null","images/tutalien3","images/t.png","NA","practice","null","","","",""
"d3-animate-choice","28","117919","0.0-28.0","3955","7581","19","Male","false","false","false","true","""event"",""trial"",""time""
""fullscreenenter"",""5"",""11070""
","
","
","""event"",""trial"",""time""
""fullscreenenter"",""5"",""11070""
","
","3","","49","","","3000","1","249,541,775,1038,1326,1572,1757,1954","49,49,49,49,49,49,49,49","images/tutyellowplanet.jpg","null","images/tutalien3","null","images/tutalien3","images/t.png","NA","practice","null","","","",""
"d3-animate-choice","29","120064","0.0-29.0","3955","7581","19","Male","false","false","false","true","""event"",""trial"",""time""
""fullscreenenter"",""5"",""11070""
","
","
","""event"",""trial"",""time""
""fullscreenenter"",""5"",""11070""
","
","130","","49","","","3000","1","494,698,941,1176,1364,1583,1801","49,49,49,49,49,49,49","images/tutyellowplanet.jpg","null","images/tutalien3","null","images/tutalien3","images/t.png","NA","practice","null","","","",""
"d3-instructions","30","123920","0.0-30.0","3955","7581","19","Male","false","false","false","true","""event"",""trial"",""time""
""fullscreenenter"",""5"",""11070""
","
","
","""event"",""trial"",""time""
""fullscreenenter"",""5"",""11070""
","
","","","","","","","","","","","","","","","","","","","","","",""
"d3-instructions","31","130058","0.0-31.0","3955","7581","19","Male","false","false","false","true","""event"",""trial"",""time""
""fullscreenenter"",""5"",""11070""
","
","
","""event"",""trial"",""time""
""fullscreenenter"",""5"",""11070""
","
","","","","","","","","","","","","","","","","","","","","","",""
"d3-instructions","32","132968","0.0-32.0","3955","7581","19","Male","false","false","false","true","""event"",""trial"",""time""
""fullscreenenter"",""5"",""11070""
","
","
","""event"",""trial"",""time""
""fullscreenenter"",""5"",""11070""
","
","","","","","","","","","","","","","","","","","","","","","",""
"d3-instructions","33","135119","0.0-33.0","3955","7581","19","Male","false","false","false","true","""event"",""trial"",""time""
""fullscreenenter"",""5"",""11070""
","
","
","""event"",""trial"",""time""
""fullscreenenter"",""5"",""11070""
","
","","","","","","","","","","","","","","","","","","","","","",""
"d3-animate-choice","34","137510","0.0-34.0","3955","7581","19","Male","false","false","false","true","""event"",""trial"",""time""
""fullscreenenter"",""5"",""11070""
","
","
","""event"",""trial"",""time""
""fullscreenenter"",""5"",""11070""
","
","378","","49","","","3000","1","1883,2202","49,49","images/tutgreenplanet.jpg","images/tutalien1","images/tutalien2","null","images/tutalien2","images/t.png","NA","practice","null","","","",""
"d3-animate-choice","35","139585","0.0-35.0","3955","7581","19","Male","false","false","false","true","""event"",""trial"",""time""
""fullscreenenter"",""5"",""11070""
","
","
","""event"",""trial"",""time""
""fullscreenenter"",""5"",""11070""
","
","63","","49","","","3000","1","312,556,749,1011,1221,1444,1685,1946","49,49,49,49,49,49,49,49","images/tutgreenplanet.jpg","images/tutalien1","images/tutalien2","null","images/tutalien2","images/t.png","NA","practice","null","","","",""
"d3-animate-choice","36","141718","0.0-36.0","3955","7581","19","Male","false","false","false","true","""event"",""trial"",""time""
""fullscreenenter"",""5"",""11070""
","
","
","""event"",""trial"",""time""
""fullscreenenter"",""5"",""11070""
","
","119","","49","","","3000","1","357,575,786,1051,1289,1542,1793,2032","49,49,49,49,49,49,49,49","images/tutgreenplanet.jpg","images/tutalien1","images/tutalien2","null","images/tutalien2","images/t.png","NA","practice","null","","","",""
"d3-animate-choice","37","143866","0.0-37.0","3955","7581","19","Male","false","false","false","true","""event"",""trial"",""time""
""fullscreenenter"",""5"",""11070""
","
","
","""event"",""trial"",""time""
""fullscreenenter"",""5"",""11070""
","
","139","","49","","","3000","1","381,619,850,1119,1376,1603,1831,2064","49,49,49,49,49,49,49,49","images/tutgreenplanet.jpg","images/tutalien1","images/tutalien2","null","images/tutalien2","images/t.png","NA","practice","null","","","",""
"d3-animate-choice","38","146029","0.0-38.0","3955","7581","19","Male","false","false","false","true","""event"",""trial"",""time""
""fullscreenenter"",""5"",""11070""
","
","
","""event"",""trial"",""time""
""fullscreenenter"",""5"",""11070""
","
","145","","49","","","3000","1","371,605,884,1126,1362,1600,1833,2081","49,49,49,49,49,49,49,49","images/tutgreenplanet.jpg","images/tutalien1","images/tutalien2","null","images/tutalien2","images/t.png","NA","practice","null","","","",""
"d3-animate-choice","39","148171","0.0-39.0","3955","7581","19","Male","false","false","false","true","""event"",""trial"",""time""
""fullscreenenter"",""5"",""11070""
","
","
","""event"",""trial"",""time""
""fullscreenenter"",""5"",""11070""
","
","133","","49","","","3000","1","378,597,845,1093,1316,1608,1836,2058","49,49,49,49,49,49,49,49","images/tutgreenplanet.jpg","images/tutalien1","images/tutalien2","null","images/tutalien2","images/t.png","NA","practice","null","","","",""
"d3-animate-choice","40","150320","0.0-40.0","3955","7581","19","Male","false","false","false","true","""event"",""trial"",""time""
""fullscreenenter"",""5"",""11070""
","
","
","""event"",""trial"",""time""
""fullscreenenter"",""5"",""11070""
","
","144","","49","","","3000","1","368,585,744,986,1216,1469,1684,1914,2139","49,49,49,49,49,49,49,49,49","images/tutgreenplanet.jpg","images/tutalien1","images/tutalien2","null","images/tutalien2","images/t.png","NA","practice","null","","","",""
"d3-animate-choice","41","152549","0.0-41.0","3955","7581","19","Male","false","false","false","true","""event"",""trial"",""time""
""fullscreenenter"",""5"",""11070""
","
","
","""event"",""trial"",""time""
""fullscreenenter"",""5"",""11070""
","
","222","","49","","","3000","1","642,900,1193,1419,1674,1964","49,49,49,49,49,49","images/tutgreenplanet.jpg","images/tutalien1","images/tutalien2","null","images/tutalien2","images/t.png","NA","practice","null","","","",""
"d3-animate-choice","42","154553","0.0-42.0","3955","7581","19","Male","false","false","false","true","""event"",""trial"",""time""
""fullscreenenter"",""5"",""11070""
","
","
","""event"",""trial"",""time""
""fullscreenenter"",""5"",""11070""
","
","1","","49","","","3000","1","242,527,789,1065,1359,1614,1810,1955","49,49,49,49,49,49,49,49","images/tutgreenplanet.jpg","images/tutalien1","images/tutalien2","null","images/tutalien2","images/t.png","NA","practice","null","","","",""
"d3-animate-choice","43","156731","0.0-43.0","3955","7581","19","Male","false","false","false","true","""event"",""trial"",""time""
""fullscreenenter"",""5"",""11070""
","
","
","""event"",""trial"",""time""
""fullscreenenter"",""5"",""11070""
","
","173","","49","","","3000","1","1381,1550,1873","49,49,49","images/tutgreenplanet.jpg","images/tutalien1","images/tutalien2","null","images/tutalien2","images/t.png","NA","practice","null","","","",""
"d3-instructions","44","164592","0.0-44.0","3955","7581","19","Male","false","false","false","true","""event"",""trial"",""time""
""fullscreenenter"",""5"",""11070""
","
","
","""event"",""trial"",""time""
""fullscreenenter"",""5"",""11070""
","
","","","","","","","","","","","","","","","","","","","","","",""
"d3-instructions","45","166039","0.0-45.0","3955","7581","19","Male","false","false","false","true","""event"",""trial"",""time""
""fullscreenenter"",""5"",""11070""
","
","
","""event"",""trial"",""time""
""fullscreenenter"",""5"",""11070""
","
","","","","","","","","","","","","","","","","","","","","","",""
"d3-instructions","46","167358","0.0-46.0","3955","7581","19","Male","false","false","false","true","""event"",""trial"",""time""
""fullscreenenter"",""5"",""11070""
","
","
","""event"",""trial"",""time""
""fullscreenenter"",""5"",""11070""
","
","","","","","","","","","","","","","","","","","","","","","",""
"d3-instructions","47","188208","0.0-47.0","3955","7581","19","Male","false","false","false","true","""event"",""trial"",""time""
""fullscreenenter"",""5"",""11070""
","
","
","""event"",""trial"",""time""
""fullscreenenter"",""5"",""11070""
","
","","","","","","","","","","","","","","","","","","","","","",""
"d3-instructions","48","190985","0.0-48.0","3955","7581","19","Male","false","false","false","true","""event"",""trial"",""time""
""fullscreenenter"",""5"",""11070""
","
","
","""event"",""trial"",""time""
""fullscreenenter"",""5"",""11070""
","
","","","","","","","","","","","","","","","","","","","","","",""
"d3-instructions","49","196634","0.0-49.0","3955","7581","19","Male","false","false","false","true","""event"",""trial"",""time""
""fullscreenenter"",""5"",""11070""
","
","
","""event"",""trial"",""time""
""fullscreenenter"",""5"",""11070""
","
","","","","","","","","","","","","","","","","","","","","","",""
"d3-instructions","50","202002","0.0-50.0","3955","7581","19","Male","false","false","false","true","""event"",""trial"",""time""
""fullscreenenter"",""5"",""11070""
","
","
","""event"",""trial"",""time""
""fullscreenenter"",""5"",""11070""
","
","","","","","","","","","","","","","","","","","","","","","",""
"d3-instructions","51","203458","0.0-51.0","3955","7581","19","Male","false","false","false","true","""event"",""trial"",""time""
""fullscreenenter"",""5"",""11070""
","
","
","""event"",""trial"",""time""
""fullscreenenter"",""5"",""11070""
","
","","","","","","","","","","","","","","","","","","","","","",""
"d3-instructions","52","204294","0.0-52.0","3955","7581","19","Male","false","false","false","true","""event"",""trial"",""time""
""fullscreenenter"",""5"",""11070""
","
","
","""event"",""trial"",""time""
""fullscreenenter"",""5"",""11070""
","
","","","","","","","","","","","","","","","","","","","","","",""
"d3-instructions","53","210546","0.0-53.0","3955","7581","19","Male","false","false","false","true","""event"",""trial"",""time""
""fullscreenenter"",""5"",""11070""
","
","
","""event"",""trial"",""time""
""fullscreenenter"",""5"",""11070""
","
","","","","","","","","","","","","","","","","","","","","","",""
"d3-instructions","54","216112","0.0-54.0","3955","7581","19","Male","false","false","false","true","""event"",""trial"",""time""
""fullscreenenter"",""5"",""11070""
","
","
","""event"",""trial"",""time""
""fullscreenenter"",""5"",""11070""
","
","","","","","","","","","","","","","","","","","","","","","",""
"d3-instructions","55","218139","0.0-55.0","3955","7581","19","Male","false","false","false","true","""event"",""trial"",""time""
""fullscreenenter"",""5"",""11070""
","
","
","""event"",""trial"",""time""
""fullscreenenter"",""5"",""11070""
","
","","","","","","","","","","","","","","","","","","","","","",""
"d3-instructions","56","220620","0.0-56.0","3955","7581","19","Male","false","false","false","true","""event"",""trial"",""time""
""fullscreenenter"",""5"",""11070""
","
","
","""event"",""trial"",""time""
""fullscreenenter"",""5"",""11070""
","
","","","","","","","","","","","","","","","","","","","","","",""
"d3-instructions","57","223050","0.0-57.0","3955","7581","19","Male","false","false","false","true","""event"",""trial"",""time""
""fullscreenenter"",""5"",""11070""
","
","
","""event"",""trial"",""time""
""fullscreenenter"",""5"",""11070""
","
","","","","","","","","","","","","","","","","","","","","","",""
"d3-instructions","58","226020","0.0-58.0","3955","7581","19","Male","false","false","false","true","""event"",""trial"",""time""
""fullscreenenter"",""5"",""11070""
","
","
","""event"",""trial"",""time""
""fullscreenenter"",""5"",""11070""
","
","","","","","","","","","","","","","","","","","","","","","",""
"d3-instructions","59","227867","0.0-59.0","3955","7581","19","Male","false","false","false","true","""event"",""trial"",""time""
""fullscreenenter"",""5"",""11070""
","
","
","""event"",""trial"",""time""
""fullscreenenter"",""5"",""11070""
","
","","","","","","","","","","","","","","","","","","","","","",""
"d3-instructions","60","229932","0.0-60.0","3955","7581","19","Male","false","false","false","true","""event"",""trial"",""time""
""fullscreenenter"",""5"",""11070""
","
","
","""event"",""trial"",""time""
""fullscreenenter"",""5"",""11070""
","
","","","","","","","","","","","","","","","","","","","","","",""
"d3-animate-choice","61","232983","0.0-61.0-0.0","3955","7581","19","Male","false","false","false","true","""event"",""trial"",""time""
""fullscreenenter"",""5"",""11070""
","
","
","""event"",""trial"",""time""
""fullscreenenter"",""5"",""11070""
","
","1042","","49","","","3000","1","","","images/earth.jpg","images/tutrocket1","images/tutrocket2","null","images/tutrocket2","","1","practice","null","1","","",""
"d3-animate-choice","62","235833","0.0-61.0-1.0","3955","7581","19","Male","false","false","false","true","""event"",""trial"",""time""
""fullscreenenter"",""5"",""11070""
","
","
","""event"",""trial"",""time""
""fullscreenenter"",""5"",""11070""
","
","846","","49","","","3000","1","","","images/tutgreenplanet.jpg","images/tutalien2","images/tutalien1","images/tutrocket2","images/tutalien1","images/nothing.png","2","practice","true","1","common","0","2023-03-22 06:09:57.231"
"two-step-fixation","63","236836","0.0-61.0-2.0","3955","7581","19","Male","false","false","false","true","""event"",""trial"",""time""
""fullscreenenter"",""5"",""11070""
","
","
","""event"",""trial"",""time""
""fullscreenenter"",""5"",""11070""
","
","","images/earth.jpg","","","","","","","","","","","","","","fixation","","","","","",""
"d3-animate-choice","64","239138","0.0-61.0-0.1","3955","7581","19","Male","false","false","false","true","""event"",""trial"",""time""
""fullscreenenter"",""5"",""11070""
","
","
","""event"",""trial"",""time""
""fullscreenenter"",""5"",""11070""
","
","291","","49","","","3000","1","","","images/earth.jpg","images/tutrocket1","images/tutrocket2","null","images/tutrocket2","","1","practice","null","1","","",""
"d3-animate-choice","65","241611","0.0-61.0-1.1","3955","7581","19","Male","false","false","false","true","""event"",""trial"",""time""
""fullscreenenter"",""5"",""11070""
","
","
","""event"",""trial"",""time""
""fullscreenenter"",""5"",""11070""
","
","467","","49","","","3000","1","","","images/tutgreenplanet.jpg","images/tutalien2","images/tutalien1","images/tutrocket2","images/tutalien1","images/nothing.png","2","practice","true","1","common","0","2023-03-22 06:10:03.009"
"two-step-fixation","66","242613","0.0-61.0-2.1","3955","7581","19","Male","false","false","false","true","""event"",""trial"",""time""
""fullscreenenter"",""5"",""11070""
","
","
","""event"",""trial"",""time""
""fullscreenenter"",""5"",""11070""
","
","","images/earth.jpg","","","","","","","","","","","","","","fixation","","","","","",""
"d3-animate-choice","67","244955","0.0-61.0-0.2","3955","7581","19","Male","false","false","false","true","""event"",""trial"",""time""
""fullscreenenter"",""5"",""11070""
","
","
","""event"",""trial"",""time""
""fullscreenenter"",""5"",""11070""
","
","339","","49","","","3000","1","","","images/earth.jpg","images/tutrocket1","images/tutrocket2","null","images/tutrocket2","","1","practice","null","1","","",""
"d3-animate-choice","68","247433","0.0-61.0-1.2","3955","7581","19","Male","false","false","false","true","""event"",""trial"",""time""
""fullscreenenter"",""5"",""11070""
","
","
","""event"",""trial"",""time""
""fullscreenenter"",""5"",""11070""
","
","475","","49","","","3000","1","","","images/tutgreenplanet.jpg","images/tutalien2","images/tutalien1","images/tutrocket2","images/tutalien1","images/nothing.png","2","practice","true","1","common","0","2023-03-22 06:10:08.831"
"two-step-fixation","69","248448","0.0-61.0-2.2","3955","7581","19","Male","false","false","false","true","""event"",""trial"",""time""
""fullscreenenter"",""5"",""11070""
","
","
","""event"",""trial"",""time""
""fullscreenenter"",""5"",""11070""
","
","","images/earth.jpg","","","","","","","","","","","","","","fixation","","","","","",""
"d3-animate-choice","70","250753","0.0-61.0-0.3","3955","7581","19","Male","false","false","false","true","""event"",""trial"",""time""
""fullscreenenter"",""5"",""11070""
","
","
","""event"",""trial"",""time""
""fullscreenenter"",""5"",""11070""
","
","289","","49","","","3000","1","1669","48","images/earth.jpg","images/tutrocket1","images/tutrocket2","null","images/tutrocket2","","1","practice","null","1","","",""
"d3-animate-choice","71","253048","0.0-61.0-1.3","3955","7581","19","Male","false","false","false","true","""event"",""trial"",""time""
""fullscreenenter"",""5"",""11070""
","
","
","""event"",""trial"",""time""
""fullscreenenter"",""5"",""11070""
","
","293","","48","","","3000","1","","","images/tutgreenplanet.jpg","images/tutalien2","images/tutalien1","images/tutrocket2","images/tutalien2","images/nothing.png","2","practice","true","2","common","0","2023-03-22 06:10:14.446"
"two-step-fixation","72","254053","0.0-61.0-2.3","3955","7581","19","Male","false","false","false","true","""event"",""trial"",""time""
""fullscreenenter"",""5"",""11070""
","
","
","""event"",""trial"",""time""
""fullscreenenter"",""5"",""11070""
","
","","images/earth.jpg","","","","","","","","","","","","","","fixation","","","","","",""
"d3-animate-choice","73","256400","0.0-61.0-0.4","3955","7581","19","Male","false","false","false","true","""event"",""trial"",""time""
""fullscreenenter"",""5"",""11070""
","
","
","""event"",""trial"",""time""
""fullscreenenter"",""5"",""11070""
","
","343","","49","","","3000","1","530,849","49,48","images/earth.jpg","images/tutrocket1","images/tutrocket2","null","images/tutrocket2","","1","practice","null","1","","",""
"d3-animate-choice","74","258832","0.0-61.0-1.4","3955","7581","19","Male","false","false","false","true","""event"",""trial"",""time""
""fullscreenenter"",""5"",""11070""
","
","
","""event"",""trial"",""time""
""fullscreenenter"",""5"",""11070""
","
","430","","48","","","3000","1","631,827,2221","48,48,50","images/tutgreenplanet.jpg","images/tutalien2","images/tutalien1","images/tutrocket2","images/tutalien2","images/nothing.png","2","practice","true","2","common","0","2023-03-22 06:10:20.230"
"two-step-fixation","75","259833","0.0-61.0-2.4","3955","7581","19","Male","false","false","false","true","""event"",""trial"",""time""
""fullscreenenter"",""5"",""11070""
","
","
","""event"",""trial"",""time""
""fullscreenenter"",""5"",""11070""
","
","","images/earth.jpg","","","","","","","","","","","","","","fixation","","","","","",""
"d3-animate-choice","76","262912","0.0-61.0-0.5","3955","7581","19","Male","false","false","false","true","""event"",""trial"",""time""
""fullscreenenter"",""5"",""11070""
","
","
","""event"",""trial"",""time""
""fullscreenenter"",""5"",""11070""
","
","170","","50","","","3000","1","365,539,1071","50,50,48","images/earth.jpg","images/tutrocket1","images/tutrocket2","null","images/tutrocket1","","1","practice","null","","","",""
"d3-animate-choice","77","265204","0.0-61.0-1.5","3955","7581","19","Male","false","false","false","true","""event"",""trial"",""time""
""fullscreenenter"",""5"",""11070""
","
","
","""event"",""trial"",""time""
""fullscreenenter"",""5"",""11070""
","
","289","","49","","","3000","1","2092","48","images/tutyellowplanet.jpg","images/tutalien4","images/tutalien3","images/tutrocket1","images/tutalien3","images/nothing.png","2","practice","true","1","common","0","2023-03-22 06:10:26.602"
"two-step-fixation","78","266206","0.0-61.0-2.5","3955","7581","19","Male","false","false","false","true","""event"",""trial"",""time""
""fullscreenenter"",""5"",""11070""
","
","
","""event"",""trial"",""time""
""fullscreenenter"",""5"",""11070""
","
","","images/earth.jpg","","","","","","","","","","","","","","fixation","","","","","",""
"d3-animate-choice","79","268395","0.0-61.0-0.6","3955","7581","19","Male","false","false","false","true","""event"",""trial"",""time""
""fullscreenenter"",""5"",""11070""
","
","
","""event"",""trial"",""time""
""fullscreenenter"",""5"",""11070""
","
","184","","48","","","3000","1","403,1293,1539,1781,1943","48,48,48,48,48","images/earth.jpg","images/tutrocket1","images/tutrocket2","null","images/tutrocket1","","1","practice","null","2","","",""
"d3-animate-choice","80","270426","0.0-61.0-1.6","3955","7581","19","Male","false","false","false","true","""event"",""trial"",""time""
""fullscreenenter"",""5"",""11070""
","
","
","""event"",""trial"",""time""
""fullscreenenter"",""5"",""11070""
","
","28","","48","","","3000","1","299,546,1050,1325,1595,1871","48,48,48,48,48,48","images/tutyellowplanet.jpg","images/tutalien4","images/tutalien3","images/tutrocket1","images/tutalien4","images/t.png","2","practice","true","2","common","1","2023-03-22 06:10:31.824"
"two-step-fixation","81","271429","0.0-61.0-2.6","3955","7581","19","Male","false","false","false","true","""event"",""trial"",""time""
""fullscreenenter"",""5"",""11070""
","
","
","""event"",""trial"",""time""
""fullscreenenter"",""5"",""11070""
","
","","images/earth.jpg","","","","","","","","","","","","","","fixation","","","","","",""
"d3-animate-choice","82","273659","0.0-61.0-0.7","3955","7581","19","Male","false","false","false","true","""event"",""trial"",""time""
""fullscreenenter"",""5"",""11070""
","
","
","""event"",""trial"",""time""
""fullscreenenter"",""5"",""11070""
","
","227","","48","","","3000","1","477,733,1014,1280,1548","48,48,48,48,48","images/earth.jpg","images/tutrocket1","images/tutrocket2","null","images/tutrocket1","","1","practice","null","2","","",""
"d3-animate-choice","83","275929","0.0-61.0-1.7","3955","7581","19","Male","false","false","false","true","""event"",""trial"",""time""
""fullscreenenter"",""5"",""11070""
","
","
","""event"",""trial"",""time""
""fullscreenenter"",""5"",""11070""
","
","267","","48","","","3000","1","","","images/tutyellowplanet.jpg","images/tutalien4","images/tutalien3","images/tutrocket1","images/tutalien4","images/nothing.png","2","practice","true","2","common","0","2023-03-22 06:10:37.327"
"two-step-fixation","84","276932","0.0-61.0-2.7","3955","7581","19","Male","false","false","false","true","""event"",""trial"",""time""
""fullscreenenter"",""5"",""11070""
","
","
","""event"",""trial"",""time""
""fullscreenenter"",""5"",""11070""
","
","","images/earth.jpg","","","","","","","","","","","","","","fixation","","","","","",""
"d3-animate-choice","85","279054","0.0-61.0-0.8","3955","7581","19","Male","false","false","false","true","""event"",""trial"",""time""
""fullscreenenter"",""5"",""11070""
","
","
","""event"",""trial"",""time""
""fullscreenenter"",""5"",""11070""
","
","119","","48","","","3000","1","407,963,1127,1590,1882","48,48,48,48,48","images/earth.jpg","images/tutrocket1","images/tutrocket2","null","images/tutrocket1","","1","practice","null","2","","",""
"d3-animate-choice","86","281101","0.0-61.0-1.8","3955","7581","19","Male","false","false","false","true","""event"",""trial"",""time""
""fullscreenenter"",""5"",""11070""
","
","
","""event"",""trial"",""time""
""fullscreenenter"",""5"",""11070""
","
","44","","48","","","3000","1","318,1800,1998","48,48,48","images/tutyellowplanet.jpg","images/tutalien4","images/tutalien3","images/tutrocket1","images/tutalien4","images/t.png","2","practice","true","2","common","1","2023-03-22 06:10:42.499"
"two-step-fixation","87","282104","0.0-61.0-2.8","3955","7581","19","Male","false","false","false","true","""event"",""trial"",""time""
""fullscreenenter"",""5"",""11070""
","
","
","""event"",""trial"",""time""
""fullscreenenter"",""5"",""11070""
","
","","images/earth.jpg","","","","","","","","","","","","","","fixation","","","","","",""
"d3-animate-choice","88","284146","0.0-61.0-0.9","3955","7581","19","Male","false","false","false","true","""event"",""trial"",""time""
""fullscreenenter"",""5"",""11070""
","
","
","""event"",""trial"",""time""
""fullscreenenter"",""5"",""11070""
","
","40","","48","","","3000","1","183,320,432,679,924,1112,1612,1808,1980","48,48,48,48,48,48,48,48,48","images/earth.jpg","images/tutrocket1","images/tutrocket2","null","images/tutrocket1","","1","practice","null","2","","",""
"d3-animate-choice","89","286292","0.0-61.0-1.9","3955","7581","19","Male","false","false","false","true","""event"",""trial"",""time""
""fullscreenenter"",""5"",""11070""
","
","
","""event"",""trial"",""time""
""fullscreenenter"",""5"",""11070""
","
","145","","48","","","3000","1","337,581,807,2058","48,48,48,48","images/tutgreenplanet.jpg","images/tutalien2","images/tutalien1","images/tutrocket1","images/tutalien2","images/nothing.png","2","practice","false","2","rare","0","2023-03-22 06:10:47.691"
"two-step-fixation","90","287294","0.0-61.0-2.9","3955","7581","19","Male","false","false","false","true","""event"",""trial"",""time""
""fullscreenenter"",""5"",""11070""
","
","
","""event"",""trial"",""time""
""fullscreenenter"",""5"",""11070""
","
","","images/earth.jpg","","","","","","","","","","","","","","fixation","","","","","",""
"d3-animate-choice","91","289443","0.0-61.0-0.10","3955","7581","19","Male","false","false","false","true","""event"",""trial"",""time""
""fullscreenenter"",""5"",""11070""
","
","
","""event"",""trial"",""time""
""fullscreenenter"",""5"",""11070""
","
","146","","48","","","3000","1","400,666,860,1059,1289,1524","48,48,48,48,48,48","images/earth.jpg","images/tutrocket1","images/tutrocket2","null","images/tutrocket1","","1","practice","null","2","","",""
"d3-animate-choice","92","291855","0.0-61.0-1.10","3955","7581","19","Male","false","false","false","true","""event"",""trial"",""time""
""fullscreenenter"",""5"",""11070""
","
","
","""event"",""trial"",""time""
""fullscreenenter"",""5"",""11070""
","
","409","","48","","","3000","1","604,826,2081,2266","48,48,48,48","images/tutyellowplanet.jpg","images/tutalien4","images/tutalien3","images/tutrocket1","images/tutalien4","images/t.png","2","practice","true","2","common","1","2023-03-22 06:10:53.253"
"two-step-fixation","93","292856","0.0-61.0-2.10","3955","7581","19","Male","false","false","false","true","""event"",""trial"",""time""
""fullscreenenter"",""5"",""11070""
","
","
","""event"",""trial"",""time""
""fullscreenenter"",""5"",""11070""
","
","","images/earth.jpg","","","","","","","","","","","","","","fixation","","","","","",""
"d3-animate-choice","94","294943","0.0-61.0-0.11","3955","7581","19","Male","false","false","false","true","""event"",""trial"",""time""
""fullscreenenter"",""5"",""11070""
","
","
","""event"",""trial"",""time""
""fullscreenenter"",""5"",""11070""
","
","84","","48","","","3000","1","397,973,1204","48,48,48","images/earth.jpg","images/tutrocket1","images/tutrocket2","null","images/tutrocket1","","1","practice","null","2","","",""
"d3-animate-choice","95","297338","0.0-61.0-1.11","3955","7581","19","Male","false","false","false","true","""event"",""trial"",""time""
""fullscreenenter"",""5"",""11070""
","
","
","""event"",""trial"",""time""
""fullscreenenter"",""5"",""11070""
","
","392","","48","","","3000","1","","","images/tutyellowplanet.jpg","images/tutalien4","images/tutalien3","images/tutrocket1","images/tutalien4","images/t.png","2","practice","true","2","common","1","2023-03-22 06:10:58.736"
"two-step-fixation","96","298340","0.0-61.0-2.11","3955","7581","19","Male","false","false","false","true","""event"",""trial"",""time""
""fullscreenenter"",""5"",""11070""
","
","
","""event"",""trial"",""time""
""fullscreenenter"",""5"",""11070""
","
","","images/earth.jpg","","","","","","","","","","","","","","fixation","","","","","",""
"d3-animate-choice","97","300436","0.0-61.0-0.12","3955","7581","19","Male","false","false","false","true","""event"",""trial"",""time""
""fullscreenenter"",""5"",""11070""
","
","
","""event"",""trial"",""time""
""fullscreenenter"",""5"",""11070""
","
","93","","48","","","3000","1","647,990,1330,1608,1876","48,48,48,48,48","images/earth.jpg","images/tutrocket1","images/tutrocket2","null","images/tutrocket1","","1","practice","null","2","","",""
"d3-animate-choice","98","302524","0.0-61.0-1.12","3955","7581","19","Male","false","false","false","true","""event"",""trial"",""time""
""fullscreenenter"",""5"",""11070""
","
","
","""event"",""trial"",""time""
""fullscreenenter"",""5"",""11070""
","
","85","","48","","","3000","1","321,533,745,981,1253,1501,1738,1986","48,48,48,48,48,48,48,48","images/tutyellowplanet.jpg","images/tutalien4","images/tutalien3","images/tutrocket1","images/tutalien4","images/t.png","2","practice","true","2","common","1","2023-03-22 06:11:03.923"
"two-step-fixation","99","303527","0.0-61.0-2.12","3955","7581","19","Male","false","false","false","true","""event"",""trial"",""time""
""fullscreenenter"",""5"",""11070""
","
","
","""event"",""trial"",""time""
""fullscreenenter"",""5"",""11070""
","
","","images/earth.jpg","","","","","","","","","","","","","","fixation","","","","","",""
"d3-animate-choice","100","305635","0.0-61.0-0.13","3955","7581","19","Male","false","false","false","true","""event"",""trial"",""time""
""fullscreenenter"",""5"",""11070""
","
","
","""event"",""trial"",""time""
""fullscreenenter"",""5"",""11070""
","
","105","","48","","","3000","1","393,647,906,1184,1479,1758,1977","48,48,48,48,48,48,48","images/earth.jpg","images/tutrocket1","images/tutrocket2","null","images/tutrocket1","","1","practice","null","2","","",""
"d3-animate-choice","101","307740","0.0-61.0-1.13","3955","7581","19","Male","false","false","false","true","""event"",""trial"",""time""
""fullscreenenter"",""5"",""11070""
","
","
","""event"",""trial"",""time""
""fullscreenenter"",""5"",""11070""
","
","102","","48","","","3000","1","332,549,836,1120,1442,1752,2028","48,48,48,48,48,48,48","images/tutyellowplanet.jpg","images/tutalien4","images/tutalien3","images/tutrocket1","images/tutalien4","images/nothing.png","2","practice","true","2","common","0","2023-03-22 06:11:09.138"
"two-step-fixation","102","308741","0.0-61.0-2.13","3955","7581","19","Male","false","false","false","true","""event"",""trial"",""time""
""fullscreenenter"",""5"",""11070""
","
","
","""event"",""trial"",""time""
""fullscreenenter"",""5"",""11070""
","
","","images/earth.jpg","","","","","","","","","","","","","","fixation","","","","","",""
"d3-animate-choice","103","310744","0.0-61.0-0.14","3955","7581","19","Male","false","false","false","true","""event"",""trial"",""time""
""fullscreenenter"",""5"",""11070""
","
","
","""event"",""trial"",""time""
""fullscreenenter"",""5"",""11070""
","
","0","","48","","","3000","1","230,432,635,844,1038,1250,1477,1734,1982","48,48,48,48,48,48,48,48,48","images/earth.jpg","images/tutrocket1","images/tutrocket2","null","images/tutrocket1","","1","practice","null","2","","",""
"d3-animate-choice","104","312983","0.0-61.0-1.14","3955","7581","19","Male","false","false","false","true","""event"",""trial"",""time""
""fullscreenenter"",""5"",""11070""
","
","
","""event"",""trial"",""time""
""fullscreenenter"",""5"",""11070""
","
","237","","48","","","3000","1","470,2130","48,48","images/tutgreenplanet.jpg","images/tutalien2","images/tutalien1","images/tutrocket1","images/tutalien2","images/nothing.png","2","practice","false","2","rare","0","2023-03-22 06:11:14.382"
"two-step-fixation","105","313985","0.0-61.0-2.14","3955","7581","19","Male","false","false","false","true","""event"",""trial"",""time""
""fullscreenenter"",""5"",""11070""
","
","
","""event"",""trial"",""time""
""fullscreenenter"",""5"",""11070""
","
","","images/earth.jpg","","","","","","","","","","","","","","fixation","","","","","",""
"d3-animate-choice","106","316060","0.0-61.0-0.15","3955","7581","19","Male","false","false","false","true","""event"",""trial"",""time""
""fullscreenenter"",""5"",""11070""
","
","
","""event"",""trial"",""time""
""fullscreenenter"",""5"",""11070""
","
","72","","48","","","3000","1","364,946,1300,1560","48,48,48,48","images/earth.jpg","images/tutrocket1","images/tutrocket2","null","images/tutrocket1","","1","practice","null","2","","",""
"d3-animate-choice","107","318065","0.0-61.0-1.15","3955","7581","19","Male","false","false","false","true","""event"",""trial"",""time""
""fullscreenenter"",""5"",""11070""
","
","
","""event"",""trial"",""time""
""fullscreenenter"",""5"",""11070""
","
","0","","48","","","3000","1","256,644,981,1177,1446,1653,1867","48,48,48,48,48,48,48","images/tutgreenplanet.jpg","images/tutalien2","images/tutalien1","images/tutrocket1","images/tutalien2","images/nothing.png","2","practice","false","2","rare","0","2023-03-22 06:11:19.463"
"two-step-fixation","108","319067","0.0-61.0-2.15","3955","7581","19","Male","false","false","false","true","""event"",""trial"",""time""
""fullscreenenter"",""5"",""11070""
","
","
","""event"",""trial"",""time""
""fullscreenenter"",""5"",""11070""
","
","","images/earth.jpg","","","","","","","","","","","","","","fixation","","","","","",""
"d3-animate-choice","109","321487","0.0-61.0-0.16","3955","7581","19","Male","false","false","false","true","""event"",""trial"",""time""
""fullscreenenter"",""5"",""11070""
","
","
","""event"",""trial"",""time""
""fullscreenenter"",""5"",""11070""
","
","417","","48","","","3000","1","1215,1542,1853,2154","48,48,48,48","images/earth.jpg","images/tutrocket1","images/tutrocket2","null","images/tutrocket1","","1","practice","null","2","","",""
"d3-animate-choice","110","323537","0.0-61.0-1.16","3955","7581","19","Male","false","false","false","true","""event"",""trial"",""time""
""fullscreenenter"",""5"",""11070""
","
","
","""event"",""trial"",""time""
""fullscreenenter"",""5"",""11070""
","
","47","","48","","","3000","1","294,531","48,48","images/tutyellowplanet.jpg","images/tutalien4","images/tutalien3","images/tutrocket1","images/tutalien4","images/nothing.png","2","practice","true","2","common","0","2023-03-22 06:11:24.935"
"two-step-fixation","111","324541","0.0-61.0-2.16","3955","7581","19","Male","false","false","false","true","""event"",""trial"",""time""
""fullscreenenter"",""5"",""11070""
","
","
","""event"",""trial"",""time""
""fullscreenenter"",""5"",""11070""
","
","","images/earth.jpg","","","","","","","","","","","","","","fixation","","","","","",""
"d3-animate-choice","112","326705","0.0-61.0-0.17","3955","7581","19","Male","false","false","false","true","""event"",""trial"",""time""
""fullscreenenter"",""5"",""11070""
","
","
","""event"",""trial"",""time""
""fullscreenenter"",""5"",""11070""
","
","161","","49","","","3000","1","301,527,715,900,1104,1296,1478,1675,1886,2098","49,49,49,49,49,49,49,49,49,49","images/earth.jpg","images/tutrocket1","images/tutrocket2","null","images/tutrocket2","","1","practice","null","1","","",""
"d3-animate-choice","113","328842","0.0-61.0-1.17","3955","7581","19","Male","false","false","false","true","""event"",""trial"",""time""
""fullscreenenter"",""5"",""11070""
","
","
","""event"",""trial"",""time""
""fullscreenenter"",""5"",""11070""
","
","134","","49","","","3000","1","340,555,798,995,1452,1683,1927","49,49,49,49,49,49,49","images/tutyellowplanet.jpg","images/tutalien4","images/tutalien3","images/tutrocket2","images/tutalien3","images/nothing.png","2","practice","false","1","rare","0","2023-03-22 06:11:30.240"
"two-step-fixation","114","329844","0.0-61.0-2.17","3955","7581","19","Male","false","false","false","true","""event"",""trial"",""time""
""fullscreenenter"",""5"",""11070""
","
","
","""event"",""trial"",""time""
""fullscreenenter"",""5"",""11070""
","
","","images/earth.jpg","","","","","","","","","","","","","","fixation","","","","","",""
"d3-animate-choice","115","331957","0.0-61.0-0.18","3955","7581","19","Male","false","false","false","true","""event"",""trial"",""time""
""fullscreenenter"",""5"",""11070""
","
","
","""event"",""trial"",""time""
""fullscreenenter"",""5"",""11070""
","
","110","","49","","","3000","1","352,658,918,1190","49,49,49,50","images/earth.jpg","images/tutrocket1","images/tutrocket2","null","images/tutrocket2","","1","practice","null","1","","",""
"d3-animate-choice","116","334187","0.0-61.0-1.18","3955","7581","19","Male","false","false","false","true","""event"",""trial"",""time""
""fullscreenenter"",""5"",""11070""
","
","
","""event"",""trial"",""time""
""fullscreenenter"",""5"",""11070""
","
","228","","49","","","3000","1","1167,1278,1702,1967","50,49,49,49","images/tutyellowplanet.jpg","images/tutalien4","images/tutalien3","images/tutrocket2","images/tutalien3","images/nothing.png","2","practice","false","1","rare","0","2023-03-22 06:11:35.585"
"two-step-fixation","117","335189","0.0-61.0-2.18","3955","7581","19","Male","false","false","false","true","""event"",""trial"",""time""
""fullscreenenter"",""5"",""11070""
","
","
","""event"",""trial"",""time""
""fullscreenenter"",""5"",""11070""
","
","","images/earth.jpg","","","","","","","","","","","","","","fixation","","","","","",""
"d3-animate-choice","118","337357","0.0-61.0-0.19","3955","7581","19","Male","false","false","false","true","""event"",""trial"",""time""
""fullscreenenter"",""5"",""11070""
","
","
","""event"",""trial"",""time""
""fullscreenenter"",""5"",""11070""
","
","166","","49","","","3000","1","385,597,788,978,1159,1493","49,49,49,49,49,50","images/earth.jpg","images/tutrocket1","images/tutrocket2","null","images/tutrocket2","","1","practice","null","1","","",""
"d3-animate-choice","119","339794","0.0-61.0-1.19","3955","7581","19","Male","false","false","false","true","""event"",""trial"",""time""
""fullscreenenter"",""5"",""11070""
","
","
","""event"",""trial"",""time""
""fullscreenenter"",""5"",""11070""
","
","435","","49","","","3000","1","2345","49","images/tutgreenplanet.jpg","images/tutalien2","images/tutalien1","images/tutrocket2","images/tutalien1","images/nothing.png","2","practice","true","1","common","0","2023-03-22 06:11:41.192"
"two-step-fixation","120","340797","0.0-61.0-2.19","3955","7581","19","Male","false","false","false","true","""event"",""trial"",""time""
""fullscreenenter"",""5"",""11070""
","
","
","""event"",""trial"",""time""
""fullscreenenter"",""5"",""11070""
","
","","images/earth.jpg","","","","","","","","","","","","","","fixation","","","","","",""
"d3-instructions","121","343917","0.0-62.0","3955","7581","19","Male","false","false","false","true","""event"",""trial"",""time""
""fullscreenenter"",""5"",""11070""
","
","
","""event"",""trial"",""time""
""fullscreenenter"",""5"",""11070""
","
","","","","","","","","","","","","","","","","","","","","","",""
"audio-keyboard-response","122","345767","0.0-63.0","3955","7581","19","Male","false","false","false","true","""event"",""trial"",""time""
""fullscreenenter"",""5"",""11070""
","
","
","""event"",""trial"",""time""
""fullscreenenter"",""5"",""11070""
","
","1856","audio/instructions/treasure_feedback.wav","32","","","","","","","","","","","","","","","","","","",""
"d3-instructions","123","352157","0.0-64.0","3955","7581","19","Male","false","false","false","true","""event"",""trial"",""time""
""fullscreenenter"",""5"",""11070""
","
","
","""event"",""trial"",""time""
""fullscreenenter"",""5"",""11070""
","
","","","","","","","","","","","","","","","","","","","","","",""
"d3-instructions","124","362039","0.0-65.0","3955","7581","19","Male","false","false","false","true","""event"",""trial"",""time""
""fullscreenenter"",""5"",""11070""
","
","
","""event"",""trial"",""time""
""fullscreenenter"",""5"",""11070""
","
","","","","","","","","","","","","","","","","","","","","","",""
"d3-instructions","125","381767","0.0-66.0","3955","7581","19","Male","false","false","false","true","""event"",""trial"",""time""
""fullscreenenter"",""5"",""11070""
","
","
","""event"",""trial"",""time""
""fullscreenenter"",""5"",""11070""
","
","","","","","","","","","","","","","","","","","","","","","",""
"d3-instructions","126","388449","0.0-67.0","3955","7581","19","Male","false","false","false","true","""event"",""trial"",""time""
""fullscreenenter"",""5"",""11070""
","
","
","""event"",""trial"",""time""
""fullscreenenter"",""5"",""11070""
","
","","","","","","","","","","","","","","","","","","","","","",""
"d3-instructions","127","390843","0.0-68.0","3955","7581","19","Male","false","false","false","true","""event"",""trial"",""time""
""fullscreenenter"",""5"",""11070""
","
","
","""event"",""trial"",""time""
""fullscreenenter"",""5"",""11070""
","
","","","","","","","","","","","","","","","","","","","","","",""
"instructions-quiz","128","393709","0.0-69.0","3955","7581","19","Male","false","false","false","true","""event"",""trial"",""time""
""fullscreenenter"",""5"",""11070""
","
","
","""event"",""trial"",""time""
""fullscreenenter"",""5"",""11070""
","
","2866","audio/quiz/Q1_Prompt.wav","","1","","","","","","","","","","","","","","","","","",""
"audio-keyboard-response","129","394832","0.0-70.0","3955","7581","19","Male","false","false","false","true","""event"",""trial"",""time""
""fullscreenenter"",""5"",""11070""
","
","
","""event"",""trial"",""time""
""fullscreenenter"",""5"",""11070""
","
","1120","audio/quiz/Q1_Correct.wav","32","","","","","","","","","","","","","","","","","","",""
"instructions-quiz","130","398582","0.0-71.0","3955","7581","19","Male","false","false","false","true","""event"",""trial"",""time""
""fullscreenenter"",""5"",""11070""
","
","
","""event"",""trial"",""time""
""fullscreenenter"",""5"",""11070""
","
","3749","audio/quiz/Q2_Prompt.wav","","0","","","","","","","","","","","","","","","","","",""
"audio-keyboard-response","131","399894","0.0-72.0","3955","7581","19","Male","false","false","false","true","""event"",""trial"",""time""
""fullscreenenter"",""5"",""11070""
","
","
","""event"",""trial"",""time""
""fullscreenenter"",""5"",""11070""
","
","1312","audio/quiz/Q2_Correct.wav","32","","","","","","","","","","","","","","","","","","",""
"instructions-quiz","132","402045","0.0-73.0","3955","7581","19","Male","false","false","false","true","""event"",""trial"",""time""
""fullscreenenter"",""5"",""11070""
","
","
","""event"",""trial"",""time""
""fullscreenenter"",""5"",""11070""
","
","2150","audio/quiz/Q3_Prompt.wav","","1","","","","","","","","","","","","","","","","","",""
"audio-keyboard-response","133","402672","0.0-74.0","3955","7581","19","Male","false","false","false","true","""event"",""trial"",""time""
""fullscreenenter"",""5"",""11070""
","
","
","""event"",""trial"",""time""
""fullscreenenter"",""5"",""11070""
","
","619","audio/quiz/Q3_Correct.wav","32","","","","","","","","","","","","","","","","","","",""
"d3-instructions","134","419817","0.0-75.0","3955","7581","19","Male","false","false","false","true","""event"",""trial"",""time""
""fullscreenenter"",""5"",""11070""
","
","
","""event"",""trial"",""time""
""fullscreenenter"",""5"",""11070""
","
","","","","","","","","","","","","","","","","","","","","","",""
"pavlovia","135","419818","0.0-76.0","3955","7581","19","Male","false","false","false","true","""event"",""trial"",""time""
""fullscreenenter"",""5"",""11070""
","
","
","""event"",""trial"",""time""
""fullscreenenter"",""5"",""11070""
","
","","","","","","","","","","","","","","","","","","","","","",""
"d3-animate-choice","136","423821","0.0-77.0-0.0","3955","7581","19","Male","false","false","false","true","""event"",""trial"",""time""
""fullscreenenter"",""5"",""11070""
","
","
","""event"",""trial"",""time""
""fullscreenenter"",""5"",""11070""
","
","2748","","49","","","3000","1","","","images/earth.jpg","images/rocket1","images/rocket2","null","images/rocket2","","1","real","null","1","","",""
"d3-animate-choice","137","426360","0.0-77.0-1.0","3955","7581","19","Male","false","false","false","true","""event"",""trial"",""time""
""fullscreenenter"",""5"",""11070""
","
","
","""event"",""trial"",""time""
""fullscreenenter"",""5"",""11070""
","
","538","","49","","","3000","1","2415","49","images/redplanet1.jpg","images/alien2","images/alien1","images/rocket2","images/alien1","images/nothing.png","2","real","true","1","common","0","2023-03-22 06:13:07.759"
"two-step-fixation","138","427364","0.0-77.0-2.0","3955","7581","19","Male","false","false","false","true","""event"",""trial"",""time""
""fullscreenenter"",""5"",""11070""
","
","
","""event"",""trial"",""time""
""fullscreenenter"",""5"",""11070""
","
","","images/earth.jpg","","","","","","","","","","","","","","fixation","","","","","",""
"d3-animate-choice","139","429419","0.0-77.0-0.1","3955","7581","19","Male","false","false","false","true","""event"",""trial"",""time""
""fullscreenenter"",""5"",""11070""
","
","
","""event"",""trial"",""time""
""fullscreenenter"",""5"",""11070""
","
","41","","49","","","3000","1","251","49","images/earth.jpg","images/rocket1","images/rocket2","null","images/rocket2","","1","real","null","1","","",""
"d3-animate-choice","140","431850","0.0-77.0-1.1","3955","7581","19","Male","false","false","false","true","""event"",""trial"",""time""
""fullscreenenter"",""5"",""11070""
","
","
","""event"",""trial"",""time""
""fullscreenenter"",""5"",""11070""
","
","428","","48","","","3000","1","","","images/redplanet1.jpg","images/alien2","images/alien1","images/rocket2","images/alien2","images/nothing.png","2","real","true","2","common","0","2023-03-22 06:13:13.248"
"two-step-fixation","141","432852","0.0-77.0-2.1","3955","7581","19","Male","false","false","false","true","""event"",""trial"",""time""
""fullscreenenter"",""5"",""11070""
","
","
","""event"",""trial"",""time""
""fullscreenenter"",""5"",""11070""
","
","","images/earth.jpg","","","","","","","","","","","","","","fixation","","","","","",""
"d3-animate-choice","142","434929","0.0-77.0-0.2","3955","7581","19","Male","false","false","false","true","""event"",""trial"",""time""
""fullscreenenter"",""5"",""11070""
","
","
","""event"",""trial"",""time""
""fullscreenenter"",""5"",""11070""
","
","74","","48","","","3000","1","263","48","images/earth.jpg","images/rocket1","images/rocket2","null","images/rocket1","","1","real","null","2","","",""
"d3-animate-choice","143","437231","0.0-77.0-1.2","3955","7581","19","Male","false","false","false","true","""event"",""trial"",""time""
""fullscreenenter"",""5"",""11070""
","
","
","""event"",""trial"",""time""
""fullscreenenter"",""5"",""11070""
","
","300","","49","","","3000","1","457,1293,1586,1813,2009,2201","49,48,48,48,48,48","images/purpleplanet.jpg","images/alien4","images/alien3","images/rocket1","images/alien3","images/t.png","2","real","true","1","common","1","2023-03-22 06:13:18.629"
"two-step-fixation","144","438234","0.0-77.0-2.2","3955","7581","19","Male","false","false","false","true","""event"",""trial"",""time""
""fullscreenenter"",""5"",""11070""
","
","
","""event"",""trial"",""time""
""fullscreenenter"",""5"",""11070""
","
","","images/earth.jpg","","","","","","","","","","","","","","fixation","","","","","",""
"d3-animate-choice","145","440304","0.0-77.0-0.3","3955","7581","19","Male","false","false","false","true","""event"",""trial"",""time""
""fullscreenenter"",""5"",""11070""
","
","
","""event"",""trial"",""time""
""fullscreenenter"",""5"",""11070""
","
","64","","48","","","3000","1","223,383,541,818,996,1231,1419,1643,1824,2006","48,48,48,49,49,49,49,49,49,49","images/earth.jpg","images/rocket1","images/rocket2","null","images/rocket1","","1","real","null","2","","",""
"d3-animate-choice","146","442437","0.0-77.0-1.3","3955","7581","19","Male","false","false","false","true","""event"",""trial"",""time""
""fullscreenenter"",""5"",""11070""
","
","
","""event"",""trial"",""time""
""fullscreenenter"",""5"",""11070""
","
","129","","49","","","3000","1","335,518,1337,1550,1748,1983","49,49,48,48,48,48","images/redplanet1.jpg","images/alien2","images/alien1","images/rocket1","images/alien1","images/t.png","2","real","false","1","rare","1","2023-03-22 06:13:23.835"
"two-step-fixation","147","443440","0.0-77.0-2.3","3955","7581","19","Male","false","false","false","true","""event"",""trial"",""time""
""fullscreenenter"",""5"",""11070""
","
","
","""event"",""trial"",""time""
""fullscreenenter"",""5"",""11070""
","
","","images/earth.jpg","","","","","","","","","","","","","","fixation","","","","","",""
"d3-animate-choice","148","445588","0.0-77.0-0.4","3955","7581","19","Male","false","false","false","true","""event"",""trial"",""time""
""fullscreenenter"",""5"",""11070""
","
","
","""event"",""trial"",""time""
""fullscreenenter"",""5"",""11070""
","
","145","","48","","","3000","1","336","48","images/earth.jpg","images/rocket1","images/rocket2","null","images/rocket1","","1","real","null","2","","",""
"d3-animate-choice","149","448011","0.0-77.0-1.4","3955","7581","19","Male","false","false","false","true","""event"",""trial"",""time""
""fullscreenenter"",""5"",""11070""
","
","
","""event"",""trial"",""time""
""fullscreenenter"",""5"",""11070""
","
","420","","49","","","3000","1","1532,2066","48,48","images/purpleplanet.jpg","images/alien4","images/alien3","images/rocket1","images/alien3","images/t.png","2","real","true","1","common","1","2023-03-22 06:13:29.409"
"two-step-fixation","150","449013","0.0-77.0-2.4","3955","7581","19","Male","false","false","false","true","""event"",""trial"",""time""
""fullscreenenter"",""5"",""11070""
","
","
","""event"",""trial"",""time""
""fullscreenenter"",""5"",""11070""
","
","","images/earth.jpg","","","","","","","","","","","","","","fixation","","","","","",""
"d3-animate-choice","151","451107","0.0-77.0-0.5","3955","7581","19","Male","false","false","false","true","""event"",""trial"",""time""
""fullscreenenter"",""5"",""11070""
","
","
","""event"",""trial"",""time""
""fullscreenenter"",""5"",""11070""
","
","92","","48","","","3000","1","373,795,1169","48,48,48","images/earth.jpg","images/rocket1","images/rocket2","null","images/rocket1","","1","real","null","2","","",""
"d3-animate-choice","152","453609","0.0-77.0-1.5","3955","7581","19","Male","false","false","false","true","""event"",""trial"",""time""
""fullscreenenter"",""5"",""11070""
","
","
","""event"",""trial"",""time""
""fullscreenenter"",""5"",""11070""
","
","499","","49","","","3000","1","2188,2483","48,48","images/purpleplanet.jpg","images/alien4","images/alien3","images/rocket1","images/alien3","images/t.png","2","real","true","1","common","1","2023-03-22 06:13:35.007"
"two-step-fixation","153","454612","0.0-77.0-2.5","3955","7581","19","Male","false","false","false","true","""event"",""trial"",""time""
""fullscreenenter"",""5"",""11070""
","
","
","""event"",""trial"",""time""
""fullscreenenter"",""5"",""11070""
","
","","images/earth.jpg","","","","","","","","","","","","","","fixation","","","","","",""
"d3-animate-choice","154","456631","0.0-77.0-0.6","3955","7581","19","Male","false","false","false","true","""event"",""trial"",""time""
""fullscreenenter"",""5"",""11070""
","
","
","""event"",""trial"",""time""
""fullscreenenter"",""5"",""11070""
","
","17","","48","","","3000","1","170,349,613,808,1020,1271,1441,1624,1775,2001","48,48,49,49,49,49,49,49,49,49","images/earth.jpg","images/rocket1","images/rocket2","null","images/rocket1","","1","real","null","2","","",""
"d3-animate-choice","155","458891","0.0-77.0-1.6","3955","7581","19","Male","false","false","false","true","""event"",""trial"",""time""
""fullscreenenter"",""5"",""11070""
","
","
","""event"",""trial"",""time""
""fullscreenenter"",""5"",""11070""
","
","257","","49","","","3000","1","462,639,871,1084,1365,1650,1906,2117","49,49,48,48,48,48,48,48","images/purpleplanet.jpg","images/alien4","images/alien3","images/rocket1","images/alien3","images/nothing.png","2","real","true","1","common","0","2023-03-22 06:13:40.289"
"two-step-fixation","156","459893","0.0-77.0-2.6","3955","7581","19","Male","false","false","false","true","""event"",""trial"",""time""
""fullscreenenter"",""5"",""11070""
","
","
","""event"",""trial"",""time""
""fullscreenenter"",""5"",""11070""
","
","","images/earth.jpg","","","","","","","","","","","","","","fixation","","","","","",""
"d3-animate-choice","157","461965","0.0-77.0-0.7","3955","7581","19","Male","false","false","false","true","""event"",""trial"",""time""
""fullscreenenter"",""5"",""11070""
","
","
","""event"",""trial"",""time""
""fullscreenenter"",""5"",""11070""
","
","69","","48","","","3000","1","332,585,767,969,1194","48,48,48,48,48","images/earth.jpg","images/rocket1","images/rocket2","null","images/rocket1","","1","real","null","2","","",""
"d3-animate-choice","158","464354","0.0-77.0-1.7","3955","7581","19","Male","false","false","false","true","""event"",""trial"",""time""
""fullscreenenter"",""5"",""11070""
","
","
","""event"",""trial"",""time""
""fullscreenenter"",""5"",""11070""
","
","387","","49","","","3000","1","642,2129","49,48","images/purpleplanet.jpg","images/alien4","images/alien3","images/rocket1","images/alien3","images/t.png","2","real","true","1","common","1","2023-03-22 06:13:45.752"
"two-step-fixation","159","465356","0.0-77.0-2.7","3955","7581","19","Male","false","false","false","true","""event"",""trial"",""time""
""fullscreenenter"",""5"",""11070""
","
","
","""event"",""trial"",""time""
""fullscreenenter"",""5"",""11070""
","
","","images/earth.jpg","","","","","","","","","","","","","","fixation","","","","","",""
"d3-animate-choice","160","467467","0.0-77.0-0.8","3955","7581","19","Male","false","false","false","true","""event"",""trial"",""time""
""fullscreenenter"",""5"",""11070""
","
","
","""event"",""trial"",""time""
""fullscreenenter"",""5"",""11070""
","
","108","","48","","","3000","1","435,713,1081,1406,1693,1938","48,48,49,49,49,49","images/earth.jpg","images/rocket1","images/rocket2","null","images/rocket1","","1","real","null","2","","",""
"d3-animate-choice","161","469499","0.0-77.0-1.8","3955","7581","19","Male","false","false","false","true","""event"",""trial"",""time""
""fullscreenenter"",""5"",""11070""
","
","
","""event"",""trial"",""time""
""fullscreenenter"",""5"",""11070""
","
","30","","49","","","3000","1","191,583,920,1163,1427,1681,1953","49,49,48,48,48,48,48","images/purpleplanet.jpg","images/alien4","images/alien3","images/rocket1","images/alien3","images/nothing.png","2","real","true","1","common","0","2023-03-22 06:13:50.897"
"two-step-fixation","162","470502","0.0-77.0-2.8","3955","7581","19","Male","false","false","false","true","""event"",""trial"",""time""
""fullscreenenter"",""5"",""11070""
","
","
","""event"",""trial"",""time""
""fullscreenenter"",""5"",""11070""
","
","","images/earth.jpg","","","","","","","","","","","","","","fixation","","","","","",""
"d3-animate-choice","163","472748","0.0-77.0-0.9","3955","7581","19","Male","false","false","false","true","""event"",""trial"",""time""
""fullscreenenter"",""5"",""11070""
","
","
","""event"",""trial"",""time""
""fullscreenenter"",""5"",""11070""
","
","242","","48","","","3000","1","610,884,1155,1432,1713","48,48,48,48,48","images/earth.jpg","images/rocket1","images/rocket2","null","images/rocket1","","1","real","null","2","","",""
"d3-animate-choice","164","474755","0.0-77.0-1.9","3955","7581","19","Male","false","false","false","true","""event"",""trial"",""time""
""fullscreenenter"",""5"",""11070""
","
","
","""event"",""trial"",""time""
""fullscreenenter"",""5"",""11070""
","
","4","","48","","","3000","1","344,1343,1940","48,48,48","images/redplanet1.jpg","images/alien2","images/alien1","images/rocket1","images/alien2","images/nothing.png","2","real","false","2","rare","0","2023-03-22 06:13:56.153"
"two-step-fixation","165","475757","0.0-77.0-2.9","3955","7581","19","Male","false","false","false","true","""event"",""trial"",""time""
""fullscreenenter"",""5"",""11070""
","
","
","""event"",""trial"",""time""
""fullscreenenter"",""5"",""11070""
","
","","images/earth.jpg","","","","","","","","","","","","","","fixation","","","","","",""
"d3-animate-choice","166","477786","0.0-77.0-0.10","3955","7581","19","Male","false","false","false","true","""event"",""trial"",""time""
""fullscreenenter"",""5"",""11070""
","
","
","""event"",""trial"",""time""
""fullscreenenter"",""5"",""11070""
","
","26","","48","","","3000","1","296,488,822,1072,1370,1722,1985","48,48,48,48,48,48,48","images/earth.jpg","images/rocket1","images/rocket2","null","images/rocket1","","1","real","null","2","","",""
"d3-animate-choice","167","480009","0.0-77.0-1.10","3955","7581","19","Male","false","false","false","true","""event"",""trial"",""time""
""fullscreenenter"",""5"",""11070""
","
","
","""event"",""trial"",""time""
""fullscreenenter"",""5"",""11070""
","
","220","","48","","","3000","1","554,1995","48,48","images/purpleplanet.jpg","images/alien4","images/alien3","images/rocket1","images/alien4","images/t.png","2","real","true","2","common","1","2023-03-22 06:14:01.407"
"two-step-fixation","168","481012","0.0-77.0-2.10","3955","7581","19","Male","false","false","false","true","""event"",""trial"",""time""
""fullscreenenter"",""5"",""11070""
","
","
","""event"",""trial"",""time""
""fullscreenenter"",""5"",""11070""
","
","","images/earth.jpg","","","","","","","","","","","","","","fixation","","","","","",""
"d3-animate-choice","169","483237","0.0-77.0-0.11","3955","7581","19","Male","false","false","false","true","""event"",""trial"",""time""
""fullscreenenter"",""5"",""11070""
","
","
","""event"",""trial"",""time""
""fullscreenenter"",""5"",""11070""
","
","223","","48","","","3000","1","509,856,1181,1968","48,48,48,48","images/earth.jpg","images/rocket1","images/rocket2","null","images/rocket1","","1","real","null","2","","",""
"d3-animate-choice","170","485343","0.0-77.0-1.11","3955","7581","19","Male","false","false","false","true","""event"",""trial"",""time""
""fullscreenenter"",""5"",""11070""
","
","
","""event"",""trial"",""time""
""fullscreenenter"",""5"",""11070""
","
","104","","48","","","3000","1","527,767,1246,1958","48,48,48,48","images/purpleplanet.jpg","images/alien4","images/alien3","images/rocket1","images/alien4","images/t.png","2","real","true","2","common","1","2023-03-22 06:14:06.741"
"two-step-fixation","171","486345","0.0-77.0-2.11","3955","7581","19","Male","false","false","false","true","""event"",""trial"",""time""
""fullscreenenter"",""5"",""11070""
","
","
","""event"",""trial"",""time""
""fullscreenenter"",""5"",""11070""
","
","","images/earth.jpg","","","","","","","","","","","","","","fixation","","","","","",""
"d3-animate-choice","172","488474","0.0-77.0-0.12","3955","7581","19","Male","false","false","false","true","""event"",""trial"",""time""
""fullscreenenter"",""5"",""11070""
","
","
","""event"",""trial"",""time""
""fullscreenenter"",""5"",""11070""
","
","126","","48","","","3000","1","435,748,1191,1556,2048","48,48,48,48,48","images/earth.jpg","images/rocket1","images/rocket2","null","images/rocket1","","1","real","null","2","","",""
"d3-animate-choice","173","490647","0.0-77.0-1.12","3955","7581","19","Male","false","false","false","true","""event"",""trial"",""time""
""fullscreenenter"",""5"",""11070""
","
","
","""event"",""trial"",""time""
""fullscreenenter"",""5"",""11070""
","
","171","","48","","","3000","1","427,685,931,1292,1600,1858","48,48,48,48,48,48","images/purpleplanet.jpg","images/alien4","images/alien3","images/rocket1","images/alien4","images/t.png","2","real","true","2","common","1","2023-03-22 06:14:12.045"
"two-step-fixation","174","491649","0.0-77.0-2.12","3955","7581","19","Male","false","false","false","true","""event"",""trial"",""time""
""fullscreenenter"",""5"",""11070""
","
","
","""event"",""trial"",""time""
""fullscreenenter"",""5"",""11070""
","
","","images/earth.jpg","","","","","","","","","","","","","","fixation","","","","","",""
"d3-animate-choice","175","493744","0.0-77.0-0.13","3955","7581","19","Male","false","false","false","true","""event"",""trial"",""time""
""fullscreenenter"",""5"",""11070""
","
","
","""event"",""trial"",""time""
""fullscreenenter"",""5"",""11070""
","
","93","","48","","","3000","1","351,629,851,1034,1282,1546,1792,2049","48,48,48,48,48,48,48,48","images/earth.jpg","images/rocket1","images/rocket2","null","images/rocket1","","1","real","null","2","","",""
"d3-animate-choice","176","495909","0.0-77.0-1.13","3955","7581","19","Male","false","false","false","true","""event"",""trial"",""time""
""fullscreenenter"",""5"",""11070""
","
","
","""event"",""trial"",""time""
""fullscreenenter"",""5"",""11070""
","
","162","","48","","","3000","1","368,568,790,1280,1482,1833,2098","48,48,48,48,48,48,48","images/purpleplanet.jpg","images/alien4","images/alien3","images/rocket1","images/alien4","images/t.png","2","real","true","2","common","1","2023-03-22 06:14:17.307"
"two-step-fixation","177","496912","0.0-77.0-2.13","3955","7581","19","Male","false","false","false","true","""event"",""trial"",""time""
""fullscreenenter"",""5"",""11070""
","
","
","""event"",""trial"",""time""
""fullscreenenter"",""5"",""11070""
","
","","images/earth.jpg","","","","","","","","","","","","","","fixation","","","","","",""
"d3-animate-choice","178","499075","0.0-77.0-0.14","3955","7581","19","Male","false","false","false","true","""event"",""trial"",""time""
""fullscreenenter"",""5"",""11070""
","
","
","""event"",""trial"",""time""
""fullscreenenter"",""5"",""11070""
","
","161","","48","","","3000","1","506,787,1130,1380,1621,1861,2106","48,48,48,48,48,48,48","images/earth.jpg","images/rocket1","images/rocket2","null","images/rocket1","","1","real","null","2","","",""
"d3-animate-choice","179","501232","0.0-77.0-1.14","3955","7581","19","Male","false","false","false","true","""event"",""trial"",""time""
""fullscreenenter"",""5"",""11070""
","
","
","""event"",""trial"",""time""
""fullscreenenter"",""5"",""11070""
","
","154","","48","","","3000","1","397,653,1030,1329,1623,1921","48,48,48,48,48,48","images/redplanet1.jpg","images/alien2","images/alien1","images/rocket1","images/alien2","images/t.png","2","real","false","2","rare","1","2023-03-22 06:14:22.630"
"two-step-fixation","180","502234","0.0-77.0-2.14","3955","7581","19","Male","false","false","false","true","""event"",""trial"",""time""
""fullscreenenter"",""5"",""11070""
","
","
","""event"",""trial"",""time""
""fullscreenenter"",""5"",""11070""
","
","","images/earth.jpg","","","","","","","","","","","","","","fixation","","","","","",""
"d3-animate-choice","181","504305","0.0-77.0-0.15","3955","7581","19","Male","false","false","false","true","""event"",""trial"",""time""
""fullscreenenter"",""5"",""11070""
","
","
","""event"",""trial"",""time""
""fullscreenenter"",""5"",""11070""
","
","69","","48","","","3000","1","324,607,865,1170,1518,1796,2062","48,48,48,48,48,48,48","images/earth.jpg","images/rocket1","images/rocket2","null","images/rocket1","","1","real","null","2","","",""
"d3-animate-choice","182","506590","0.0-77.0-1.15","3955","7581","19","Male","false","false","false","true","""event"",""trial"",""time""
""fullscreenenter"",""5"",""11070""
","
","
","""event"",""trial"",""time""
""fullscreenenter"",""5"",""11070""
","
","283","","48","","","3000","1","766,1083,1580","48,48,48","images/purpleplanet.jpg","images/alien4","images/alien3","images/rocket1","images/alien4","images/nothing.png","2","real","true","2","common","0","2023-03-22 06:14:27.988"
"two-step-fixation","183","507591","0.0-77.0-2.15","3955","7581","19","Male","false","false","false","true","""event"",""trial"",""time""
""fullscreenenter"",""5"",""11070""
","
","
","""event"",""trial"",""time""
""fullscreenenter"",""5"",""11070""
","
","","images/earth.jpg","","","","","","","","","","","","","","fixation","","","","","",""
"d3-animate-choice","184","510311","0.0-77.0-0.16","3955","7581","19","Male","false","false","false","true","""event"",""trial"",""time""
""fullscreenenter"",""5"",""11070""
","
","
","""event"",""trial"",""time""
""fullscreenenter"",""5"",""11070""
","
","717","","48","","","3000","1","988,1231,1524,1896,2261,2586","48,48,48,48,48,48","images/earth.jpg","images/rocket1","images/rocket2","null","images/rocket1","","1","real","null","2","","",""
"d3-animate-choice","185","512497","0.0-77.0-1.16","3955","7581","19","Male","false","false","false","true","""event"",""trial"",""time""
""fullscreenenter"",""5"",""11070""
","
","
","""event"",""trial"",""time""
""fullscreenenter"",""5"",""11070""
","
","183","","48","","","3000","1","576,1869","48,48","images/redplanet1.jpg","images/alien2","images/alien1","images/rocket1","images/alien2","images/nothing.png","2","real","false","2","rare","0","2023-03-22 06:14:33.895"
"two-step-fixation","186","513499","0.0-77.0-2.16","3955","7581","19","Male","false","false","false","true","""event"",""trial"",""time""
""fullscreenenter"",""5"",""11070""
","
","
","""event"",""trial"",""time""
""fullscreenenter"",""5"",""11070""
","
","","images/earth.jpg","","","","","","","","","","","","","","fixation","","","","","",""
"d3-animate-choice","187","515712","0.0-77.0-0.17","3955","7581","19","Male","false","false","false","true","""event"",""trial"",""time""
""fullscreenenter"",""5"",""11070""
","
","
","""event"",""trial"",""time""
""fullscreenenter"",""5"",""11070""
","
","212","","48","","","3000","1","1206,1601,1819,2044","48,48,48,48","images/earth.jpg","images/rocket1","images/rocket2","null","images/rocket1","","1","real","null","2","","",""
"d3-animate-choice","188","517979","0.0-77.0-1.17","3955","7581","19","Male","false","false","false","true","""event"",""trial"",""time""
""fullscreenenter"",""5"",""11070""
","
","
","""event"",""trial"",""time""
""fullscreenenter"",""5"",""11070""
","
","265","","48","","","3000","1","1982,2201","48,48","images/purpleplanet.jpg","images/alien4","images/alien3","images/rocket1","images/alien4","images/t.png","2","real","true","2","common","1","2023-03-22 06:14:39.377"
"two-step-fixation","189","518981","0.0-77.0-2.17","3955","7581","19","Male","false","false","false","true","""event"",""trial"",""time""
""fullscreenenter"",""5"",""11070""
","
","
","""event"",""trial"",""time""
""fullscreenenter"",""5"",""11070""
","
","","images/earth.jpg","","","","","","","","","","","","","","fixation","","","","","",""
"d3-animate-choice","190","521092","0.0-77.0-0.18","3955","7581","19","Male","false","false","false","true","""event"",""trial"",""time""
""fullscreenenter"",""5"",""11070""
","
","
","""event"",""trial"",""time""
""fullscreenenter"",""5"",""11070""
","
","109","","48","","","3000","1","376,628,757,890,1035,1166,1311,1550,1775,2022","48,48,49,48,48,48,48,48,48,48","images/earth.jpg","images/rocket1","images/rocket2","null","images/rocket1","","1","real","null","2","","",""
"d3-animate-choice","191","523242","0.0-77.0-1.18","3955","7581","19","Male","false","false","false","true","""event"",""trial"",""time""
""fullscreenenter"",""5"",""11070""
","
","
","""event"",""trial"",""time""
""fullscreenenter"",""5"",""11070""
","
","148","","48","","","3000","1","354,564,869,1070,1332,1571,1788,2015","48,48,48,48,48,48,48,48","images/purpleplanet.jpg","images/alien4","images/alien3","images/rocket1","images/alien4","images/t.png","2","real","true","2","common","1","2023-03-22 06:14:44.640"
"two-step-fixation","192","524244","0.0-77.0-2.18","3955","7581","19","Male","false","false","false","true","""event"",""trial"",""time""
""fullscreenenter"",""5"",""11070""
","
","
","""event"",""trial"",""time""
""fullscreenenter"",""5"",""11070""
","
","","images/earth.jpg","","","","","","","","","","","","","","fixation","","","","","",""
"d3-animate-choice","193","526351","0.0-77.0-0.19","3955","7581","19","Male","false","false","false","true","""event"",""trial"",""time""
""fullscreenenter"",""5"",""11070""
","
","
","""event"",""trial"",""time""
""fullscreenenter"",""5"",""11070""
","
","104","","48","","","3000","1","343,754,1089,1367,1636,1900","48,48,48,48,48,48","images/earth.jpg","images/rocket1","images/rocket2","null","images/rocket1","","1","real","null","2","","",""
"d3-animate-choice","194","528455","0.0-77.0-1.19","3955","7581","19","Male","false","false","false","true","""event"",""trial"",""time""
""fullscreenenter"",""5"",""11070""
","
","
","""event"",""trial"",""time""
""fullscreenenter"",""5"",""11070""
","
","102","","48","","","3000","1","361,604,903,1201,1443,1511,2035","48,48,48,48,50,48,48","images/purpleplanet.jpg","images/alien4","images/alien3","images/rocket1","images/alien4","images/t.png","2","real","true","2","common","1","2023-03-22 06:14:49.853"
"two-step-fixation","195","529458","0.0-77.0-2.19","3955","7581","19","Male","false","false","false","true","""event"",""trial"",""time""
""fullscreenenter"",""5"",""11070""
","
","
","""event"",""trial"",""time""
""fullscreenenter"",""5"",""11070""
","
","","images/earth.jpg","","","","","","","","","","","","","","fixation","","","","","",""
"d3-animate-choice","196","531504","0.0-77.0-0.20","3955","7581","19","Male","false","false","false","true","""event"",""trial"",""time""
""fullscreenenter"",""5"",""11070""
","
","
","""event"",""trial"",""time""
""fullscreenenter"",""5"",""11070""
","
","43","","48","","","3000","1","294,686,979,1223,1510,1704,1917","48,48,48,48,48,48,48","images/earth.jpg","images/rocket1","images/rocket2","null","images/rocket1","","1","real","null","2","","",""
"d3-animate-choice","197","533561","0.0-77.0-1.20","3955","7581","19","Male","false","false","false","true","""event"",""trial"",""time""
""fullscreenenter"",""5"",""11070""
","
","
","""event"",""trial"",""time""
""fullscreenenter"",""5"",""11070""
","
","54","","48","","","3000","1","253,437,650,834,1045,1281,1519","48,48,48,48,48,48,48","images/purpleplanet.jpg","images/alien4","images/alien3","images/rocket1","images/alien4","images/t.png","2","real","true","2","common","1","2023-03-22 06:14:54.959"
"two-step-fixation","198","534563","0.0-77.0-2.20","3955","7581","19","Male","false","false","false","true","""event"",""trial"",""time""
""fullscreenenter"",""5"",""11070""
","
","
","""event"",""trial"",""time""
""fullscreenenter"",""5"",""11070""
","
","","images/earth.jpg","","","","","","","","","","","","","","fixation","","","","","",""
"d3-animate-choice","199","536584","0.0-77.0-0.21","3955","7581","19","Male","false","false","false","true","""event"",""trial"",""time""
""fullscreenenter"",""5"",""11070""
","
","
","""event"",""trial"",""time""
""fullscreenenter"",""5"",""11070""
","
","18","","48","","","3000","1","","","images/earth.jpg","images/rocket1","images/rocket2","null","images/rocket1","","1","real","null","2","","",""
"d3-animate-choice","200","538831","0.0-77.0-1.21","3955","7581","19","Male","false","false","false","true","""event"",""trial"",""time""
""fullscreenenter"",""5"",""11070""
","
","
","""event"",""trial"",""time""
""fullscreenenter"",""5"",""11070""
","
","244","","48","","","3000","1","","","images/purpleplanet.jpg","images/alien4","images/alien3","images/rocket1","images/alien4","images/t.png","2","real","true","2","common","1","2023-03-22 06:15:00.229"
"two-step-fixation","201","539834","0.0-77.0-2.21","3955","7581","19","Male","false","false","false","true","""event"",""trial"",""time""
""fullscreenenter"",""5"",""11070""
","
","
","""event"",""trial"",""time""
""fullscreenenter"",""5"",""11070""
","
","","images/earth.jpg","","","","","","","","","","","","","","fixation","","","","","",""
"d3-animate-choice","202","541991","0.0-77.0-0.22","3955","7581","19","Male","false","false","false","true","""event"",""trial"",""time""
""fullscreenenter"",""5"",""11070""
","
","
","""event"",""trial"",""time""
""fullscreenenter"",""5"",""11070""
","
","153","","48","","","3000","1","1884","48","images/earth.jpg","images/rocket1","images/rocket2","null","images/rocket1","","1","real","null","2","","",""
"d3-animate-choice","203","544047","0.0-77.0-1.22","3955","7581","19","Male","false","false","false","true","""event"",""trial"",""time""
""fullscreenenter"",""5"",""11070""
","
","
","""event"",""trial"",""time""
""fullscreenenter"",""5"",""11070""
","
","53","","48","","","3000","1","478,747,1063,1401,1703,2012","48,48,48,48,48,48","images/purpleplanet.jpg","images/alien4","images/alien3","images/rocket1","images/alien4","images/t.png","2","real","true","2","common","1","2023-03-22 06:15:05.445"
"two-step-fixation","204","545049","0.0-77.0-2.22","3955","7581","19","Male","false","false","false","true","""event"",""trial"",""time""
""fullscreenenter"",""5"",""11070""
","
","
","""event"",""trial"",""time""
""fullscreenenter"",""5"",""11070""
","
","","images/earth.jpg","","","","","","","","","","","","","","fixation","","","","","",""
"d3-animate-choice","205","547281","0.0-77.0-0.23","3955","7581","19","Male","false","false","false","true","""event"",""trial"",""time""
""fullscreenenter"",""5"",""11070""
","
","
","""event"",""trial"",""time""
""fullscreenenter"",""5"",""11070""
","
","228","","48","","","3000","1","516,826,1205,1579,1789,2005","48,48,48,48,48,48","images/earth.jpg","images/rocket1","images/rocket2","null","images/rocket1","","1","real","null","2","","",""
"d3-animate-choice","206","549300","0.0-77.0-1.23","3955","7581","19","Male","false","false","false","true","""event"",""trial"",""time""
""fullscreenenter"",""5"",""11070""
","
","
","""event"",""trial"",""time""
""fullscreenenter"",""5"",""11070""
","
","15","","48","","","3000","1","263,505,1779","48,48,48","images/redplanet1.jpg","images/alien2","images/alien1","images/rocket1","images/alien2","images/t.png","2","real","false","2","rare","1","2023-03-22 06:15:10.698"
"two-step-fixation","207","550303","0.0-77.0-2.23","3955","7581","19","Male","false","false","false","true","""event"",""trial"",""time""
""fullscreenenter"",""5"",""11070""
","
","
","""event"",""trial"",""time""
""fullscreenenter"",""5"",""11070""
","
","","images/earth.jpg","","","","","","","","","","","","","","fixation","","","","","",""
"d3-animate-choice","208","552331","0.0-77.0-0.24","3955","7581","19","Male","false","false","false","true","""event"",""trial"",""time""
""fullscreenenter"",""5"",""11070""
","
","
","""event"",""trial"",""time""
""fullscreenenter"",""5"",""11070""
","
","26","","48","","","3000","1","299,573,860,1059,1484,1658,1813","48,48,48,48,48,48,48","images/earth.jpg","images/rocket1","images/rocket2","null","images/rocket1","","1","real","null","2","","",""
"d3-animate-choice","209","554353","0.0-77.0-1.24","3955","7581","19","Male","false","false","false","true","""event"",""trial"",""time""
""fullscreenenter"",""5"",""11070""
","
","
","""event"",""trial"",""time""
""fullscreenenter"",""5"",""11070""
","
","18","","48","","","3000","1","244,450,679,945,1214,1460,1723,1962","48,48,48,48,48,48,48,48","images/purpleplanet.jpg","images/alien4","images/alien3","images/rocket1","images/alien4","images/t.png","2","real","true","2","common","1","2023-03-22 06:15:15.751"
"two-step-fixation","210","555357","0.0-77.0-2.24","3955","7581","19","Male","false","false","false","true","""event"",""trial"",""time""
""fullscreenenter"",""5"",""11070""
","
","
","""event"",""trial"",""time""
""fullscreenenter"",""5"",""11070""
","
","","images/earth.jpg","","","","","","","","","","","","","","fixation","","","","","",""
"d3-animate-choice","211","557391","0.0-77.0-0.25","3955","7581","19","Male","false","false","false","true","""event"",""trial"",""time""
""fullscreenenter"",""5"",""11070""
","
","
","""event"",""trial"",""time""
""fullscreenenter"",""5"",""11070""
","
","33","","48","","","3000","1","254,483,704,954,1216,1481,1778","48,48,48,48,48,48,48","images/earth.jpg","images/rocket1","images/rocket2","null","images/rocket1","","1","real","null","2","","",""
"d3-animate-choice","212","559426","0.0-77.0-1.25","3955","7581","19","Male","false","false","false","true","""event"",""trial"",""time""
""fullscreenenter"",""5"",""11070""
","
","
","""event"",""trial"",""time""
""fullscreenenter"",""5"",""11070""
","
","31","","48","","","3000","1","312,605,943,1259,1576,1868","48,48,48,48,48,48","images/redplanet1.jpg","images/alien2","images/alien1","images/rocket1","images/alien2","images/t.png","2","real","false","2","rare","1","2023-03-22 06:15:20.824"
"two-step-fixation","213","560428","0.0-77.0-2.25","3955","7581","19","Male","false","false","false","true","""event"",""trial"",""time""
""fullscreenenter"",""5"",""11070""
","
","
","""event"",""trial"",""time""
""fullscreenenter"",""5"",""11070""
","
","","images/earth.jpg","","","","","","","","","","","","","","fixation","","","","","",""
"d3-animate-choice","214","562447","0.0-77.0-0.26","3955","7581","19","Male","false","false","false","true","""event"",""trial"",""time""
""fullscreenenter"",""5"",""11070""
","
","
","""event"",""trial"",""time""
""fullscreenenter"",""5"",""11070""
","
","16","","48","","","3000","1","281,725,969,1243,1553,1632","48,48,48,48,48,49","images/earth.jpg","images/rocket1","images/rocket2","null","images/rocket1","","1","real","null","2","","",""
"d3-animate-choice","215","564703","0.0-77.0-1.26","3955","7581","19","Male","false","false","false","true","""event"",""trial"",""time""
""fullscreenenter"",""5"",""11070""
","
","
","""event"",""trial"",""time""
""fullscreenenter"",""5"",""11070""
","
","253","","49","","","3000","1","507,948,1237,1530,1810,2058","49,48,48,48,48,48","images/purpleplanet.jpg","images/alien4","images/alien3","images/rocket1","images/alien3","images/nothing.png","2","real","true","1","common","0","2023-03-22 06:15:26.101"
"two-step-fixation","216","565705","0.0-77.0-2.26","3955","7581","19","Male","false","false","false","true","""event"",""trial"",""time""
""fullscreenenter"",""5"",""11070""
","
","
","""event"",""trial"",""time""
""fullscreenenter"",""5"",""11070""
","
","","images/earth.jpg","","","","","","","","","","","","","","fixation","","","","","",""
"d3-animate-choice","217","567739","0.0-77.0-0.27","3955","7581","19","Male","false","false","false","true","""event"",""trial"",""time""
""fullscreenenter"",""5"",""11070""
","
","
","""event"",""trial"",""time""
""fullscreenenter"",""5"",""11070""
","
","32","","48","","","3000","1","262,462,649,864","48,48,48,48","images/earth.jpg","images/rocket1","images/rocket2","null","images/rocket1","","1","real","null","2","","",""
"d3-animate-choice","218","570173","0.0-77.0-1.27","3955","7581","19","Male","false","false","false","true","""event"",""trial"",""time""
""fullscreenenter"",""5"",""11070""
","
","
","""event"",""trial"",""time""
""fullscreenenter"",""5"",""11070""
","
","430","","49","","","3000","1","817,1053,1252,1501,1749,1980,2211,2420","48,48,48,48,48,48,48,48","images/redplanet1.jpg","images/alien2","images/alien1","images/rocket1","images/alien1","images/nothing.png","2","real","false","1","rare","0","2023-03-22 06:15:31.571"
"two-step-fixation","219","571176","0.0-77.0-2.27","3955","7581","19","Male","false","false","false","true","""event"",""trial"",""time""
""fullscreenenter"",""5"",""11070""
","
","
","""event"",""trial"",""time""
""fullscreenenter"",""5"",""11070""
","
","","images/earth.jpg","","","","","","","","","","","","","","fixation","","","","","",""
"d3-animate-choice","220","573182","0.0-77.0-0.28","3955","7581","19","Male","false","false","false","true","""event"",""trial"",""time""
""fullscreenenter"",""5"",""11070""
","
","
","""event"",""trial"",""time""
""fullscreenenter"",""5"",""11070""
","
","3","","48","","","3000","1","182,374,559,761,1002,1245","48,48,48,48,48,48","images/earth.jpg","images/rocket1","images/rocket2","null","images/rocket1","","1","real","null","2","","",""
"d3-animate-choice","221","575524","0.0-77.0-1.28","3955","7581","19","Male","false","false","false","true","""event"",""trial"",""time""
""fullscreenenter"",""5"",""11070""
","
","
","""event"",""trial"",""time""
""fullscreenenter"",""5"",""11070""
","
","341","","49","","","3000","1","2060,2235","48,48","images/purpleplanet.jpg","images/alien4","images/alien3","images/rocket1","images/alien3","images/nothing.png","2","real","true","1","common","0","2023-03-22 06:15:36.922"
"two-step-fixation","222","576527","0.0-77.0-2.28","3955","7581","19","Male","false","false","false","true","""event"",""trial"",""time""
""fullscreenenter"",""5"",""11070""
","
","
","""event"",""trial"",""time""
""fullscreenenter"",""5"",""11070""
","
","","images/earth.jpg","","","","","","","","","","","","","","fixation","","","","","",""
"d3-animate-choice","223","578630","0.0-77.0-0.29","3955","7581","19","Male","false","false","false","true","""event"",""trial"",""time""
""fullscreenenter"",""5"",""11070""
","
","
","""event"",""trial"",""time""
""fullscreenenter"",""5"",""11070""
","
","99","","48","","","3000","1","304,557,832,1057","48,48,48,48","images/earth.jpg","images/rocket1","images/rocket2","null","images/rocket1","","1","real","null","2","","",""
"d3-animate-choice","224","580832","0.0-77.0-1.29","3955","7581","19","Male","false","false","false","true","""event"",""trial"",""time""
""fullscreenenter"",""5"",""11070""
","
","
","""event"",""trial"",""time""
""fullscreenenter"",""5"",""11070""
","
","201","","48","","","3000","1","407,604,833,1106,1376,1630,1918,2199","48,48,48,48,48,48,48,48","images/purpleplanet.jpg","images/alien4","images/alien3","images/rocket1","images/alien4","images/t.png","2","real","true","2","common","1","2023-03-22 06:15:42.230"
"two-step-fixation","225","581834","0.0-77.0-2.29","3955","7581","19","Male","false","false","false","true","""event"",""trial"",""time""
""fullscreenenter"",""5"",""11070""
","
","
","""event"",""trial"",""time""
""fullscreenenter"",""5"",""11070""
","
","","images/earth.jpg","","","","","","","","","","","","","","fixation","","","","","",""
"d3-animate-choice","226","583915","0.0-77.0-0.30","3955","7581","19","Male","false","false","false","true","""event"",""trial"",""time""
""fullscreenenter"",""5"",""11070""
","
","
","""event"",""trial"",""time""
""fullscreenenter"",""5"",""11070""
","
","77","","48","","","3000","1","314,590,904,1176,1407,1611,1825,2062","48,48,48,48,48,48,48,48","images/earth.jpg","images/rocket1","images/rocket2","null","images/rocket1","","1","real","null","2","","",""
"d3-animate-choice","227","586184","0.0-77.0-1.30","3955","7581","19","Male","false","false","false","true","""event"",""trial"",""time""
""fullscreenenter"",""5"",""11070""
","
","
","""event"",""trial"",""time""
""fullscreenenter"",""5"",""11070""
","
","266","","48","","","3000","1","515,752,1030,1303,1573,1865,2229","48,48,48,48,48,48,48","images/purpleplanet.jpg","images/alien4","images/alien3","images/rocket1","images/alien4","images/t.png","2","real","true","2","common","1","2023-03-22 06:15:47.582"
"two-step-fixation","228","587187","0.0-77.0-2.30","3955","7581","19","Male","false","false","false","true","""event"",""trial"",""time""
""fullscreenenter"",""5"",""11070""
","
","
","""event"",""trial"",""time""
""fullscreenenter"",""5"",""11070""
","
","","images/earth.jpg","","","","","","","","","","","","","","fixation","","","","","",""
"d3-animate-choice","229","589270","0.0-77.0-0.31","3955","7581","19","Male","false","false","false","true","""event"",""trial"",""time""
""fullscreenenter"",""5"",""11070""
","
","
","""event"",""trial"",""time""
""fullscreenenter"",""5"",""11070""
","
","81","","48","","","3000","1","340,579,813,1039,1291,1551,1787,2066","48,48,48,48,48,48,48,48","images/earth.jpg","images/rocket1","images/rocket2","null","images/rocket1","","1","real","null","2","","",""
"d3-animate-choice","230","591573","0.0-77.0-1.31","3955","7581","19","Male","false","false","false","true","""event"",""trial"",""time""
""fullscreenenter"",""5"",""11070""
","
","
","""event"",""trial"",""time""
""fullscreenenter"",""5"",""11070""
","
","299","","48","","","3000","1","532,885,1134,2218","48,48,48,48","images/purpleplanet.jpg","images/alien4","images/alien3","images/rocket1","images/alien4","images/t.png","2","real","true","2","common","1","2023-03-22 06:15:52.971"
"two-step-fixation","231","592575","0.0-77.0-2.31","3955","7581","19","Male","false","false","false","true","""event"",""trial"",""time""
""fullscreenenter"",""5"",""11070""
","
","
","""event"",""trial"",""time""
""fullscreenenter"",""5"",""11070""
","
","","images/earth.jpg","","","","","","","","","","","","","","fixation","","","","","",""
"d3-animate-choice","232","594635","0.0-77.0-0.32","3955","7581","19","Male","false","false","false","true","""event"",""trial"",""time""
""fullscreenenter"",""5"",""11070""
","
","
","""event"",""trial"",""time""
""fullscreenenter"",""5"",""11070""
","
","58","","48","","","3000","1","371,886,1890","48,48,48","images/earth.jpg","images/rocket1","images/rocket2","null","images/rocket1","","1","real","null","2","","",""
"d3-animate-choice","233","596735","0.0-77.0-1.32","3955","7581","19","Male","false","false","false","true","""event"",""trial"",""time""
""fullscreenenter"",""5"",""11070""
","
","
","""event"",""trial"",""time""
""fullscreenenter"",""5"",""11070""
","
","97","","48","","","3000","1","392,769,1101,1406","48,48,48,48","images/purpleplanet.jpg","images/alien4","images/alien3","images/rocket1","images/alien4","images/t.png","2","real","true","2","common","1","2023-03-22 06:15:58.133"
"two-step-fixation","234","597737","0.0-77.0-2.32","3955","7581","19","Male","false","false","false","true","""event"",""trial"",""time""
""fullscreenenter"",""5"",""11070""
","
","
","""event"",""trial"",""time""
""fullscreenenter"",""5"",""11070""
","
","","images/earth.jpg","","","","","","","","","","","","","","fixation","","","","","",""
"d3-animate-choice","235","600070","0.0-77.0-0.33","3955","7581","19","Male","false","false","false","true","""event"",""trial"",""time""
""fullscreenenter"",""5"",""11070""
","
","
","""event"",""trial"",""time""
""fullscreenenter"",""5"",""11070""
","
","330","","48","","","3000","1","634,943,1220,1426,1642,1834,2089,2245","48,48,48,48,48,48,48,48","images/earth.jpg","images/rocket1","images/rocket2","null","images/rocket1","","1","real","null","2","","",""
"d3-animate-choice","236","602185","0.0-77.0-1.33","3955","7581","19","Male","false","false","false","true","""event"",""trial"",""time""
""fullscreenenter"",""5"",""11070""
","
","
","""event"",""trial"",""time""
""fullscreenenter"",""5"",""11070""
","
","111","","48","","","3000","1","303,553,762,1043,1305,1534,1768,1982","48,48,48,48,48,48,48,48","images/purpleplanet.jpg","images/alien4","images/alien3","images/rocket1","images/alien4","images/t.png","2","real","true","2","common","1","2023-03-22 06:16:03.583"
"two-step-fixation","237","603187","0.0-77.0-2.33","3955","7581","19","Male","false","false","false","true","""event"",""trial"",""time""
""fullscreenenter"",""5"",""11070""
","
","
","""event"",""trial"",""time""
""fullscreenenter"",""5"",""11070""
","
","","images/earth.jpg","","","","","","","","","","","","","","fixation","","","","","",""
"d3-animate-choice","238","605285","0.0-77.0-0.34","3955","7581","19","Male","false","false","false","true","""event"",""trial"",""time""
""fullscreenenter"",""5"",""11070""
","
","
","""event"",""trial"",""time""
""fullscreenenter"",""5"",""11070""
","
","96","","48","","","3000","1","345,615,862,1138,1401,1858","48,48,48,48,48,48","images/earth.jpg","images/rocket1","images/rocket2","null","images/rocket1","","1","real","null","2","","",""
"d3-animate-choice","239","607287","0.0-77.0-1.34","3955","7581","19","Male","false","false","false","true","""event"",""trial"",""time""
""fullscreenenter"",""5"",""11070""
","
","
","""event"",""trial"",""time""
