"trial_type","trial_index","time_elapsed","internal_node_id","participant_id","subject_id","age","gender","rocket_sides","red_planet_first_rocket","red_display_order","purple_display_order","interactions","blur_events","focus_events","fullscreenenter_events","fullscreenexit_events","rt","stimulus","key_press","button_pressed","success","duration","valid_pressed","rts","keys","planet_text","right_text","left_text","center_text","chosen_text","reward_text","trial_stage","practice_trial","transition_type","choice","transition","reward","timestamp"
"pavlovia","0","4","0.0-0.0","844","752","12","Male","true","true","true","true","
","
","
","
","
","","","","","","","","","","","","","","","","","","","","","",""
"html-keyboard-response","1","426167","0.0-1.0","844","752","12","Male","true","true","true","true","
","
","
","
","
","426162.5","Welcome! Press the space bar to begin.","32","","","","","","","","","","","","","","","","","","",""
"audio-keyboard-response","2","429562","0.0-2.0","844","752","12","Male","true","true","true","true","
","
","
","
","
","3080","audio/beep_loop.wav","32","","","","","","","","","","","","","","","","","","",""
"audio-button-response","3","432115","0.0-3.0","844","752","12","Male","true","true","true","true","
","
","
","
","
","NaN","audio/fish.mp3","","1","","","","","","","","","","","","","","","","","",""
"audio-button-response","4","435434","0.0-4.0","844","752","12","Male","true","true","true","true","""event"",""trial"",""time""
""fullscreenenter"",""5"",""437965""
","
","
","""event"",""trial"",""time""
""fullscreenenter"",""5"",""437965""
","
","NaN","audio/tiger.mp3","","4","","","","","","","","","","","","","","","","","",""
"fullscreen","5","438942","0.0-5.0","844","752","12","Male","true","true","true","true","""event"",""trial"",""time""
""fullscreenenter"",""5"",""437965""
","
","
","""event"",""trial"",""time""
""fullscreenenter"",""5"",""437965""
","
","","","","","true","","","","","","","","","","","","","","","","",""
"d3-instructions","6","449699","0.0-6.0","844","752","12","Male","true","true","true","true","""event"",""trial"",""time""
""fullscreenenter"",""5"",""437965""
","
","
","""event"",""trial"",""time""
""fullscreenenter"",""5"",""437965""
","
","","","","","","","","","","","","","","","","","","","","","",""
"d3-instructions","7","455234","0.0-7.0","844","752","12","Male","true","true","true","true","""event"",""trial"",""time""
""fullscreenenter"",""5"",""437965""
","
","
","""event"",""trial"",""time""
""fullscreenenter"",""5"",""437965""
","
","","","","","","","","","","","","","","","","","","","","","",""
"d3-instructions","8","457803","0.0-8.0","844","752","12","Male","true","true","true","true","""event"",""trial"",""time""
""fullscreenenter"",""5"",""437965""
","
","
","""event"",""trial"",""time""
""fullscreenenter"",""5"",""437965""
","
","","","","","","","","","","","","","","","","","","","","","",""
"d3-instructions","9","458763","0.0-9.0","844","752","12","Male","true","true","true","true","""event"",""trial"",""time""
""fullscreenenter"",""5"",""437965""
","
","
","""event"",""trial"",""time""
""fullscreenenter"",""5"",""437965""
","
","","","","","","","","","","","","","","","","","","","","","",""
"d3-instructions","10","472252","0.0-10.0","844","752","12","Male","true","true","true","true","""event"",""trial"",""time""
""fullscreenenter"",""5"",""437965""
","
","
","""event"",""trial"",""time""
""fullscreenenter"",""5"",""437965""
","
","","","","","","","","","","","","","","","","","","","","","",""
"d3-animate-choice","11","479728","0.0-11.0","844","752","12","Male","true","true","true","true","""event"",""trial"",""time""
""fullscreenenter"",""5"",""437965""
","
","
","""event"",""trial"",""time""
""fullscreenenter"",""5"",""437965""
","
","5458.399999976158","","49","","","3000","1","6834.199999988079","49","images/tutgreenplanet.jpg","images/tutalien1","images/tutalien2","null","images/tutalien2","","NA","practice","null","","","",""
"d3-animate-choice","12","483350","0.0-12.0","844","752","12","Male","true","true","true","true","""event"",""trial"",""time""
""fullscreenenter"",""5"",""437965""
","
","
","""event"",""trial"",""time""
""fullscreenenter"",""5"",""437965""
","
","1609.9000000357628","","48","","","3000","1","","","images/tutgreenplanet.jpg","images/tutalien1","images/tutalien2","null","images/tutalien1","","NA","practice","null","","","",""
"d3-animate-choice","13","486317","0.0-13.0","844","752","12","Male","true","true","true","true","""event"",""trial"",""time""
""fullscreenenter"",""5"",""437965""
","
","
","""event"",""trial"",""time""
""fullscreenenter"",""5"",""437965""
","
","946.2999999523163","","49","","","3000","1","1401.199999988079","49","images/tutgreenplanet.jpg","images/tutalien1","images/tutalien2","null","images/tutalien2","","NA","practice","null","","","",""
"d3-animate-choice","14","488788","0.0-14.0","844","752","12","Male","true","true","true","true","""event"",""trial"",""time""
""fullscreenenter"",""5"",""437965""
","
","
","""event"",""trial"",""time""
""fullscreenenter"",""5"",""437965""
","
","460.39999997615814","","48","","","3000","1","835.3000000119209","48","images/tutgreenplanet.jpg","images/tutalien1","images/tutalien2","null","images/tutalien1","","NA","practice","null","","","",""
"d3-instructions","15","496801","0.0-15.0","844","752","12","Male","true","true","true","true","""event"",""trial"",""time""
""fullscreenenter"",""5"",""437965""
","
","
","""event"",""trial"",""time""
""fullscreenenter"",""5"",""437965""
","
","","","","","","","","","","","","","","","","","","","","","",""
"d3-instructions","16","500417","0.0-16.0","844","752","12","Male","true","true","true","true","""event"",""trial"",""time""
""fullscreenenter"",""5"",""437965""
","
","
","""event"",""trial"",""time""
""fullscreenenter"",""5"",""437965""
","
","","","","","","","","","","","","","","","","","","","","","",""
"d3-instructions","17","508330","0.0-17.0","844","752","12","Male","true","true","true","true","""event"",""trial"",""time""
""fullscreenenter"",""5"",""437965""
","
","
","""event"",""trial"",""time""
""fullscreenenter"",""5"",""437965""
","
","","","","","","","","","","","","","","","","","","","","","",""
"d3-instructions","18","520859","0.0-18.0","844","752","12","Male","true","true","true","true","""event"",""trial"",""time""
""fullscreenenter"",""5"",""437965""
","
","
","""event"",""trial"",""time""
""fullscreenenter"",""5"",""437965""
","
","","","","","","","","","","","","","","","","","","","","","",""
"d3-instructions","19","528953","0.0-19.0","844","752","12","Male","true","true","true","true","""event"",""trial"",""time""
""fullscreenenter"",""5"",""437965""
","
","
","""event"",""trial"",""time""
""fullscreenenter"",""5"",""437965""
","
","","","","","","","","","","","","","","","","","","","","","",""
"d3-animate-choice","20","533258","0.0-20.0","844","752","12","Male","true","true","true","true","""event"",""trial"",""time""
""fullscreenenter"",""5"",""437965""
","
","
","""event"",""trial"",""time""
""fullscreenenter"",""5"",""437965""
","
","2282.099999964237","","49","","","3000","1","2711","49","images/tutyellowplanet.jpg","null","images/tutalien3","null","images/tutalien3","images/t.png","NA","practice","null","","","",""
"d3-animate-choice","21","535638","0.0-21.0","844","752","12","Male","true","true","true","true","""event"",""trial"",""time""
""fullscreenenter"",""5"",""437965""
","
","
","""event"",""trial"",""time""
""fullscreenenter"",""5"",""437965""
","
","359.80000001192093","","49","","","3000","1","","","images/tutyellowplanet.jpg","null","images/tutalien3","null","images/tutalien3","images/nothing.png","NA","practice","null","","","",""
"d3-animate-choice","22","538088","0.0-22.0","844","752","12","Male","true","true","true","true","""event"",""trial"",""time""
""fullscreenenter"",""5"",""437965""
","
","
","""event"",""trial"",""time""
""fullscreenenter"",""5"",""437965""
","
","441.39999997615814","","49","","","3000","1","","","images/tutyellowplanet.jpg","null","images/tutalien3","null","images/tutalien3","images/t.png","NA","practice","null","","","",""
"d3-animate-choice","23","540567","0.0-23.0","844","752","12","Male","true","true","true","true","""event"",""trial"",""time""
""fullscreenenter"",""5"",""437965""
","
","
","""event"",""trial"",""time""
""fullscreenenter"",""5"",""437965""
","
","471.80000001192093","","49","","","3000","1","2152","17","images/tutyellowplanet.jpg","null","images/tutalien3","null","images/tutalien3","images/t.png","NA","practice","null","","","",""
"d3-animate-choice","24","543017","0.0-24.0","844","752","12","Male","true","true","true","true","""event"",""trial"",""time""
""fullscreenenter"",""5"",""437965""
","
","
","""event"",""trial"",""time""
""fullscreenenter"",""5"",""437965""
","
","440.19999998807907","","49","","","3000","1","","","images/tutyellowplanet.jpg","null","images/tutalien3","null","images/tutalien3","images/t.png","NA","practice","null","","","",""
"d3-animate-choice","25","545498","0.0-25.0","844","752","12","Male","true","true","true","true","""event"",""trial"",""time""
""fullscreenenter"",""5"",""437965""
","
","
","""event"",""trial"",""time""
""fullscreenenter"",""5"",""437965""
","
","469.19999998807907","","49","","","3000","1","","","images/tutyellowplanet.jpg","null","images/tutalien3","null","images/tutalien3","images/t.png","NA","practice","null","","","",""
"d3-animate-choice","26","547919","0.0-26.0","844","752","12","Male","true","true","true","true","""event"",""trial"",""time""
""fullscreenenter"",""5"",""437965""
","
","
","""event"",""trial"",""time""
""fullscreenenter"",""5"",""437965""
","
","404.39999997615814","","49","","","3000","1","","","images/tutyellowplanet.jpg","null","images/tutalien3","null","images/tutalien3","images/t.png","NA","practice","null","","","",""
"d3-animate-choice","27","550818","0.0-27.0","844","752","12","Male","true","true","true","true","""event"",""trial"",""time""
""fullscreenenter"",""5"",""437965""
","
","
","""event"",""trial"",""time""
""fullscreenenter"",""5"",""437965""
","
","880.3000000119209","","49","","","3000","1","","","images/tutyellowplanet.jpg","null","images/tutalien3","null","images/tutalien3","images/nothing.png","NA","practice","null","","","",""
"d3-animate-choice","28","553218","0.0-28.0","844","752","12","Male","true","true","true","true","""event"",""trial"",""time""
""fullscreenenter"",""5"",""437965""
","
","
","""event"",""trial"",""time""
""fullscreenenter"",""5"",""437965""
","
","389.89999997615814","","49","","","3000","1","","","images/tutyellowplanet.jpg","null","images/tutalien3","null","images/tutalien3","images/t.png","NA","practice","null","","","",""
"d3-animate-choice","29","555978","0.0-29.0","844","752","12","Male","true","true","true","true","""event"",""trial"",""time""
""fullscreenenter"",""5"",""437965""
","
","
","""event"",""trial"",""time""
""fullscreenenter"",""5"",""437965""
","
","736.4000000357628","","49","","","3000","1","","","images/tutyellowplanet.jpg","null","images/tutalien3","null","images/tutalien3","images/t.png","NA","practice","null","","","",""
"d3-instructions","30","564242","0.0-30.0","844","752","12","Male","true","true","true","true","""event"",""trial"",""time""
""fullscreenenter"",""5"",""437965""
","
","
","""event"",""trial"",""time""
""fullscreenenter"",""5"",""437965""
","
","","","","","","","","","","","","","","","","","","","","","",""
"d3-instructions","31","567547","0.0-31.0","844","752","12","Male","true","true","true","true","""event"",""trial"",""time""
""fullscreenenter"",""5"",""437965""
","
","
","""event"",""trial"",""time""
""fullscreenenter"",""5"",""437965""
","
","","","","","","","","","","","","","","","","","","","","","",""
"d3-instructions","32","579666","0.0-32.0","844","752","12","Male","true","true","true","true","""event"",""trial"",""time""
""fullscreenenter"",""5"",""437965""
","
","
","""event"",""trial"",""time""
""fullscreenenter"",""5"",""437965""
","
","","","","","","","","","","","","","","","","","","","","","",""
"d3-instructions","33","582962","0.0-33.0","844","752","12","Male","true","true","true","true","""event"",""trial"",""time""
""fullscreenenter"",""5"",""437965""
","
","
","""event"",""trial"",""time""
""fullscreenenter"",""5"",""437965""
","
","","","","","","","","","","","","","","","","","","","","","",""
"d3-animate-choice","34","586777","0.0-34.0","844","752","12","Male","true","true","true","true","""event"",""trial"",""time""
""fullscreenenter"",""5"",""437965""
","
","
","""event"",""trial"",""time""
""fullscreenenter"",""5"",""437965""
","
","1805.0999999642372","","49","","","3000","1","","","images/tutgreenplanet.jpg","images/tutalien1","images/tutalien2","null","images/tutalien2","images/t.png","NA","practice","null","","","",""
"d3-animate-choice","35","589169","0.0-35.0","844","752","12","Male","true","true","true","true","""event"",""trial"",""time""
""fullscreenenter"",""5"",""437965""
","
","
","""event"",""trial"",""time""
""fullscreenenter"",""5"",""437965""
","
","373.60000002384186","","49","","","3000","1","","","images/tutgreenplanet.jpg","images/tutalien1","images/tutalien2","null","images/tutalien2","images/nothing.png","NA","practice","null","","","",""
"d3-animate-choice","36","591507","0.0-36.0","844","752","12","Male","true","true","true","true","""event"",""trial"",""time""
""fullscreenenter"",""5"",""437965""
","
","
","""event"",""trial"",""time""
""fullscreenenter"",""5"",""437965""
","
","314","","49","","","3000","1","","","images/tutgreenplanet.jpg","images/tutalien1","images/tutalien2","null","images/tutalien2","images/t.png","NA","practice","null","","","",""
"d3-animate-choice","37","593857","0.0-37.0","844","752","12","Male","true","true","true","true","""event"",""trial"",""time""
""fullscreenenter"",""5"",""437965""
","
","
","""event"",""trial"",""time""
""fullscreenenter"",""5"",""437965""
","
","339.5","","49","","","3000","1","","","images/tutgreenplanet.jpg","images/tutalien1","images/tutalien2","null","images/tutalien2","images/t.png","NA","practice","null","","","",""
"d3-animate-choice","38","596278","0.0-38.0","844","752","12","Male","true","true","true","true","""event"",""trial"",""time""
""fullscreenenter"",""5"",""437965""
","
","
","""event"",""trial"",""time""
""fullscreenenter"",""5"",""437965""
","
","405.89999997615814","","49","","","3000","1","","","images/tutgreenplanet.jpg","images/tutalien1","images/tutalien2","null","images/tutalien2","images/t.png","NA","practice","null","","","",""
"d3-animate-choice","39","598878","0.0-39.0","844","752","12","Male","true","true","true","true","""event"",""trial"",""time""
""fullscreenenter"",""5"",""437965""
","
","
","""event"",""trial"",""time""
""fullscreenenter"",""5"",""437965""
","
","585.6000000238419","","49","","","3000","1","","","images/tutgreenplanet.jpg","images/tutalien1","images/tutalien2","null","images/tutalien2","images/t.png","NA","practice","null","","","",""
"d3-animate-choice","40","601338","0.0-40.0","844","752","12","Male","true","true","true","true","""event"",""trial"",""time""
""fullscreenenter"",""5"",""437965""
","
","
","""event"",""trial"",""time""
""fullscreenenter"",""5"",""437965""
","
","449.80000001192093","","49","","","3000","1","","","images/tutgreenplanet.jpg","images/tutalien1","images/tutalien2","null","images/tutalien2","images/t.png","NA","practice","null","","","",""
"d3-animate-choice","41","603717","0.0-41.0","844","752","12","Male","true","true","true","true","""event"",""trial"",""time""
""fullscreenenter"",""5"",""437965""
","
","
","""event"",""trial"",""time""
""fullscreenenter"",""5"",""437965""
","
","369.30000001192093","","49","","","3000","1","1885.300000011921","49","images/tutgreenplanet.jpg","images/tutalien1","images/tutalien2","null","images/tutalien2","images/t.png","NA","practice","null","","","",""
"d3-animate-choice","42","606060","0.0-42.0","844","752","12","Male","true","true","true","true","""event"",""trial"",""time""
""fullscreenenter"",""5"",""437965""
","
","
","""event"",""trial"",""time""
""fullscreenenter"",""5"",""437965""
","
","338.30000001192093","","49","","","3000","1","","","images/tutgreenplanet.jpg","images/tutalien1","images/tutalien2","null","images/tutalien2","images/t.png","NA","practice","null","","","",""
"d3-animate-choice","43","608960","0.0-43.0","844","752","12","Male","true","true","true","true","""event"",""trial"",""time""
""fullscreenenter"",""5"",""437965""
","
","
","""event"",""trial"",""time""
""fullscreenenter"",""5"",""437965""
","
","363.89999997615814","","192","","","3000","1","891.5999999642372","49","images/tutgreenplanet.jpg","images/tutalien1","images/tutalien2","null","images/tutalien2","images/t.png","NA","practice","null","","","",""
"d3-instructions","44","622002","0.0-44.0","844","752","12","Male","true","true","true","true","""event"",""trial"",""time""
""fullscreenenter"",""5"",""437965""
","
","
","""event"",""trial"",""time""
""fullscreenenter"",""5"",""437965""
","
","","","","","","","","","","","","","","","","","","","","","",""
"d3-instructions","45","630034","0.0-45.0","844","752","12","Male","true","true","true","true","""event"",""trial"",""time""
""fullscreenenter"",""5"",""437965""
","
","
","""event"",""trial"",""time""
""fullscreenenter"",""5"",""437965""
","
","","","","","","","","","","","","","","","","","","","","","",""
"d3-instructions","46","637794","0.0-46.0","844","752","12","Male","true","true","true","true","""event"",""trial"",""time""
""fullscreenenter"",""5"",""437965""
","
","
","""event"",""trial"",""time""
""fullscreenenter"",""5"",""437965""
","
","","","","","","","","","","","","","","","","","","","","","",""
"d3-instructions","47","642010","0.0-47.0","844","752","12","Male","true","true","true","true","""event"",""trial"",""time""
""fullscreenenter"",""5"",""437965""
","
","
","""event"",""trial"",""time""
""fullscreenenter"",""5"",""437965""
","
","","","","","","","","","","","","","","","","","","","","","",""
"d3-instructions","48","643706","0.0-48.0","844","752","12","Male","true","true","true","true","""event"",""trial"",""time""
""fullscreenenter"",""5"",""437965""
","
","
","""event"",""trial"",""time""
""fullscreenenter"",""5"",""437965""
","
","","","","","","","","","","","","","","","","","","","","","",""
"d3-instructions","49","644369","0.0-49.0","844","752","12","Male","true","true","true","true","""event"",""trial"",""time""
""fullscreenenter"",""5"",""437965""
","
","
","""event"",""trial"",""time""
""fullscreenenter"",""5"",""437965""
","
","","","","","","","","","","","","","","","","","","","","","",""
"d3-instructions","50","652025","0.0-50.0","844","752","12","Male","true","true","true","true","""event"",""trial"",""time""
""fullscreenenter"",""5"",""437965""
","
","
","""event"",""trial"",""time""
""fullscreenenter"",""5"",""437965""
","
","","","","","","","","","","","","","","","","","","","","","",""
"d3-instructions","51","655202","0.0-51.0","844","752","12","Male","true","true","true","true","""event"",""trial"",""time""
""fullscreenenter"",""5"",""437965""
","
","
","""event"",""trial"",""time""
""fullscreenenter"",""5"",""437965""
","
","","","","","","","","","","","","","","","","","","","","","",""
"d3-instructions","52","657514","0.0-52.0","844","752","12","Male","true","true","true","true","""event"",""trial"",""time""
""fullscreenenter"",""5"",""437965""
","
","
","""event"",""trial"",""time""
""fullscreenenter"",""5"",""437965""
","
","","","","","","","","","","","","","","","","","","","","","",""
"d3-instructions","53","674313","0.0-53.0","844","752","12","Male","true","true","true","true","""event"",""trial"",""time""
""fullscreenenter"",""5"",""437965""
","
","
","""event"",""trial"",""time""
""fullscreenenter"",""5"",""437965""
","
","","","","","","","","","","","","","","","","","","","","","",""
"d3-instructions","54","684962","0.0-54.0","844","752","12","Male","true","true","true","true","""event"",""trial"",""time""
""fullscreenenter"",""5"",""437965""
","
","
","""event"",""trial"",""time""
""fullscreenenter"",""5"",""437965""
","
","","","","","","","","","","","","","","","","","","","","","",""
"d3-instructions","55","689793","0.0-55.0","844","752","12","Male","true","true","true","true","""event"",""trial"",""time""
""fullscreenenter"",""5"",""437965""
","
","
","""event"",""trial"",""time""
""fullscreenenter"",""5"",""437965""
","
","","","","","","","","","","","","","","","","","","","","","",""
"d3-instructions","56","691185","0.0-56.0","844","752","12","Male","true","true","true","true","""event"",""trial"",""time""
""fullscreenenter"",""5"",""437965""
","
","
","""event"",""trial"",""time""
""fullscreenenter"",""5"",""437965""
","
","","","","","","","","","","","","","","","","","","","","","",""
"d3-instructions","57","691898","0.0-57.0","844","752","12","Male","true","true","true","true","""event"",""trial"",""time""
""fullscreenenter"",""5"",""437965""
","
","
","""event"",""trial"",""time""
""fullscreenenter"",""5"",""437965""
","
","","","","","","","","","","","","","","","","","","","","","",""
"d3-instructions","58","694906","0.0-58.0","844","752","12","Male","true","true","true","true","""event"",""trial"",""time""
""fullscreenenter"",""5"",""437965""
","
","
","""event"",""trial"",""time""
""fullscreenenter"",""5"",""437965""
","
","","","","","","","","","","","","","","","","","","","","","",""
"d3-instructions","59","696338","0.0-59.0","844","752","12","Male","true","true","true","true","""event"",""trial"",""time""
""fullscreenenter"",""5"",""437965""
","
","
","""event"",""trial"",""time""
""fullscreenenter"",""5"",""437965""
","
","","","","","","","","","","","","","","","","","","","","","",""
"d3-instructions","60","701699","0.0-60.0","844","752","12","Male","true","true","true","true","""event"",""trial"",""time""
""fullscreenenter"",""5"",""437965""
","
","
","""event"",""trial"",""time""
""fullscreenenter"",""5"",""437965""
","
","","","","","","","","","","","","","","","","","","","","","",""
"d3-animate-choice","61","704278","0.0-61.0-0.0","844","752","12","Male","true","true","true","true","""event"",""trial"",""time""
""fullscreenenter"",""5"",""437965""
","
","
","""event"",""trial"",""time""
""fullscreenenter"",""5"",""437965""
","
","564.1999999880791","","49","","","3000","1","","","images/earth.jpg","images/tutrocket2","images/tutrocket1","null","images/tutrocket1","","1","practice","null","1","","",""
"d3-animate-choice","62","708298","0.0-61.0-1.0","844","752","12","Male","true","true","true","true","""event"",""trial"",""time""
""fullscreenenter"",""5"",""437965""
","
","
","""event"",""trial"",""time""
""fullscreenenter"",""5"",""437965""
","
","881.1999999880791","","57","","","3000","1","1809.2999999523163,2039.5,2216.099999964237,2387","57,48,48,48","images/tutgreenplanet.jpg","images/tutalien2","images/tutalien1","images/tutrocket1","images/tutalien2","images/nothing.png","2","practice","true","","common","0","2022-02-14 21:20:43.529"
"two-step-fixation","63","709316","0.0-61.0-2.0","844","752","12","Male","true","true","true","true","""event"",""trial"",""time""
""fullscreenenter"",""5"",""437965""
","
","
","""event"",""trial"",""time""
""fullscreenenter"",""5"",""437965""
","
","","images/earth.jpg","","","","","","","","","","","","","","fixation","","","","","",""
"d3-animate-choice","64","711715","0.0-61.0-0.1","844","752","12","Male","true","true","true","true","""event"",""trial"",""time""
""fullscreenenter"",""5"",""437965""
","
","
","""event"",""trial"",""time""
""fullscreenenter"",""5"",""437965""
","
","394.60000002384186","","49","","","3000","1","","","images/earth.jpg","images/tutrocket2","images/tutrocket1","null","images/tutrocket1","","1","practice","null","1","","",""
"d3-animate-choice","65","714859","0.0-61.0-1.1","844","752","12","Male","true","true","true","true","""event"",""trial"",""time""
""fullscreenenter"",""5"",""437965""
","
","
","""event"",""trial"",""time""
""fullscreenenter"",""5"",""437965""
","
","1129.6000000238419","","49","","","3000","1","","","images/tutyellowplanet.jpg","images/tutalien4","images/tutalien3","images/tutrocket1","images/tutalien3","images/nothing.png","2","practice","false","1","rare","0","2022-02-14 21:20:50.089"
"two-step-fixation","66","715864","0.0-61.0-2.1","844","752","12","Male","true","true","true","true","""event"",""trial"",""time""
""fullscreenenter"",""5"",""437965""
","
","
","""event"",""trial"",""time""
""fullscreenenter"",""5"",""437965""
","
","","images/earth.jpg","","","","","","","","","","","","","","fixation","","","","","",""
"d3-animate-choice","67","718381","0.0-61.0-0.2","844","752","12","Male","true","true","true","true","""event"",""trial"",""time""
""fullscreenenter"",""5"",""437965""
","
","
","""event"",""trial"",""time""
""fullscreenenter"",""5"",""437965""
","
","514","","49","","","3000","1","","","images/earth.jpg","images/tutrocket2","images/tutrocket1","null","images/tutrocket1","","1","practice","null","1","","",""
"d3-animate-choice","68","721578","0.0-61.0-1.2","844","752","12","Male","true","true","true","true","""event"",""trial"",""time""
""fullscreenenter"",""5"",""437965""
","
","
","""event"",""trial"",""time""
""fullscreenenter"",""5"",""437965""
","
","1186.4000000357628","","49","","","3000","1","","","images/tutyellowplanet.jpg","images/tutalien4","images/tutalien3","images/tutrocket1","images/tutalien3","images/nothing.png","2","practice","false","1","rare","0","2022-02-14 21:20:56.808"
"two-step-fixation","69","722586","0.0-61.0-2.2","844","752","12","Male","true","true","true","true","""event"",""trial"",""time""
""fullscreenenter"",""5"",""437965""
","
","
","""event"",""trial"",""time""
""fullscreenenter"",""5"",""437965""
","
","","images/earth.jpg","","","","","","","","","","","","","","fixation","","","","","",""
"d3-animate-choice","70","725448","0.0-61.0-0.3","844","752","12","Male","true","true","true","true","""event"",""trial"",""time""
""fullscreenenter"",""5"",""437965""
","
","
","""event"",""trial"",""time""
""fullscreenenter"",""5"",""437965""
","
","854.6999999880791","","49","","","3000","1","","","images/earth.jpg","images/tutrocket2","images/tutrocket1","null","images/tutrocket1","","1","practice","null","1","","",""
"d3-animate-choice","71","729455","0.0-61.0-1.3","844","752","12","Male","true","true","true","true","""event"",""trial"",""time""
""fullscreenenter"",""5"",""437965""
","
","
","""event"",""trial"",""time""
""fullscreenenter"",""5"",""437965""
","
","2596.199999988079","","49","","","3000","1","","","images/tutgreenplanet.jpg","images/tutalien2","images/tutalien1","images/tutrocket1","images/tutalien1","images/nothing.png","2","practice","true","1","common","0","2022-02-14 21:21:04.685"
"two-step-fixation","72","730466","0.0-61.0-2.3","844","752","12","Male","true","true","true","true","""event"",""trial"",""time""
""fullscreenenter"",""5"",""437965""
","
","
","""event"",""trial"",""time""
""fullscreenenter"",""5"",""437965""
","
","","images/earth.jpg","","","","","","","","","","","","","","fixation","","","","","",""
"d3-animate-choice","73","733035","0.0-61.0-0.4","844","752","12","Male","true","true","true","true","""event"",""trial"",""time""
""fullscreenenter"",""5"",""437965""
","
","
","""event"",""trial"",""time""
""fullscreenenter"",""5"",""437965""
","
","564.0999999642372","","49","","","3000","1","","","images/earth.jpg","images/tutrocket2","images/tutrocket1","null","images/tutrocket1","","1","practice","null","1","","",""
"d3-animate-choice","74","736370","0.0-61.0-1.4","844","752","12","Male","true","true","true","true","""event"",""trial"",""time""
""fullscreenenter"",""5"",""437965""
","
","
","""event"",""trial"",""time""
""fullscreenenter"",""5"",""437965""
","
","1329.7999999523163","","49","","","3000","1","","","images/tutgreenplanet.jpg","images/tutalien2","images/tutalien1","images/tutrocket1","images/tutalien1","images/t.png","2","practice","true","1","common","1","2022-02-14 21:21:11.600"
"two-step-fixation","75","737371","0.0-61.0-2.4","844","752","12","Male","true","true","true","true","""event"",""trial"",""time""
""fullscreenenter"",""5"",""437965""
","
","
","""event"",""trial"",""time""
""fullscreenenter"",""5"",""437965""
","
","","images/earth.jpg","","","","","","","","","","","","","","fixation","","","","","",""
"d3-animate-choice","76","739508","0.0-61.0-0.5","844","752","12","Male","true","true","true","true","""event"",""trial"",""time""
""fullscreenenter"",""5"",""437965""
","
","
","""event"",""trial"",""time""
""fullscreenenter"",""5"",""437965""
","
","133.39999997615814","","49","","","3000","1","340.39999997615814","49","images/earth.jpg","images/tutrocket2","images/tutrocket1","null","images/tutrocket1","","1","practice","null","1","","",""
"d3-animate-choice","77","742297","0.0-61.0-1.5","844","752","12","Male","true","true","true","true","""event"",""trial"",""time""
""fullscreenenter"",""5"",""437965""
","
","
","""event"",""trial"",""time""
""fullscreenenter"",""5"",""437965""
","
","782.3999999761581","","49","","","3000","1","","","images/tutgreenplanet.jpg","images/tutalien2","images/tutalien1","images/tutrocket1","images/tutalien1","images/nothing.png","2","practice","true","1","common","0","2022-02-14 21:21:17.527"
"two-step-fixation","78","743302","0.0-61.0-2.5","844","752","12","Male","true","true","true","true","""event"",""trial"",""time""
""fullscreenenter"",""5"",""437965""
","
","
","""event"",""trial"",""time""
""fullscreenenter"",""5"",""437965""
","
","","images/earth.jpg","","","","","","","","","","","","","","fixation","","","","","",""
"d3-animate-choice","79","746540","0.0-61.0-0.6","844","752","12","Male","true","true","true","true","""event"",""trial"",""time""
""fullscreenenter"",""5"",""437965""
","
","
","""event"",""trial"",""time""
""fullscreenenter"",""5"",""437965""
","
","1232.1000000238419","","48","","","3000","1","","","images/earth.jpg","images/tutrocket2","images/tutrocket1","null","images/tutrocket2","","1","practice","null","2","","",""
"d3-animate-choice","80","749459","0.0-61.0-1.6","844","752","12","Male","true","true","true","true","""event"",""trial"",""time""
""fullscreenenter"",""5"",""437965""
","
","
","""event"",""trial"",""time""
""fullscreenenter"",""5"",""437965""
","
","915","","48","","","3000","1","","","images/tutyellowplanet.jpg","images/tutalien4","images/tutalien3","images/tutrocket2","images/tutalien4","images/t.png","2","practice","true","2","common","1","2022-02-14 21:21:24.690"
"two-step-fixation","81","750462","0.0-61.0-2.6","844","752","12","Male","true","true","true","true","""event"",""trial"",""time""
""fullscreenenter"",""5"",""437965""
","
","
","""event"",""trial"",""time""
""fullscreenenter"",""5"",""437965""
","
","","images/earth.jpg","","","","","","","","","","","","","","fixation","","","","","",""
"d3-animate-choice","82","753252","0.0-61.0-0.7","844","752","12","Male","true","true","true","true","""event"",""trial"",""time""
""fullscreenenter"",""5"",""437965""
","
","
","""event"",""trial"",""time""
""fullscreenenter"",""5"",""437965""
","
","787.3000000119209","","48","","","3000","1","","","images/earth.jpg","images/tutrocket2","images/tutrocket1","null","images/tutrocket2","","1","practice","null","2","","",""
"d3-animate-choice","83","755972","0.0-61.0-1.7","844","752","12","Male","true","true","true","true","""event"",""trial"",""time""
""fullscreenenter"",""5"",""437965""
","
","
","""event"",""trial"",""time""
""fullscreenenter"",""5"",""437965""
","
","715.1000000238419","","48","","","3000","1","","","images/tutyellowplanet.jpg","images/tutalien4","images/tutalien3","images/tutrocket2","images/tutalien4","images/nothing.png","2","practice","true","2","common","0","2022-02-14 21:21:31.202"
"two-step-fixation","84","756974","0.0-61.0-2.7","844","752","12","Male","true","true","true","true","""event"",""trial"",""time""
""fullscreenenter"",""5"",""437965""
","
","
","""event"",""trial"",""time""
""fullscreenenter"",""5"",""437965""
","
","","images/earth.jpg","","","","","","","","","","","","","","fixation","","","","","",""
"d3-animate-choice","85","759592","0.0-61.0-0.8","844","752","12","Male","true","true","true","true","""event"",""trial"",""time""
""fullscreenenter"",""5"",""437965""
","
","
","""event"",""trial"",""time""
""fullscreenenter"",""5"",""437965""
","
","601.5","","48","","","3000","1","","","images/earth.jpg","images/tutrocket2","images/tutrocket1","null","images/tutrocket2","","1","practice","null","2","","",""
"d3-animate-choice","86","762531","0.0-61.0-1.8","844","752","12","Male","true","true","true","true","""event"",""trial"",""time""
""fullscreenenter"",""5"",""437965""
","
","
","""event"",""trial"",""time""
""fullscreenenter"",""5"",""437965""
","
","935.3000000119209","","49","","","3000","1","","","images/tutgreenplanet.jpg","images/tutalien2","images/tutalien1","images/tutrocket2","images/tutalien1","images/nothing.png","2","practice","false","1","rare","0","2022-02-14 21:21:37.762"
"two-step-fixation","87","763536","0.0-61.0-2.8","844","752","12","Male","true","true","true","true","""event"",""trial"",""time""
""fullscreenenter"",""5"",""437965""
","
","
","""event"",""trial"",""time""
""fullscreenenter"",""5"",""437965""
","
","","images/earth.jpg","","","","","","","","","","","","","","fixation","","","","","",""
"d3-animate-choice","88","765846","0.0-61.0-0.9","844","752","12","Male","true","true","true","true","""event"",""trial"",""time""
""fullscreenenter"",""5"",""437965""
","
","
","""event"",""trial"",""time""
""fullscreenenter"",""5"",""437965""
","
","304","","49","","","3000","1","","","images/earth.jpg","images/tutrocket2","images/tutrocket1","null","images/tutrocket1","","1","practice","null","1","","",""
"d3-animate-choice","89","768564","0.0-61.0-1.9","844","752","12","Male","true","true","true","true","""event"",""trial"",""time""
""fullscreenenter"",""5"",""437965""
","
","
","""event"",""trial"",""time""
""fullscreenenter"",""5"",""437965""
","
","713","","48","","","3000","1","","","images/tutgreenplanet.jpg","images/tutalien2","images/tutalien1","images/tutrocket1","images/tutalien2","images/t.png","2","practice","true","2","common","1","2022-02-14 21:21:43.794"
"two-step-fixation","90","769568","0.0-61.0-2.9","844","752","12","Male","true","true","true","true","""event"",""trial"",""time""
""fullscreenenter"",""5"",""437965""
","
","
","""event"",""trial"",""time""
""fullscreenenter"",""5"",""437965""
","
","","images/earth.jpg","","","","","","","","","","","","","","fixation","","","","","",""
"d3-animate-choice","91","771684","0.0-61.0-0.10","844","752","12","Male","true","true","true","true","""event"",""trial"",""time""
""fullscreenenter"",""5"",""437965""
","
","
","""event"",""trial"",""time""
""fullscreenenter"",""5"",""437965""
","
","113.09999996423721","","49","","","3000","1","","","images/earth.jpg","images/tutrocket2","images/tutrocket1","null","images/tutrocket1","","1","practice","null","1","","",""
"d3-animate-choice","92","775027","0.0-61.0-1.10","844","752","12","Male","true","true","true","true","""event"",""trial"",""time""
""fullscreenenter"",""5"",""437965""
","
","
","""event"",""trial"",""time""
""fullscreenenter"",""5"",""437965""
","
","1338.199999988079","","49","","","3000","1","","","images/tutyellowplanet.jpg","images/tutalien4","images/tutalien3","images/tutrocket1","images/tutalien3","images/t.png","2","practice","false","1","rare","1","2022-02-14 21:21:50.258"
"two-step-fixation","93","776033","0.0-61.0-2.10","844","752","12","Male","true","true","true","true","""event"",""trial"",""time""
""fullscreenenter"",""5"",""437965""
","
","
","""event"",""trial"",""time""
""fullscreenenter"",""5"",""437965""
","
","","images/earth.jpg","","","","","","","","","","","","","","fixation","","","","","",""
"d3-animate-choice","94","778887","0.0-61.0-0.11","844","752","12","Male","true","true","true","true","""event"",""trial"",""time""
""fullscreenenter"",""5"",""437965""
","
","
","""event"",""trial"",""time""
""fullscreenenter"",""5"",""437965""
","
","849.9000000357628","","49","","","3000","1","","","images/earth.jpg","images/tutrocket2","images/tutrocket1","null","images/tutrocket1","","1","practice","null","1","","",""
"d3-animate-choice","95","781771","0.0-61.0-1.11","844","752","12","Male","true","true","true","true","""event"",""trial"",""time""
""fullscreenenter"",""5"",""437965""
","
","
","""event"",""trial"",""time""
""fullscreenenter"",""5"",""437965""
","
","879.1000000238419","","48","","","3000","1","","","images/tutgreenplanet.jpg","images/tutalien2","images/tutalien1","images/tutrocket1","images/tutalien2","images/nothing.png","2","practice","true","2","common","0","2022-02-14 21:21:57.001"
"two-step-fixation","96","782775","0.0-61.0-2.11","844","752","12","Male","true","true","true","true","""event"",""trial"",""time""
""fullscreenenter"",""5"",""437965""
","
","
","""event"",""trial"",""time""
""fullscreenenter"",""5"",""437965""
","
","","images/earth.jpg","","","","","","","","","","","","","","fixation","","","","","",""
"d3-animate-choice","97","785459","0.0-61.0-0.12","844","752","12","Male","true","true","true","true","""event"",""trial"",""time""
""fullscreenenter"",""5"",""437965""
","
","
","""event"",""trial"",""time""
""fullscreenenter"",""5"",""437965""
","
","681.3999999761581","","49","","","3000","1","","","images/earth.jpg","images/tutrocket2","images/tutrocket1","null","images/tutrocket1","","1","practice","null","1","","",""
"d3-animate-choice","98","789286","0.0-61.0-1.12","844","752","12","Male","true","true","true","true","""event"",""trial"",""time""
""fullscreenenter"",""5"",""437965""
","
","
","""event"",""trial"",""time""
""fullscreenenter"",""5"",""437965""
","
","1822.5","","49","","","3000","1","","","images/tutyellowplanet.jpg","images/tutalien4","images/tutalien3","images/tutrocket1","images/tutalien3","images/nothing.png","2","practice","false","1","rare","0","2022-02-14 21:22:04.516"
"two-step-fixation","99","790290","0.0-61.0-2.12","844","752","12","Male","true","true","true","true","""event"",""trial"",""time""
""fullscreenenter"",""5"",""437965""
","
","
","""event"",""trial"",""time""
""fullscreenenter"",""5"",""437965""
","
","","images/earth.jpg","","","","","","","","","","","","","","fixation","","","","","",""
"d3-animate-choice","100","793260","0.0-61.0-0.13","844","752","12","Male","true","true","true","true","""event"",""trial"",""time""
""fullscreenenter"",""5"",""437965""
","
","
","""event"",""trial"",""time""
""fullscreenenter"",""5"",""437965""
","
","964.7999999523163","","49","","","3000","1","","","images/earth.jpg","images/tutrocket2","images/tutrocket1","null","images/tutrocket1","","1","practice","null","1","","",""
"d3-animate-choice","101","796395","0.0-61.0-1.13","844","752","12","Male","true","true","true","true","""event"",""trial"",""time""
""fullscreenenter"",""5"",""437965""
","
","
","""event"",""trial"",""time""
""fullscreenenter"",""5"",""437965""
","
","1130.699999988079","","48","","","3000","1","","","images/tutgreenplanet.jpg","images/tutalien2","images/tutalien1","images/tutrocket1","images/tutalien2","images/nothing.png","2","practice","true","2","common","0","2022-02-14 21:22:11.626"
"two-step-fixation","102","797401","0.0-61.0-2.13","844","752","12","Male","true","true","true","true","""event"",""trial"",""time""
""fullscreenenter"",""5"",""437965""
","
","
","""event"",""trial"",""time""
""fullscreenenter"",""5"",""437965""
","
","","images/earth.jpg","","","","","","","","","","","","","","fixation","","","","","",""
"d3-animate-choice","103","800086","0.0-61.0-0.14","844","752","12","Male","true","true","true","true","""event"",""trial"",""time""
""fullscreenenter"",""5"",""437965""
","
","
","""event"",""trial"",""time""
""fullscreenenter"",""5"",""437965""
","
","681.3000000119209","","49","","","3000","1","","","images/earth.jpg","images/tutrocket2","images/tutrocket1","null","images/tutrocket1","","1","practice","null","1","","",""
"d3-animate-choice","104","803171","0.0-61.0-1.14","844","752","12","Male","true","true","true","true","""event"",""trial"",""time""
""fullscreenenter"",""5"",""437965""
","
","
","""event"",""trial"",""time""
""fullscreenenter"",""5"",""437965""
","
","1080.2999999523163","","48","","","3000","1","","","images/tutyellowplanet.jpg","images/tutalien4","images/tutalien3","images/tutrocket1","images/tutalien4","images/t.png","2","practice","false","2","rare","1","2022-02-14 21:22:18.401"
"two-step-fixation","105","804174","0.0-61.0-2.14","844","752","12","Male","true","true","true","true","""event"",""trial"",""time""
""fullscreenenter"",""5"",""437965""
","
","
","""event"",""trial"",""time""
""fullscreenenter"",""5"",""437965""
","
","","images/earth.jpg","","","","","","","","","","","","","","fixation","","","","","",""
"d3-animate-choice","106","807227","0.0-61.0-0.15","844","752","12","Male","true","true","true","true","""event"",""trial"",""time""
""fullscreenenter"",""5"",""437965""
","
","
","""event"",""trial"",""time""
""fullscreenenter"",""5"",""437965""
","
","1048.5","","49","","","3000","1","","","images/earth.jpg","images/tutrocket2","images/tutrocket1","null","images/tutrocket1","","1","practice","null","1","","",""
"d3-animate-choice","107","810591","0.0-61.0-1.15","844","752","12","Male","true","true","true","true","""event"",""trial"",""time""
""fullscreenenter"",""5"",""437965""
","
","
","""event"",""trial"",""time""
""fullscreenenter"",""5"",""437965""
","
","1359","","49","","","3000","1","","","images/tutgreenplanet.jpg","images/tutalien2","images/tutalien1","images/tutrocket1","images/tutalien1","images/nothing.png","2","practice","true","1","common","0","2022-02-14 21:22:25.821"
"two-step-fixation","108","811595","0.0-61.0-2.15","844","752","12","Male","true","true","true","true","""event"",""trial"",""time""
""fullscreenenter"",""5"",""437965""
","
","
","""event"",""trial"",""time""
""fullscreenenter"",""5"",""437965""
","
","","images/earth.jpg","","","","","","","","","","","","","","fixation","","","","","",""
"d3-animate-choice","109","814228","0.0-61.0-0.16","844","752","12","Male","true","true","true","true","""event"",""trial"",""time""
""fullscreenenter"",""5"",""437965""
","
","
","""event"",""trial"",""time""
""fullscreenenter"",""5"",""437965""
","
","627.6000000238419","","49","","","3000","1","","","images/earth.jpg","images/tutrocket2","images/tutrocket1","null","images/tutrocket1","","1","practice","null","1","","",""
"d3-animate-choice","110","817843","0.0-61.0-1.16","844","752","12","Male","true","true","true","true","""event"",""trial"",""time""
""fullscreenenter"",""5"",""437965""
","
","
","""event"",""trial"",""time""
""fullscreenenter"",""5"",""437965""
","
","1298.3999999761581","","57","","","3000","1","1610.199999988079,1834.5999999642372,2938.199999988079,3506.399999976158","48,48,49,49","images/tutgreenplanet.jpg","images/tutalien2","images/tutalien1","images/tutrocket1","images/tutalien2","images/nothing.png","2","practice","true","","common","0","2022-02-14 21:22:33.073"
"two-step-fixation","111","818848","0.0-61.0-2.16","844","752","12","Male","true","true","true","true","""event"",""trial"",""time""
""fullscreenenter"",""5"",""437965""
""blur"",""112"",""819602""
""focus"",""112"",""821946""
","""event"",""trial"",""time""
""blur"",""112"",""819602""
","""event"",""trial"",""time""
""focus"",""112"",""821946""
","""event"",""trial"",""time""
""fullscreenenter"",""5"",""437965""
","
","","images/earth.jpg","","","","","","","","","","","","","","fixation","","","","","",""
"d3-animate-choice","112","822852","0.0-61.0-0.17","844","752","12","Male","true","true","true","true","""event"",""trial"",""time""
""fullscreenenter"",""5"",""437965""
""blur"",""112"",""819602""
""focus"",""112"",""821946""
","""event"",""trial"",""time""
""blur"",""112"",""819602""
","""event"",""trial"",""time""
""focus"",""112"",""821946""
","""event"",""trial"",""time""
""fullscreenenter"",""5"",""437965""
","
","749.6999999880791","","91","","","3000","1","3478.5,3694.5","48,48","images/earth.jpg","images/tutrocket2","images/tutrocket1","null","images/tutrocket2","","1","practice","null","","","",""
"d3-animate-choice","113","826692","0.0-61.0-1.17","844","752","12","Male","true","true","true","true","""event"",""trial"",""time""
""fullscreenenter"",""5"",""437965""
""blur"",""112"",""819602""
""focus"",""112"",""821946""
","""event"",""trial"",""time""
""blur"",""112"",""819602""
","""event"",""trial"",""time""
""focus"",""112"",""821946""
","""event"",""trial"",""time""
""fullscreenenter"",""5"",""437965""
","
","1832.3999999761581","","48","","","3000","1","","","images/tutyellowplanet.jpg","images/tutalien4","images/tutalien3","images/tutrocket2","images/tutalien4","images/nothing.png","2","practice","true","2","common","0","2022-02-14 21:22:41.922"
"two-step-fixation","114","827696","0.0-61.0-2.17","844","752","12","Male","true","true","true","true","""event"",""trial"",""time""
""fullscreenenter"",""5"",""437965""
""blur"",""112"",""819602""
""focus"",""112"",""821946""
","""event"",""trial"",""time""
""blur"",""112"",""819602""
","""event"",""trial"",""time""
""focus"",""112"",""821946""
","""event"",""trial"",""time""
""fullscreenenter"",""5"",""437965""
","
","","images/earth.jpg","","","","","","","","","","","","","","fixation","","","","","",""
"d3-animate-choice","115","830573","0.0-61.0-0.18","844","752","12","Male","true","true","true","true","""event"",""trial"",""time""
""fullscreenenter"",""5"",""437965""
""blur"",""112"",""819602""
""focus"",""112"",""821946""
","""event"",""trial"",""time""
""blur"",""112"",""819602""
","""event"",""trial"",""time""
""focus"",""112"",""821946""
","""event"",""trial"",""time""
""fullscreenenter"",""5"",""437965""
","
","871.8000000119209","","49","","","3000","1","","","images/earth.jpg","images/tutrocket2","images/tutrocket1","null","images/tutrocket1","","1","practice","null","1","","",""
"d3-animate-choice","116","833358","0.0-61.0-1.18","844","752","12","Male","true","true","true","true","""event"",""trial"",""time""
""fullscreenenter"",""5"",""437965""
""blur"",""112"",""819602""
""focus"",""112"",""821946""
","""event"",""trial"",""time""
""blur"",""112"",""819602""
","""event"",""trial"",""time""
""focus"",""112"",""821946""
","""event"",""trial"",""time""
""fullscreenenter"",""5"",""437965""
","
","782.7999999523163","","48","","","3000","1","","","images/tutyellowplanet.jpg","images/tutalien4","images/tutalien3","images/tutrocket1","images/tutalien4","images/t.png","2","practice","false","2","rare","1","2022-02-14 21:22:48.588"
"two-step-fixation","117","834362","0.0-61.0-2.18","844","752","12","Male","true","true","true","true","""event"",""trial"",""time""
""fullscreenenter"",""5"",""437965""
""blur"",""112"",""819602""
""focus"",""112"",""821946""
","""event"",""trial"",""time""
""blur"",""112"",""819602""
","""event"",""trial"",""time""
""focus"",""112"",""821946""
","""event"",""trial"",""time""
""fullscreenenter"",""5"",""437965""
","
","","images/earth.jpg","","","","","","","","","","","","","","fixation","","","","","",""
"d3-animate-choice","118","836787","0.0-61.0-0.19","844","752","12","Male","true","true","true","true","""event"",""trial"",""time""
""fullscreenenter"",""5"",""437965""
""blur"",""112"",""819602""
""focus"",""112"",""821946""
","""event"",""trial"",""time""
""blur"",""112"",""819602""
","""event"",""trial"",""time""
""focus"",""112"",""821946""
","""event"",""trial"",""time""
""fullscreenenter"",""5"",""437965""
","
","420.39999997615814","","49","","","3000","1","","","images/earth.jpg","images/tutrocket2","images/tutrocket1","null","images/tutrocket1","","1","practice","null","1","","",""
"d3-animate-choice","119","839196","0.0-61.0-1.19","844","752","12","Male","true","true","true","true","""event"",""trial"",""time""
""fullscreenenter"",""5"",""437965""
""blur"",""112"",""819602""
""focus"",""112"",""821946""
","""event"",""trial"",""time""
""blur"",""112"",""819602""
","""event"",""trial"",""time""
""focus"",""112"",""821946""
","""event"",""trial"",""time""
""fullscreenenter"",""5"",""437965""
","
","403.19999998807907","","48","","","3000","1","","","images/tutyellowplanet.jpg","images/tutalien4","images/tutalien3","images/tutrocket1","images/tutalien4","images/nothing.png","2","practice","false","2","rare","0","2022-02-14 21:22:54.426"
"two-step-fixation","120","840198","0.0-61.0-2.19","844","752","12","Male","true","true","true","true","""event"",""trial"",""time""
""fullscreenenter"",""5"",""437965""
""blur"",""112"",""819602""
""focus"",""112"",""821946""
","""event"",""trial"",""time""
""blur"",""112"",""819602""
","""event"",""trial"",""time""
""focus"",""112"",""821946""
","""event"",""trial"",""time""
""fullscreenenter"",""5"",""437965""
","
","","images/earth.jpg","","","","","","","","","","","","","","fixation","","","","","",""
"d3-instructions","121","850730","0.0-62.0","844","752","12","Male","true","true","true","true","""event"",""trial"",""time""
""fullscreenenter"",""5"",""437965""
""blur"",""112"",""819602""
""focus"",""112"",""821946""
","""event"",""trial"",""time""
""blur"",""112"",""819602""
","""event"",""trial"",""time""
""focus"",""112"",""821946""
","""event"",""trial"",""time""
""fullscreenenter"",""5"",""437965""
","
","","","","","","","","","","","","","","","","","","","","","",""
"audio-keyboard-response","122","860258","0.0-63.0","844","752","12","Male","true","true","true","true","""event"",""trial"",""time""
""fullscreenenter"",""5"",""437965""
""blur"",""112"",""819602""
""focus"",""112"",""821946""
","""event"",""trial"",""time""
""blur"",""112"",""819602""
","""event"",""trial"",""time""
""focus"",""112"",""821946""
","""event"",""trial"",""time""
""fullscreenenter"",""5"",""437965""
","
","9528","audio/instructions/treasure_feedback.wav","32","","","","","","","","","","","","","","","","","","",""
"d3-instructions","123","885547","0.0-64.0","844","752","12","Male","true","true","true","true","""event"",""trial"",""time""
""fullscreenenter"",""5"",""437965""
""blur"",""112"",""819602""
""focus"",""112"",""821946""
","""event"",""trial"",""time""
""blur"",""112"",""819602""
","""event"",""trial"",""time""
""focus"",""112"",""821946""
","""event"",""trial"",""time""
""fullscreenenter"",""5"",""437965""
","
","","","","","","","","","","","","","","","","","","","","","",""
"d3-instructions","124","905843","0.0-65.0","844","752","12","Male","true","true","true","true","""event"",""trial"",""time""
""fullscreenenter"",""5"",""437965""
""blur"",""112"",""819602""
""focus"",""112"",""821946""
","""event"",""trial"",""time""
""blur"",""112"",""819602""
","""event"",""trial"",""time""
""focus"",""112"",""821946""
","""event"",""trial"",""time""
""fullscreenenter"",""5"",""437965""
","
","","","","","","","","","","","","","","","","","","","","","",""
"d3-instructions","125","907716","0.0-66.0","844","752","12","Male","true","true","true","true","""event"",""trial"",""time""
""fullscreenenter"",""5"",""437965""
""blur"",""112"",""819602""
""focus"",""112"",""821946""
","""event"",""trial"",""time""
""blur"",""112"",""819602""
","""event"",""trial"",""time""
""focus"",""112"",""821946""
","""event"",""trial"",""time""
""fullscreenenter"",""5"",""437965""
","
","","","","","","","","","","","","","","","","","","","","","",""
"d3-instructions","126","908323","0.0-67.0","844","752","12","Male","true","true","true","true","""event"",""trial"",""time""
""fullscreenenter"",""5"",""437965""
""blur"",""112"",""819602""
""focus"",""112"",""821946""
","""event"",""trial"",""time""
""blur"",""112"",""819602""
","""event"",""trial"",""time""
""focus"",""112"",""821946""
","""event"",""trial"",""time""
""fullscreenenter"",""5"",""437965""
","
","","","","","","","","","","","","","","","","","","","","","",""
"d3-instructions","127","908730","0.0-68.0","844","752","12","Male","true","true","true","true","""event"",""trial"",""time""
""fullscreenenter"",""5"",""437965""
""blur"",""112"",""819602""
""focus"",""112"",""821946""
","""event"",""trial"",""time""
""blur"",""112"",""819602""
","""event"",""trial"",""time""
""focus"",""112"",""821946""
","""event"",""trial"",""time""
""fullscreenenter"",""5"",""437965""
","
","","","","","","","","","","","","","","","","","","","","","",""
"instructions-quiz","128","913002","0.0-69.0","844","752","12","Male","true","true","true","true","""event"",""trial"",""time""
""fullscreenenter"",""5"",""437965""
""blur"",""112"",""819602""
""focus"",""112"",""821946""
","""event"",""trial"",""time""
""blur"",""112"",""819602""
","""event"",""trial"",""time""
""focus"",""112"",""821946""
","""event"",""trial"",""time""
""fullscreenenter"",""5"",""437965""
","
","4269.100000023842","audio/quiz/Q1_Prompt.wav","","1","","","","","","","","","","","","","","","","","",""
"audio-keyboard-response","129","922173","0.0-70.0","844","752","12","Male","true","true","true","true","""event"",""trial"",""time""
""fullscreenenter"",""5"",""437965""
""blur"",""112"",""819602""
""focus"",""112"",""821946""
","""event"",""trial"",""time""
""blur"",""112"",""819602""
","""event"",""trial"",""time""
""focus"",""112"",""821946""
","""event"",""trial"",""time""
""fullscreenenter"",""5"",""437965""
","
","null","audio/quiz/Q1_Correct.wav","null","","","","","","","","","","","","","","","","","","",""
"instructions-quiz","130","926402","0.0-71.0","844","752","12","Male","true","true","true","true","""event"",""trial"",""time""
""fullscreenenter"",""5"",""437965""
""blur"",""112"",""819602""
""focus"",""112"",""821946""
","""event"",""trial"",""time""
""blur"",""112"",""819602""
","""event"",""trial"",""time""
""focus"",""112"",""821946""
","""event"",""trial"",""time""
""fullscreenenter"",""5"",""437965""
","
","4226.699999988079","audio/quiz/Q2_Prompt.wav","","0","","","","","","","","","","","","","","","","","",""
"audio-keyboard-response","131","939273","0.0-72.0","844","752","12","Male","true","true","true","true","""event"",""trial"",""time""
""fullscreenenter"",""5"",""437965""
""blur"",""112"",""819602""
""focus"",""112"",""821946""
","""event"",""trial"",""time""
""blur"",""112"",""819602""
","""event"",""trial"",""time""
""focus"",""112"",""821946""
","""event"",""trial"",""time""
""fullscreenenter"",""5"",""437965""
","
","null","audio/quiz/Q2_Correct.wav","null","","","","","","","","","","","","","","","","","","",""
"instructions-quiz","132","942810","0.0-73.0","844","752","12","Male","true","true","true","true","""event"",""trial"",""time""
""fullscreenenter"",""5"",""437965""
""blur"",""112"",""819602""
""focus"",""112"",""821946""
","""event"",""trial"",""time""
""blur"",""112"",""819602""
","""event"",""trial"",""time""
""focus"",""112"",""821946""
","""event"",""trial"",""time""
""fullscreenenter"",""5"",""437965""
","
","3534.900000035763","audio/quiz/Q3_Prompt.wav","","1","","","","","","","","","","","","","","","","","",""
"audio-keyboard-response","133","948603","0.0-74.0","844","752","12","Male","true","true","true","true","""event"",""trial"",""time""
""fullscreenenter"",""5"",""437965""
""blur"",""112"",""819602""
""focus"",""112"",""821946""
","""event"",""trial"",""time""
""blur"",""112"",""819602""
","""event"",""trial"",""time""
""focus"",""112"",""821946""
","""event"",""trial"",""time""
""fullscreenenter"",""5"",""437965""
","
","null","audio/quiz/Q3_Correct.wav","null","","","","","","","","","","","","","","","","","","",""
"d3-instructions","134","952099","0.0-75.0","844","752","12","Male","true","true","true","true","""event"",""trial"",""time""
""fullscreenenter"",""5"",""437965""
""blur"",""112"",""819602""
""focus"",""112"",""821946""
","""event"",""trial"",""time""
""blur"",""112"",""819602""
","""event"",""trial"",""time""
""focus"",""112"",""821946""
","""event"",""trial"",""time""
""fullscreenenter"",""5"",""437965""
","
","","","","","","","","","","","","","","","","","","","","","",""
"d3-animate-choice","135","956115","0.0-76.0-0.0","844","752","12","Male","true","true","true","true","""event"",""trial"",""time""
""fullscreenenter"",""5"",""437965""
""blur"",""112"",""819602""
""focus"",""112"",""821946""
","""event"",""trial"",""time""
""blur"",""112"",""819602""
","""event"",""trial"",""time""
""focus"",""112"",""821946""
","""event"",""trial"",""time""
""fullscreenenter"",""5"",""437965""
","
","2067.699999988079","","48","","","3000","1","","","images/earth.jpg","images/rocket2","images/rocket1","null","images/rocket2","","1","real","null","2","","",""
"d3-animate-choice","136","959139","0.0-76.0-1.0","844","752","12","Male","true","true","true","true","""event"",""trial"",""time""
""fullscreenenter"",""5"",""437965""
""blur"",""112"",""819602""
""focus"",""112"",""821946""
","""event"",""trial"",""time""
""blur"",""112"",""819602""
","""event"",""trial"",""time""
""focus"",""112"",""821946""
","""event"",""trial"",""time""
""fullscreenenter"",""5"",""437965""
","
","1019.0999999642372","","49","","","3000","1","","","images/purpleplanet.jpg","images/alien4","images/alien3","images/rocket2","images/alien3","images/t.png","2","real","true","1","common","1","2022-02-14 21:24:54.370"
"two-step-fixation","137","960145","0.0-76.0-2.0","844","752","12","Male","true","true","true","true","""event"",""trial"",""time""
""fullscreenenter"",""5"",""437965""
""blur"",""112"",""819602""
""focus"",""112"",""821946""
","""event"",""trial"",""time""
""blur"",""112"",""819602""
","""event"",""trial"",""time""
""focus"",""112"",""821946""
","""event"",""trial"",""time""
""fullscreenenter"",""5"",""437965""
","
","","images/earth.jpg","","","","","","","","","","","","","","fixation","","","","","",""
"d3-animate-choice","138","962956","0.0-76.0-0.1","844","752","12","Male","true","true","true","true","""event"",""trial"",""time""
""fullscreenenter"",""5"",""437965""
""blur"",""112"",""819602""
""focus"",""112"",""821946""
","""event"",""trial"",""time""
""blur"",""112"",""819602""
","""event"",""trial"",""time""
""focus"",""112"",""821946""
","""event"",""trial"",""time""
""fullscreenenter"",""5"",""437965""
","
","805.5","","49","","","3000","1","","","images/earth.jpg","images/rocket2","images/rocket1","null","images/rocket1","","1","real","null","1","","",""
"d3-animate-choice","139","966493","0.0-76.0-1.1","844","752","12","Male","true","true","true","true","""event"",""trial"",""time""
""fullscreenenter"",""5"",""437965""
""blur"",""112"",""819602""
""focus"",""112"",""821946""
","""event"",""trial"",""time""
""blur"",""112"",""819602""
","""event"",""trial"",""time""
""focus"",""112"",""821946""
","""event"",""trial"",""time""
""fullscreenenter"",""5"",""437965""
","
","1525.800000011921","","49","","","3000","1","","","images/purpleplanet.jpg","images/alien4","images/alien3","images/rocket1","images/alien3","images/nothing.png","2","real","false","1","rare","0","2022-02-14 21:25:01.723"
"two-step-fixation","140","967503","0.0-76.0-2.1","844","752","12","Male","true","true","true","true","""event"",""trial"",""time""
""fullscreenenter"",""5"",""437965""
""blur"",""112"",""819602""
""focus"",""112"",""821946""
","""event"",""trial"",""time""
""blur"",""112"",""819602""
","""event"",""trial"",""time""
""focus"",""112"",""821946""
","""event"",""trial"",""time""
""fullscreenenter"",""5"",""437965""
","
","","images/earth.jpg","","","","","","","","","","","","","","fixation","","","","","",""
"d3-animate-choice","141","969900","0.0-76.0-0.2","844","752","12","Male","true","true","true","true","""event"",""trial"",""time""
""fullscreenenter"",""5"",""437965""
""blur"",""112"",""819602""
""focus"",""112"",""821946""
","""event"",""trial"",""time""
""blur"",""112"",""819602""
","""event"",""trial"",""time""
""focus"",""112"",""821946""
","""event"",""trial"",""time""
""fullscreenenter"",""5"",""437965""
","
","391.5","","49","","","3000","1","","","images/earth.jpg","images/rocket2","images/rocket1","null","images/rocket1","","1","real","null","1","","",""
"d3-animate-choice","142","972419","0.0-76.0-1.2","844","752","12","Male","true","true","true","true","""event"",""trial"",""time""
""fullscreenenter"",""5"",""437965""
""blur"",""112"",""819602""
""focus"",""112"",""821946""
","""event"",""trial"",""time""
""blur"",""112"",""819602""
","""event"",""trial"",""time""
""focus"",""112"",""821946""
","""event"",""trial"",""time""
""fullscreenenter"",""5"",""437965""
","
","514.0999999642372","","48","","","3000","1","","","images/purpleplanet.jpg","images/alien4","images/alien3","images/rocket1","images/alien4","images/t.png","2","real","false","2","rare","1","2022-02-14 21:25:07.649"
"two-step-fixation","143","973423","0.0-76.0-2.2","844","752","12","Male","true","true","true","true","""event"",""trial"",""time""
""fullscreenenter"",""5"",""437965""
""blur"",""112"",""819602""
""focus"",""112"",""821946""
","""event"",""trial"",""time""
""blur"",""112"",""819602""
","""event"",""trial"",""time""
""focus"",""112"",""821946""
","""event"",""trial"",""time""
""fullscreenenter"",""5"",""437965""
","
","","images/earth.jpg","","","","","","","","","","","","","","fixation","","","","","",""
"d3-animate-choice","144","976387","0.0-76.0-0.3","844","752","12","Male","true","true","true","true","""event"",""trial"",""time""
""fullscreenenter"",""5"",""437965""
""blur"",""112"",""819602""
""focus"",""112"",""821946""
","""event"",""trial"",""time""
""blur"",""112"",""819602""
","""event"",""trial"",""time""
""focus"",""112"",""821946""
","""event"",""trial"",""time""
""fullscreenenter"",""5"",""437965""
","
","959.5999999642372","","48","","","3000","1","","","images/earth.jpg","images/rocket2","images/rocket1","null","images/rocket2","","1","real","null","2","","",""
"d3-animate-choice","145","979303","0.0-76.0-1.3","844","752","12","Male","true","true","true","true","""event"",""trial"",""time""
""fullscreenenter"",""5"",""437965""
""blur"",""112"",""819602""
""focus"",""112"",""821946""
","""event"",""trial"",""time""
""blur"",""112"",""819602""
","""event"",""trial"",""time""
""focus"",""112"",""821946""
","""event"",""trial"",""time""
""fullscreenenter"",""5"",""437965""
","
","904","","49","","","3000","1","","","images/purpleplanet.jpg","images/alien4","images/alien3","images/rocket2","images/alien3","images/nothing.png","2","real","true","1","common","0","2022-02-14 21:25:14.533"
"two-step-fixation","146","980323","0.0-76.0-2.3","844","752","12","Male","true","true","true","true","""event"",""trial"",""time""
""fullscreenenter"",""5"",""437965""
""blur"",""112"",""819602""
""focus"",""112"",""821946""
","""event"",""trial"",""time""
""blur"",""112"",""819602""
","""event"",""trial"",""time""
""focus"",""112"",""821946""
","""event"",""trial"",""time""
""fullscreenenter"",""5"",""437965""
","
","","images/earth.jpg","","","","","","","","","","","","","","fixation","","","","","",""
"d3-animate-choice","147","983276","0.0-76.0-0.4","844","752","12","Male","true","true","true","true","""event"",""trial"",""time""
""fullscreenenter"",""5"",""437965""
""blur"",""112"",""819602""
""focus"",""112"",""821946""
","""event"",""trial"",""time""
""blur"",""112"",""819602""
","""event"",""trial"",""time""
""focus"",""112"",""821946""
","""event"",""trial"",""time""
""fullscreenenter"",""5"",""437965""
","
","947.6999999880791","","49","","","3000","1","","","images/earth.jpg","images/rocket2","images/rocket1","null","images/rocket1","","1","real","null","1","","",""
"d3-animate-choice","148","986803","0.0-76.0-1.4","844","752","12","Male","true","true","true","true","""event"",""trial"",""time""
""fullscreenenter"",""5"",""437965""
""blur"",""112"",""819602""
""focus"",""112"",""821946""
","""event"",""trial"",""time""
""blur"",""112"",""819602""
","""event"",""trial"",""time""
""focus"",""112"",""821946""
","""event"",""trial"",""time""
""fullscreenenter"",""5"",""437965""
","
","1522.199999988079","","48","","","3000","1","","","images/purpleplanet.jpg","images/alien4","images/alien3","images/rocket1","images/alien4","images/t.png","2","real","false","2","rare","1","2022-02-14 21:25:22.033"
"two-step-fixation","149","987808","0.0-76.0-2.4","844","752","12","Male","true","true","true","true","""event"",""trial"",""time""
""fullscreenenter"",""5"",""437965""
""blur"",""112"",""819602""
""focus"",""112"",""821946""
","""event"",""trial"",""time""
""blur"",""112"",""819602""
","""event"",""trial"",""time""
""focus"",""112"",""821946""
","""event"",""trial"",""time""
""fullscreenenter"",""5"",""437965""
","
","","images/earth.jpg","","","","","","","","","","","","","","fixation","","","","","",""
"d3-animate-choice","150","990971","0.0-76.0-0.5","844","752","12","Male","true","true","true","true","""event"",""trial"",""time""
""fullscreenenter"",""5"",""437965""
""blur"",""112"",""819602""
""focus"",""112"",""821946""
","""event"",""trial"",""time""
""blur"",""112"",""819602""
","""event"",""trial"",""time""
""focus"",""112"",""821946""
","""event"",""trial"",""time""
""fullscreenenter"",""5"",""437965""
","
","809.3000000119209","","192","","","3000","1","1157","49","images/earth.jpg","images/rocket2","images/rocket1","null","images/rocket1","","1","real","null","","","",""
"d3-animate-choice","151","993868","0.0-76.0-1.5","844","752","12","Male","true","true","true","true","""event"",""trial"",""time""
""fullscreenenter"",""5"",""437965""
""blur"",""112"",""819602""
""focus"",""112"",""821946""
","""event"",""trial"",""time""
""blur"",""112"",""819602""
","""event"",""trial"",""time""
""focus"",""112"",""821946""
","""event"",""trial"",""time""
""fullscreenenter"",""5"",""437965""
","
","891.5","","48","","","3000","1","","","images/purpleplanet.jpg","images/alien4","images/alien3","images/rocket1","images/alien4","images/nothing.png","2","real","false","2","rare","0","2022-02-14 21:25:29.098"
"two-step-fixation","152","994873","0.0-76.0-2.5","844","752","12","Male","true","true","true","true","""event"",""trial"",""time""
""fullscreenenter"",""5"",""437965""
""blur"",""112"",""819602""
""focus"",""112"",""821946""
","""event"",""trial"",""time""
""blur"",""112"",""819602""
","""event"",""trial"",""time""
""focus"",""112"",""821946""
","""event"",""trial"",""time""
""fullscreenenter"",""5"",""437965""
","
","","images/earth.jpg","","","","","","","","","","","","","","fixation","","","","","",""
"d3-animate-choice","153","998027","0.0-76.0-0.6","844","752","12","Male","true","true","true","true","""event"",""trial"",""time""
""fullscreenenter"",""5"",""437965""
""blur"",""112"",""819602""
""focus"",""112"",""821946""
","""event"",""trial"",""time""
""blur"",""112"",""819602""
","""event"",""trial"",""time""
""focus"",""112"",""821946""
","""event"",""trial"",""time""
""fullscreenenter"",""5"",""437965""
","
","1149.199999988079","","49","","","3000","1","","","images/earth.jpg","images/rocket2","images/rocket1","null","images/rocket1","","1","real","null","1","","",""
"d3-animate-choice","154","1001111","0.0-76.0-1.6","844","752","12","Male","true","true","true","true","""event"",""trial"",""time""
""fullscreenenter"",""5"",""437965""
""blur"",""112"",""819602""
""focus"",""112"",""821946""
","""event"",""trial"",""time""
""blur"",""112"",""819602""
","""event"",""trial"",""time""
""focus"",""112"",""821946""
","""event"",""trial"",""time""
""fullscreenenter"",""5"",""437965""
","
","1078","","48","","","3000","1","","","images/redplanet1.jpg","images/alien2","images/alien1","images/rocket1","images/alien2","images/t.png","2","real","true","2","common","1","2022-02-14 21:25:36.341"
"two-step-fixation","155","1002117","0.0-76.0-2.6","844","752","12","Male","true","true","true","true","""event"",""trial"",""time""
""fullscreenenter"",""5"",""437965""
""blur"",""112"",""819602""
""focus"",""112"",""821946""
","""event"",""trial"",""time""
""blur"",""112"",""819602""
","""event"",""trial"",""time""
""focus"",""112"",""821946""
","""event"",""trial"",""time""
""fullscreenenter"",""5"",""437965""
","
","","images/earth.jpg","","","","","","","","","","","","","","fixation","","","","","",""
"d3-animate-choice","156","1004715","0.0-76.0-0.7","844","752","12","Male","true","true","true","true","""event"",""trial"",""time""
""fullscreenenter"",""5"",""437965""
""blur"",""112"",""819602""
""focus"",""112"",""821946""
","""event"",""trial"",""time""
""blur"",""112"",""819602""
","""event"",""trial"",""time""
""focus"",""112"",""821946""
","""event"",""trial"",""time""
""fullscreenenter"",""5"",""437965""
","
","592.8999999761581","","49","","","3000","1","","","images/earth.jpg","images/rocket2","images/rocket1","null","images/rocket1","","1","real","null","1","","",""
"d3-animate-choice","157","1007451","0.0-76.0-1.7","844","752","12","Male","true","true","true","true","""event"",""trial"",""time""
""fullscreenenter"",""5"",""437965""
""blur"",""112"",""819602""
""focus"",""112"",""821946""
","""event"",""trial"",""time""
""blur"",""112"",""819602""
","""event"",""trial"",""time""
""focus"",""112"",""821946""
","""event"",""trial"",""time""
""fullscreenenter"",""5"",""437965""
","
","730.5999999642372","","48","","","3000","1","","","images/redplanet1.jpg","images/alien2","images/alien1","images/rocket1","images/alien2","images/t.png","2","real","true","2","common","1","2022-02-14 21:25:42.681"
"two-step-fixation","158","1008456","0.0-76.0-2.7","844","752","12","Male","true","true","true","true","""event"",""trial"",""time""
""fullscreenenter"",""5"",""437965""
""blur"",""112"",""819602""
""focus"",""112"",""821946""
","""event"",""trial"",""time""
""blur"",""112"",""819602""
","""event"",""trial"",""time""
""focus"",""112"",""821946""
","""event"",""trial"",""time""
""fullscreenenter"",""5"",""437965""
","
","","images/earth.jpg","","","","","","","","","","","","","","fixation","","","","","",""
"d3-animate-choice","159","1011503","0.0-76.0-0.8","844","752","12","Male","true","true","true","true","""event"",""trial"",""time""
""fullscreenenter"",""5"",""437965""
""blur"",""112"",""819602""
""focus"",""112"",""821946""
","""event"",""trial"",""time""
""blur"",""112"",""819602""
","""event"",""trial"",""time""
""focus"",""112"",""821946""
","""event"",""trial"",""time""
""fullscreenenter"",""5"",""437965""
","
","1041.8999999761581","","48","","","3000","1","","","images/earth.jpg","images/rocket2","images/rocket1","null","images/rocket2","","1","real","null","2","","",""
"d3-animate-choice","160","1014075","0.0-76.0-1.8","844","752","12","Male","true","true","true","true","""event"",""trial"",""time""
""fullscreenenter"",""5"",""437965""
""blur"",""112"",""819602""
""focus"",""112"",""821946""
","""event"",""trial"",""time""
""blur"",""112"",""819602""
","""event"",""trial"",""time""
""focus"",""112"",""821946""
","""event"",""trial"",""time""
""fullscreenenter"",""5"",""437965""
","
","567.3999999761581","","48","","","3000","1","","","images/purpleplanet.jpg","images/alien4","images/alien3","images/rocket2","images/alien4","images/t.png","2","real","true","2","common","1","2022-02-14 21:25:49.305"
"two-step-fixation","161","1015079","0.0-76.0-2.8","844","752","12","Male","true","true","true","true","""event"",""trial"",""time""
""fullscreenenter"",""5"",""437965""
""blur"",""112"",""819602""
""focus"",""112"",""821946""
","""event"",""trial"",""time""
""blur"",""112"",""819602""
","""event"",""trial"",""time""
""focus"",""112"",""821946""
","""event"",""trial"",""time""
""fullscreenenter"",""5"",""437965""
","
","","images/earth.jpg","","","","","","","","","","","","","","fixation","","","","","",""
"d3-animate-choice","162","1018011","0.0-76.0-0.9","844","752","12","Male","true","true","true","true","""event"",""trial"",""time""
""fullscreenenter"",""5"",""437965""
""blur"",""112"",""819602""
""focus"",""112"",""821946""
","""event"",""trial"",""time""
""blur"",""112"",""819602""
","""event"",""trial"",""time""
""focus"",""112"",""821946""
","""event"",""trial"",""time""
""fullscreenenter"",""5"",""437965""
","
","927.1000000238419","","49","","","3000","1","","","images/earth.jpg","images/rocket2","images/rocket1","null","images/rocket1","","1","real","null","1","","",""
"d3-animate-choice","163","1020963","0.0-76.0-1.9","844","752","12","Male","true","true","true","true","""event"",""trial"",""time""
""fullscreenenter"",""5"",""437965""
""blur"",""112"",""819602""
""focus"",""112"",""821946""
","""event"",""trial"",""time""
""blur"",""112"",""819602""
","""event"",""trial"",""time""
""focus"",""112"",""821946""
","""event"",""trial"",""time""
""fullscreenenter"",""5"",""437965""
","
","946.5999999642372","","48","","","3000","1","","","images/redplanet1.jpg","images/alien2","images/alien1","images/rocket1","images/alien2","images/nothing.png","2","real","true","2","common","0","2022-02-14 21:25:56.193"
"two-step-fixation","164","1021967","0.0-76.0-2.9","844","752","12","Male","true","true","true","true","""event"",""trial"",""time""
""fullscreenenter"",""5"",""437965""
""blur"",""112"",""819602""
""focus"",""112"",""821946""
","""event"",""trial"",""time""
""blur"",""112"",""819602""
","""event"",""trial"",""time""
""focus"",""112"",""821946""
","""event"",""trial"",""time""
""fullscreenenter"",""5"",""437965""
","
","","images/earth.jpg","","","","","","","","","","","","","","fixation","","","","","",""
"d3-animate-choice","165","1024139","0.0-76.0-0.10","844","752","12","Male","true","true","true","true","""event"",""trial"",""time""
""fullscreenenter"",""5"",""437965""
""blur"",""112"",""819602""
""focus"",""112"",""821946""
","""event"",""trial"",""time""
""blur"",""112"",""819602""
","""event"",""trial"",""time""
""focus"",""112"",""821946""
","""event"",""trial"",""time""
""fullscreenenter"",""5"",""437965""
","
","167.69999998807907","","48","","","3000","1","423.80000001192093","48","images/earth.jpg","images/rocket2","images/rocket1","null","images/rocket2","","1","real","null","2","","",""
"d3-animate-choice","166","1026739","0.0-76.0-1.10","844","752","12","Male","true","true","true","true","""event"",""trial"",""time""
""fullscreenenter"",""5"",""437965""
""blur"",""112"",""819602""
""focus"",""112"",""821946""
","""event"",""trial"",""time""
""blur"",""112"",""819602""
","""event"",""trial"",""time""
""focus"",""112"",""821946""
","""event"",""trial"",""time""
""fullscreenenter"",""5"",""437965""
","
","594.6999999880791","","49","","","3000","1","","","images/redplanet1.jpg","images/alien2","images/alien1","images/rocket2","images/alien1","images/nothing.png","2","real","false","1","rare","0","2022-02-14 21:26:01.969"
"two-step-fixation","167","1027743","0.0-76.0-2.10","844","752","12","Male","true","true","true","true","""event"",""trial"",""time""
""fullscreenenter"",""5"",""437965""
""blur"",""112"",""819602""
""focus"",""112"",""821946""
","""event"",""trial"",""time""
""blur"",""112"",""819602""
","""event"",""trial"",""time""
""focus"",""112"",""821946""
","""event"",""trial"",""time""
""fullscreenenter"",""5"",""437965""
","
","","images/earth.jpg","","","","","","","","","","","","","","fixation","","","","","",""
"d3-animate-choice","168","1030267","0.0-76.0-0.11","844","752","12","Male","true","true","true","true","""event"",""trial"",""time""
""fullscreenenter"",""5"",""437965""
""blur"",""112"",""819602""
""focus"",""112"",""821946""
","""event"",""trial"",""time""
""blur"",""112"",""819602""
","""event"",""trial"",""time""
""focus"",""112"",""821946""
","""event"",""trial"",""time""
""fullscreenenter"",""5"",""437965""
","
","519.5","","49","","","3000","1","","","images/earth.jpg","images/rocket2","images/rocket1","null","images/rocket1","","1","real","null","1","","",""
"d3-animate-choice","169","1033599","0.0-76.0-1.11","844","752","12","Male","true","true","true","true","""event"",""trial"",""time""
""fullscreenenter"",""5"",""437965""
""blur"",""112"",""819602""
""focus"",""112"",""821946""
","""event"",""trial"",""time""
""blur"",""112"",""819602""
","""event"",""trial"",""time""
""focus"",""112"",""821946""
","""event"",""trial"",""time""
""fullscreenenter"",""5"",""437965""
","
","1326.5999999642372","","48","","","3000","1","","","images/redplanet1.jpg","images/alien2","images/alien1","images/rocket1","images/alien2","images/t.png","2","real","true","2","common","1","2022-02-14 21:26:08.829"
"two-step-fixation","170","1034603","0.0-76.0-2.11","844","752","12","Male","true","true","true","true","""event"",""trial"",""time""
""fullscreenenter"",""5"",""437965""
""blur"",""112"",""819602""
""focus"",""112"",""821946""
","""event"",""trial"",""time""
""blur"",""112"",""819602""
","""event"",""trial"",""time""
""focus"",""112"",""821946""
","""event"",""trial"",""time""
""fullscreenenter"",""5"",""437965""
","
","","images/earth.jpg","","","","","","","","","","","","","","fixation","","","","","",""
"d3-animate-choice","171","1037587","0.0-76.0-0.12","844","752","12","Male","true","true","true","true","""event"",""trial"",""time""
""fullscreenenter"",""5"",""437965""
""blur"",""112"",""819602""
""focus"",""112"",""821946""
","""event"",""trial"",""time""
""blur"",""112"",""819602""
","""event"",""trial"",""time""
""focus"",""112"",""821946""
","""event"",""trial"",""time""
""fullscreenenter"",""5"",""437965""
","
","979.6999999880791","","48","","","3000","1","","","images/earth.jpg","images/rocket2","images/rocket1","null","images/rocket2","","1","real","null","2","","",""
"d3-animate-choice","172","1040171","0.0-76.0-1.12","844","752","12","Male","true","true","true","true","""event"",""trial"",""time""
""fullscreenenter"",""5"",""437965""
""blur"",""112"",""819602""
""focus"",""112"",""821946""
","""event"",""trial"",""time""
""blur"",""112"",""819602""
","""event"",""trial"",""time""
""focus"",""112"",""821946""
","""event"",""trial"",""time""
""fullscreenenter"",""5"",""437965""
","
","580.3999999761581","","48","","","3000","1","","","images/purpleplanet.jpg","images/alien4","images/alien3","images/rocket2","images/alien4","images/nothing.png","2","real","true","2","common","0","2022-02-14 21:26:15.401"
"two-step-fixation","173","1041175","0.0-76.0-2.12","844","752","12","Male","true","true","true","true","""event"",""trial"",""time""
""fullscreenenter"",""5"",""437965""
""blur"",""112"",""819602""
""focus"",""112"",""821946""
","""event"",""trial"",""time""
""blur"",""112"",""819602""
","""event"",""trial"",""time""
""focus"",""112"",""821946""
","""event"",""trial"",""time""
""fullscreenenter"",""5"",""437965""
","
","","images/earth.jpg","","","","","","","","","","","","","","fixation","","","","","",""
"d3-animate-choice","174","1043451","0.0-76.0-0.13","844","752","12","Male","true","true","true","true","""event"",""trial"",""time""
""fullscreenenter"",""5"",""437965""
""blur"",""112"",""819602""
""focus"",""112"",""821946""
","""event"",""trial"",""time""
""blur"",""112"",""819602""
","""event"",""trial"",""time""
""focus"",""112"",""821946""
","""event"",""trial"",""time""
""fullscreenenter"",""5"",""437965""
","
","271.80000001192093","","48","","","3000","1","","","images/earth.jpg","images/rocket2","images/rocket1","null","images/rocket2","","1","real","null","2","","",""
"d3-animate-choice","175","1046158","0.0-76.0-1.13","844","752","12","Male","true","true","true","true","""event"",""trial"",""time""
""fullscreenenter"",""5"",""437965""
""blur"",""112"",""819602""
""focus"",""112"",""821946""
","""event"",""trial"",""time""
""blur"",""112"",""819602""
","""event"",""trial"",""time""
""focus"",""112"",""821946""
","""event"",""trial"",""time""
""fullscreenenter"",""5"",""437965""
","
","701.6999999880791","","48","","","3000","1","","","images/purpleplanet.jpg","images/alien4","images/alien3","images/rocket2","images/alien4","images/t.png","2","real","true","2","common","1","2022-02-14 21:26:21.388"
"two-step-fixation","176","1047162","0.0-76.0-2.13","844","752","12","Male","true","true","true","true","""event"",""trial"",""time""
""fullscreenenter"",""5"",""437965""
""blur"",""112"",""819602""
""focus"",""112"",""821946""
","""event"",""trial"",""time""
""blur"",""112"",""819602""
","""event"",""trial"",""time""
""focus"",""112"",""821946""
","""event"",""trial"",""time""
""fullscreenenter"",""5"",""437965""
","
","","images/earth.jpg","","","","","","","","","","","","","","fixation","","","","","",""
"d3-animate-choice","177","1049986","0.0-76.0-0.14","844","752","12","Male","true","true","true","true","""event"",""trial"",""time""
""fullscreenenter"",""5"",""437965""
""blur"",""112"",""819602""
""focus"",""112"",""821946""
","""event"",""trial"",""time""
""blur"",""112"",""819602""
","""event"",""trial"",""time""
""focus"",""112"",""821946""
","""event"",""trial"",""time""
""fullscreenenter"",""5"",""437965""
","
","819.8000000119209","","49","","","3000","1","","","images/earth.jpg","images/rocket2","images/rocket1","null","images/rocket1","","1","real","null","1","","",""
"d3-animate-choice","178","1053187","0.0-76.0-1.14","844","752","12","Male","true","true","true","true","""event"",""trial"",""time""
""fullscreenenter"",""5"",""437965""
""blur"",""112"",""819602""
""focus"",""112"",""821946""
","""event"",""trial"",""time""
""blur"",""112"",""819602""
","""event"",""trial"",""time""
""focus"",""112"",""821946""
","""event"",""trial"",""time""
""fullscreenenter"",""5"",""437965""
","
","1195.3999999761581","","48","","","3000","1","","","images/purpleplanet.jpg","images/alien4","images/alien3","images/rocket1","images/alien4","images/t.png","2","real","false","2","rare","1","2022-02-14 21:26:28.417"
"two-step-fixation","179","1054192","0.0-76.0-2.14","844","752","12","Male","true","true","true","true","""event"",""trial"",""time""
""fullscreenenter"",""5"",""437965""
""blur"",""112"",""819602""
""focus"",""112"",""821946""
","""event"",""trial"",""time""
""blur"",""112"",""819602""
","""event"",""trial"",""time""
""focus"",""112"",""821946""
","""event"",""trial"",""time""
""fullscreenenter"",""5"",""437965""
","
","","images/earth.jpg","","","","","","","","","","","","","","fixation","","","","","",""
"d3-animate-choice","180","1057253","0.0-76.0-0.15","844","752","12","Male","true","true","true","true","""event"",""trial"",""time""
""fullscreenenter"",""5"",""437965""
""blur"",""112"",""819602""
""focus"",""112"",""821946""
","""event"",""trial"",""time""
""blur"",""112"",""819602""
","""event"",""trial"",""time""
""focus"",""112"",""821946""
","""event"",""trial"",""time""
""fullscreenenter"",""5"",""437965""
","
","1057.3999999761581","","49","","","3000","1","","","images/earth.jpg","images/rocket2","images/rocket1","null","images/rocket1","","1","real","null","1","","",""
"d3-animate-choice","181","1060467","0.0-76.0-1.15","844","752","12","Male","true","true","true","true","""event"",""trial"",""time""
""fullscreenenter"",""5"",""437965""
""blur"",""112"",""819602""
""focus"",""112"",""821946""
","""event"",""trial"",""time""
""blur"",""112"",""819602""
","""event"",""trial"",""time""
""focus"",""112"",""821946""
","""event"",""trial"",""time""
""fullscreenenter"",""5"",""437965""
","
","1209","","49","","","3000","1","","","images/purpleplanet.jpg","images/alien4","images/alien3","images/rocket1","images/alien3","images/t.png","2","real","false","1","rare","1","2022-02-14 21:26:35.697"
"two-step-fixation","182","1061472","0.0-76.0-2.15","844","752","12","Male","true","true","true","true","""event"",""trial"",""time""
""fullscreenenter"",""5"",""437965""
""blur"",""112"",""819602""
""focus"",""112"",""821946""
","""event"",""trial"",""time""
""blur"",""112"",""819602""
","""event"",""trial"",""time""
""focus"",""112"",""821946""
","""event"",""trial"",""time""
""fullscreenenter"",""5"",""437965""
","
","","images/earth.jpg","","","","","","","","","","","","","","fixation","","","","","",""
"d3-animate-choice","183","1064219","0.0-76.0-0.16","844","752","12","Male","true","true","true","true","""event"",""trial"",""time""
""fullscreenenter"",""5"",""437965""
""blur"",""112"",""819602""
""focus"",""112"",""821946""
","""event"",""trial"",""time""
""blur"",""112"",""819602""
","""event"",""trial"",""time""
""focus"",""112"",""821946""
","""event"",""trial"",""time""
""fullscreenenter"",""5"",""437965""
","
","742","","49","","","3000","1","","","images/earth.jpg","images/rocket2","images/rocket1","null","images/rocket1","","1","real","null","1","","",""
"d3-animate-choice","184","1067138","0.0-76.0-1.16","844","752","12","Male","true","true","true","true","""event"",""trial"",""time""
""fullscreenenter"",""5"",""437965""
""blur"",""112"",""819602""
""focus"",""112"",""821946""
","""event"",""trial"",""time""
""blur"",""112"",""819602""
","""event"",""trial"",""time""
""focus"",""112"",""821946""
","""event"",""trial"",""time""
""fullscreenenter"",""5"",""437965""
","
","913.6999999880791","","49","","","3000","1","","","images/purpleplanet.jpg","images/alien4","images/alien3","images/rocket1","images/alien3","images/t.png","2","real","false","1","rare","1","2022-02-14 21:26:42.368"
"two-step-fixation","185","1068143","0.0-76.0-2.16","844","752","12","Male","true","true","true","true","""event"",""trial"",""time""
""fullscreenenter"",""5"",""437965""
""blur"",""112"",""819602""
""focus"",""112"",""821946""
","""event"",""trial"",""time""
""blur"",""112"",""819602""
","""event"",""trial"",""time""
""focus"",""112"",""821946""
","""event"",""trial"",""time""
""fullscreenenter"",""5"",""437965""
","
","","images/earth.jpg","","","","","","","","","","","","","","fixation","","","","","",""
"d3-animate-choice","186","1070982","0.0-76.0-0.17","844","752","12","Male","true","true","true","true","""event"",""trial"",""time""
""fullscreenenter"",""5"",""437965""
""blur"",""112"",""819602""
""focus"",""112"",""821946""
","""event"",""trial"",""time""
""blur"",""112"",""819602""
","""event"",""trial"",""time""
""focus"",""112"",""821946""
","""event"",""trial"",""time""
""fullscreenenter"",""5"",""437965""
","
","834.5","","49","","","3000","1","","","images/earth.jpg","images/rocket2","images/rocket1","null","images/rocket1","","1","real","null","1","","",""
"d3-animate-choice","187","1073980","0.0-76.0-1.17","844","752","12","Male","true","true","true","true","""event"",""trial"",""time""
""fullscreenenter"",""5"",""437965""
""blur"",""112"",""819602""
""focus"",""112"",""821946""
","""event"",""trial"",""time""
""blur"",""112"",""819602""
","""event"",""trial"",""time""
""focus"",""112"",""821946""
","""event"",""trial"",""time""
""fullscreenenter"",""5"",""437965""
","
","993","","48","","","3000","1","","","images/redplanet1.jpg","images/alien2","images/alien1","images/rocket1","images/alien2","images/t.png","2","real","true","2","common","1","2022-02-14 21:26:49.210"
"two-step-fixation","188","1074984","0.0-76.0-2.17","844","752","12","Male","true","true","true","true","""event"",""trial"",""time""
""fullscreenenter"",""5"",""437965""
""blur"",""112"",""819602""
""focus"",""112"",""821946""
","""event"",""trial"",""time""
""blur"",""112"",""819602""
","""event"",""trial"",""time""
""focus"",""112"",""821946""
","""event"",""trial"",""time""
""fullscreenenter"",""5"",""437965""
","
","","images/earth.jpg","","","","","","","","","","","","","","fixation","","","","","",""
"d3-animate-choice","189","1077316","0.0-76.0-0.18","844","752","12","Male","true","true","true","true","""event"",""trial"",""time""
""fullscreenenter"",""5"",""437965""
""blur"",""112"",""819602""
""focus"",""112"",""821946""
","""event"",""trial"",""time""
""blur"",""112"",""819602""
","""event"",""trial"",""time""
""focus"",""112"",""821946""
","""event"",""trial"",""time""
""fullscreenenter"",""5"",""437965""
","
","325.89999997615814","","49","","","3000","1","","","images/earth.jpg","images/rocket2","images/rocket1","null","images/rocket1","","1","real","null","1","","",""
"d3-animate-choice","190","1080403","0.0-76.0-1.18","844","752","12","Male","true","true","true","true","""event"",""trial"",""time""
""fullscreenenter"",""5"",""437965""
""blur"",""112"",""819602""
""focus"",""112"",""821946""
","""event"",""trial"",""time""
""blur"",""112"",""819602""
","""event"",""trial"",""time""
""focus"",""112"",""821946""
","""event"",""trial"",""time""
""fullscreenenter"",""5"",""437965""
","
","1082.800000011921","","49","","","3000","1","","","images/purpleplanet.jpg","images/alien4","images/alien3","images/rocket1","images/alien3","images/t.png","2","real","false","1","rare","1","2022-02-14 21:26:55.633"
"two-step-fixation","191","1081407","0.0-76.0-2.18","844","752","12","Male","true","true","true","true","""event"",""trial"",""time""
""fullscreenenter"",""5"",""437965""
""blur"",""112"",""819602""
""focus"",""112"",""821946""
","""event"",""trial"",""time""
""blur"",""112"",""819602""
","""event"",""trial"",""time""
""focus"",""112"",""821946""
","""event"",""trial"",""time""
""fullscreenenter"",""5"",""437965""
","
","","images/earth.jpg","","","","","","","","","","","","","","fixation","","","","","",""
"d3-animate-choice","192","1084286","0.0-76.0-0.19","844","752","12","Male","true","true","true","true","""event"",""trial"",""time""
""fullscreenenter"",""5"",""437965""
""blur"",""112"",""819602""
""focus"",""112"",""821946""
","""event"",""trial"",""time""
""blur"",""112"",""819602""
","""event"",""trial"",""time""
""focus"",""112"",""821946""
","""event"",""trial"",""time""
""fullscreenenter"",""5"",""437965""
","
","874.2999999523163","","48","","","3000","1","1951","17","images/earth.jpg","images/rocket2","images/rocket1","null","images/rocket2","","1","real","null","2","","",""
"d3-animate-choice","193","1087522","0.0-76.0-1.19","844","752","12","Male","true","true","true","true","""event"",""trial"",""time""
""fullscreenenter"",""5"",""437965""
""blur"",""112"",""819602""
""focus"",""112"",""821946""
","""event"",""trial"",""time""
""blur"",""112"",""819602""
","""event"",""trial"",""time""
""focus"",""112"",""821946""
","""event"",""trial"",""time""
""fullscreenenter"",""5"",""437965""
","
","1231.5","","48","","","3000","1","","","images/redplanet1.jpg","images/alien2","images/alien1","images/rocket2","images/alien2","images/nothing.png","2","real","false","2","rare","0","2022-02-14 21:27:02.752"
"two-step-fixation","194","1088527","0.0-76.0-2.19","844","752","12","Male","true","true","true","true","""event"",""trial"",""time""
""fullscreenenter"",""5"",""437965""
""blur"",""112"",""819602""
""focus"",""112"",""821946""
","""event"",""trial"",""time""
""blur"",""112"",""819602""
","""event"",""trial"",""time""
""focus"",""112"",""821946""
","""event"",""trial"",""time""
""fullscreenenter"",""5"",""437965""
","
","","images/earth.jpg","","","","","","","","","","","","","","fixation","","","","","",""
"d3-animate-choice","195","1091139","0.0-76.0-0.20","844","752","12","Male","true","true","true","true","""event"",""trial"",""time""
""fullscreenenter"",""5"",""437965""
""blur"",""112"",""819602""
""focus"",""112"",""821946""
","""event"",""trial"",""time""
""blur"",""112"",""819602""
","""event"",""trial"",""time""
""focus"",""112"",""821946""
","""event"",""trial"",""time""
""fullscreenenter"",""5"",""437965""
","
","607.1999999880791","","49","","","3000","1","","","images/earth.jpg","images/rocket2","images/rocket1","null","images/rocket1","","1","real","null","1","","",""
"d3-animate-choice","196","1093915","0.0-76.0-1.20","844","752","12","Male","true","true","true","true","""event"",""trial"",""time""
""fullscreenenter"",""5"",""437965""
""blur"",""112"",""819602""
""focus"",""112"",""821946""
","""event"",""trial"",""time""
""blur"",""112"",""819602""
","""event"",""trial"",""time""
""focus"",""112"",""821946""
","""event"",""trial"",""time""
""fullscreenenter"",""5"",""437965""
","
","770.4000000357628","","49","","","3000","1","","","images/redplanet1.jpg","images/alien2","images/alien1","images/rocket1","images/alien1","images/nothing.png","2","real","true","1","common","0","2022-02-14 21:27:09.145"
"two-step-fixation","197","1094919","0.0-76.0-2.20","844","752","12","Male","true","true","true","true","""event"",""trial"",""time""
""fullscreenenter"",""5"",""437965""
""blur"",""112"",""819602""
""focus"",""112"",""821946""
","""event"",""trial"",""time""
""blur"",""112"",""819602""
","""event"",""trial"",""time""
""focus"",""112"",""821946""
","""event"",""trial"",""time""
""fullscreenenter"",""5"",""437965""
","
","","images/earth.jpg","","","","","","","","","","","","","","fixation","","","","","",""
"d3-animate-choice","198","1097310","0.0-76.0-0.21","844","752","12","Male","true","true","true","true","""event"",""trial"",""time""
""fullscreenenter"",""5"",""437965""
""blur"",""112"",""819602""
""focus"",""112"",""821946""
","""event"",""trial"",""time""
""blur"",""112"",""819602""
","""event"",""trial"",""time""
""focus"",""112"",""821946""
","""event"",""trial"",""time""
""fullscreenenter"",""5"",""437965""
","
","385.89999997615814","","49","","","3000","1","1079,1102.699999988079","49,81","images/earth.jpg","images/rocket2","images/rocket1","null","images/rocket1","","1","real","null","1","","",""
"d3-animate-choice","199","1100132","0.0-76.0-1.21","844","752","12","Male","true","true","true","true","""event"",""trial"",""time""
""fullscreenenter"",""5"",""437965""
""blur"",""112"",""819602""
""focus"",""112"",""821946""
","""event"",""trial"",""time""
""blur"",""112"",""819602""
","""event"",""trial"",""time""
""focus"",""112"",""821946""
","""event"",""trial"",""time""
""fullscreenenter"",""5"",""437965""
","
","816.3999999761581","","49","","","3000","1","","","images/redplanet1.jpg","images/alien2","images/alien1","images/rocket1","images/alien1","images/t.png","2","real","true","1","common","1","2022-02-14 21:27:15.362"
"two-step-fixation","200","1101136","0.0-76.0-2.21","844","752","12","Male","true","true","true","true","""event"",""trial"",""time""
""fullscreenenter"",""5"",""437965""
""blur"",""112"",""819602""
""focus"",""112"",""821946""
","""event"",""trial"",""time""
""blur"",""112"",""819602""
","""event"",""trial"",""time""
""focus"",""112"",""821946""
","""event"",""trial"",""time""
""fullscreenenter"",""5"",""437965""
","
","","images/earth.jpg","","","","","","","","","","","","","","fixation","","","","","",""
"d3-animate-choice","201","1103732","0.0-76.0-0.22","844","752","12","Male","true","true","true","true","""event"",""trial"",""time""
""fullscreenenter"",""5"",""437965""
""blur"",""112"",""819602""
""focus"",""112"",""821946""
","""event"",""trial"",""time""
""blur"",""112"",""819602""
","""event"",""trial"",""time""
""focus"",""112"",""821946""
","""event"",""trial"",""time""
""fullscreenenter"",""5"",""437965""
","
","590.8000000119209","","49","","","3000","1","","","images/earth.jpg","images/rocket2","images/rocket1","null","images/rocket1","","1","real","null","1","","",""
"d3-animate-choice","202","1106436","0.0-76.0-1.22","844","752","12","Male","true","true","true","true","""event"",""trial"",""time""
""fullscreenenter"",""5"",""437965""
""blur"",""112"",""819602""
""focus"",""112"",""821946""
","""event"",""trial"",""time""
""blur"",""112"",""819602""
","""event"",""trial"",""time""
""focus"",""112"",""821946""
","""event"",""trial"",""time""
""fullscreenenter"",""5"",""437965""
","
","698.5999999642372","","49","","","3000","1","","","images/redplanet1.jpg","images/alien2","images/alien1","images/rocket1","images/alien1","images/nothing.png","2","real","true","1","common","0","2022-02-14 21:27:21.666"
"two-step-fixation","203","1107440","0.0-76.0-2.22","844","752","12","Male","true","true","true","true","""event"",""trial"",""time""
""fullscreenenter"",""5"",""437965""
""blur"",""112"",""819602""
""focus"",""112"",""821946""
","""event"",""trial"",""time""
""blur"",""112"",""819602""
","""event"",""trial"",""time""
""focus"",""112"",""821946""
","""event"",""trial"",""time""
""fullscreenenter"",""5"",""437965""
","
","","images/earth.jpg","","","","","","","","","","","","","","fixation","","","","","",""
"d3-animate-choice","204","1109787","0.0-76.0-0.23","844","752","12","Male","true","true","true","true","""event"",""trial"",""time""
""fullscreenenter"",""5"",""437965""
""blur"",""112"",""819602""
""focus"",""112"",""821946""
","""event"",""trial"",""time""
""blur"",""112"",""819602""
","""event"",""trial"",""time""
""focus"",""112"",""821946""
","""event"",""trial"",""time""
""fullscreenenter"",""5"",""437965""
","
","342.69999998807907","","49","","","3000","1","606.8000000119209","49","images/earth.jpg","images/rocket2","images/rocket1","null","images/rocket1","","1","real","null","1","","",""
"d3-animate-choice","205","1112299","0.0-76.0-1.23","844","752","12","Male","true","true","true","true","""event"",""trial"",""time""
""fullscreenenter"",""5"",""437965""
""blur"",""112"",""819602""
""focus"",""112"",""821946""
","""event"",""trial"",""time""
""blur"",""112"",""819602""
","""event"",""trial"",""time""
""focus"",""112"",""821946""
","""event"",""trial"",""time""
""fullscreenenter"",""5"",""437965""
","
","507","","48","","","3000","1","","","images/redplanet1.jpg","images/alien2","images/alien1","images/rocket1","images/alien2","images/t.png","2","real","true","2","common","1","2022-02-14 21:27:27.529"
"two-step-fixation","206","1113303","0.0-76.0-2.23","844","752","12","Male","true","true","true","true","""event"",""trial"",""time""
""fullscreenenter"",""5"",""437965""
""blur"",""112"",""819602""
""focus"",""112"",""821946""
","""event"",""trial"",""time""
""blur"",""112"",""819602""
","""event"",""trial"",""time""
""focus"",""112"",""821946""
","""event"",""trial"",""time""
""fullscreenenter"",""5"",""437965""
","
","","images/earth.jpg","","","","","","","","","","","","","","fixation","","","","","",""
