"trial_type","trial_index","time_elapsed","internal_node_id","participant_id","subject_id","age","gender","rocket_sides","red_planet_first_rocket","red_display_order","purple_display_order","interactions","blur_events","focus_events","fullscreenenter_events","fullscreenexit_events","rt","stimulus","key_press","button_pressed","success","duration","valid_pressed","rts","keys","planet_text","right_text","left_text","center_text","chosen_text","reward_text","trial_stage","practice_trial","transition_type","choice","transition","reward","timestamp"
"pavlovia","0","3","0.0-0.0","2765","6124","18","Female","true","true","false","true","
","
","
","
","
","","","","","","","","","","","","","","","","","","","","","",""
"html-keyboard-response","1","1951","0.0-1.0","2765","6124","18","Female","true","true","false","true","
","
","
","
","
","1946.8999999910593","Welcome! Press the space bar to begin.","32","","","","","","","","","","","","","","","","","","",""
"audio-keyboard-response","2","4686","0.0-2.0","2765","6124","18","Female","true","true","false","true","
","
","
","
","
","2581","audio/beep_loop.wav","32","","","","","","","","","","","","","","","","","","",""
"audio-button-response","3","6625","0.0-3.0","2765","6124","18","Female","true","true","false","true","
","
","
","
","
","NaN","audio/fish.mp3","","1","","","","","","","","","","","","","","","","","",""
"audio-button-response","4","9532","0.0-4.0","2765","6124","18","Female","true","true","false","true","""event"",""trial"",""time""
""fullscreenenter"",""5"",""12436""
","
","
","""event"",""trial"",""time""
""fullscreenenter"",""5"",""12436""
","
","NaN","audio/tiger.mp3","","4","","","","","","","","","","","","","","","","","",""
"fullscreen","5","13423","0.0-5.0","2765","6124","18","Female","true","true","false","true","""event"",""trial"",""time""
""fullscreenenter"",""5"",""12436""
","
","
","""event"",""trial"",""time""
""fullscreenenter"",""5"",""12436""
","
","","","","","true","","","","","","","","","","","","","","","","",""
"d3-instructions","6","27323","0.0-6.0","2765","6124","18","Female","true","true","false","true","""event"",""trial"",""time""
""fullscreenenter"",""5"",""12436""
","
","
","""event"",""trial"",""time""
""fullscreenenter"",""5"",""12436""
","
","","","","","","","","","","","","","","","","","","","","","",""
"d3-instructions","7","35557","0.0-7.0","2765","6124","18","Female","true","true","false","true","""event"",""trial"",""time""
""fullscreenenter"",""5"",""12436""
","
","
","""event"",""trial"",""time""
""fullscreenenter"",""5"",""12436""
","
","","","","","","","","","","","","","","","","","","","","","",""
"d3-instructions","8","42338","0.0-8.0","2765","6124","18","Female","true","true","false","true","""event"",""trial"",""time""
""fullscreenenter"",""5"",""12436""
","
","
","""event"",""trial"",""time""
""fullscreenenter"",""5"",""12436""
","
","","","","","","","","","","","","","","","","","","","","","",""
"d3-instructions","9","53277","0.0-9.0","2765","6124","18","Female","true","true","false","true","""event"",""trial"",""time""
""fullscreenenter"",""5"",""12436""
","
","
","""event"",""trial"",""time""
""fullscreenenter"",""5"",""12436""
","
","","","","","","","","","","","","","","","","","","","","","",""
"d3-instructions","10","73284","0.0-10.0","2765","6124","18","Female","true","true","false","true","""event"",""trial"",""time""
""fullscreenenter"",""5"",""12436""
","
","
","""event"",""trial"",""time""
""fullscreenenter"",""5"",""12436""
","
","","","","","","","","","","","","","","","","","","","","","",""
"d3-animate-choice","11","77448","0.0-11.0","2765","6124","18","Female","true","true","false","true","""event"",""trial"",""time""
""fullscreenenter"",""5"",""12436""
","
","
","""event"",""trial"",""time""
""fullscreenenter"",""5"",""12436""
","
","2156.3999999910593","","49","","","3000","1","","","images/tutgreenplanet.jpg","images/tutalien1","images/tutalien2","null","images/tutalien2","","NA","practice","null","","","",""
"d3-animate-choice","12","79871","0.0-12.0","2765","6124","18","Female","true","true","false","true","""event"",""trial"",""time""
""fullscreenenter"",""5"",""12436""
","
","
","""event"",""trial"",""time""
""fullscreenenter"",""5"",""12436""
","
","413.69999998807907","","48","","","3000","1","","","images/tutgreenplanet.jpg","images/tutalien1","images/tutalien2","null","images/tutalien1","","NA","practice","null","","","",""
"d3-animate-choice","13","83071","0.0-13.0","2765","6124","18","Female","true","true","false","true","""event"",""trial"",""time""
""fullscreenenter"",""5"",""12436""
","
","
","""event"",""trial"",""time""
""fullscreenenter"",""5"",""12436""
","
","1187.7000000029802","","48","","","3000","1","","","images/tutgreenplanet.jpg","images/tutalien1","images/tutalien2","null","images/tutalien1","","NA","practice","null","","","",""
"d3-animate-choice","14","85490","0.0-14.0","2765","6124","18","Female","true","true","false","true","""event"",""trial"",""time""
""fullscreenenter"",""5"",""12436""
","
","
","""event"",""trial"",""time""
""fullscreenenter"",""5"",""12436""
","
","409.5","","49","","","3000","1","","","images/tutgreenplanet.jpg","images/tutalien1","images/tutalien2","null","images/tutalien2","","NA","practice","null","","","",""
"d3-instructions","15","91700","0.0-15.0","2765","6124","18","Female","true","true","false","true","""event"",""trial"",""time""
""fullscreenenter"",""5"",""12436""
","
","
","""event"",""trial"",""time""
""fullscreenenter"",""5"",""12436""
","
","","","","","","","","","","","","","","","","","","","","","",""
"d3-instructions","16","98544","0.0-16.0","2765","6124","18","Female","true","true","false","true","""event"",""trial"",""time""
""fullscreenenter"",""5"",""12436""
","
","
","""event"",""trial"",""time""
""fullscreenenter"",""5"",""12436""
","
","","","","","","","","","","","","","","","","","","","","","",""
"d3-instructions","17","106699","0.0-17.0","2765","6124","18","Female","true","true","false","true","""event"",""trial"",""time""
""fullscreenenter"",""5"",""12436""
","
","
","""event"",""trial"",""time""
""fullscreenenter"",""5"",""12436""
","
","","","","","","","","","","","","","","","","","","","","","",""
"d3-instructions","18","119159","0.0-18.0","2765","6124","18","Female","true","true","false","true","""event"",""trial"",""time""
""fullscreenenter"",""5"",""12436""
","
","
","""event"",""trial"",""time""
""fullscreenenter"",""5"",""12436""
","
","","","","","","","","","","","","","","","","","","","","","",""
"d3-instructions","19","132268","0.0-19.0","2765","6124","18","Female","true","true","false","true","""event"",""trial"",""time""
""fullscreenenter"",""5"",""12436""
","
","
","""event"",""trial"",""time""
""fullscreenenter"",""5"",""12436""
","
","","","","","","","","","","","","","","","","","","","","","",""
"d3-animate-choice","20","135385","0.0-20.0","2765","6124","18","Female","true","true","false","true","""event"",""trial"",""time""
""fullscreenenter"",""5"",""12436""
","
","
","""event"",""trial"",""time""
""fullscreenenter"",""5"",""12436""
","
","1109.7000000029802","","49","","","3000","1","","","images/tutyellowplanet.jpg","null","images/tutalien3","null","images/tutalien3","images/t.png","NA","practice","null","","","",""
"d3-animate-choice","21","137782","0.0-21.0","2765","6124","18","Female","true","true","false","true","""event"",""trial"",""time""
""fullscreenenter"",""5"",""12436""
","
","
","""event"",""trial"",""time""
""fullscreenenter"",""5"",""12436""
","
","388.20000000298023","","49","","","3000","1","","","images/tutyellowplanet.jpg","null","images/tutalien3","null","images/tutalien3","images/t.png","NA","practice","null","","","",""
"d3-animate-choice","22","140079","0.0-22.0","2765","6124","18","Female","true","true","false","true","""event"",""trial"",""time""
""fullscreenenter"",""5"",""12436""
","
","
","""event"",""trial"",""time""
""fullscreenenter"",""5"",""12436""
","
","291.40000000596046","","49","","","3000","1","","","images/tutyellowplanet.jpg","null","images/tutalien3","null","images/tutalien3","images/t.png","NA","practice","null","","","",""
"d3-animate-choice","23","142327","0.0-23.0","2765","6124","18","Female","true","true","false","true","""event"",""trial"",""time""
""fullscreenenter"",""5"",""12436""
","
","
","""event"",""trial"",""time""
""fullscreenenter"",""5"",""12436""
","
","238.20000000298023","","49","","","3000","1","","","images/tutyellowplanet.jpg","null","images/tutalien3","null","images/tutalien3","images/t.png","NA","practice","null","","","",""
"d3-animate-choice","24","144662","0.0-24.0","2765","6124","18","Female","true","true","false","true","""event"",""trial"",""time""
""fullscreenenter"",""5"",""12436""
","
","
","""event"",""trial"",""time""
""fullscreenenter"",""5"",""12436""
","
","324.29999999701977","","49","","","3000","1","","","images/tutyellowplanet.jpg","null","images/tutalien3","null","images/tutalien3","images/nothing.png","NA","practice","null","","","",""
"d3-animate-choice","25","147167","0.0-25.0","2765","6124","18","Female","true","true","false","true","""event"",""trial"",""time""
""fullscreenenter"",""5"",""12436""
","
","
","""event"",""trial"",""time""
""fullscreenenter"",""5"",""12436""
","
","492.5","","49","","","3000","1","2194.2000000029802","49","images/tutyellowplanet.jpg","null","images/tutalien3","null","images/tutalien3","images/t.png","NA","practice","null","","","",""
"d3-animate-choice","26","149504","0.0-26.0","2765","6124","18","Female","true","true","false","true","""event"",""trial"",""time""
""fullscreenenter"",""5"",""12436""
","
","
","""event"",""trial"",""time""
""fullscreenenter"",""5"",""12436""
","
","331","","49","","","3000","1","","","images/tutyellowplanet.jpg","null","images/tutalien3","null","images/tutalien3","images/nothing.png","NA","practice","null","","","",""
"d3-animate-choice","27","152119","0.0-27.0","2765","6124","18","Female","true","true","false","true","""event"",""trial"",""time""
""fullscreenenter"",""5"",""12436""
","
","
","""event"",""trial"",""time""
""fullscreenenter"",""5"",""12436""
","
","604.7999999970198","","49","","","3000","1","","","images/tutyellowplanet.jpg","null","images/tutalien3","null","images/tutalien3","images/t.png","NA","practice","null","","","",""
"d3-animate-choice","28","154710","0.0-28.0","2765","6124","18","Female","true","true","false","true","""event"",""trial"",""time""
""fullscreenenter"",""5"",""12436""
","
","
","""event"",""trial"",""time""
""fullscreenenter"",""5"",""12436""
","
","584.7999999970198","","49","","","3000","1","","","images/tutyellowplanet.jpg","null","images/tutalien3","null","images/tutalien3","images/t.png","NA","practice","null","","","",""
"d3-animate-choice","29","157022","0.0-29.0","2765","6124","18","Female","true","true","false","true","""event"",""trial"",""time""
""fullscreenenter"",""5"",""12436""
","
","
","""event"",""trial"",""time""
""fullscreenenter"",""5"",""12436""
","
","305","","49","","","3000","1","","","images/tutyellowplanet.jpg","null","images/tutalien3","null","images/tutalien3","images/t.png","NA","practice","null","","","",""
"d3-instructions","30","160098","0.0-30.0","2765","6124","18","Female","true","true","false","true","""event"",""trial"",""time""
""fullscreenenter"",""5"",""12436""
","
","
","""event"",""trial"",""time""
""fullscreenenter"",""5"",""12436""
","
","","","","","","","","","","","","","","","","","","","","","",""
"d3-instructions","31","166470","0.0-31.0","2765","6124","18","Female","true","true","false","true","""event"",""trial"",""time""
""fullscreenenter"",""5"",""12436""
","
","
","""event"",""trial"",""time""
""fullscreenenter"",""5"",""12436""
","
","","","","","","","","","","","","","","","","","","","","","",""
"d3-instructions","32","170420","0.0-32.0","2765","6124","18","Female","true","true","false","true","""event"",""trial"",""time""
""fullscreenenter"",""5"",""12436""
","
","
","""event"",""trial"",""time""
""fullscreenenter"",""5"",""12436""
","
","","","","","","","","","","","","","","","","","","","","","",""
"d3-instructions","33","173025","0.0-33.0","2765","6124","18","Female","true","true","false","true","""event"",""trial"",""time""
""fullscreenenter"",""5"",""12436""
","
","
","""event"",""trial"",""time""
""fullscreenenter"",""5"",""12436""
","
","","","","","","","","","","","","","","","","","","","","","",""
"d3-animate-choice","34","176330","0.0-34.0","2765","6124","18","Female","true","true","false","true","""event"",""trial"",""time""
""fullscreenenter"",""5"",""12436""
","
","
","""event"",""trial"",""time""
""fullscreenenter"",""5"",""12436""
","
","1291.7999999970198","","49","","","3000","1","","","images/tutgreenplanet.jpg","images/tutalien1","images/tutalien2","null","images/tutalien2","images/nothing.png","NA","practice","null","","","",""
"d3-animate-choice","35","179024","0.0-35.0","2765","6124","18","Female","true","true","false","true","""event"",""trial"",""time""
""fullscreenenter"",""5"",""12436""
","
","
","""event"",""trial"",""time""
""fullscreenenter"",""5"",""12436""
","
","682.1000000089407","","48","","","3000","1","","","images/tutgreenplanet.jpg","images/tutalien1","images/tutalien2","null","images/tutalien1","images/nothing.png","NA","practice","null","","","",""
"d3-animate-choice","36","181486","0.0-36.0","2765","6124","18","Female","true","true","false","true","""event"",""trial"",""time""
""fullscreenenter"",""5"",""12436""
","
","
","""event"",""trial"",""time""
""fullscreenenter"",""5"",""12436""
","
","453.70000000298023","","49","","","3000","1","","","images/tutgreenplanet.jpg","images/tutalien1","images/tutalien2","null","images/tutalien2","images/t.png","NA","practice","null","","","",""
"d3-animate-choice","37","183822","0.0-37.0","2765","6124","18","Female","true","true","false","true","""event"",""trial"",""time""
""fullscreenenter"",""5"",""12436""
","
","
","""event"",""trial"",""time""
""fullscreenenter"",""5"",""12436""
","
","331.1000000089407","","49","","","3000","1","","","images/tutgreenplanet.jpg","images/tutalien1","images/tutalien2","null","images/tutalien2","images/t.png","NA","practice","null","","","",""
"d3-animate-choice","38","186118","0.0-38.0","2765","6124","18","Female","true","true","false","true","""event"",""trial"",""time""
""fullscreenenter"",""5"",""12436""
","
","
","""event"",""trial"",""time""
""fullscreenenter"",""5"",""12436""
","
","285.90000000596046","","49","","","3000","1","","","images/tutgreenplanet.jpg","images/tutalien1","images/tutalien2","null","images/tutalien2","images/nothing.png","NA","practice","null","","","",""
"d3-animate-choice","39","188729","0.0-39.0","2765","6124","18","Female","true","true","false","true","""event"",""trial"",""time""
""fullscreenenter"",""5"",""12436""
","
","
","""event"",""trial"",""time""
""fullscreenenter"",""5"",""12436""
","
","600.4000000059605","","49","","","3000","1","","","images/tutgreenplanet.jpg","images/tutalien1","images/tutalien2","null","images/tutalien2","images/nothing.png","NA","practice","null","","","",""
"d3-animate-choice","40","190990","0.0-40.0","2765","6124","18","Female","true","true","false","true","""event"",""trial"",""time""
""fullscreenenter"",""5"",""12436""
","
","
","""event"",""trial"",""time""
""fullscreenenter"",""5"",""12436""
","
","255.1000000089407","","48","","","3000","1","","","images/tutgreenplanet.jpg","images/tutalien1","images/tutalien2","null","images/tutalien1","images/nothing.png","NA","practice","null","","","",""
"d3-animate-choice","41","193426","0.0-41.0","2765","6124","18","Female","true","true","false","true","""event"",""trial"",""time""
""fullscreenenter"",""5"",""12436""
","
","
","""event"",""trial"",""time""
""fullscreenenter"",""5"",""12436""
","
","432.19999998807907","","48","","","3000","1","","","images/tutgreenplanet.jpg","images/tutalien1","images/tutalien2","null","images/tutalien1","images/nothing.png","NA","practice","null","","","",""
"d3-animate-choice","42","195814","0.0-42.0","2765","6124","18","Female","true","true","false","true","""event"",""trial"",""time""
""fullscreenenter"",""5"",""12436""
","
","
","""event"",""trial"",""time""
""fullscreenenter"",""5"",""12436""
","
","376.5","","49","","","3000","1","","","images/tutgreenplanet.jpg","images/tutalien1","images/tutalien2","null","images/tutalien2","images/t.png","NA","practice","null","","","",""
"d3-animate-choice","43","198230","0.0-43.0","2765","6124","18","Female","true","true","false","true","""event"",""trial"",""time""
""fullscreenenter"",""5"",""12436""
","
","
","""event"",""trial"",""time""
""fullscreenenter"",""5"",""12436""
","
","409.3999999910593","","49","","","3000","1","","","images/tutgreenplanet.jpg","images/tutalien1","images/tutalien2","null","images/tutalien2","images/t.png","NA","practice","null","","","",""
"d3-instructions","44","204604","0.0-44.0","2765","6124","18","Female","true","true","false","true","""event"",""trial"",""time""
""fullscreenenter"",""5"",""12436""
","
","
","""event"",""trial"",""time""
""fullscreenenter"",""5"",""12436""
","
","","","","","","","","","","","","","","","","","","","","","",""
"d3-instructions","45","208124","0.0-45.0","2765","6124","18","Female","true","true","false","true","""event"",""trial"",""time""
""fullscreenenter"",""5"",""12436""
","
","
","""event"",""trial"",""time""
""fullscreenenter"",""5"",""12436""
","
","","","","","","","","","","","","","","","","","","","","","",""
"d3-instructions","46","210626","0.0-46.0","2765","6124","18","Female","true","true","false","true","""event"",""trial"",""time""
""fullscreenenter"",""5"",""12436""
","
","
","""event"",""trial"",""time""
""fullscreenenter"",""5"",""12436""
","
","","","","","","","","","","","","","","","","","","","","","",""
"d3-instructions","47","222058","0.0-47.0","2765","6124","18","Female","true","true","false","true","""event"",""trial"",""time""
""fullscreenenter"",""5"",""12436""
","
","
","""event"",""trial"",""time""
""fullscreenenter"",""5"",""12436""
","
","","","","","","","","","","","","","","","","","","","","","",""
"d3-instructions","48","224817","0.0-48.0","2765","6124","18","Female","true","true","false","true","""event"",""trial"",""time""
""fullscreenenter"",""5"",""12436""
","
","
","""event"",""trial"",""time""
""fullscreenenter"",""5"",""12436""
","
","","","","","","","","","","","","","","","","","","","","","",""
"d3-instructions","49","229233","0.0-49.0","2765","6124","18","Female","true","true","false","true","""event"",""trial"",""time""
""fullscreenenter"",""5"",""12436""
","
","
","""event"",""trial"",""time""
""fullscreenenter"",""5"",""12436""
","
","","","","","","","","","","","","","","","","","","","","","",""
"d3-instructions","50","233387","0.0-50.0","2765","6124","18","Female","true","true","false","true","""event"",""trial"",""time""
""fullscreenenter"",""5"",""12436""
","
","
","""event"",""trial"",""time""
""fullscreenenter"",""5"",""12436""
","
","","","","","","","","","","","","","","","","","","","","","",""
"d3-instructions","51","235648","0.0-51.0","2765","6124","18","Female","true","true","false","true","""event"",""trial"",""time""
""fullscreenenter"",""5"",""12436""
","
","
","""event"",""trial"",""time""
""fullscreenenter"",""5"",""12436""
","
","","","","","","","","","","","","","","","","","","","","","",""
"d3-instructions","52","236882","0.0-52.0","2765","6124","18","Female","true","true","false","true","""event"",""trial"",""time""
""fullscreenenter"",""5"",""12436""
","
","
","""event"",""trial"",""time""
""fullscreenenter"",""5"",""12436""
","
","","","","","","","","","","","","","","","","","","","","","",""
"d3-instructions","53","244728","0.0-53.0","2765","6124","18","Female","true","true","false","true","""event"",""trial"",""time""
""fullscreenenter"",""5"",""12436""
","
","
","""event"",""trial"",""time""
""fullscreenenter"",""5"",""12436""
","
","","","","","","","","","","","","","","","","","","","","","",""
"d3-instructions","54","252156","0.0-54.0","2765","6124","18","Female","true","true","false","true","""event"",""trial"",""time""
""fullscreenenter"",""5"",""12436""
","
","
","""event"",""trial"",""time""
""fullscreenenter"",""5"",""12436""
","
","","","","","","","","","","","","","","","","","","","","","",""
"d3-instructions","55","257536","0.0-55.0","2765","6124","18","Female","true","true","false","true","""event"",""trial"",""time""
""fullscreenenter"",""5"",""12436""
","
","
","""event"",""trial"",""time""
""fullscreenenter"",""5"",""12436""
","
","","","","","","","","","","","","","","","","","","","","","",""
"d3-instructions","56","262390","0.0-56.0","2765","6124","18","Female","true","true","false","true","""event"",""trial"",""time""
""fullscreenenter"",""5"",""12436""
","
","
","""event"",""trial"",""time""
""fullscreenenter"",""5"",""12436""
","
","","","","","","","","","","","","","","","","","","","","","",""
"d3-instructions","57","268001","0.0-57.0","2765","6124","18","Female","true","true","false","true","""event"",""trial"",""time""
""fullscreenenter"",""5"",""12436""
","
","
","""event"",""trial"",""time""
""fullscreenenter"",""5"",""12436""
","
","","","","","","","","","","","","","","","","","","","","","",""
"d3-instructions","58","273003","0.0-58.0","2765","6124","18","Female","true","true","false","true","""event"",""trial"",""time""
""fullscreenenter"",""5"",""12436""
","
","
","""event"",""trial"",""time""
""fullscreenenter"",""5"",""12436""
","
","","","","","","","","","","","","","","","","","","","","","",""
"d3-instructions","59","275149","0.0-59.0","2765","6124","18","Female","true","true","false","true","""event"",""trial"",""time""
""fullscreenenter"",""5"",""12436""
","
","
","""event"",""trial"",""time""
""fullscreenenter"",""5"",""12436""
","
","","","","","","","","","","","","","","","","","","","","","",""
"d3-instructions","60","277556","0.0-60.0","2765","6124","18","Female","true","true","false","true","""event"",""trial"",""time""
""fullscreenenter"",""5"",""12436""
","
","
","""event"",""trial"",""time""
""fullscreenenter"",""5"",""12436""
","
","","","","","","","","","","","","","","","","","","","","","",""
"d3-animate-choice","61","280774","0.0-61.0-0.0","2765","6124","18","Female","true","true","false","true","""event"",""trial"",""time""
""fullscreenenter"",""5"",""12436""
","
","
","""event"",""trial"",""time""
""fullscreenenter"",""5"",""12436""
","
","1212.5999999940395","","49","","","3000","1","","","images/earth.jpg","images/tutrocket2","images/tutrocket1","null","images/tutrocket1","","1","practice","null","1","","",""
"d3-animate-choice","62","283951","0.0-61.0-1.0","2765","6124","18","Female","true","true","false","true","""event"",""trial"",""time""
""fullscreenenter"",""5"",""12436""
","
","
","""event"",""trial"",""time""
""fullscreenenter"",""5"",""12436""
","
","1167.199999988079","","48","","","3000","1","","","images/tutyellowplanet.jpg","images/tutalien4","images/tutalien3","images/tutrocket1","images/tutalien4","images/t.png","2","practice","false","2","rare","1","2023-01-30 18:02:07.556"
"two-step-fixation","63","284968","0.0-61.0-2.0","2765","6124","18","Female","true","true","false","true","""event"",""trial"",""time""
""fullscreenenter"",""5"",""12436""
","
","
","""event"",""trial"",""time""
""fullscreenenter"",""5"",""12436""
","
","","images/earth.jpg","","","","","","","","","","","","","","fixation","","","","","",""
"d3-animate-choice","64","287694","0.0-61.0-0.1","2765","6124","18","Female","true","true","false","true","""event"",""trial"",""time""
""fullscreenenter"",""5"",""12436""
","
","
","""event"",""trial"",""time""
""fullscreenenter"",""5"",""12436""
","
","718.5","","49","","","3000","1","","","images/earth.jpg","images/tutrocket2","images/tutrocket1","null","images/tutrocket1","","1","practice","null","1","","",""
"d3-animate-choice","65","290316","0.0-61.0-1.1","2765","6124","18","Female","true","true","false","true","""event"",""trial"",""time""
""fullscreenenter"",""5"",""12436""
","
","
","""event"",""trial"",""time""
""fullscreenenter"",""5"",""12436""
","
","616.5","","48","","","3000","1","","","images/tutyellowplanet.jpg","images/tutalien4","images/tutalien3","images/tutrocket1","images/tutalien4","images/nothing.png","2","practice","false","2","rare","0","2023-01-30 18:02:13.921"
"two-step-fixation","66","291325","0.0-61.0-2.1","2765","6124","18","Female","true","true","false","true","""event"",""trial"",""time""
""fullscreenenter"",""5"",""12436""
","
","
","""event"",""trial"",""time""
""fullscreenenter"",""5"",""12436""
","
","","images/earth.jpg","","","","","","","","","","","","","","fixation","","","","","",""
"d3-animate-choice","67","294493","0.0-61.0-0.2","2765","6124","18","Female","true","true","false","true","""event"",""trial"",""time""
""fullscreenenter"",""5"",""12436""
","
","
","""event"",""trial"",""time""
""fullscreenenter"",""5"",""12436""
","
","1157.7999999970198","","49","","","3000","1","","","images/earth.jpg","images/tutrocket2","images/tutrocket1","null","images/tutrocket1","","1","practice","null","1","","",""
"d3-animate-choice","68","298150","0.0-61.0-1.2","2765","6124","18","Female","true","true","false","true","""event"",""trial"",""time""
""fullscreenenter"",""5"",""12436""
","
","
","""event"",""trial"",""time""
""fullscreenenter"",""5"",""12436""
","
","1651.7999999970198","","49","","","3000","1","","","images/tutgreenplanet.jpg","images/tutalien2","images/tutalien1","images/tutrocket1","images/tutalien1","images/t.png","2","practice","true","1","common","1","2023-01-30 18:02:21.754"
"two-step-fixation","69","299160","0.0-61.0-2.2","2765","6124","18","Female","true","true","false","true","""event"",""trial"",""time""
""fullscreenenter"",""5"",""12436""
","
","
","""event"",""trial"",""time""
""fullscreenenter"",""5"",""12436""
","
","","images/earth.jpg","","","","","","","","","","","","","","fixation","","","","","",""
"d3-animate-choice","70","302509","0.0-61.0-0.3","2765","6124","18","Female","true","true","false","true","""event"",""trial"",""time""
""fullscreenenter"",""5"",""12436""
","
","
","""event"",""trial"",""time""
""fullscreenenter"",""5"",""12436""
","
","1344.800000011921","","48","","","3000","1","","","images/earth.jpg","images/tutrocket2","images/tutrocket1","null","images/tutrocket2","","1","practice","null","2","","",""
"d3-animate-choice","71","306520","0.0-61.0-1.3","2765","6124","18","Female","true","true","false","true","""event"",""trial"",""time""
""fullscreenenter"",""5"",""12436""
","
","
","""event"",""trial"",""time""
""fullscreenenter"",""5"",""12436""
","
","2015.1000000089407","","48","","","3000","1","","","images/tutyellowplanet.jpg","images/tutalien4","images/tutalien3","images/tutrocket2","images/tutalien4","images/t.png","2","practice","true","2","common","1","2023-01-30 18:02:30.124"
"two-step-fixation","72","307527","0.0-61.0-2.3","2765","6124","18","Female","true","true","false","true","""event"",""trial"",""time""
""fullscreenenter"",""5"",""12436""
","
","
","""event"",""trial"",""time""
""fullscreenenter"",""5"",""12436""
","
","","images/earth.jpg","","","","","","","","","","","","","","fixation","","","","","",""
"d3-animate-choice","73","309976","0.0-61.0-0.4","2765","6124","18","Female","true","true","false","true","""event"",""trial"",""time""
""fullscreenenter"",""5"",""12436""
","
","
","""event"",""trial"",""time""
""fullscreenenter"",""5"",""12436""
","
","441.29999999701977","","49","","","3000","1","","","images/earth.jpg","images/tutrocket2","images/tutrocket1","null","images/tutrocket1","","1","practice","null","1","","",""
"d3-animate-choice","74","313118","0.0-61.0-1.4","2765","6124","18","Female","true","true","false","true","""event"",""trial"",""time""
""fullscreenenter"",""5"",""12436""
","
","
","""event"",""trial"",""time""
""fullscreenenter"",""5"",""12436""
","
","1132.300000011921","","49","","","3000","1","","","images/tutgreenplanet.jpg","images/tutalien2","images/tutalien1","images/tutrocket1","images/tutalien1","images/nothing.png","2","practice","true","1","common","0","2023-01-30 18:02:36.722"
"two-step-fixation","75","314126","0.0-61.0-2.4","2765","6124","18","Female","true","true","false","true","""event"",""trial"",""time""
""fullscreenenter"",""5"",""12436""
","
","
","""event"",""trial"",""time""
""fullscreenenter"",""5"",""12436""
","
","","images/earth.jpg","","","","","","","","","","","","","","fixation","","","","","",""
"d3-animate-choice","76","317310","0.0-61.0-0.5","2765","6124","18","Female","true","true","false","true","""event"",""trial"",""time""
""fullscreenenter"",""5"",""12436""
","
","
","""event"",""trial"",""time""
""fullscreenenter"",""5"",""12436""
","
","1174.2000000029802","","49","","","3000","1","","","images/earth.jpg","images/tutrocket2","images/tutrocket1","null","images/tutrocket1","","1","practice","null","1","","",""
"d3-animate-choice","77","319882","0.0-61.0-1.5","2765","6124","18","Female","true","true","false","true","""event"",""trial"",""time""
""fullscreenenter"",""5"",""12436""
","
","
","""event"",""trial"",""time""
""fullscreenenter"",""5"",""12436""
","
","564.3000000119209","","48","","","3000","1","","","images/tutyellowplanet.jpg","images/tutalien4","images/tutalien3","images/tutrocket1","images/tutalien4","images/t.png","2","practice","false","2","rare","1","2023-01-30 18:02:43.486"
"two-step-fixation","78","320894","0.0-61.0-2.5","2765","6124","18","Female","true","true","false","true","""event"",""trial"",""time""
""fullscreenenter"",""5"",""12436""
","
","
","""event"",""trial"",""time""
""fullscreenenter"",""5"",""12436""
","
","","images/earth.jpg","","","","","","","","","","","","","","fixation","","","","","",""
"d3-animate-choice","79","323422","0.0-61.0-0.6","2765","6124","18","Female","true","true","false","true","""event"",""trial"",""time""
""fullscreenenter"",""5"",""12436""
","
","
","""event"",""trial"",""time""
""fullscreenenter"",""5"",""12436""
","
","522","","49","","","3000","1","","","images/earth.jpg","images/tutrocket2","images/tutrocket1","null","images/tutrocket1","","1","practice","null","1","","",""
"d3-animate-choice","80","326424","0.0-61.0-1.6","2765","6124","18","Female","true","true","false","true","""event"",""trial"",""time""
""fullscreenenter"",""5"",""12436""
","
","
","""event"",""trial"",""time""
""fullscreenenter"",""5"",""12436""
","
","994.7999999970198","","48","","","3000","1","","","images/tutgreenplanet.jpg","images/tutalien2","images/tutalien1","images/tutrocket1","images/tutalien2","images/t.png","2","practice","true","2","common","1","2023-01-30 18:02:50.028"
"two-step-fixation","81","327432","0.0-61.0-2.6","2765","6124","18","Female","true","true","false","true","""event"",""trial"",""time""
""fullscreenenter"",""5"",""12436""
","
","
","""event"",""trial"",""time""
""fullscreenenter"",""5"",""12436""
","
","","images/earth.jpg","","","","","","","","","","","","","","fixation","","","","","",""
"d3-animate-choice","82","330568","0.0-61.0-0.7","2765","6124","18","Female","true","true","false","true","""event"",""trial"",""time""
""fullscreenenter"",""5"",""12436""
","
","
","""event"",""trial"",""time""
""fullscreenenter"",""5"",""12436""
","
","1126.7999999970198","","48","","","3000","1","","","images/earth.jpg","images/tutrocket2","images/tutrocket1","null","images/tutrocket2","","1","practice","null","2","","",""
"d3-animate-choice","83","333916","0.0-61.0-1.7","2765","6124","18","Female","true","true","false","true","""event"",""trial"",""time""
""fullscreenenter"",""5"",""12436""
","
","
","""event"",""trial"",""time""
""fullscreenenter"",""5"",""12436""
","
","1343.8999999910593","","48","","","3000","1","","","images/tutyellowplanet.jpg","images/tutalien4","images/tutalien3","images/tutrocket2","images/tutalien4","images/nothing.png","2","practice","true","2","common","0","2023-01-30 18:02:57.520"
"two-step-fixation","84","334926","0.0-61.0-2.7","2765","6124","18","Female","true","true","false","true","""event"",""trial"",""time""
""fullscreenenter"",""5"",""12436""
","
","
","""event"",""trial"",""time""
""fullscreenenter"",""5"",""12436""
","
","","images/earth.jpg","","","","","","","","","","","","","","fixation","","","","","",""
"d3-animate-choice","85","338638","0.0-61.0-0.8","2765","6124","18","Female","true","true","false","true","""event"",""trial"",""time""
""fullscreenenter"",""5"",""12436""
","
","
","""event"",""trial"",""time""
""fullscreenenter"",""5"",""12436""
","
","1702","","48","","","3000","1","","","images/earth.jpg","images/tutrocket2","images/tutrocket1","null","images/tutrocket2","","1","practice","null","2","","",""
"d3-animate-choice","86","341661","0.0-61.0-1.8","2765","6124","18","Female","true","true","false","true","""event"",""trial"",""time""
""fullscreenenter"",""5"",""12436""
","
","
","""event"",""trial"",""time""
""fullscreenenter"",""5"",""12436""
","
","1014.1000000089407","","48","","","3000","1","","","images/tutyellowplanet.jpg","images/tutalien4","images/tutalien3","images/tutrocket2","images/tutalien4","images/t.png","2","practice","true","2","common","1","2023-01-30 18:03:05.266"
"two-step-fixation","87","342670","0.0-61.0-2.8","2765","6124","18","Female","true","true","false","true","""event"",""trial"",""time""
""fullscreenenter"",""5"",""12436""
","
","
","""event"",""trial"",""time""
""fullscreenenter"",""5"",""12436""
","
","","images/earth.jpg","","","","","","","","","","","","","","fixation","","","","","",""
"d3-animate-choice","88","345214","0.0-61.0-0.9","2765","6124","18","Female","true","true","false","true","""event"",""trial"",""time""
""fullscreenenter"",""5"",""12436""
","
","
","""event"",""trial"",""time""
""fullscreenenter"",""5"",""12436""
","
","535.4000000059605","","49","","","3000","1","","","images/earth.jpg","images/tutrocket2","images/tutrocket1","null","images/tutrocket1","","1","practice","null","1","","",""
"d3-animate-choice","89","348024","0.0-61.0-1.9","2765","6124","18","Female","true","true","false","true","""event"",""trial"",""time""
""fullscreenenter"",""5"",""12436""
","
","
","""event"",""trial"",""time""
""fullscreenenter"",""5"",""12436""
","
","797.9000000059605","","48","","","3000","1","","","images/tutgreenplanet.jpg","images/tutalien2","images/tutalien1","images/tutrocket1","images/tutalien2","images/t.png","2","practice","true","2","common","1","2023-01-30 18:03:11.628"
"two-step-fixation","90","349032","0.0-61.0-2.9","2765","6124","18","Female","true","true","false","true","""event"",""trial"",""time""
""fullscreenenter"",""5"",""12436""
","
","
","""event"",""trial"",""time""
""fullscreenenter"",""5"",""12436""
","
","","images/earth.jpg","","","","","","","","","","","","","","fixation","","","","","",""
"d3-animate-choice","91","351416","0.0-61.0-0.10","2765","6124","18","Female","true","true","false","true","""event"",""trial"",""time""
""fullscreenenter"",""5"",""12436""
","
","
","""event"",""trial"",""time""
""fullscreenenter"",""5"",""12436""
","
","373","","49","","","3000","1","","","images/earth.jpg","images/tutrocket2","images/tutrocket1","null","images/tutrocket1","","1","practice","null","1","","",""
"d3-animate-choice","92","354061","0.0-61.0-1.10","2765","6124","18","Female","true","true","false","true","""event"",""trial"",""time""
""fullscreenenter"",""5"",""12436""
","
","
","""event"",""trial"",""time""
""fullscreenenter"",""5"",""12436""
","
","639.6999999880791","","48","","","3000","1","","","images/tutgreenplanet.jpg","images/tutalien2","images/tutalien1","images/tutrocket1","images/tutalien2","images/t.png","2","practice","true","2","common","1","2023-01-30 18:03:17.666"
"two-step-fixation","93","355069","0.0-61.0-2.10","2765","6124","18","Female","true","true","false","true","""event"",""trial"",""time""
""fullscreenenter"",""5"",""12436""
","
","
","""event"",""trial"",""time""
""fullscreenenter"",""5"",""12436""
","
","","images/earth.jpg","","","","","","","","","","","","","","fixation","","","","","",""
"d3-animate-choice","94","357429","0.0-61.0-0.11","2765","6124","18","Female","true","true","false","true","""event"",""trial"",""time""
""fullscreenenter"",""5"",""12436""
","
","
","""event"",""trial"",""time""
""fullscreenenter"",""5"",""12436""
","
","349.59999999403954","","49","","","3000","1","","","images/earth.jpg","images/tutrocket2","images/tutrocket1","null","images/tutrocket1","","1","practice","null","1","","",""
"d3-animate-choice","95","359831","0.0-61.0-1.11","2765","6124","18","Female","true","true","false","true","""event"",""trial"",""time""
""fullscreenenter"",""5"",""12436""
","
","
","""event"",""trial"",""time""
""fullscreenenter"",""5"",""12436""
","
","392","","48","","","3000","1","","","images/tutgreenplanet.jpg","images/tutalien2","images/tutalien1","images/tutrocket1","images/tutalien2","images/t.png","2","practice","true","2","common","1","2023-01-30 18:03:23.435"
"two-step-fixation","96","360838","0.0-61.0-2.11","2765","6124","18","Female","true","true","false","true","""event"",""trial"",""time""
""fullscreenenter"",""5"",""12436""
","
","
","""event"",""trial"",""time""
""fullscreenenter"",""5"",""12436""
","
","","images/earth.jpg","","","","","","","","","","","","","","fixation","","","","","",""
"d3-animate-choice","97","363213","0.0-61.0-0.12","2765","6124","18","Female","true","true","false","true","""event"",""trial"",""time""
""fullscreenenter"",""5"",""12436""
","
","
","""event"",""trial"",""time""
""fullscreenenter"",""5"",""12436""
","
","365.40000000596046","","49","","","3000","1","","","images/earth.jpg","images/tutrocket2","images/tutrocket1","null","images/tutrocket1","","1","practice","null","1","","",""
"d3-animate-choice","98","366056","0.0-61.0-1.12","2765","6124","18","Female","true","true","false","true","""event"",""trial"",""time""
""fullscreenenter"",""5"",""12436""
","
","
","""event"",""trial"",""time""
""fullscreenenter"",""5"",""12436""
","
","828.9000000059605","","48","","","3000","1","","","images/tutyellowplanet.jpg","images/tutalien4","images/tutalien3","images/tutrocket1","images/tutalien4","images/t.png","2","practice","false","2","rare","1","2023-01-30 18:03:29.660"
"two-step-fixation","99","367064","0.0-61.0-2.12","2765","6124","18","Female","true","true","false","true","""event"",""trial"",""time""
""fullscreenenter"",""5"",""12436""
","
","
","""event"",""trial"",""time""
""fullscreenenter"",""5"",""12436""
","
","","images/earth.jpg","","","","","","","","","","","","","","fixation","","","","","",""
"d3-animate-choice","100","369398","0.0-61.0-0.13","2765","6124","18","Female","true","true","false","true","""event"",""trial"",""time""
""fullscreenenter"",""5"",""12436""
","
","
","""event"",""trial"",""time""
""fullscreenenter"",""5"",""12436""
","
","323","","49","","","3000","1","","","images/earth.jpg","images/tutrocket2","images/tutrocket1","null","images/tutrocket1","","1","practice","null","1","","",""
"d3-animate-choice","101","371848","0.0-61.0-1.13","2765","6124","18","Female","true","true","false","true","""event"",""trial"",""time""
""fullscreenenter"",""5"",""12436""
","
","
","""event"",""trial"",""time""
""fullscreenenter"",""5"",""12436""
","
","445","","48","","","3000","1","","","images/tutgreenplanet.jpg","images/tutalien2","images/tutalien1","images/tutrocket1","images/tutalien2","images/nothing.png","2","practice","true","2","common","0","2023-01-30 18:03:35.452"
"two-step-fixation","102","372853","0.0-61.0-2.13","2765","6124","18","Female","true","true","false","true","""event"",""trial"",""time""
""fullscreenenter"",""5"",""12436""
","
","
","""event"",""trial"",""time""
""fullscreenenter"",""5"",""12436""
","
","","images/earth.jpg","","","","","","","","","","","","","","fixation","","","","","",""
"d3-animate-choice","103","375285","0.0-61.0-0.14","2765","6124","18","Female","true","true","false","true","""event"",""trial"",""time""
""fullscreenenter"",""5"",""12436""
","
","
","""event"",""trial"",""time""
""fullscreenenter"",""5"",""12436""
","
","425.70000000298023","","49","","","3000","1","","","images/earth.jpg","images/tutrocket2","images/tutrocket1","null","images/tutrocket1","","1","practice","null","1","","",""
"d3-animate-choice","104","377789","0.0-61.0-1.14","2765","6124","18","Female","true","true","false","true","""event"",""trial"",""time""
""fullscreenenter"",""5"",""12436""
","
","
","""event"",""trial"",""time""
""fullscreenenter"",""5"",""12436""
","
","495.70000000298023","","48","","","3000","1","","","images/tutgreenplanet.jpg","images/tutalien2","images/tutalien1","images/tutrocket1","images/tutalien2","images/nothing.png","2","practice","true","2","common","0","2023-01-30 18:03:41.394"
"two-step-fixation","105","378797","0.0-61.0-2.14","2765","6124","18","Female","true","true","false","true","""event"",""trial"",""time""
""fullscreenenter"",""5"",""12436""
","
","
","""event"",""trial"",""time""
""fullscreenenter"",""5"",""12436""
","
","","images/earth.jpg","","","","","","","","","","","","","","fixation","","","","","",""
"d3-animate-choice","106","381405","0.0-61.0-0.15","2765","6124","18","Female","true","true","false","true","""event"",""trial"",""time""
""fullscreenenter"",""5"",""12436""
","
","
","""event"",""trial"",""time""
""fullscreenenter"",""5"",""12436""
","
","603.5","","48","","","3000","1","","","images/earth.jpg","images/tutrocket2","images/tutrocket1","null","images/tutrocket2","","1","practice","null","2","","",""
"d3-animate-choice","107","385085","0.0-61.0-1.15","2765","6124","18","Female","true","true","false","true","""event"",""trial"",""time""
""fullscreenenter"",""5"",""12436""
","
","
","""event"",""trial"",""time""
""fullscreenenter"",""5"",""12436""
","
","1671","","49","","","3000","1","","","images/tutgreenplanet.jpg","images/tutalien2","images/tutalien1","images/tutrocket2","images/tutalien1","images/nothing.png","2","practice","false","1","rare","0","2023-01-30 18:03:48.689"
"two-step-fixation","108","386093","0.0-61.0-2.15","2765","6124","18","Female","true","true","false","true","""event"",""trial"",""time""
""fullscreenenter"",""5"",""12436""
","
","
","""event"",""trial"",""time""
""fullscreenenter"",""5"",""12436""
","
","","images/earth.jpg","","","","","","","","","","","","","","fixation","","","","","",""
"d3-animate-choice","109","388614","0.0-61.0-0.16","2765","6124","18","Female","true","true","false","true","""event"",""trial"",""time""
""fullscreenenter"",""5"",""12436""
","
","
","""event"",""trial"",""time""
""fullscreenenter"",""5"",""12436""
","
","509.09999999403954","","48","","","3000","1","","","images/earth.jpg","images/tutrocket2","images/tutrocket1","null","images/tutrocket2","","1","practice","null","2","","",""
"d3-animate-choice","110","391368","0.0-61.0-1.16","2765","6124","18","Female","true","true","false","true","""event"",""trial"",""time""
""fullscreenenter"",""5"",""12436""
","
","
","""event"",""trial"",""time""
""fullscreenenter"",""5"",""12436""
","
","745.7000000029802","","48","","","3000","1","","","images/tutyellowplanet.jpg","images/tutalien4","images/tutalien3","images/tutrocket2","images/tutalien4","images/t.png","2","practice","true","2","common","1","2023-01-30 18:03:54.972"
"two-step-fixation","111","392376","0.0-61.0-2.16","2765","6124","18","Female","true","true","false","true","""event"",""trial"",""time""
""fullscreenenter"",""5"",""12436""
","
","
","""event"",""trial"",""time""
""fullscreenenter"",""5"",""12436""
","
","","images/earth.jpg","","","","","","","","","","","","","","fixation","","","","","",""
"d3-animate-choice","112","395238","0.0-61.0-0.17","2765","6124","18","Female","true","true","false","true","""event"",""trial"",""time""
""fullscreenenter"",""5"",""12436""
","
","
","""event"",""trial"",""time""
""fullscreenenter"",""5"",""12436""
","
","855.1000000089407","","48","","","3000","1","","","images/earth.jpg","images/tutrocket2","images/tutrocket1","null","images/tutrocket2","","1","practice","null","2","","",""
"d3-animate-choice","113","399053","0.0-61.0-1.17","2765","6124","18","Female","true","true","false","true","""event"",""trial"",""time""
""fullscreenenter"",""5"",""12436""
","
","
","""event"",""trial"",""time""
""fullscreenenter"",""5"",""12436""
","
","1809.8999999910593","","49","","","3000","1","","","images/tutgreenplanet.jpg","images/tutalien2","images/tutalien1","images/tutrocket2","images/tutalien1","images/nothing.png","2","practice","false","1","rare","0","2023-01-30 18:04:02.658"
"two-step-fixation","114","400061","0.0-61.0-2.17","2765","6124","18","Female","true","true","false","true","""event"",""trial"",""time""
""fullscreenenter"",""5"",""12436""
","
","
","""event"",""trial"",""time""
""fullscreenenter"",""5"",""12436""
","
","","images/earth.jpg","","","","","","","","","","","","","","fixation","","","","","",""
"d3-animate-choice","115","402865","0.0-61.0-0.18","2765","6124","18","Female","true","true","false","true","""event"",""trial"",""time""
""fullscreenenter"",""5"",""12436""
","
","
","""event"",""trial"",""time""
""fullscreenenter"",""5"",""12436""
","
","795.5999999940395","","48","","","3000","1","","","images/earth.jpg","images/tutrocket2","images/tutrocket1","null","images/tutrocket2","","1","practice","null","2","","",""
"d3-animate-choice","116","405897","0.0-61.0-1.18","2765","6124","18","Female","true","true","false","true","""event"",""trial"",""time""
""fullscreenenter"",""5"",""12436""
","
","
","""event"",""trial"",""time""
""fullscreenenter"",""5"",""12436""
","
","1027.2999999970198","","48","","","3000","1","","","images/tutyellowplanet.jpg","images/tutalien4","images/tutalien3","images/tutrocket2","images/tutalien4","images/nothing.png","2","practice","true","2","common","0","2023-01-30 18:04:09.501"
"two-step-fixation","117","406901","0.0-61.0-2.18","2765","6124","18","Female","true","true","false","true","""event"",""trial"",""time""
""fullscreenenter"",""5"",""12436""
","
","
","""event"",""trial"",""time""
""fullscreenenter"",""5"",""12436""
","
","","images/earth.jpg","","","","","","","","","","","","","","fixation","","","","","",""
"d3-animate-choice","118","410331","0.0-61.0-0.19","2765","6124","18","Female","true","true","false","true","""event"",""trial"",""time""
""fullscreenenter"",""5"",""12436""
","
","
","""event"",""trial"",""time""
""fullscreenenter"",""5"",""12436""
","
","1422","","48","","","3000","1","","","images/earth.jpg","images/tutrocket2","images/tutrocket1","null","images/tutrocket2","","1","practice","null","2","","",""
"d3-animate-choice","119","413725","0.0-61.0-1.19","2765","6124","18","Female","true","true","false","true","""event"",""trial"",""time""
""fullscreenenter"",""5"",""12436""
","
","
","""event"",""trial"",""time""
""fullscreenenter"",""5"",""12436""
","
","1383.8999999910593","","48","","","3000","1","","","images/tutgreenplanet.jpg","images/tutalien2","images/tutalien1","images/tutrocket2","images/tutalien2","images/t.png","2","practice","false","2","rare","1","2023-01-30 18:04:17.330"
"two-step-fixation","120","414733","0.0-61.0-2.19","2765","6124","18","Female","true","true","false","true","""event"",""trial"",""time""
""fullscreenenter"",""5"",""12436""
","
","
","""event"",""trial"",""time""
""fullscreenenter"",""5"",""12436""
","
","","images/earth.jpg","","","","","","","","","","","","","","fixation","","","","","",""
"d3-instructions","121","417919","0.0-62.0","2765","6124","18","Female","true","true","false","true","""event"",""trial"",""time""
""fullscreenenter"",""5"",""12436""
","
","
","""event"",""trial"",""time""
""fullscreenenter"",""5"",""12436""
","
","","","","","","","","","","","","","","","","","","","","","",""
"audio-keyboard-response","122","420762","0.0-63.0","2765","6124","18","Female","true","true","false","true","""event"",""trial"",""time""
""fullscreenenter"",""5"",""12436""
","
","
","""event"",""trial"",""time""
""fullscreenenter"",""5"",""12436""
","
","2843","audio/instructions/treasure_feedback.wav","32","","","","","","","","","","","","","","","","","","",""
"d3-instructions","123","428251","0.0-64.0","2765","6124","18","Female","true","true","false","true","""event"",""trial"",""time""
""fullscreenenter"",""5"",""12436""
","
","
","""event"",""trial"",""time""
""fullscreenenter"",""5"",""12436""
","
","","","","","","","","","","","","","","","","","","","","","",""
"d3-instructions","124","438337","0.0-65.0","2765","6124","18","Female","true","true","false","true","""event"",""trial"",""time""
""fullscreenenter"",""5"",""12436""
","
","
","""event"",""trial"",""time""
""fullscreenenter"",""5"",""12436""
","
","","","","","","","","","","","","","","","","","","","","","",""
"d3-instructions","125","451009","0.0-66.0","2765","6124","18","Female","true","true","false","true","""event"",""trial"",""time""
""fullscreenenter"",""5"",""12436""
","
","
","""event"",""trial"",""time""
""fullscreenenter"",""5"",""12436""
","
","","","","","","","","","","","","","","","","","","","","","",""
"d3-instructions","126","458613","0.0-67.0","2765","6124","18","Female","true","true","false","true","""event"",""trial"",""time""
""fullscreenenter"",""5"",""12436""
","
","
","""event"",""trial"",""time""
""fullscreenenter"",""5"",""12436""
","
","","","","","","","","","","","","","","","","","","","","","",""
"d3-instructions","127","460907","0.0-68.0","2765","6124","18","Female","true","true","false","true","""event"",""trial"",""time""
""fullscreenenter"",""5"",""12436""
","
","
","""event"",""trial"",""time""
""fullscreenenter"",""5"",""12436""
","
","","","","","","","","","","","","","","","","","","","","","",""
"instructions-quiz","128","463707","0.0-69.0","2765","6124","18","Female","true","true","false","true","""event"",""trial"",""time""
""fullscreenenter"",""5"",""12436""
","
","
","""event"",""trial"",""time""
""fullscreenenter"",""5"",""12436""
","
","2797.5","audio/quiz/Q1_Prompt.wav","","1","","","","","","","","","","","","","","","","","",""
"audio-keyboard-response","129","464666","0.0-70.0","2765","6124","18","Female","true","true","false","true","""event"",""trial"",""time""
""fullscreenenter"",""5"",""12436""
","
","
","""event"",""trial"",""time""
""fullscreenenter"",""5"",""12436""
","
","955","audio/quiz/Q1_Correct.wav","32","","","","","","","","","","","","","","","","","","",""
"instructions-quiz","130","469975","0.0-71.0","2765","6124","18","Female","true","true","false","true","""event"",""trial"",""time""
""fullscreenenter"",""5"",""12436""
","
","
","""event"",""trial"",""time""
""fullscreenenter"",""5"",""12436""
","
","5306.800000011921","audio/quiz/Q2_Prompt.wav","","0","","","","","","","","","","","","","","","","","",""
"audio-keyboard-response","131","470137","0.0-72.0","2765","6124","18","Female","true","true","false","true","""event"",""trial"",""time""
""fullscreenenter"",""5"",""12436""
","
","
","""event"",""trial"",""time""
""fullscreenenter"",""5"",""12436""
","
","160","audio/quiz/Q2_Correct.wav","32","","","","","","","","","","","","","","","","","","",""
"instructions-quiz","132","473238","0.0-73.0","2765","6124","18","Female","true","true","false","true","""event"",""trial"",""time""
""fullscreenenter"",""5"",""12436""
","
","
","""event"",""trial"",""time""
""fullscreenenter"",""5"",""12436""
","
","3098.9000000059605","audio/quiz/Q3_Prompt.wav","","1","","","","","","","","","","","","","","","","","",""
"audio-keyboard-response","133","473612","0.0-74.0","2765","6124","18","Female","true","true","false","true","""event"",""trial"",""time""
""fullscreenenter"",""5"",""12436""
","
","
","""event"",""trial"",""time""
""fullscreenenter"",""5"",""12436""
","
","373","audio/quiz/Q3_Correct.wav","32","","","","","","","","","","","","","","","","","","",""
"d3-instructions","134","476377","0.0-75.0","2765","6124","18","Female","true","true","false","true","""event"",""trial"",""time""
""fullscreenenter"",""5"",""12436""
","
","
","""event"",""trial"",""time""
""fullscreenenter"",""5"",""12436""
","
","","","","","","","","","","","","","","","","","","","","","",""
"pavlovia","135","476379","0.0-76.0","2765","6124","18","Female","true","true","false","true","""event"",""trial"",""time""
""fullscreenenter"",""5"",""12436""
","
","
","""event"",""trial"",""time""
""fullscreenenter"",""5"",""12436""
","
","","","","","","","","","","","","","","","","","","","","","",""
"d3-animate-choice","136","479813","0.0-77.0-0.0","2765","6124","18","Female","true","true","false","true","""event"",""trial"",""time""
""fullscreenenter"",""5"",""12436""
","
","
","""event"",""trial"",""time""
""fullscreenenter"",""5"",""12436""
","
","1428.2000000029802","","49","","","3000","1","","","images/earth.jpg","images/rocket2","images/rocket1","null","images/rocket1","","1","real","null","1","","",""
"d3-animate-choice","137","483397","0.0-77.0-1.0","2765","6124","18","Female","true","true","false","true","""event"",""trial"",""time""
""fullscreenenter"",""5"",""12436""
","
","
","""event"",""trial"",""time""
""fullscreenenter"",""5"",""12436""
","
","1576.7999999970198","","48","","","3000","1","","","images/redplanet1.jpg","images/alien2","images/alien1","images/rocket1","images/alien2","images/t.png","2","real","true","2","common","1","2023-01-30 18:05:27.001"
"two-step-fixation","138","484407","0.0-77.0-2.0","2765","6124","18","Female","true","true","false","true","""event"",""trial"",""time""
""fullscreenenter"",""5"",""12436""
","
","
","""event"",""trial"",""time""
""fullscreenenter"",""5"",""12436""
","
","","images/earth.jpg","","","","","","","","","","","","","","fixation","","","","","",""
"d3-animate-choice","139","486894","0.0-77.0-0.1","2765","6124","18","Female","true","true","false","true","""event"",""trial"",""time""
""fullscreenenter"",""5"",""12436""
","
","
","""event"",""trial"",""time""
""fullscreenenter"",""5"",""12436""
","
","478.40000000596046","","49","","","3000","1","","","images/earth.jpg","images/rocket2","images/rocket1","null","images/rocket1","","1","real","null","1","","",""
"d3-animate-choice","140","489613","0.0-77.0-1.1","2765","6124","18","Female","true","true","false","true","""event"",""trial"",""time""
""fullscreenenter"",""5"",""12436""
","
","
","""event"",""trial"",""time""
""fullscreenenter"",""5"",""12436""
","
","713.2999999970198","","48","","","3000","1","","","images/redplanet1.jpg","images/alien2","images/alien1","images/rocket1","images/alien2","images/t.png","2","real","true","2","common","1","2023-01-30 18:05:33.217"
"two-step-fixation","141","490622","0.0-77.0-2.1","2765","6124","18","Female","true","true","false","true","""event"",""trial"",""time""
""fullscreenenter"",""5"",""12436""
","
","
","""event"",""trial"",""time""
""fullscreenenter"",""5"",""12436""
","
","","images/earth.jpg","","","","","","","","","","","","","","fixation","","","","","",""
"d3-animate-choice","142","492952","0.0-77.0-0.2","2765","6124","18","Female","true","true","false","true","""event"",""trial"",""time""
""fullscreenenter"",""5"",""12436""
","
","
","""event"",""trial"",""time""
""fullscreenenter"",""5"",""12436""
","
","321.09999999403954","","49","","","3000","1","","","images/earth.jpg","images/rocket2","images/rocket1","null","images/rocket1","","1","real","null","1","","",""
"d3-animate-choice","143","495309","0.0-77.0-1.2","2765","6124","18","Female","true","true","false","true","""event"",""trial"",""time""
""fullscreenenter"",""5"",""12436""
","
","
","""event"",""trial"",""time""
""fullscreenenter"",""5"",""12436""
","
","351.30000001192093","","48","","","3000","1","","","images/redplanet1.jpg","images/alien2","images/alien1","images/rocket1","images/alien2","images/nothing.png","2","real","true","2","common","0","2023-01-30 18:05:38.913"
"two-step-fixation","144","496313","0.0-77.0-2.2","2765","6124","18","Female","true","true","false","true","""event"",""trial"",""time""
""fullscreenenter"",""5"",""12436""
","
","
","""event"",""trial"",""time""
""fullscreenenter"",""5"",""12436""
","
","","images/earth.jpg","","","","","","","","","","","","","","fixation","","","","","",""
"d3-animate-choice","145","498693","0.0-77.0-0.3","2765","6124","18","Female","true","true","false","true","""event"",""trial"",""time""
""fullscreenenter"",""5"",""12436""
","
","
","""event"",""trial"",""time""
""fullscreenenter"",""5"",""12436""
","
","375.20000000298023","","49","","","3000","1","","","images/earth.jpg","images/rocket2","images/rocket1","null","images/rocket1","","1","real","null","1","","",""
"d3-animate-choice","146","502513","0.0-77.0-1.3","2765","6124","18","Female","true","true","false","true","""event"",""trial"",""time""
""fullscreenenter"",""5"",""12436""
","
","
","""event"",""trial"",""time""
""fullscreenenter"",""5"",""12436""
","
","1813.199999988079","","49","","","3000","1","","","images/purpleplanet.jpg","images/alien4","images/alien3","images/rocket1","images/alien3","images/nothing.png","2","real","false","1","rare","0","2023-01-30 18:05:46.117"
"two-step-fixation","147","503526","0.0-77.0-2.3","2765","6124","18","Female","true","true","false","true","""event"",""trial"",""time""
""fullscreenenter"",""5"",""12436""
","
","
","""event"",""trial"",""time""
""fullscreenenter"",""5"",""12436""
","
","","images/earth.jpg","","","","","","","","","","","","","","fixation","","","","","",""
"d3-animate-choice","148","505853","0.0-77.0-0.4","2765","6124","18","Female","true","true","false","true","""event"",""trial"",""time""
""fullscreenenter"",""5"",""12436""
","
","
","""event"",""trial"",""time""
""fullscreenenter"",""5"",""12436""
","
","319.8999999910593","","49","","","3000","1","","","images/earth.jpg","images/rocket2","images/rocket1","null","images/rocket1","","1","real","null","1","","",""
"d3-animate-choice","149","508365","0.0-77.0-1.4","2765","6124","18","Female","true","true","false","true","""event"",""trial"",""time""
""fullscreenenter"",""5"",""12436""
","
","
","""event"",""trial"",""time""
""fullscreenenter"",""5"",""12436""
","
","504.1000000089407","","48","","","3000","1","","","images/redplanet1.jpg","images/alien2","images/alien1","images/rocket1","images/alien2","images/t.png","2","real","true","2","common","1","2023-01-30 18:05:51.969"
"two-step-fixation","150","509374","0.0-77.0-2.4","2765","6124","18","Female","true","true","false","true","""event"",""trial"",""time""
""fullscreenenter"",""5"",""12436""
","
","
","""event"",""trial"",""time""
""fullscreenenter"",""5"",""12436""
","
","","images/earth.jpg","","","","","","","","","","","","","","fixation","","","","","",""
"d3-animate-choice","151","511685","0.0-77.0-0.5","2765","6124","18","Female","true","true","false","true","""event"",""trial"",""time""
""fullscreenenter"",""5"",""12436""
","
","
","""event"",""trial"",""time""
""fullscreenenter"",""5"",""12436""
","
","306.70000000298023","","49","","","3000","1","","","images/earth.jpg","images/rocket2","images/rocket1","null","images/rocket1","","1","real","null","1","","",""
"d3-animate-choice","152","514062","0.0-77.0-1.5","2765","6124","18","Female","true","true","false","true","""event"",""trial"",""time""
""fullscreenenter"",""5"",""12436""
","
","
","""event"",""trial"",""time""
""fullscreenenter"",""5"",""12436""
","
","363.90000000596046","","48","","","3000","1","","","images/redplanet1.jpg","images/alien2","images/alien1","images/rocket1","images/alien2","images/t.png","2","real","true","2","common","1","2023-01-30 18:05:57.666"
"two-step-fixation","153","515070","0.0-77.0-2.5","2765","6124","18","Female","true","true","false","true","""event"",""trial"",""time""
""fullscreenenter"",""5"",""12436""
","
","
","""event"",""trial"",""time""
""fullscreenenter"",""5"",""12436""
","
","","images/earth.jpg","","","","","","","","","","","","","","fixation","","","","","",""
"d3-animate-choice","154","517374","0.0-77.0-0.6","2765","6124","18","Female","true","true","false","true","""event"",""trial"",""time""
""fullscreenenter"",""5"",""12436""
","
","
","""event"",""trial"",""time""
""fullscreenenter"",""5"",""12436""
","
","297.59999999403954","","49","","","3000","1","","","images/earth.jpg","images/rocket2","images/rocket1","null","images/rocket1","","1","real","null","1","","",""
"d3-animate-choice","155","520590","0.0-77.0-1.6","2765","6124","18","Female","true","true","false","true","""event"",""trial"",""time""
""fullscreenenter"",""5"",""12436""
","
","
","""event"",""trial"",""time""
""fullscreenenter"",""5"",""12436""
","
","1205","","48","","","3000","1","","","images/purpleplanet.jpg","images/alien4","images/alien3","images/rocket1","images/alien4","images/t.png","2","real","false","2","rare","1","2023-01-30 18:06:04.194"
"two-step-fixation","156","521597","0.0-77.0-2.6","2765","6124","18","Female","true","true","false","true","""event"",""trial"",""time""
""fullscreenenter"",""5"",""12436""
","
","
","""event"",""trial"",""time""
""fullscreenenter"",""5"",""12436""
","
","","images/earth.jpg","","","","","","","","","","","","","","fixation","","","","","",""
"d3-animate-choice","157","524238","0.0-77.0-0.7","2765","6124","18","Female","true","true","false","true","""event"",""trial"",""time""
""fullscreenenter"",""5"",""12436""
","
","
","""event"",""trial"",""time""
""fullscreenenter"",""5"",""12436""
","
","634.1000000089407","","49","","","3000","1","","","images/earth.jpg","images/rocket2","images/rocket1","null","images/rocket1","","1","real","null","1","","",""
"d3-animate-choice","158","526733","0.0-77.0-1.7","2765","6124","18","Female","true","true","false","true","""event"",""trial"",""time""
""fullscreenenter"",""5"",""12436""
","
","
","""event"",""trial"",""time""
""fullscreenenter"",""5"",""12436""
","
","491.09999999403954","","48","","","3000","1","","","images/redplanet1.jpg","images/alien2","images/alien1","images/rocket1","images/alien2","images/t.png","2","real","true","2","common","1","2023-01-30 18:06:10.337"
"two-step-fixation","159","527742","0.0-77.0-2.7","2765","6124","18","Female","true","true","false","true","""event"",""trial"",""time""
""fullscreenenter"",""5"",""12436""
","
","
","""event"",""trial"",""time""
""fullscreenenter"",""5"",""12436""
","
","","images/earth.jpg","","","","","","","","","","","","","","fixation","","","","","",""
"d3-animate-choice","160","530030","0.0-77.0-0.8","2765","6124","18","Female","true","true","false","true","""event"",""trial"",""time""
""fullscreenenter"",""5"",""12436""
","
","
","""event"",""trial"",""time""
""fullscreenenter"",""5"",""12436""
","
","282.30000001192093","","49","","","3000","1","","","images/earth.jpg","images/rocket2","images/rocket1","null","images/rocket1","","1","real","null","1","","",""
"d3-animate-choice","161","532654","0.0-77.0-1.8","2765","6124","18","Female","true","true","false","true","""event"",""trial"",""time""
""fullscreenenter"",""5"",""12436""
","
","
","""event"",""trial"",""time""
""fullscreenenter"",""5"",""12436""
","
","617.2000000029802","","48","","","3000","1","","","images/redplanet1.jpg","images/alien2","images/alien1","images/rocket1","images/alien2","images/t.png","2","real","true","2","common","1","2023-01-30 18:06:16.258"
"two-step-fixation","162","533662","0.0-77.0-2.8","2765","6124","18","Female","true","true","false","true","""event"",""trial"",""time""
""fullscreenenter"",""5"",""12436""
","
","
","""event"",""trial"",""time""
""fullscreenenter"",""5"",""12436""
","
","","images/earth.jpg","","","","","","","","","","","","","","fixation","","","","","",""
"d3-animate-choice","163","536112","0.0-77.0-0.9","2765","6124","18","Female","true","true","false","true","""event"",""trial"",""time""
""fullscreenenter"",""5"",""12436""
","
","
","""event"",""trial"",""time""
""fullscreenenter"",""5"",""12436""
","
","443.59999999403954","","49","","","3000","1","","","images/earth.jpg","images/rocket2","images/rocket1","null","images/rocket1","","1","real","null","1","","",""
"d3-animate-choice","164","538494","0.0-77.0-1.9","2765","6124","18","Female","true","true","false","true","""event"",""trial"",""time""
""fullscreenenter"",""5"",""12436""
","
","
","""event"",""trial"",""time""
""fullscreenenter"",""5"",""12436""
","
","378.5","","48","","","3000","1","","","images/redplanet1.jpg","images/alien2","images/alien1","images/rocket1","images/alien2","images/t.png","2","real","true","2","common","1","2023-01-30 18:06:22.098"
"two-step-fixation","165","539501","0.0-77.0-2.9","2765","6124","18","Female","true","true","false","true","""event"",""trial"",""time""
""fullscreenenter"",""5"",""12436""
","
","
","""event"",""trial"",""time""
""fullscreenenter"",""5"",""12436""
","
","","images/earth.jpg","","","","","","","","","","","","","","fixation","","","","","",""
"d3-animate-choice","166","541805","0.0-77.0-0.10","2765","6124","18","Female","true","true","false","true","""event"",""trial"",""time""
""fullscreenenter"",""5"",""12436""
","
","
","""event"",""trial"",""time""
""fullscreenenter"",""5"",""12436""
","
","297.80000001192093","","49","","","3000","1","","","images/earth.jpg","images/rocket2","images/rocket1","null","images/rocket1","","1","real","null","1","","",""
"d3-animate-choice","167","544195","0.0-77.0-1.10","2765","6124","18","Female","true","true","false","true","""event"",""trial"",""time""
""fullscreenenter"",""5"",""12436""
","
","
","""event"",""trial"",""time""
""fullscreenenter"",""5"",""12436""
","
","386","","48","","","3000","1","","","images/redplanet1.jpg","images/alien2","images/alien1","images/rocket1","images/alien2","images/t.png","2","real","true","2","common","1","2023-01-30 18:06:27.799"
"two-step-fixation","168","545204","0.0-77.0-2.10","2765","6124","18","Female","true","true","false","true","""event"",""trial"",""time""
""fullscreenenter"",""5"",""12436""
","
","
","""event"",""trial"",""time""
""fullscreenenter"",""5"",""12436""
","
","","images/earth.jpg","","","","","","","","","","","","","","fixation","","","","","",""
"d3-animate-choice","169","547558","0.0-77.0-0.11","2765","6124","18","Female","true","true","false","true","""event"",""trial"",""time""
""fullscreenenter"",""5"",""12436""
","
","
","""event"",""trial"",""time""
""fullscreenenter"",""5"",""12436""
","
","347.20000000298023","","49","","","3000","1","","","images/earth.jpg","images/rocket2","images/rocket1","null","images/rocket1","","1","real","null","1","","",""
"d3-animate-choice","170","550109","0.0-77.0-1.11","2765","6124","18","Female","true","true","false","true","""event"",""trial"",""time""
""fullscreenenter"",""5"",""12436""
","
","
","""event"",""trial"",""time""
""fullscreenenter"",""5"",""12436""
","
","541.9000000059605","","48","","","3000","1","","","images/redplanet1.jpg","images/alien2","images/alien1","images/rocket1","images/alien2","images/t.png","2","real","true","2","common","1","2023-01-30 18:06:33.713"
"two-step-fixation","171","551117","0.0-77.0-2.11","2765","6124","18","Female","true","true","false","true","""event"",""trial"",""time""
""fullscreenenter"",""5"",""12436""
","
","
","""event"",""trial"",""time""
""fullscreenenter"",""5"",""12436""
","
","","images/earth.jpg","","","","","","","","","","","","","","fixation","","","","","",""
"d3-animate-choice","172","553445","0.0-77.0-0.12","2765","6124","18","Female","true","true","false","true","""event"",""trial"",""time""
""fullscreenenter"",""5"",""12436""
","
","
","""event"",""trial"",""time""
""fullscreenenter"",""5"",""12436""
","
","322.6000000089407","","49","","","3000","1","","","images/earth.jpg","images/rocket2","images/rocket1","null","images/rocket1","","1","real","null","1","","",""
"d3-animate-choice","173","555795","0.0-77.0-1.12","2765","6124","18","Female","true","true","false","true","""event"",""trial"",""time""
""fullscreenenter"",""5"",""12436""
","
","
","""event"",""trial"",""time""
""fullscreenenter"",""5"",""12436""
","
","342.20000000298023","","48","","","3000","1","","","images/redplanet1.jpg","images/alien2","images/alien1","images/rocket1","images/alien2","images/t.png","2","real","true","2","common","1","2023-01-30 18:06:39.400"
"two-step-fixation","174","556806","0.0-77.0-2.12","2765","6124","18","Female","true","true","false","true","""event"",""trial"",""time""
""fullscreenenter"",""5"",""12436""
","
","
","""event"",""trial"",""time""
""fullscreenenter"",""5"",""12436""
","
","","images/earth.jpg","","","","","","","","","","","","","","fixation","","","","","",""
"d3-animate-choice","175","559159","0.0-77.0-0.13","2765","6124","18","Female","true","true","false","true","""event"",""trial"",""time""
""fullscreenenter"",""5"",""12436""
","
","
","""event"",""trial"",""time""
""fullscreenenter"",""5"",""12436""
","
","338.8999999910593","","49","","","3000","1","","","images/earth.jpg","images/rocket2","images/rocket1","null","images/rocket1","","1","real","null","1","","",""
"d3-animate-choice","176","561656","0.0-77.0-1.13","2765","6124","18","Female","true","true","false","true","""event"",""trial"",""time""
""fullscreenenter"",""5"",""12436""
","
","
","""event"",""trial"",""time""
""fullscreenenter"",""5"",""12436""
","
","486.8999999910593","","48","","","3000","1","","","images/redplanet1.jpg","images/alien2","images/alien1","images/rocket1","images/alien2","images/t.png","2","real","true","2","common","1","2023-01-30 18:06:45.260"
"two-step-fixation","177","562664","0.0-77.0-2.13","2765","6124","18","Female","true","true","false","true","""event"",""trial"",""time""
""fullscreenenter"",""5"",""12436""
","
","
","""event"",""trial"",""time""
""fullscreenenter"",""5"",""12436""
","
","","images/earth.jpg","","","","","","","","","","","","","","fixation","","","","","",""
"d3-animate-choice","178","564990","0.0-77.0-0.14","2765","6124","18","Female","true","true","false","true","""event"",""trial"",""time""
""fullscreenenter"",""5"",""12436""
","
","
","""event"",""trial"",""time""
""fullscreenenter"",""5"",""12436""
","
","317.3999999910593","","49","","","3000","1","","","images/earth.jpg","images/rocket2","images/rocket1","null","images/rocket1","","1","real","null","1","","",""
"d3-animate-choice","179","567758","0.0-77.0-1.14","2765","6124","18","Female","true","true","false","true","""event"",""trial"",""time""
""fullscreenenter"",""5"",""12436""
","
","
","""event"",""trial"",""time""
""fullscreenenter"",""5"",""12436""
","
","756.7999999970198","","48","","","3000","1","","","images/redplanet1.jpg","images/alien2","images/alien1","images/rocket1","images/alien2","images/t.png","2","real","true","2","common","1","2023-01-30 18:06:51.362"
"two-step-fixation","180","568765","0.0-77.0-2.14","2765","6124","18","Female","true","true","false","true","""event"",""trial"",""time""
""fullscreenenter"",""5"",""12436""
","
","
","""event"",""trial"",""time""
""fullscreenenter"",""5"",""12436""
","
","","images/earth.jpg","","","","","","","","","","","","","","fixation","","","","","",""
"d3-animate-choice","181","571109","0.0-77.0-0.15","2765","6124","18","Female","true","true","false","true","""event"",""trial"",""time""
""fullscreenenter"",""5"",""12436""
","
","
","""event"",""trial"",""time""
""fullscreenenter"",""5"",""12436""
","
","334.59999999403954","","49","","","3000","1","","","images/earth.jpg","images/rocket2","images/rocket1","null","images/rocket1","","1","real","null","1","","",""
"d3-animate-choice","182","573454","0.0-77.0-1.15","2765","6124","18","Female","true","true","false","true","""event"",""trial"",""time""
""fullscreenenter"",""5"",""12436""
","
","
","""event"",""trial"",""time""
""fullscreenenter"",""5"",""12436""
","
","333.5","","48","","","3000","1","","","images/redplanet1.jpg","images/alien2","images/alien1","images/rocket1","images/alien2","images/nothing.png","2","real","true","2","common","0","2023-01-30 18:06:57.058"
"two-step-fixation","183","574461","0.0-77.0-2.15","2765","6124","18","Female","true","true","false","true","""event"",""trial"",""time""
""fullscreenenter"",""5"",""12436""
","
","
","""event"",""trial"",""time""
""fullscreenenter"",""5"",""12436""
","
","","images/earth.jpg","","","","","","","","","","","","","","fixation","","","","","",""
"d3-animate-choice","184","577592","0.0-77.0-0.16","2765","6124","18","Female","true","true","false","true","""event"",""trial"",""time""
""fullscreenenter"",""5"",""12436""
","
","
","""event"",""trial"",""time""
""fullscreenenter"",""5"",""12436""
","
","1115.7000000029802","","49","","","3000","1","","","images/earth.jpg","images/rocket2","images/rocket1","null","images/rocket1","","1","real","null","1","","",""
"d3-animate-choice","185","579973","0.0-77.0-1.16","2765","6124","18","Female","true","true","false","true","""event"",""trial"",""time""
""fullscreenenter"",""5"",""12436""
","
","
","""event"",""trial"",""time""
""fullscreenenter"",""5"",""12436""
","
","375.1000000089407","","48","","","3000","1","","","images/redplanet1.jpg","images/alien2","images/alien1","images/rocket1","images/alien2","images/t.png","2","real","true","2","common","1","2023-01-30 18:07:03.577"
"two-step-fixation","186","580979","0.0-77.0-2.16","2765","6124","18","Female","true","true","false","true","""event"",""trial"",""time""
""fullscreenenter"",""5"",""12436""
","
","
","""event"",""trial"",""time""
""fullscreenenter"",""5"",""12436""
","
","","images/earth.jpg","","","","","","","","","","","","","","fixation","","","","","",""
"d3-animate-choice","187","583438","0.0-77.0-0.17","2765","6124","18","Female","true","true","false","true","""event"",""trial"",""time""
""fullscreenenter"",""5"",""12436""
","
","
","""event"",""trial"",""time""
""fullscreenenter"",""5"",""12436""
","
","448.6000000089407","","49","","","3000","1","","","images/earth.jpg","images/rocket2","images/rocket1","null","images/rocket1","","1","real","null","1","","",""
"d3-animate-choice","188","585778","0.0-77.0-1.17","2765","6124","18","Female","true","true","false","true","""event"",""trial"",""time""
""fullscreenenter"",""5"",""12436""
","
","
","""event"",""trial"",""time""
""fullscreenenter"",""5"",""12436""
","
","334.69999998807907","","48","","","3000","1","","","images/purpleplanet.jpg","images/alien4","images/alien3","images/rocket1","images/alien4","images/t.png","2","real","false","2","rare","1","2023-01-30 18:07:09.382"
"two-step-fixation","189","586790","0.0-77.0-2.17","2765","6124","18","Female","true","true","false","true","""event"",""trial"",""time""
""fullscreenenter"",""5"",""12436""
","
","
","""event"",""trial"",""time""
""fullscreenenter"",""5"",""12436""
","
","","images/earth.jpg","","","","","","","","","","","","","","fixation","","","","","",""
"d3-animate-choice","190","589143","0.0-77.0-0.18","2765","6124","18","Female","true","true","false","true","""event"",""trial"",""time""
""fullscreenenter"",""5"",""12436""
","
","
","""event"",""trial"",""time""
""fullscreenenter"",""5"",""12436""
","
","341.90000000596046","","49","","","3000","1","","","images/earth.jpg","images/rocket2","images/rocket1","null","images/rocket1","","1","real","null","1","","",""
"d3-animate-choice","191","591565","0.0-77.0-1.18","2765","6124","18","Female","true","true","false","true","""event"",""trial"",""time""
""fullscreenenter"",""5"",""12436""
","
","
","""event"",""trial"",""time""
""fullscreenenter"",""5"",""12436""
","
","414.79999999701977","","48","","","3000","1","","","images/redplanet1.jpg","images/alien2","images/alien1","images/rocket1","images/alien2","images/t.png","2","real","true","2","common","1","2023-01-30 18:07:15.169"
"two-step-fixation","192","592573","0.0-77.0-2.18","2765","6124","18","Female","true","true","false","true","""event"",""trial"",""time""
""fullscreenenter"",""5"",""12436""
","
","
","""event"",""trial"",""time""
""fullscreenenter"",""5"",""12436""
","
","","images/earth.jpg","","","","","","","","","","","","","","fixation","","","","","",""
"d3-animate-choice","193","594901","0.0-77.0-0.19","2765","6124","18","Female","true","true","false","true","""event"",""trial"",""time""
""fullscreenenter"",""5"",""12436""
","
","
","""event"",""trial"",""time""
""fullscreenenter"",""5"",""12436""
","
","321.79999999701977","","49","","","3000","1","","","images/earth.jpg","images/rocket2","images/rocket1","null","images/rocket1","","1","real","null","1","","",""
"d3-animate-choice","194","597453","0.0-77.0-1.19","2765","6124","18","Female","true","true","false","true","""event"",""trial"",""time""
""fullscreenenter"",""5"",""12436""
","
","
","""event"",""trial"",""time""
""fullscreenenter"",""5"",""12436""
","
","540.2000000029802","","48","","","3000","1","","","images/redplanet1.jpg","images/alien2","images/alien1","images/rocket1","images/alien2","images/t.png","2","real","true","2","common","1","2023-01-30 18:07:21.058"
"two-step-fixation","195","598461","0.0-77.0-2.19","2765","6124","18","Female","true","true","false","true","""event"",""trial"",""time""
""fullscreenenter"",""5"",""12436""
","
","
","""event"",""trial"",""time""
""fullscreenenter"",""5"",""12436""
","
","","images/earth.jpg","","","","","","","","","","","","","","fixation","","","","","",""
"d3-animate-choice","196","600790","0.0-77.0-0.20","2765","6124","18","Female","true","true","false","true","""event"",""trial"",""time""
""fullscreenenter"",""5"",""12436""
","
","
","""event"",""trial"",""time""
""fullscreenenter"",""5"",""12436""
","
","316.59999999403954","","49","","","3000","1","","","images/earth.jpg","images/rocket2","images/rocket1","null","images/rocket1","","1","real","null","1","","",""
"d3-animate-choice","197","603806","0.0-77.0-1.20","2765","6124","18","Female","true","true","false","true","""event"",""trial"",""time""
""fullscreenenter"",""5"",""12436""
","
","
","""event"",""trial"",""time""
""fullscreenenter"",""5"",""12436""
","
","1004","","48","","","3000","1","","","images/purpleplanet.jpg","images/alien4","images/alien3","images/rocket1","images/alien4","images/t.png","2","real","false","2","rare","1","2023-01-30 18:07:27.410"
"two-step-fixation","198","604811","0.0-77.0-2.20","2765","6124","18","Female","true","true","false","true","""event"",""trial"",""time""
""fullscreenenter"",""5"",""12436""
","
","
","""event"",""trial"",""time""
""fullscreenenter"",""5"",""12436""
","
","","images/earth.jpg","","","","","","","","","","","","","","fixation","","","","","",""
"d3-animate-choice","199","607294","0.0-77.0-0.21","2765","6124","18","Female","true","true","false","true","""event"",""trial"",""time""
""fullscreenenter"",""5"",""12436""
","
","
","""event"",""trial"",""time""
""fullscreenenter"",""5"",""12436""
","
","469.20000000298023","","49","","","3000","1","","","images/earth.jpg","images/rocket2","images/rocket1","null","images/rocket1","","1","real","null","1","","",""
"d3-animate-choice","200","609790","0.0-77.0-1.21","2765","6124","18","Female","true","true","false","true","""event"",""trial"",""time""
""fullscreenenter"",""5"",""12436""
","
","
","""event"",""trial"",""time""
""fullscreenenter"",""5"",""12436""
","
","489.70000000298023","","48","","","3000","1","","","images/redplanet1.jpg","images/alien2","images/alien1","images/rocket1","images/alien2","images/nothing.png","2","real","true","2","common","0","2023-01-30 18:07:33.394"
"two-step-fixation","201","610794","0.0-77.0-2.21","2765","6124","18","Female","true","true","false","true","""event"",""trial"",""time""
""fullscreenenter"",""5"",""12436""
","
","
","""event"",""trial"",""time""
""fullscreenenter"",""5"",""12436""
","
","","images/earth.jpg","","","","","","","","","","","","","","fixation","","","","","",""
"d3-animate-choice","202","613159","0.0-77.0-0.22","2765","6124","18","Female","true","true","false","true","""event"",""trial"",""time""
""fullscreenenter"",""5"",""12436""
","
","
","""event"",""trial"",""time""
""fullscreenenter"",""5"",""12436""
","
","357.59999999403954","","49","","","3000","1","","","images/earth.jpg","images/rocket2","images/rocket1","null","images/rocket1","","1","real","null","1","","",""
"d3-animate-choice","203","615927","0.0-77.0-1.22","2765","6124","18","Female","true","true","false","true","""event"",""trial"",""time""
""fullscreenenter"",""5"",""12436""
","
","
","""event"",""trial"",""time""
""fullscreenenter"",""5"",""12436""
","
","757.1000000089407","","48","","","3000","1","","","images/redplanet1.jpg","images/alien2","images/alien1","images/rocket1","images/alien2","images/t.png","2","real","true","2","common","1","2023-01-30 18:07:39.531"
"two-step-fixation","204","616933","0.0-77.0-2.22","2765","6124","18","Female","true","true","false","true","""event"",""trial"",""time""
""fullscreenenter"",""5"",""12436""
","
","
","""event"",""trial"",""time""
""fullscreenenter"",""5"",""12436""
","
","","images/earth.jpg","","","","","","","","","","","","","","fixation","","","","","",""
"d3-animate-choice","205","619761","0.0-77.0-0.23","2765","6124","18","Female","true","true","false","true","""event"",""trial"",""time""
""fullscreenenter"",""5"",""12436""
","
","
","""event"",""trial"",""time""
""fullscreenenter"",""5"",""12436""
","
","822","","49","","","3000","1","","","images/earth.jpg","images/rocket2","images/rocket1","null","images/rocket1","","1","real","null","1","","",""
"d3-animate-choice","206","622621","0.0-77.0-1.23","2765","6124","18","Female","true","true","false","true","""event"",""trial"",""time""
""fullscreenenter"",""5"",""12436""
","
","
","""event"",""trial"",""time""
""fullscreenenter"",""5"",""12436""
","
","847.5999999940395","","48","","","3000","1","","","images/purpleplanet.jpg","images/alien4","images/alien3","images/rocket1","images/alien4","images/t.png","2","real","false","2","rare","1","2023-01-30 18:07:46.225"
"two-step-fixation","207","623629","0.0-77.0-2.23","2765","6124","18","Female","true","true","false","true","""event"",""trial"",""time""
""fullscreenenter"",""5"",""12436""
","
","
","""event"",""trial"",""time""
""fullscreenenter"",""5"",""12436""
","
","","images/earth.jpg","","","","","","","","","","","","","","fixation","","","","","",""
"d3-animate-choice","208","626211","0.0-77.0-0.24","2765","6124","18","Female","true","true","false","true","""event"",""trial"",""time""
""fullscreenenter"",""5"",""12436""
","
","
","""event"",""trial"",""time""
""fullscreenenter"",""5"",""12436""
","
","574.2999999970198","","49","","","3000","1","","","images/earth.jpg","images/rocket2","images/rocket1","null","images/rocket1","","1","real","null","1","","",""
"d3-animate-choice","209","628742","0.0-77.0-1.24","2765","6124","18","Female","true","true","false","true","""event"",""trial"",""time""
""fullscreenenter"",""5"",""12436""
","
","
","""event"",""trial"",""time""
""fullscreenenter"",""5"",""12436""
","
","519.2999999970198","","48","","","3000","1","","","images/redplanet1.jpg","images/alien2","images/alien1","images/rocket1","images/alien2","images/t.png","2","real","true","2","common","1","2023-01-30 18:07:52.347"
"two-step-fixation","210","629749","0.0-77.0-2.24","2765","6124","18","Female","true","true","false","true","""event"",""trial"",""time""
""fullscreenenter"",""5"",""12436""
","
","
","""event"",""trial"",""time""
""fullscreenenter"",""5"",""12436""
","
","","images/earth.jpg","","","","","","","","","","","","","","fixation","","","","","",""
"d3-animate-choice","211","632072","0.0-77.0-0.25","2765","6124","18","Female","true","true","false","true","""event"",""trial"",""time""
""fullscreenenter"",""5"",""12436""
","
","
","""event"",""trial"",""time""
""fullscreenenter"",""5"",""12436""
","
","315.6000000089407","","49","","","3000","1","","","images/earth.jpg","images/rocket2","images/rocket1","null","images/rocket1","","1","real","null","1","","",""
"d3-animate-choice","212","634509","0.0-77.0-1.25","2765","6124","18","Female","true","true","false","true","""event"",""trial"",""time""
""fullscreenenter"",""5"",""12436""
","
","
","""event"",""trial"",""time""
""fullscreenenter"",""5"",""12436""
","
","431.90000000596046","","48","","","3000","1","","","images/redplanet1.jpg","images/alien2","images/alien1","images/rocket1","images/alien2","images/t.png","2","real","true","2","common","1","2023-01-30 18:07:58.114"
"two-step-fixation","213","635517","0.0-77.0-2.25","2765","6124","18","Female","true","true","false","true","""event"",""trial"",""time""
""fullscreenenter"",""5"",""12436""
","
","
","""event"",""trial"",""time""
""fullscreenenter"",""5"",""12436""
","
","","images/earth.jpg","","","","","","","","","","","","","","fixation","","","","","",""
"d3-animate-choice","214","637901","0.0-77.0-0.26","2765","6124","18","Female","true","true","false","true","""event"",""trial"",""time""
""fullscreenenter"",""5"",""12436""
","
","
","""event"",""trial"",""time""
""fullscreenenter"",""5"",""12436""
","
","374.80000001192093","","49","","","3000","1","","","images/earth.jpg","images/rocket2","images/rocket1","null","images/rocket1","","1","real","null","1","","",""
"d3-animate-choice","215","640382","0.0-77.0-1.26","2765","6124","18","Female","true","true","false","true","""event"",""trial"",""time""
""fullscreenenter"",""5"",""12436""
","
","
","""event"",""trial"",""time""
""fullscreenenter"",""5"",""12436""
","
","469.69999998807907","","48","","","3000","1","","","images/redplanet1.jpg","images/alien2","images/alien1","images/rocket1","images/alien2","images/nothing.png","2","real","true","2","common","0","2023-01-30 18:08:03.986"
"two-step-fixation","216","641389","0.0-77.0-2.26","2765","6124","18","Female","true","true","false","true","""event"",""trial"",""time""
""fullscreenenter"",""5"",""12436""
","
","
","""event"",""trial"",""time""
""fullscreenenter"",""5"",""12436""
","
","","images/earth.jpg","","","","","","","","","","","","","","fixation","","","","","",""
"d3-animate-choice","217","644227","0.0-77.0-0.27","2765","6124","18","Female","true","true","false","true","""event"",""trial"",""time""
""fullscreenenter"",""5"",""12436""
","
","
","""event"",""trial"",""time""
""fullscreenenter"",""5"",""12436""
","
","833.0999999940395","","48","","","3000","1","","","images/earth.jpg","images/rocket2","images/rocket1","null","images/rocket2","","1","real","null","2","","",""
"d3-animate-choice","218","647373","0.0-77.0-1.27","2765","6124","18","Female","true","true","false","true","""event"",""trial"",""time""
""fullscreenenter"",""5"",""12436""
","
","
","""event"",""trial"",""time""
""fullscreenenter"",""5"",""12436""
","
","1136.2999999970198","","48","","","3000","1","","","images/redplanet1.jpg","images/alien2","images/alien1","images/rocket2","images/alien2","images/nothing.png","2","real","false","2","rare","0","2023-01-30 18:08:10.977"
"two-step-fixation","219","648382","0.0-77.0-2.27","2765","6124","18","Female","true","true","false","true","""event"",""trial"",""time""
""fullscreenenter"",""5"",""12436""
","
","
","""event"",""trial"",""time""
""fullscreenenter"",""5"",""12436""
","
","","images/earth.jpg","","","","","","","","","","","","","","fixation","","","","","",""
"d3-animate-choice","220","650684","0.0-77.0-0.28","2765","6124","18","Female","true","true","false","true","""event"",""trial"",""time""
""fullscreenenter"",""5"",""12436""
","
","
","""event"",""trial"",""time""
""fullscreenenter"",""5"",""12436""
","
","295.90000000596046","","48","","","3000","1","","","images/earth.jpg","images/rocket2","images/rocket1","null","images/rocket2","","1","real","null","2","","",""
"d3-animate-choice","221","653557","0.0-77.0-1.28","2765","6124","18","Female","true","true","false","true","""event"",""trial"",""time""
""fullscreenenter"",""5"",""12436""
","
","
","""event"",""trial"",""time""
""fullscreenenter"",""5"",""12436""
","
","861.3999999910593","","48","","","3000","1","","","images/purpleplanet.jpg","images/alien4","images/alien3","images/rocket2","images/alien4","images/t.png","2","real","true","2","common","1","2023-01-30 18:08:17.161"
"two-step-fixation","222","654561","0.0-77.0-2.28","2765","6124","18","Female","true","true","false","true","""event"",""trial"",""time""
""fullscreenenter"",""5"",""12436""
","
","
","""event"",""trial"",""time""
""fullscreenenter"",""5"",""12436""
","
","","images/earth.jpg","","","","","","","","","","","","","","fixation","","","","","",""
"d3-animate-choice","223","656860","0.0-77.0-0.29","2765","6124","18","Female","true","true","false","true","""event"",""trial"",""time""
""fullscreenenter"",""5"",""12436""
","
","
","""event"",""trial"",""time""
""fullscreenenter"",""5"",""12436""
","
","293.6000000089407","","48","","","3000","1","","","images/earth.jpg","images/rocket2","images/rocket1","null","images/rocket2","","1","real","null","2","","",""
"d3-animate-choice","224","659333","0.0-77.0-1.29","2765","6124","18","Female","true","true","false","true","""event"",""trial"",""time""
""fullscreenenter"",""5"",""12436""
","
","
","""event"",""trial"",""time""
""fullscreenenter"",""5"",""12436""
","
","467.29999999701977","","48","","","3000","1","","","images/purpleplanet.jpg","images/alien4","images/alien3","images/rocket2","images/alien4","images/nothing.png","2","real","true","2","common","0","2023-01-30 18:08:22.937"
"two-step-fixation","225","660346","0.0-77.0-2.29","2765","6124","18","Female","true","true","false","true","""event"",""trial"",""time""
""fullscreenenter"",""5"",""12436""
","
","
","""event"",""trial"",""time""
""fullscreenenter"",""5"",""12436""
","
","","images/earth.jpg","","","","","","","","","","","","","","fixation","","","","","",""
"d3-animate-choice","226","662869","0.0-77.0-0.30","2765","6124","18","Female","true","true","false","true","""event"",""trial"",""time""
""fullscreenenter"",""5"",""12436""
","
","
","""event"",""trial"",""time""
""fullscreenenter"",""5"",""12436""
","
","514.4000000059605","","48","","","3000","1","","","images/earth.jpg","images/rocket2","images/rocket1","null","images/rocket2","","1","real","null","2","","",""
"d3-animate-choice","227","666072","0.0-77.0-1.30","2765","6124","18","Female","true","true","false","true","""event"",""trial"",""time""
""fullscreenenter"",""5"",""12436""
","
","
","""event"",""trial"",""time""
""fullscreenenter"",""5"",""12436""
","
","1191.5","","48","","","3000","1","","","images/redplanet1.jpg","images/alien2","images/alien1","images/rocket2","images/alien2","images/t.png","2","real","false","2","rare","1","2023-01-30 18:08:29.676"
"two-step-fixation","228","667085","0.0-77.0-2.30","2765","6124","18","Female","true","true","false","true","""event"",""trial"",""time""
""fullscreenenter"",""5"",""12436""
","
","
","""event"",""trial"",""time""
""fullscreenenter"",""5"",""12436""
","
","","images/earth.jpg","","","","","","","","","","","","","","fixation","","","","","",""
"d3-animate-choice","229","669421","0.0-77.0-0.31","2765","6124","18","Female","true","true","false","true","""event"",""trial"",""time""
""fullscreenenter"",""5"",""12436""
","
","
","""event"",""trial"",""time""
""fullscreenenter"",""5"",""12436""
","
","323.59999999403954","","49","","","3000","1","","","images/earth.jpg","images/rocket2","images/rocket1","null","images/rocket1","","1","real","null","1","","",""
"d3-animate-choice","230","671885","0.0-77.0-1.31","2765","6124","18","Female","true","true","false","true","""event"",""trial"",""time""
""fullscreenenter"",""5"",""12436""
","
","
","""event"",""trial"",""time""
""fullscreenenter"",""5"",""12436""
","
","456.59999999403954","","48","","","3000","1","","","images/redplanet1.jpg","images/alien2","images/alien1","images/rocket1","images/alien2","images/t.png","2","real","true","2","common","1","2023-01-30 18:08:35.489"
"two-step-fixation","231","672893","0.0-77.0-2.31","2765","6124","18","Female","true","true","false","true","""event"",""trial"",""time""
""fullscreenenter"",""5"",""12436""
","
","
","""event"",""trial"",""time""
""fullscreenenter"",""5"",""12436""
","
","","images/earth.jpg","","","","","","","","","","","","","","fixation","","","","","",""
"d3-animate-choice","232","675221","0.0-77.0-0.32","2765","6124","18","Female","true","true","false","true","""event"",""trial"",""time""
""fullscreenenter"",""5"",""12436""
","
","
","""event"",""trial"",""time""
""fullscreenenter"",""5"",""12436""
","
","316.59999999403954","","49","","","3000","1","","","images/earth.jpg","images/rocket2","images/rocket1","null","images/rocket1","","1","real","null","1","","",""
"d3-animate-choice","233","677559","0.0-77.0-1.32","2765","6124","18","Female","true","true","false","true","""event"",""trial"",""time""
""fullscreenenter"",""5"",""12436""
","
","
","""event"",""trial"",""time""
""fullscreenenter"",""5"",""12436""
","
","323.79999999701977","","48","","","3000","1","","","images/redplanet1.jpg","images/alien2","images/alien1","images/rocket1","images/alien2","images/t.png","2","real","true","2","common","1","2023-01-30 18:08:41.163"
"two-step-fixation","234","678564","0.0-77.0-2.32","2765","6124","18","Female","true","true","false","true","""event"",""trial"",""time""
""fullscreenenter"",""5"",""12436""
","
","
","""event"",""trial"",""time""
""fullscreenenter"",""5"",""12436""
","
","","images/earth.jpg","","","","","","","","","","","","","","fixation","","","","","",""
"d3-animate-choice","235","680901","0.0-77.0-0.33","2765","6124","18","Female","true","true","false","true","""event"",""trial"",""time""
""fullscreenenter"",""5"",""12436""
","
","
","""event"",""trial"",""time""
""fullscreenenter"",""5"",""12436""
","
","328.20000000298023","","49","","","3000","1","","","images/earth.jpg","images/rocket2","images/rocket1","null","images/rocket1","","1","real","null","1","","",""
"d3-animate-choice","236","683421","0.0-77.0-1.33","2765","6124","18","Female","true","true","false","true","""event"",""trial"",""time""
""fullscreenenter"",""5"",""12436""
","
","
","""event"",""trial"",""time""
""fullscreenenter"",""5"",""12436""
","
","514.5","","48","","","3000","1","","","images/redplanet1.jpg","images/alien2","images/alien1","images/rocket1","images/alien2","images/t.png","2","real","true","2","common","1","2023-01-30 18:08:47.025"
"two-step-fixation","237","684426","0.0-77.0-2.33","2765","6124","18","Female","true","true","false","true","""event"",""trial"",""time""
""fullscreenenter"",""5"",""12436""
","
","
","""event"",""trial"",""time""
""fullscreenenter"",""5"",""12436""
","
","","images/earth.jpg","","","","","","","","","","","","","","fixation","","","","","",""
"d3-animate-choice","238","686917","0.0-77.0-0.34","2765","6124","18","Female","true","true","false","true","""event"",""trial"",""time""
""fullscreenenter"",""5"",""12436""
","
","
","""event"",""trial"",""time""
""fullscreenenter"",""5"",""12436""
","
","483.79999999701977","","49","","","3000","1","","","images/earth.jpg","images/rocket2","images/rocket1","null","images/rocket1","","1","real","null","1","","",""
"d3-animate-choice","239","689609","0.0-77.0-1.34","2765","6124","18","Female","true","true","false","true","""event"",""trial"",""time""
""fullscreenenter"",""5"",""12436""
","
","
","""event"",""trial"",""time""
""fullscreenenter"",""5"",""12436""
","
","684","","48","","","3000","1","","","images/redplanet1.jpg","images/alien2","images/alien1","images/rocket1","images/alien2","images/t.png","2","real","true","2","common","1","2023-01-30 18:08:53.213"
"two-step-fixation","240","690621","0.0-77.0-2.34","2765","6124","18","Female","true","true","false","true","""event"",""trial"",""time""
""fullscreenenter"",""5"",""12436""
","
","
","""event"",""trial"",""time""
""fullscreenenter"",""5"",""12436""
","
","","images/earth.jpg","","","","","","","","","","","","","","fixation","","","","","",""
"d3-animate-choice","241","693047","0.0-77.0-0.35","2765","6124","18","Female","true","true","false","true","""event"",""trial"",""time""
""fullscreenenter"",""5"",""12436""
","
","
","""event"",""trial"",""time""
""fullscreenenter"",""5"",""12436""
","
","412.1000000089407","","49","","","3000","1","","","images/earth.jpg","images/rocket2","images/rocket1","null","images/rocket1","","1","real","null","1","","",""
"d3-animate-choice","242","695544","0.0-77.0-1.35","2765","6124","18","Female","true","true","false","true","""event"",""trial"",""time""
""fullscreenenter"",""5"",""12436""
","
","
","""event"",""trial"",""time""
""fullscreenenter"",""5"",""12436""
","
","490.20000000298023","","48","","","3000","1","","","images/purpleplanet.jpg","images/alien4","images/alien3","images/rocket1","images/alien4","images/t.png","2","real","false","2","rare","1","2023-01-30 18:08:59.148"
"two-step-fixation","243","696549","0.0-77.0-2.35","2765","6124","18","Female","true","true","false","true","""event"",""trial"",""time""
""fullscreenenter"",""5"",""12436""
","
","
","""event"",""trial"",""time""
""fullscreenenter"",""5"",""12436""
","
","","images/earth.jpg","","","","","","","","","","","","","","fixation","","","","","",""
"d3-animate-choice","244","698993","0.0-77.0-0.36","2765","6124","18","Female","true","true","false","true","""event"",""trial"",""time""
""fullscreenenter"",""5"",""12436""
","
","
","""event"",""trial"",""time""
""fullscreenenter"",""5"",""12436""
","
","435.09999999403954","","49","","","3000","1","","","images/earth.jpg","images/rocket2","images/rocket1","null","images/rocket1","","1","real","null","1","","",""
"d3-animate-choice","245","701392","0.0-77.0-1.36","2765","6124","18","Female","true","true","false","true","""event"",""trial"",""time""
""fullscreenenter"",""5"",""12436""
","
","
","""event"",""trial"",""time""
""fullscreenenter"",""5"",""12436""
","
","392.30000001192093","","48","","","3000","1","","","images/redplanet1.jpg","images/alien2","images/alien1","images/rocket1","images/alien2","images/nothing.png","2","real","true","2","common","0","2023-01-30 18:09:04.996"
"two-step-fixation","246","702396","0.0-77.0-2.36","2765","6124","18","Female","true","true","false","true","""event"",""trial"",""time""
""fullscreenenter"",""5"",""12436""
","
","
","""event"",""trial"",""time""
