"trial_type","trial_index","time_elapsed","internal_node_id","participant_id","subject_id","age","gender","rocket_sides","red_planet_first_rocket","red_display_order","purple_display_order","interactions","blur_events","focus_events","fullscreenenter_events","fullscreenexit_events","rt","stimulus","key_press","button_pressed","success","duration","valid_pressed","rts","keys","planet_text","right_text","left_text","center_text","chosen_text","reward_text","trial_stage","practice_trial","transition_type","choice","transition","reward","timestamp"
"pavlovia","0","2","0.0-0.0","247","659","17","Male","true","false","false","false","
","
","
","
","
","","","","","","","","","","","","","","","","","","","","","",""
"html-keyboard-response","1","1716","0.0-1.0","247","659","17","Male","true","false","false","false","
","
","
","
","
","1713.7000000476837","Welcome! Press the space bar to begin.","32","","","","","","","","","","","","","","","","","","",""
"audio-keyboard-response","2","5397","0.0-2.0","247","659","17","Male","true","false","false","false","
","
","
","
","
","3621","audio/beep_loop.wav","32","","","","","","","","","","","","","","","","","","",""
"audio-button-response","3","10293","0.0-3.0","247","659","17","Male","true","false","false","false","
","
","
","
","
","NaN","audio/fish.mp3","","1","","","","","","","","","","","","","","","","","",""
"audio-button-response","4","13166","0.0-4.0","247","659","17","Male","true","false","false","false","""event"",""trial"",""time""
""fullscreenenter"",""5"",""15671""
","
","
","""event"",""trial"",""time""
""fullscreenenter"",""5"",""15671""
","
","NaN","audio/tiger.mp3","","4","","","","","","","","","","","","","","","","","",""
"fullscreen","5","16662","0.0-5.0","247","659","17","Male","true","false","false","false","""event"",""trial"",""time""
""fullscreenenter"",""5"",""15671""
","
","
","""event"",""trial"",""time""
""fullscreenenter"",""5"",""15671""
","
","","","","","true","","","","","","","","","","","","","","","","",""
"d3-instructions","6","30887","0.0-6.0","247","659","17","Male","true","false","false","false","""event"",""trial"",""time""
""fullscreenenter"",""5"",""15671""
","
","
","""event"",""trial"",""time""
""fullscreenenter"",""5"",""15671""
","
","","","","","","","","","","","","","","","","","","","","","",""
"d3-instructions","7","39212","0.0-7.0","247","659","17","Male","true","false","false","false","""event"",""trial"",""time""
""fullscreenenter"",""5"",""15671""
","
","
","""event"",""trial"",""time""
""fullscreenenter"",""5"",""15671""
","
","","","","","","","","","","","","","","","","","","","","","",""
"d3-instructions","8","45772","0.0-8.0","247","659","17","Male","true","false","false","false","""event"",""trial"",""time""
""fullscreenenter"",""5"",""15671""
","
","
","""event"",""trial"",""time""
""fullscreenenter"",""5"",""15671""
","
","","","","","","","","","","","","","","","","","","","","","",""
"d3-instructions","9","55709","0.0-9.0","247","659","17","Male","true","false","false","false","""event"",""trial"",""time""
""fullscreenenter"",""5"",""15671""
","
","
","""event"",""trial"",""time""
""fullscreenenter"",""5"",""15671""
","
","","","","","","","","","","","","","","","","","","","","","",""
"d3-instructions","10","68200","0.0-10.0","247","659","17","Male","true","false","false","false","""event"",""trial"",""time""
""fullscreenenter"",""5"",""15671""
","
","
","""event"",""trial"",""time""
""fullscreenenter"",""5"",""15671""
","
","","","","","","","","","","","","","","","","","","","","","",""
"d3-animate-choice","11","71682","0.0-11.0","247","659","17","Male","true","false","false","false","""event"",""trial"",""time""
""fullscreenenter"",""5"",""15671""
","
","
","""event"",""trial"",""time""
""fullscreenenter"",""5"",""15671""
","
","1470.8000000715256","","49","","","3000","1","3439.3000000715256","49","images/tutgreenplanet.jpg","images/tutalien1","images/tutalien2","null","images/tutalien2","","NA","practice","null","","","",""
"d3-animate-choice","12","74403","0.0-12.0","247","659","17","Male","true","false","false","false","""event"",""trial"",""time""
""fullscreenenter"",""5"",""15671""
","
","
","""event"",""trial"",""time""
""fullscreenenter"",""5"",""15671""
","
","714.3999999761581","","49","","","3000","1","","","images/tutgreenplanet.jpg","images/tutalien1","images/tutalien2","null","images/tutalien2","","NA","practice","null","","","",""
"d3-animate-choice","13","76779","0.0-13.0","247","659","17","Male","true","false","false","false","""event"",""trial"",""time""
""fullscreenenter"",""5"",""15671""
","
","
","""event"",""trial"",""time""
""fullscreenenter"",""5"",""15671""
","
","368.5","","48","","","3000","1","","","images/tutgreenplanet.jpg","images/tutalien1","images/tutalien2","null","images/tutalien1","","NA","practice","null","","","",""
"d3-animate-choice","14","79197","0.0-14.0","247","659","17","Male","true","false","false","false","""event"",""trial"",""time""
""fullscreenenter"",""5"",""15671""
","
","
","""event"",""trial"",""time""
""fullscreenenter"",""5"",""15671""
","
","410.6999999284744","","49","","","3000","1","","","images/tutgreenplanet.jpg","images/tutalien1","images/tutalien2","null","images/tutalien2","","NA","practice","null","","","",""
"d3-instructions","15","85136","0.0-15.0","247","659","17","Male","true","false","false","false","""event"",""trial"",""time""
""fullscreenenter"",""5"",""15671""
","
","
","""event"",""trial"",""time""
""fullscreenenter"",""5"",""15671""
","
","","","","","","","","","","","","","","","","","","","","","",""
"d3-instructions","16","88407","0.0-16.0","247","659","17","Male","true","false","false","false","""event"",""trial"",""time""
""fullscreenenter"",""5"",""15671""
","
","
","""event"",""trial"",""time""
""fullscreenenter"",""5"",""15671""
","
","","","","","","","","","","","","","","","","","","","","","",""
"d3-instructions","17","93699","0.0-17.0","247","659","17","Male","true","false","false","false","""event"",""trial"",""time""
""fullscreenenter"",""5"",""15671""
","
","
","""event"",""trial"",""time""
""fullscreenenter"",""5"",""15671""
","
","","","","","","","","","","","","","","","","","","","","","",""
"d3-instructions","18","105075","0.0-18.0","247","659","17","Male","true","false","false","false","""event"",""trial"",""time""
""fullscreenenter"",""5"",""15671""
","
","
","""event"",""trial"",""time""
""fullscreenenter"",""5"",""15671""
","
","","","","","","","","","","","","","","","","","","","","","",""
"d3-instructions","19","112735","0.0-19.0","247","659","17","Male","true","false","false","false","""event"",""trial"",""time""
""fullscreenenter"",""5"",""15671""
","
","
","""event"",""trial"",""time""
""fullscreenenter"",""5"",""15671""
","
","","","","","","","","","","","","","","","","","","","","","",""
"d3-animate-choice","20","115257","0.0-20.0","247","659","17","Male","true","false","false","false","""event"",""trial"",""time""
""fullscreenenter"",""5"",""15671""
","
","
","""event"",""trial"",""time""
""fullscreenenter"",""5"",""15671""
","
","511.60000002384186","","49","","","3000","1","","","images/tutyellowplanet.jpg","null","images/tutalien3","null","images/tutalien3","images/nothing.png","NA","practice","null","","","",""
"d3-animate-choice","21","117492","0.0-21.0","247","659","17","Male","true","false","false","false","""event"",""trial"",""time""
""fullscreenenter"",""5"",""15671""
","
","
","""event"",""trial"",""time""
""fullscreenenter"",""5"",""15671""
","
","226.29999995231628","","49","","","3000","1","2190.6999999284744","49","images/tutyellowplanet.jpg","null","images/tutalien3","null","images/tutalien3","images/t.png","NA","practice","null","","","",""
"d3-animate-choice","22","119698","0.0-22.0","247","659","17","Male","true","false","false","false","""event"",""trial"",""time""
""fullscreenenter"",""5"",""15671""
","
","
","""event"",""trial"",""time""
""fullscreenenter"",""5"",""15671""
","
","197.89999997615814","","49","","","3000","1","","","images/tutyellowplanet.jpg","null","images/tutalien3","null","images/tutalien3","images/t.png","NA","practice","null","","","",""
"d3-animate-choice","23","121777","0.0-23.0","247","659","17","Male","true","false","false","false","""event"",""trial"",""time""
""fullscreenenter"",""5"",""15671""
","
","
","""event"",""trial"",""time""
""fullscreenenter"",""5"",""15671""
","
","70.60000002384186","","49","","","3000","1","287,2046.7999999523163","49,49","images/tutyellowplanet.jpg","null","images/tutalien3","null","images/tutalien3","images/t.png","NA","practice","null","","","",""
"d3-animate-choice","24","123984","0.0-24.0","247","659","17","Male","true","false","false","false","""event"",""trial"",""time""
""fullscreenenter"",""5"",""15671""
","
","
","""event"",""trial"",""time""
""fullscreenenter"",""5"",""15671""
","
","197.39999997615814","","49","","","3000","1","2160.2999999523163","49","images/tutyellowplanet.jpg","null","images/tutalien3","null","images/tutalien3","images/t.png","NA","practice","null","","","",""
"d3-animate-choice","25","126162","0.0-25.0","247","659","17","Male","true","false","false","false","""event"",""trial"",""time""
""fullscreenenter"",""5"",""15671""
","
","
","""event"",""trial"",""time""
""fullscreenenter"",""5"",""15671""
","
","171.79999995231628","","49","","","3000","1","344.1999999284744","49","images/tutyellowplanet.jpg","null","images/tutalien3","null","images/tutalien3","images/nothing.png","NA","practice","null","","","",""
"d3-animate-choice","26","128167","0.0-26.0","247","659","17","Male","true","false","false","false","""event"",""trial"",""time""
""fullscreenenter"",""5"",""15671""
","
","
","""event"",""trial"",""time""
""fullscreenenter"",""5"",""15671""
","
","1.1999999284744263","","49","","","3000","1","231.79999995231628","49","images/tutyellowplanet.jpg","null","images/tutalien3","null","images/tutalien3","images/t.png","NA","practice","null","","","",""
"d3-animate-choice","27","130224","0.0-27.0","247","659","17","Male","true","false","false","false","""event"",""trial"",""time""
""fullscreenenter"",""5"",""15671""
","
","
","""event"",""trial"",""time""
""fullscreenenter"",""5"",""15671""
","
","51.800000071525574","","49","","","3000","1","303.7000000476837,2039.9000000953674","49,49","images/tutyellowplanet.jpg","null","images/tutalien3","null","images/tutalien3","images/t.png","NA","practice","null","","","",""
"d3-animate-choice","28","132469","0.0-28.0","247","659","17","Male","true","false","false","false","""event"",""trial"",""time""
""fullscreenenter"",""5"",""15671""
","
","
","""event"",""trial"",""time""
""fullscreenenter"",""5"",""15671""
","
","240.59999990463257","","49","","","3000","1","404.7999999523163,2131.1999999284744","49,49","images/tutyellowplanet.jpg","null","images/tutalien3","null","images/tutalien3","images/t.png","NA","practice","null","","","",""
"d3-animate-choice","29","134637","0.0-29.0","247","659","17","Male","true","false","false","false","""event"",""trial"",""time""
""fullscreenenter"",""5"",""15671""
","
","
","""event"",""trial"",""time""
""fullscreenenter"",""5"",""15671""
","
","159.09999990463257","","49","","","3000","1","329.89999997615814","49","images/tutyellowplanet.jpg","null","images/tutalien3","null","images/tutalien3","images/t.png","NA","practice","null","","","",""
"d3-instructions","30","137132","0.0-30.0","247","659","17","Male","true","false","false","false","""event"",""trial"",""time""
""fullscreenenter"",""5"",""15671""
","
","
","""event"",""trial"",""time""
""fullscreenenter"",""5"",""15671""
","
","","","","","","","","","","","","","","","","","","","","","",""
"d3-instructions","31","141563","0.0-31.0","247","659","17","Male","true","false","false","false","""event"",""trial"",""time""
""fullscreenenter"",""5"",""15671""
","
","
","""event"",""trial"",""time""
""fullscreenenter"",""5"",""15671""
","
","","","","","","","","","","","","","","","","","","","","","",""
"d3-instructions","32","148454","0.0-32.0","247","659","17","Male","true","false","false","false","""event"",""trial"",""time""
""fullscreenenter"",""5"",""15671""
","
","
","""event"",""trial"",""time""
""fullscreenenter"",""5"",""15671""
","
","","","","","","","","","","","","","","","","","","","","","",""
"d3-instructions","33","151298","0.0-33.0","247","659","17","Male","true","false","false","false","""event"",""trial"",""time""
""fullscreenenter"",""5"",""15671""
","
","
","""event"",""trial"",""time""
""fullscreenenter"",""5"",""15671""
","
","","","","","","","","","","","","","","","","","","","","","",""
"d3-animate-choice","34","154109","0.0-34.0","247","659","17","Male","true","false","false","false","""event"",""trial"",""time""
""fullscreenenter"",""5"",""15671""
","
","
","""event"",""trial"",""time""
""fullscreenenter"",""5"",""15671""
","
","805.7000000476837","","49","","","3000","1","2704.2999999523163","49","images/tutgreenplanet.jpg","images/tutalien1","images/tutalien2","null","images/tutalien2","images/t.png","NA","practice","null","","","",""
"d3-animate-choice","35","156185","0.0-35.0","247","659","17","Male","true","false","false","false","""event"",""trial"",""time""
""fullscreenenter"",""5"",""15671""
","
","
","""event"",""trial"",""time""
""fullscreenenter"",""5"",""15671""
","
","68.20000004768372","","49","","","3000","1","253.10000002384186,1862.2000000476837,2072.5","49,49,49","images/tutgreenplanet.jpg","images/tutalien1","images/tutalien2","null","images/tutalien2","images/t.png","NA","practice","null","","","",""
"d3-animate-choice","36","158375","0.0-36.0","247","659","17","Male","true","false","false","false","""event"",""trial"",""time""
""fullscreenenter"",""5"",""15671""
","
","
","""event"",""trial"",""time""
""fullscreenenter"",""5"",""15671""
","
","185.20000004768372","","49","","","3000","1","362.60000002384186,2103.100000023842","49,49","images/tutgreenplanet.jpg","images/tutalien1","images/tutalien2","null","images/tutalien2","images/t.png","NA","practice","null","","","",""
"d3-animate-choice","37","160512","0.0-37.0","247","659","17","Male","true","false","false","false","""event"",""trial"",""time""
""fullscreenenter"",""5"",""15671""
","
","
","""event"",""trial"",""time""
""fullscreenenter"",""5"",""15671""
","
","130.80000007152557","","49","","","3000","1","351,1854.3000000715256,2056.8000000715256","49,49,49","images/tutgreenplanet.jpg","images/tutalien1","images/tutalien2","null","images/tutalien2","images/t.png","NA","practice","null","","","",""
"d3-animate-choice","38","162638","0.0-38.0","247","659","17","Male","true","false","false","false","""event"",""trial"",""time""
""fullscreenenter"",""5"",""15671""
","
","
","""event"",""trial"",""time""
""fullscreenenter"",""5"",""15671""
","
","121.19999992847443","","49","","","3000","1","292.2999999523163,2030.8999999761581","49,49","images/tutgreenplanet.jpg","images/tutalien1","images/tutalien2","null","images/tutalien2","images/t.png","NA","practice","null","","","",""
"d3-animate-choice","39","164746","0.0-39.0","247","659","17","Male","true","false","false","false","""event"",""trial"",""time""
""fullscreenenter"",""5"",""15671""
","
","
","""event"",""trial"",""time""
""fullscreenenter"",""5"",""15671""
","
","102.5","","49","","","3000","1","267.6999999284744,1876,2065.6999999284744","49,49,49","images/tutgreenplanet.jpg","images/tutalien1","images/tutalien2","null","images/tutalien2","images/t.png","NA","practice","null","","","",""
"d3-animate-choice","40","166894","0.0-40.0","247","659","17","Male","true","false","false","false","""event"",""trial"",""time""
""fullscreenenter"",""5"",""15671""
","
","
","""event"",""trial"",""time""
""fullscreenenter"",""5"",""15671""
","
","143.60000002384186","","49","","","3000","1","332.10000002384186,2068.100000023842","49,49","images/tutgreenplanet.jpg","images/tutalien1","images/tutalien2","null","images/tutalien2","images/t.png","NA","practice","null","","","",""
"d3-animate-choice","41","168996","0.0-41.0","247","659","17","Male","true","false","false","false","""event"",""trial"",""time""
""fullscreenenter"",""5"",""15671""
","
","
","""event"",""trial"",""time""
""fullscreenenter"",""5"",""15671""
","
","95.60000002384186","","49","","","3000","1","273.39999997615814,1986.3999999761581","49,49","images/tutgreenplanet.jpg","images/tutalien1","images/tutalien2","null","images/tutalien2","images/t.png","NA","practice","null","","","",""
"d3-animate-choice","42","171081","0.0-42.0","247","659","17","Male","true","false","false","false","""event"",""trial"",""time""
""fullscreenenter"",""5"",""15671""
","
","
","""event"",""trial"",""time""
""fullscreenenter"",""5"",""15671""
","
","76.39999997615814","","49","","","3000","1","259.59999990463257,1479.8999999761581,1838.2999999523163,2056","49,49,49,49","images/tutgreenplanet.jpg","images/tutalien1","images/tutalien2","null","images/tutalien2","images/t.png","NA","practice","null","","","",""
"d3-animate-choice","43","173221","0.0-43.0","247","659","17","Male","true","false","false","false","""event"",""trial"",""time""
""fullscreenenter"",""5"",""15671""
","
","
","""event"",""trial"",""time""
""fullscreenenter"",""5"",""15671""
","
","133.5","","49","","","3000","1","331.7999999523163,1718.2999999523163,1938.2999999523163,2124.399999976158","49,49,49,49","images/tutgreenplanet.jpg","images/tutalien1","images/tutalien2","null","images/tutalien2","images/t.png","NA","practice","null","","","",""
"d3-instructions","44","180814","0.0-44.0","247","659","17","Male","true","false","false","false","""event"",""trial"",""time""
""fullscreenenter"",""5"",""15671""
","
","
","""event"",""trial"",""time""
""fullscreenenter"",""5"",""15671""
","
","","","","","","","","","","","","","","","","","","","","","",""
"d3-instructions","45","185082","0.0-45.0","247","659","17","Male","true","false","false","false","""event"",""trial"",""time""
""fullscreenenter"",""5"",""15671""
","
","
","""event"",""trial"",""time""
""fullscreenenter"",""5"",""15671""
","
","","","","","","","","","","","","","","","","","","","","","",""
"d3-instructions","46","190857","0.0-46.0","247","659","17","Male","true","false","false","false","""event"",""trial"",""time""
""fullscreenenter"",""5"",""15671""
","
","
","""event"",""trial"",""time""
""fullscreenenter"",""5"",""15671""
","
","","","","","","","","","","","","","","","","","","","","","",""
"d3-instructions","47","200048","0.0-47.0","247","659","17","Male","true","false","false","false","""event"",""trial"",""time""
""fullscreenenter"",""5"",""15671""
","
","
","""event"",""trial"",""time""
""fullscreenenter"",""5"",""15671""
","
","","","","","","","","","","","","","","","","","","","","","",""
"d3-instructions","48","204142","0.0-48.0","247","659","17","Male","true","false","false","false","""event"",""trial"",""time""
""fullscreenenter"",""5"",""15671""
","
","
","""event"",""trial"",""time""
""fullscreenenter"",""5"",""15671""
","
","","","","","","","","","","","","","","","","","","","","","",""
"d3-instructions","49","208119","0.0-49.0","247","659","17","Male","true","false","false","false","""event"",""trial"",""time""
""fullscreenenter"",""5"",""15671""
","
","
","""event"",""trial"",""time""
""fullscreenenter"",""5"",""15671""
","
","","","","","","","","","","","","","","","","","","","","","",""
"d3-instructions","50","213342","0.0-50.0","247","659","17","Male","true","false","false","false","""event"",""trial"",""time""
""fullscreenenter"",""5"",""15671""
","
","
","""event"",""trial"",""time""
""fullscreenenter"",""5"",""15671""
","
","","","","","","","","","","","","","","","","","","","","","",""
"d3-instructions","51","216102","0.0-51.0","247","659","17","Male","true","false","false","false","""event"",""trial"",""time""
""fullscreenenter"",""5"",""15671""
","
","
","""event"",""trial"",""time""
""fullscreenenter"",""5"",""15671""
","
","","","","","","","","","","","","","","","","","","","","","",""
"d3-instructions","52","218825","0.0-52.0","247","659","17","Male","true","false","false","false","""event"",""trial"",""time""
""fullscreenenter"",""5"",""15671""
","
","
","""event"",""trial"",""time""
""fullscreenenter"",""5"",""15671""
","
","","","","","","","","","","","","","","","","","","","","","",""
"d3-instructions","53","229686","0.0-53.0","247","659","17","Male","true","false","false","false","""event"",""trial"",""time""
""fullscreenenter"",""5"",""15671""
","
","
","""event"",""trial"",""time""
""fullscreenenter"",""5"",""15671""
","
","","","","","","","","","","","","","","","","","","","","","",""
"d3-instructions","54","241632","0.0-54.0","247","659","17","Male","true","false","false","false","""event"",""trial"",""time""
""fullscreenenter"",""5"",""15671""
","
","
","""event"",""trial"",""time""
""fullscreenenter"",""5"",""15671""
","
","","","","","","","","","","","","","","","","","","","","","",""
"d3-instructions","55","248608","0.0-55.0","247","659","17","Male","true","false","false","false","""event"",""trial"",""time""
""fullscreenenter"",""5"",""15671""
","
","
","""event"",""trial"",""time""
""fullscreenenter"",""5"",""15671""
","
","","","","","","","","","","","","","","","","","","","","","",""
"d3-instructions","56","252563","0.0-56.0","247","659","17","Male","true","false","false","false","""event"",""trial"",""time""
""fullscreenenter"",""5"",""15671""
","
","
","""event"",""trial"",""time""
""fullscreenenter"",""5"",""15671""
","
","","","","","","","","","","","","","","","","","","","","","",""
"d3-instructions","57","259521","0.0-57.0","247","659","17","Male","true","false","false","false","""event"",""trial"",""time""
""fullscreenenter"",""5"",""15671""
","
","
","""event"",""trial"",""time""
""fullscreenenter"",""5"",""15671""
","
","","","","","","","","","","","","","","","","","","","","","",""
"d3-instructions","58","267575","0.0-58.0","247","659","17","Male","true","false","false","false","""event"",""trial"",""time""
""fullscreenenter"",""5"",""15671""
","
","
","""event"",""trial"",""time""
""fullscreenenter"",""5"",""15671""
","
","","","","","","","","","","","","","","","","","","","","","",""
"d3-instructions","59","270164","0.0-59.0","247","659","17","Male","true","false","false","false","""event"",""trial"",""time""
""fullscreenenter"",""5"",""15671""
","
","
","""event"",""trial"",""time""
""fullscreenenter"",""5"",""15671""
","
","","","","","","","","","","","","","","","","","","","","","",""
"d3-instructions","60","272328","0.0-60.0","247","659","17","Male","true","false","false","false","""event"",""trial"",""time""
""fullscreenenter"",""5"",""15671""
","
","
","""event"",""trial"",""time""
""fullscreenenter"",""5"",""15671""
","
","","","","","","","","","","","","","","","","","","","","","",""
"d3-animate-choice","61","275178","0.0-61.0-0.0","247","659","17","Male","true","false","false","false","""event"",""trial"",""time""
""fullscreenenter"",""5"",""15671""
","
","
","""event"",""trial"",""time""
""fullscreenenter"",""5"",""15671""
","
","837.6000000238419","","49","","","3000","1","","","images/earth.jpg","images/tutrocket1","images/tutrocket2","null","images/tutrocket2","","1","practice","null","1","","",""
"d3-animate-choice","62","277998","0.0-61.0-1.0","247","659","17","Male","true","false","false","false","""event"",""trial"",""time""
""fullscreenenter"",""5"",""15671""
","
","
","""event"",""trial"",""time""
""fullscreenenter"",""5"",""15671""
","
","809.1000000238419","","49","","","3000","1","1025","49","images/tutgreenplanet.jpg","images/tutalien2","images/tutalien1","images/tutrocket2","images/tutalien1","images/nothing.png","2","practice","true","1","common","0","2022-02-03 22:55:51.006"
"two-step-fixation","63","279008","0.0-61.0-2.0","247","659","17","Male","true","false","false","false","""event"",""trial"",""time""
""fullscreenenter"",""5"",""15671""
","
","
","""event"",""trial"",""time""
""fullscreenenter"",""5"",""15671""
","
","","images/earth.jpg","","","","","","","","","","","","","","fixation","","","","","",""
"d3-animate-choice","64","281880","0.0-61.0-0.1","247","659","17","Male","true","false","false","false","""event"",""trial"",""time""
""fullscreenenter"",""5"",""15671""
","
","
","""event"",""trial"",""time""
""fullscreenenter"",""5"",""15671""
","
","866","","49","","","3000","1","","","images/earth.jpg","images/tutrocket1","images/tutrocket2","null","images/tutrocket2","","1","practice","null","1","","",""
"d3-animate-choice","65","284979","0.0-61.0-1.1","247","659","17","Male","true","false","false","false","""event"",""trial"",""time""
""fullscreenenter"",""5"",""15671""
","
","
","""event"",""trial"",""time""
""fullscreenenter"",""5"",""15671""
","
","1091.8999999761581","","49","","","3000","1","1437.1999999284744","49","images/tutyellowplanet.jpg","images/tutalien4","images/tutalien3","images/tutrocket2","images/tutalien3","images/nothing.png","2","practice","false","1","rare","0","2022-02-03 22:55:57.987"
"two-step-fixation","66","285987","0.0-61.0-2.1","247","659","17","Male","true","false","false","false","""event"",""trial"",""time""
""fullscreenenter"",""5"",""15671""
","
","
","""event"",""trial"",""time""
""fullscreenenter"",""5"",""15671""
","
","","images/earth.jpg","","","","","","","","","","","","","","fixation","","","","","",""
"d3-animate-choice","67","288567","0.0-61.0-0.2","247","659","17","Male","true","false","false","false","""event"",""trial"",""time""
""fullscreenenter"",""5"",""15671""
","
","
","""event"",""trial"",""time""
""fullscreenenter"",""5"",""15671""
","
","575.5","","48","","","3000","1","","","images/earth.jpg","images/tutrocket1","images/tutrocket2","null","images/tutrocket1","","1","practice","null","2","","",""
"d3-animate-choice","68","291749","0.0-61.0-1.2","247","659","17","Male","true","false","false","false","""event"",""trial"",""time""
""fullscreenenter"",""5"",""15671""
","
","
","""event"",""trial"",""time""
""fullscreenenter"",""5"",""15671""
","
","942.2999999523163","","50","","","3000","1","1176.1999999284744","48","images/tutyellowplanet.jpg","images/tutalien4","images/tutalien3","images/tutrocket1","images/tutalien4","images/t.png","2","practice","true","","common","1","2022-02-03 22:56:04.757"
"two-step-fixation","69","292754","0.0-61.0-2.2","247","659","17","Male","true","false","false","false","""event"",""trial"",""time""
""fullscreenenter"",""5"",""15671""
","
","
","""event"",""trial"",""time""
""fullscreenenter"",""5"",""15671""
","
","","images/earth.jpg","","","","","","","","","","","","","","fixation","","","","","",""
"d3-animate-choice","70","295021","0.0-61.0-0.3","247","659","17","Male","true","false","false","false","""event"",""trial"",""time""
""fullscreenenter"",""5"",""15671""
","
","
","""event"",""trial"",""time""
""fullscreenenter"",""5"",""15671""
","
","258.90000009536743","","48","","","3000","1","","","images/earth.jpg","images/tutrocket1","images/tutrocket2","null","images/tutrocket1","","1","practice","null","2","","",""
"d3-animate-choice","71","297573","0.0-61.0-1.3","247","659","17","Male","true","false","false","false","""event"",""trial"",""time""
""fullscreenenter"",""5"",""15671""
","
","
","""event"",""trial"",""time""
""fullscreenenter"",""5"",""15671""
","
","542.7000000476837","","48","","","3000","1","777.5,962.8000000715256","48,48","images/tutyellowplanet.jpg","images/tutalien4","images/tutalien3","images/tutrocket1","images/tutalien4","images/t.png","2","practice","true","2","common","1","2022-02-03 22:56:10.582"
"two-step-fixation","72","298578","0.0-61.0-2.3","247","659","17","Male","true","false","false","false","""event"",""trial"",""time""
""fullscreenenter"",""5"",""15671""
","
","
","""event"",""trial"",""time""
""fullscreenenter"",""5"",""15671""
","
","","images/earth.jpg","","","","","","","","","","","","","","fixation","","","","","",""
"d3-animate-choice","73","300785","0.0-61.0-0.4","247","659","17","Male","true","false","false","false","""event"",""trial"",""time""
""fullscreenenter"",""5"",""15671""
","
","
","""event"",""trial"",""time""
""fullscreenenter"",""5"",""15671""
","
","201","","48","","","3000","1","","","images/earth.jpg","images/tutrocket1","images/tutrocket2","null","images/tutrocket1","","1","practice","null","2","","",""
"d3-animate-choice","74","303815","0.0-61.0-1.4","247","659","17","Male","true","false","false","false","""event"",""trial"",""time""
""fullscreenenter"",""5"",""15671""
","
","
","""event"",""trial"",""time""
""fullscreenenter"",""5"",""15671""
","
","1023","","48","","","3000","1","","","images/tutgreenplanet.jpg","images/tutalien2","images/tutalien1","images/tutrocket1","images/tutalien2","images/nothing.png","2","practice","false","2","rare","0","2022-02-03 22:56:16.823"
"two-step-fixation","75","304820","0.0-61.0-2.4","247","659","17","Male","true","false","false","false","""event"",""trial"",""time""
""fullscreenenter"",""5"",""15671""
","
","
","""event"",""trial"",""time""
""fullscreenenter"",""5"",""15671""
","
","","images/earth.jpg","","","","","","","","","","","","","","fixation","","","","","",""
"d3-animate-choice","76","306932","0.0-61.0-0.5","247","659","17","Male","true","false","false","false","""event"",""trial"",""time""
""fullscreenenter"",""5"",""15671""
","
","
","""event"",""trial"",""time""
""fullscreenenter"",""5"",""15671""
","
","105.70000004768372","","48","","","3000","1","","","images/earth.jpg","images/tutrocket1","images/tutrocket2","null","images/tutrocket1","","1","practice","null","2","","",""
"d3-animate-choice","77","309658","0.0-61.0-1.5","247","659","17","Male","true","false","false","false","""event"",""trial"",""time""
""fullscreenenter"",""5"",""15671""
","
","
","""event"",""trial"",""time""
""fullscreenenter"",""5"",""15671""
","
","720.1000000238419","","49","","","3000","1","","","images/tutgreenplanet.jpg","images/tutalien2","images/tutalien1","images/tutrocket1","images/tutalien1","images/nothing.png","2","practice","false","1","rare","0","2022-02-03 22:56:22.666"
"two-step-fixation","78","310665","0.0-61.0-2.5","247","659","17","Male","true","false","false","false","""event"",""trial"",""time""
""fullscreenenter"",""5"",""15671""
","
","
","""event"",""trial"",""time""
""fullscreenenter"",""5"",""15671""
","
","","images/earth.jpg","","","","","","","","","","","","","","fixation","","","","","",""
"d3-animate-choice","79","312704","0.0-61.0-0.6","247","659","17","Male","true","false","false","false","""event"",""trial"",""time""
""fullscreenenter"",""5"",""15671""
","
","
","""event"",""trial"",""time""
""fullscreenenter"",""5"",""15671""
","
","29.200000047683716","","48","","","3000","1","","","images/earth.jpg","images/tutrocket1","images/tutrocket2","null","images/tutrocket1","","1","practice","null","2","","",""
"d3-animate-choice","80","315082","0.0-61.0-1.6","247","659","17","Male","true","false","false","false","""event"",""trial"",""time""
""fullscreenenter"",""5"",""15671""
","
","
","""event"",""trial"",""time""
""fullscreenenter"",""5"",""15671""
","
","370","","48","","","3000","1","615.7999999523163","48","images/tutyellowplanet.jpg","images/tutalien4","images/tutalien3","images/tutrocket1","images/tutalien4","images/t.png","2","practice","true","2","common","1","2022-02-03 22:56:28.090"
"two-step-fixation","81","316089","0.0-61.0-2.6","247","659","17","Male","true","false","false","false","""event"",""trial"",""time""
""fullscreenenter"",""5"",""15671""
","
","
","""event"",""trial"",""time""
""fullscreenenter"",""5"",""15671""
","
","","images/earth.jpg","","","","","","","","","","","","","","fixation","","","","","",""
"d3-animate-choice","82","318149","0.0-61.0-0.7","247","659","17","Male","true","false","false","false","""event"",""trial"",""time""
""fullscreenenter"",""5"",""15671""
","
","
","""event"",""trial"",""time""
""fullscreenenter"",""5"",""15671""
","
","53.59999990463257","","48","","","3000","1","242.89999997615814","48","images/earth.jpg","images/tutrocket1","images/tutrocket2","null","images/tutrocket1","","1","practice","null","2","","",""
"d3-animate-choice","83","320682","0.0-61.0-1.7","247","659","17","Male","true","false","false","false","""event"",""trial"",""time""
""fullscreenenter"",""5"",""15671""
","
","
","""event"",""trial"",""time""
""fullscreenenter"",""5"",""15671""
","
","524","","48","","","3000","1","764.6000000238419","48","images/tutyellowplanet.jpg","images/tutalien4","images/tutalien3","images/tutrocket1","images/tutalien4","images/t.png","2","practice","true","2","common","1","2022-02-03 22:56:33.690"
"two-step-fixation","84","321685","0.0-61.0-2.7","247","659","17","Male","true","false","false","false","""event"",""trial"",""time""
""fullscreenenter"",""5"",""15671""
","
","
","""event"",""trial"",""time""
""fullscreenenter"",""5"",""15671""
","
","","images/earth.jpg","","","","","","","","","","","","","","fixation","","","","","",""
"d3-animate-choice","85","323690","0.0-61.0-0.8","247","659","17","Male","true","false","false","false","""event"",""trial"",""time""
""fullscreenenter"",""5"",""15671""
","
","
","""event"",""trial"",""time""
""fullscreenenter"",""5"",""15671""
","
","1.7999999523162842","","48","","","3000","1","246","48","images/earth.jpg","images/tutrocket1","images/tutrocket2","null","images/tutrocket1","","1","practice","null","2","","",""
"d3-animate-choice","86","325984","0.0-61.0-1.8","247","659","17","Male","true","false","false","false","""event"",""trial"",""time""
""fullscreenenter"",""5"",""15671""
","
","
","""event"",""trial"",""time""
""fullscreenenter"",""5"",""15671""
","
","285.6999999284744","","48","","","3000","1","553.5","48","images/tutyellowplanet.jpg","images/tutalien4","images/tutalien3","images/tutrocket1","images/tutalien4","images/t.png","2","practice","true","2","common","1","2022-02-03 22:56:38.992"
"two-step-fixation","87","326989","0.0-61.0-2.8","247","659","17","Male","true","false","false","false","""event"",""trial"",""time""
""fullscreenenter"",""5"",""15671""
","
","
","""event"",""trial"",""time""
""fullscreenenter"",""5"",""15671""
","
","","images/earth.jpg","","","","","","","","","","","","","","fixation","","","","","",""
"d3-animate-choice","88","329282","0.0-61.0-0.9","247","659","17","Male","true","false","false","false","""event"",""trial"",""time""
""fullscreenenter"",""5"",""15671""
","
","
","""event"",""trial"",""time""
""fullscreenenter"",""5"",""15671""
","
","286.7999999523163","","48","","","3000","1","","","images/earth.jpg","images/tutrocket1","images/tutrocket2","null","images/tutrocket1","","1","practice","null","2","","",""
"d3-animate-choice","89","331340","0.0-61.0-1.9","247","659","17","Male","true","false","false","false","""event"",""trial"",""time""
""fullscreenenter"",""5"",""15671""
","
","
","""event"",""trial"",""time""
""fullscreenenter"",""5"",""15671""
","
","52.5","","48","","","3000","1","358.2000000476837","48","images/tutyellowplanet.jpg","images/tutalien4","images/tutalien3","images/tutrocket1","images/tutalien4","images/t.png","2","practice","true","2","common","1","2022-02-03 22:56:44.348"
"two-step-fixation","90","332344","0.0-61.0-2.9","247","659","17","Male","true","false","false","false","""event"",""trial"",""time""
""fullscreenenter"",""5"",""15671""
","
","
","""event"",""trial"",""time""
""fullscreenenter"",""5"",""15671""
","
","","images/earth.jpg","","","","","","","","","","","","","","fixation","","","","","",""
"d3-animate-choice","91","334471","0.0-61.0-0.10","247","659","17","Male","true","false","false","false","""event"",""trial"",""time""
""fullscreenenter"",""5"",""15671""
","
","
","""event"",""trial"",""time""
""fullscreenenter"",""5"",""15671""
","
","120.5","","48","","","3000","1","288.3000000715256","48","images/earth.jpg","images/tutrocket1","images/tutrocket2","null","images/tutrocket1","","1","practice","null","2","","",""
"d3-animate-choice","92","336710","0.0-61.0-1.10","247","659","17","Male","true","false","false","false","""event"",""trial"",""time""
""fullscreenenter"",""5"",""15671""
","
","
","""event"",""trial"",""time""
""fullscreenenter"",""5"",""15671""
","
","232.5","","48","","","3000","1","513.8999999761581,699.8999999761581","48,48","images/tutyellowplanet.jpg","images/tutalien4","images/tutalien3","images/tutrocket1","images/tutalien4","images/t.png","2","practice","true","2","common","1","2022-02-03 22:56:49.719"
"two-step-fixation","93","337717","0.0-61.0-2.10","247","659","17","Male","true","false","false","false","""event"",""trial"",""time""
""fullscreenenter"",""5"",""15671""
","
","
","""event"",""trial"",""time""
""fullscreenenter"",""5"",""15671""
","
","","images/earth.jpg","","","","","","","","","","","","","","fixation","","","","","",""
"d3-animate-choice","94","339803","0.0-61.0-0.11","247","659","17","Male","true","false","false","false","""event"",""trial"",""time""
""fullscreenenter"",""5"",""15671""
","
","
","""event"",""trial"",""time""
""fullscreenenter"",""5"",""15671""
","
","76.29999995231628","","48","","","3000","1","2020.7999999523163","48","images/earth.jpg","images/tutrocket1","images/tutrocket2","null","images/tutrocket1","","1","practice","null","2","","",""
"d3-animate-choice","95","342000","0.0-61.0-1.11","247","659","17","Male","true","false","false","false","""event"",""trial"",""time""
""fullscreenenter"",""5"",""15671""
","
","
","""event"",""trial"",""time""
""fullscreenenter"",""5"",""15671""
","
","191.29999995231628","","48","","","3000","1","421.89999997615814","48","images/tutyellowplanet.jpg","images/tutalien4","images/tutalien3","images/tutrocket1","images/tutalien4","images/t.png","2","practice","true","2","common","1","2022-02-03 22:56:55.008"
"two-step-fixation","96","343008","0.0-61.0-2.11","247","659","17","Male","true","false","false","false","""event"",""trial"",""time""
""fullscreenenter"",""5"",""15671""
","
","
","""event"",""trial"",""time""
""fullscreenenter"",""5"",""15671""
","
","","images/earth.jpg","","","","","","","","","","","","","","fixation","","","","","",""
"d3-animate-choice","97","345050","0.0-61.0-0.12","247","659","17","Male","true","false","false","false","""event"",""trial"",""time""
""fullscreenenter"",""5"",""15671""
","
","
","""event"",""trial"",""time""
""fullscreenenter"",""5"",""15671""
","
","35.799999952316284","","48","","","3000","1","263.39999997615814","48","images/earth.jpg","images/tutrocket1","images/tutrocket2","null","images/tutrocket1","","1","practice","null","2","","",""
"d3-animate-choice","98","347627","0.0-61.0-1.12","247","659","17","Male","true","false","false","false","""event"",""trial"",""time""
""fullscreenenter"",""5"",""15671""
","
","
","""event"",""trial"",""time""
""fullscreenenter"",""5"",""15671""
","
","569.5","","48","","","3000","1","823.6000000238419","48","images/tutyellowplanet.jpg","images/tutalien4","images/tutalien3","images/tutrocket1","images/tutalien4","images/t.png","2","practice","true","2","common","1","2022-02-03 22:57:00.635"
"two-step-fixation","99","348635","0.0-61.0-2.12","247","659","17","Male","true","false","false","false","""event"",""trial"",""time""
""fullscreenenter"",""5"",""15671""
","
","
","""event"",""trial"",""time""
""fullscreenenter"",""5"",""15671""
","
","","images/earth.jpg","","","","","","","","","","","","","","fixation","","","","","",""
"d3-animate-choice","100","350708","0.0-61.0-0.13","247","659","17","Male","true","false","false","false","""event"",""trial"",""time""
""fullscreenenter"",""5"",""15671""
","
","
","""event"",""trial"",""time""
""fullscreenenter"",""5"",""15671""
","
","67.60000002384186","","48","","","3000","1","","","images/earth.jpg","images/tutrocket1","images/tutrocket2","null","images/tutrocket1","","1","practice","null","2","","",""
"d3-animate-choice","101","352837","0.0-61.0-1.13","247","659","17","Male","true","false","false","false","""event"",""trial"",""time""
""fullscreenenter"",""5"",""15671""
","
","
","""event"",""trial"",""time""
""fullscreenenter"",""5"",""15671""
","
","123.39999997615814","","48","","","3000","1","380.1999999284744","48","images/tutyellowplanet.jpg","images/tutalien4","images/tutalien3","images/tutrocket1","images/tutalien4","images/t.png","2","practice","true","2","common","1","2022-02-03 22:57:05.845"
"two-step-fixation","102","353845","0.0-61.0-2.13","247","659","17","Male","true","false","false","false","""event"",""trial"",""time""
""fullscreenenter"",""5"",""15671""
","
","
","""event"",""trial"",""time""
""fullscreenenter"",""5"",""15671""
","
","","images/earth.jpg","","","","","","","","","","","","","","fixation","","","","","",""
"d3-animate-choice","103","355942","0.0-61.0-0.14","247","659","17","Male","true","false","false","false","""event"",""trial"",""time""
""fullscreenenter"",""5"",""15671""
","
","
","""event"",""trial"",""time""
""fullscreenenter"",""5"",""15671""
","
","89.10000002384186","","48","","","3000","1","310.7000000476837","48","images/earth.jpg","images/tutrocket1","images/tutrocket2","null","images/tutrocket1","","1","practice","null","2","","",""
"d3-animate-choice","104","358272","0.0-61.0-1.14","247","659","17","Male","true","false","false","false","""event"",""trial"",""time""
""fullscreenenter"",""5"",""15671""
","
","
","""event"",""trial"",""time""
""fullscreenenter"",""5"",""15671""
","
","322.2000000476837","","48","","","3000","1","586.4000000953674","48","images/tutgreenplanet.jpg","images/tutalien2","images/tutalien1","images/tutrocket1","images/tutalien2","images/t.png","2","practice","false","2","rare","1","2022-02-03 22:57:11.280"
"two-step-fixation","105","359277","0.0-61.0-2.14","247","659","17","Male","true","false","false","false","""event"",""trial"",""time""
""fullscreenenter"",""5"",""15671""
","
","
","""event"",""trial"",""time""
""fullscreenenter"",""5"",""15671""
","
","","images/earth.jpg","","","","","","","","","","","","","","fixation","","","","","",""
"d3-animate-choice","106","361298","0.0-61.0-0.15","247","659","17","Male","true","false","false","false","""event"",""trial"",""time""
""fullscreenenter"",""5"",""15671""
","
","
","""event"",""trial"",""time""
""fullscreenenter"",""5"",""15671""
","
","14.5","","48","","","3000","1","","","images/earth.jpg","images/tutrocket1","images/tutrocket2","null","images/tutrocket1","","1","practice","null","2","","",""
"d3-animate-choice","107","363547","0.0-61.0-1.15","247","659","17","Male","true","false","false","false","""event"",""trial"",""time""
""fullscreenenter"",""5"",""15671""
","
","
","""event"",""trial"",""time""
""fullscreenenter"",""5"",""15671""
","
","245.39999997615814","","48","","","3000","1","522.2999999523163","48","images/tutgreenplanet.jpg","images/tutalien2","images/tutalien1","images/tutrocket1","images/tutalien2","images/t.png","2","practice","false","2","rare","1","2022-02-03 22:57:16.556"
"two-step-fixation","108","364555","0.0-61.0-2.15","247","659","17","Male","true","false","false","false","""event"",""trial"",""time""
""fullscreenenter"",""5"",""15671""
","
","
","""event"",""trial"",""time""
""fullscreenenter"",""5"",""15671""
","
","","images/earth.jpg","","","","","","","","","","","","","","fixation","","","","","",""
"d3-animate-choice","109","366597","0.0-61.0-0.16","247","659","17","Male","true","false","false","false","""event"",""trial"",""time""
""fullscreenenter"",""5"",""15671""
","
","
","""event"",""trial"",""time""
""fullscreenenter"",""5"",""15671""
","
","35","","48","","","3000","1","258.5","48","images/earth.jpg","images/tutrocket1","images/tutrocket2","null","images/tutrocket1","","1","practice","null","2","","",""
"d3-animate-choice","110","368934","0.0-61.0-1.16","247","659","17","Male","true","false","false","false","""event"",""trial"",""time""
""fullscreenenter"",""5"",""15671""
","
","
","""event"",""trial"",""time""
""fullscreenenter"",""5"",""15671""
","
","327.10000002384186","","48","","","3000","1","551.7000000476837","48","images/tutyellowplanet.jpg","images/tutalien4","images/tutalien3","images/tutrocket1","images/tutalien4","images/t.png","2","practice","true","2","common","1","2022-02-03 22:57:21.942"
"two-step-fixation","111","369939","0.0-61.0-2.16","247","659","17","Male","true","false","false","false","""event"",""trial"",""time""
""fullscreenenter"",""5"",""15671""
","
","
","""event"",""trial"",""time""
""fullscreenenter"",""5"",""15671""
","
","","images/earth.jpg","","","","","","","","","","","","","","fixation","","","","","",""
"d3-animate-choice","112","371958","0.0-61.0-0.17","247","659","17","Male","true","false","false","false","""event"",""trial"",""time""
""fullscreenenter"",""5"",""15671""
","
","
","""event"",""trial"",""time""
""fullscreenenter"",""5"",""15671""
","
","10.699999928474426","","48","","","3000","1","245.19999992847443","48","images/earth.jpg","images/tutrocket1","images/tutrocket2","null","images/tutrocket1","","1","practice","null","2","","",""
"d3-animate-choice","113","374229","0.0-61.0-1.17","247","659","17","Male","true","false","false","false","""event"",""trial"",""time""
""fullscreenenter"",""5"",""15671""
","
","
","""event"",""trial"",""time""
""fullscreenenter"",""5"",""15671""
","
","263.39999997615814","","48","","","3000","1","494.59999990463257","48","images/tutyellowplanet.jpg","images/tutalien4","images/tutalien3","images/tutrocket1","images/tutalien4","images/nothing.png","2","practice","true","2","common","0","2022-02-03 22:57:27.237"
"two-step-fixation","114","375234","0.0-61.0-2.17","247","659","17","Male","true","false","false","false","""event"",""trial"",""time""
""fullscreenenter"",""5"",""15671""
","
","
","""event"",""trial"",""time""
""fullscreenenter"",""5"",""15671""
","
","","images/earth.jpg","","","","","","","","","","","","","","fixation","","","","","",""
"d3-animate-choice","115","377483","0.0-61.0-0.18","247","659","17","Male","true","false","false","false","""event"",""trial"",""time""
""fullscreenenter"",""5"",""15671""
","
","
","""event"",""trial"",""time""
""fullscreenenter"",""5"",""15671""
","
","244.39999997615814","","48","","","3000","1","","","images/earth.jpg","images/tutrocket1","images/tutrocket2","null","images/tutrocket1","","1","practice","null","2","","",""
"d3-animate-choice","116","379515","0.0-61.0-1.18","247","659","17","Male","true","false","false","false","""event"",""trial"",""time""
""fullscreenenter"",""5"",""15671""
","
","
","""event"",""trial"",""time""
""fullscreenenter"",""5"",""15671""
","
","23.600000023841858","","48","","","3000","1","314.89999997615814","48","images/tutyellowplanet.jpg","images/tutalien4","images/tutalien3","images/tutrocket1","images/tutalien4","images/nothing.png","2","practice","true","2","common","0","2022-02-03 22:57:32.523"
"two-step-fixation","117","380523","0.0-61.0-2.18","247","659","17","Male","true","false","false","false","""event"",""trial"",""time""
""fullscreenenter"",""5"",""15671""
","
","
","""event"",""trial"",""time""
""fullscreenenter"",""5"",""15671""
","
","","images/earth.jpg","","","","","","","","","","","","","","fixation","","","","","",""
"d3-animate-choice","118","382710","0.0-61.0-0.19","247","659","17","Male","true","false","false","false","""event"",""trial"",""time""
""fullscreenenter"",""5"",""15671""
","
","
","""event"",""trial"",""time""
""fullscreenenter"",""5"",""15671""
","
","181","","48","","","3000","1","","","images/earth.jpg","images/tutrocket1","images/tutrocket2","null","images/tutrocket1","","1","practice","null","2","","",""
"d3-animate-choice","119","384907","0.0-61.0-1.19","247","659","17","Male","true","false","false","false","""event"",""trial"",""time""
""fullscreenenter"",""5"",""15671""
","
","
","""event"",""trial"",""time""
""fullscreenenter"",""5"",""15671""
","
","192","","48","","","3000","1","456.60000002384186","48","images/tutyellowplanet.jpg","images/tutalien4","images/tutalien3","images/tutrocket1","images/tutalien4","images/nothing.png","2","practice","true","2","common","0","2022-02-03 22:57:37.915"
"two-step-fixation","120","385913","0.0-61.0-2.19","247","659","17","Male","true","false","false","false","""event"",""trial"",""time""
""fullscreenenter"",""5"",""15671""
","
","
","""event"",""trial"",""time""
""fullscreenenter"",""5"",""15671""
","
","","images/earth.jpg","","","","","","","","","","","","","","fixation","","","","","",""
"d3-instructions","121","389244","0.0-62.0","247","659","17","Male","true","false","false","false","""event"",""trial"",""time""
""fullscreenenter"",""5"",""15671""
","
","
","""event"",""trial"",""time""
""fullscreenenter"",""5"",""15671""
","
","","","","","","","","","","","","","","","","","","","","","",""
"audio-keyboard-response","122","392616","0.0-63.0","247","659","17","Male","true","false","false","false","""event"",""trial"",""time""
""fullscreenenter"",""5"",""15671""
","
","
","""event"",""trial"",""time""
""fullscreenenter"",""5"",""15671""
","
","3371","audio/instructions/treasure_feedback.wav","32","","","","","","","","","","","","","","","","","","",""
"d3-instructions","123","402089","0.0-64.0","247","659","17","Male","true","false","false","false","""event"",""trial"",""time""
""fullscreenenter"",""5"",""15671""
","
","
","""event"",""trial"",""time""
""fullscreenenter"",""5"",""15671""
","
","","","","","","","","","","","","","","","","","","","","","",""
"d3-instructions","124","409492","0.0-65.0","247","659","17","Male","true","false","false","false","""event"",""trial"",""time""
""fullscreenenter"",""5"",""15671""
","
","
","""event"",""trial"",""time""
""fullscreenenter"",""5"",""15671""
","
","","","","","","","","","","","","","","","","","","","","","",""
"d3-instructions","125","421465","0.0-66.0","247","659","17","Male","true","false","false","false","""event"",""trial"",""time""
""fullscreenenter"",""5"",""15671""
","
","
","""event"",""trial"",""time""
""fullscreenenter"",""5"",""15671""
","
","","","","","","","","","","","","","","","","","","","","","",""
"d3-instructions","126","430995","0.0-67.0","247","659","17","Male","true","false","false","false","""event"",""trial"",""time""
""fullscreenenter"",""5"",""15671""
","
","
","""event"",""trial"",""time""
""fullscreenenter"",""5"",""15671""
","
","","","","","","","","","","","","","","","","","","","","","",""
"d3-instructions","127","433413","0.0-68.0","247","659","17","Male","true","false","false","false","""event"",""trial"",""time""
""fullscreenenter"",""5"",""15671""
","
","
","""event"",""trial"",""time""
""fullscreenenter"",""5"",""15671""
","
","","","","","","","","","","","","","","","","","","","","","",""
"instructions-quiz","128","435315","0.0-69.0","247","659","17","Male","true","false","false","false","""event"",""trial"",""time""
""fullscreenenter"",""5"",""15671""
","
","
","""event"",""trial"",""time""
""fullscreenenter"",""5"",""15671""
","
","1899.8999999761581","audio/quiz/Q1_Prompt.wav","","1","","","","","","","","","","","","","","","","","",""
"audio-keyboard-response","129","438484","0.0-70.0","247","659","17","Male","true","false","false","false","""event"",""trial"",""time""
""fullscreenenter"",""5"",""15671""
","
","
","""event"",""trial"",""time""
""fullscreenenter"",""5"",""15671""
","
","3168","audio/quiz/Q1_Correct.wav","32","","","","","","","","","","","","","","","","","","",""
"instructions-quiz","130","442833","0.0-71.0","247","659","17","Male","true","false","false","false","""event"",""trial"",""time""
""fullscreenenter"",""5"",""15671""
","
","
","""event"",""trial"",""time""
""fullscreenenter"",""5"",""15671""
","
","4346.199999928474","audio/quiz/Q2_Prompt.wav","","0","","","","","","","","","","","","","","","","","",""
"audio-keyboard-response","131","443386","0.0-72.0","247","659","17","Male","true","false","false","false","""event"",""trial"",""time""
""fullscreenenter"",""5"",""15671""
","
","
","""event"",""trial"",""time""
""fullscreenenter"",""5"",""15671""
","
","549","audio/quiz/Q2_Correct.wav","32","","","","","","","","","","","","","","","","","","",""
"instructions-quiz","132","445102","0.0-73.0","247","659","17","Male","true","false","false","false","""event"",""trial"",""time""
""fullscreenenter"",""5"",""15671""
","
","
","""event"",""trial"",""time""
""fullscreenenter"",""5"",""15671""
","
","1712.3999999761581","audio/quiz/Q3_Prompt.wav","","1","","","","","","","","","","","","","","","","","",""
"audio-keyboard-response","133","445656","0.0-74.0","247","659","17","Male","true","false","false","false","""event"",""trial"",""time""
""fullscreenenter"",""5"",""15671""
","
","
","""event"",""trial"",""time""
""fullscreenenter"",""5"",""15671""
","
","555","audio/quiz/Q3_Correct.wav","32","","","","","","","","","","","","","","","","","","",""
"d3-instructions","134","452688","0.0-75.0","247","659","17","Male","true","false","false","false","""event"",""trial"",""time""
""fullscreenenter"",""5"",""15671""
","
","
","""event"",""trial"",""time""
""fullscreenenter"",""5"",""15671""
","
","","","","","","","","","","","","","","","","","","","","","",""
"d3-animate-choice","135","455579","0.0-76.0-0.0","247","659","17","Male","true","false","false","false","""event"",""trial"",""time""
""fullscreenenter"",""5"",""15671""
","
","
","""event"",""trial"",""time""
""fullscreenenter"",""5"",""15671""
","
","881.8999999761581","","48","","","3000","1","","","images/earth.jpg","images/rocket2","images/rocket1","null","images/rocket2","","1","real","null","2","","",""
"d3-animate-choice","136","457900","0.0-76.0-1.0","247","659","17","Male","true","false","false","false","""event"",""trial"",""time""
""fullscreenenter"",""5"",""15671""
","
","
","""event"",""trial"",""time""
""fullscreenenter"",""5"",""15671""
","
","313.60000002384186","","48","","","3000","1","","","images/redplanet1.jpg","images/alien2","images/alien1","images/rocket2","images/alien2","images/t.png","2","real","true","2","common","1","2022-02-03 22:58:50.908"
"two-step-fixation","137","458906","0.0-76.0-2.0","247","659","17","Male","true","false","false","false","""event"",""trial"",""time""
""fullscreenenter"",""5"",""15671""
","
","
","""event"",""trial"",""time""
""fullscreenenter"",""5"",""15671""
","
","","images/earth.jpg","","","","","","","","","","","","","","fixation","","","","","",""
"d3-animate-choice","138","460956","0.0-76.0-0.1","247","659","17","Male","true","false","false","false","""event"",""trial"",""time""
""fullscreenenter"",""5"",""15671""
","
","
","""event"",""trial"",""time""
""fullscreenenter"",""5"",""15671""
","
","43.299999952316284","","48","","","3000","1","243.5","48","images/earth.jpg","images/rocket2","images/rocket1","null","images/rocket2","","1","real","null","2","","",""
"d3-animate-choice","139","463341","0.0-76.0-1.1","247","659","17","Male","true","false","false","false","""event"",""trial"",""time""
""fullscreenenter"",""5"",""15671""
","
","
","""event"",""trial"",""time""
""fullscreenenter"",""5"",""15671""
","
","378.39999997615814","","48","","","3000","1","595","48","images/redplanet1.jpg","images/alien2","images/alien1","images/rocket2","images/alien2","images/t.png","2","real","true","2","common","1","2022-02-03 22:58:56.349"
"two-step-fixation","140","464347","0.0-76.0-2.1","247","659","17","Male","true","false","false","false","""event"",""trial"",""time""
""fullscreenenter"",""5"",""15671""
","
","
","""event"",""trial"",""time""
""fullscreenenter"",""5"",""15671""
","
","","images/earth.jpg","","","","","","","","","","","","","","fixation","","","","","",""
"d3-animate-choice","141","466467","0.0-76.0-0.2","247","659","17","Male","true","false","false","false","""event"",""trial"",""time""
""fullscreenenter"",""5"",""15671""
","
","
","""event"",""trial"",""time""
""fullscreenenter"",""5"",""15671""
","
","112.5","","48","","","3000","1","304.39999997615814","48","images/earth.jpg","images/rocket2","images/rocket1","null","images/rocket2","","1","real","null","2","","",""
"d3-animate-choice","142","468862","0.0-76.0-1.2","247","659","17","Male","true","false","false","false","""event"",""trial"",""time""
""fullscreenenter"",""5"",""15671""
","
","
","""event"",""trial"",""time""
""fullscreenenter"",""5"",""15671""
","
","386.2000000476837","","48","","","3000","1","","","images/redplanet1.jpg","images/alien2","images/alien1","images/rocket2","images/alien2","images/t.png","2","real","true","2","common","1","2022-02-03 22:59:01.870"
"two-step-fixation","143","469867","0.0-76.0-2.2","247","659","17","Male","true","false","false","false","""event"",""trial"",""time""
""fullscreenenter"",""5"",""15671""
","
","
","""event"",""trial"",""time""
""fullscreenenter"",""5"",""15671""
","
","","images/earth.jpg","","","","","","","","","","","","","","fixation","","","","","",""
"d3-animate-choice","144","472006","0.0-76.0-0.3","247","659","17","Male","true","false","false","false","""event"",""trial"",""time""
""fullscreenenter"",""5"",""15671""
","
","
","""event"",""trial"",""time""
""fullscreenenter"",""5"",""15671""
","
","132","","48","","","3000","1","","","images/earth.jpg","images/rocket2","images/rocket1","null","images/rocket2","","1","real","null","2","","",""
"d3-animate-choice","145","474533","0.0-76.0-1.3","247","659","17","Male","true","false","false","false","""event"",""trial"",""time""
""fullscreenenter"",""5"",""15671""
","
","
","""event"",""trial"",""time""
""fullscreenenter"",""5"",""15671""
","
","518.6999999284744","","48","","","3000","1","756.8999999761581","48","images/redplanet1.jpg","images/alien2","images/alien1","images/rocket2","images/alien2","images/t.png","2","real","true","2","common","1","2022-02-03 22:59:07.541"
"two-step-fixation","146","475542","0.0-76.0-2.3","247","659","17","Male","true","false","false","false","""event"",""trial"",""time""
""fullscreenenter"",""5"",""15671""
","
","
","""event"",""trial"",""time""
""fullscreenenter"",""5"",""15671""
","
","","images/earth.jpg","","","","","","","","","","","","","","fixation","","","","","",""
"d3-animate-choice","147","477646","0.0-76.0-0.4","247","659","17","Male","true","false","false","false","""event"",""trial"",""time""
""fullscreenenter"",""5"",""15671""
","
","
","""event"",""trial"",""time""
""fullscreenenter"",""5"",""15671""
","
","97.39999997615814","","48","","","3000","1","309.89999997615814","48","images/earth.jpg","images/rocket2","images/rocket1","null","images/rocket2","","1","real","null","2","","",""
"d3-animate-choice","148","479918","0.0-76.0-1.4","247","659","17","Male","true","false","false","false","""event"",""trial"",""time""
""fullscreenenter"",""5"",""15671""
","
","
","""event"",""trial"",""time""
""fullscreenenter"",""5"",""15671""
","
","263.7999999523163","","48","","","3000","1","494.09999990463257,781.2999999523163","48,48","images/redplanet1.jpg","images/alien2","images/alien1","images/rocket2","images/alien2","images/t.png","2","real","true","2","common","1","2022-02-03 22:59:12.926"
"two-step-fixation","149","480922","0.0-76.0-2.4","247","659","17","Male","true","false","false","false","""event"",""trial"",""time""
""fullscreenenter"",""5"",""15671""
","
","
","""event"",""trial"",""time""
""fullscreenenter"",""5"",""15671""
","
","","images/earth.jpg","","","","","","","","","","","","","","fixation","","","","","",""
"d3-animate-choice","150","483001","0.0-76.0-0.5","247","659","17","Male","true","false","false","false","""event"",""trial"",""time""
""fullscreenenter"",""5"",""15671""
","
","
","""event"",""trial"",""time""
""fullscreenenter"",""5"",""15671""
","
","73","","48","","","3000","1","254","48","images/earth.jpg","images/rocket2","images/rocket1","null","images/rocket2","","1","real","null","2","","",""
"d3-animate-choice","151","485372","0.0-76.0-1.5","247","659","17","Male","true","false","false","false","""event"",""trial"",""time""
""fullscreenenter"",""5"",""15671""
","
","
","""event"",""trial"",""time""
""fullscreenenter"",""5"",""15671""
","
","365.60000002384186","","48","","","3000","1","569.3999999761581","48","images/redplanet1.jpg","images/alien2","images/alien1","images/rocket2","images/alien2","images/t.png","2","real","true","2","common","1","2022-02-03 22:59:18.380"
"two-step-fixation","152","486379","0.0-76.0-2.5","247","659","17","Male","true","false","false","false","""event"",""trial"",""time""
""fullscreenenter"",""5"",""15671""
","
","
","""event"",""trial"",""time""
""fullscreenenter"",""5"",""15671""
","
","","images/earth.jpg","","","","","","","","","","","","","","fixation","","","","","",""
"d3-animate-choice","153","488392","0.0-76.0-0.6","247","659","17","Male","true","false","false","false","""event"",""trial"",""time""
""fullscreenenter"",""5"",""15671""
","
","
","""event"",""trial"",""time""
""fullscreenenter"",""5"",""15671""
","
","7.699999928474426","","48","","","3000","1","239.19999992847443","48","images/earth.jpg","images/rocket2","images/rocket1","null","images/rocket2","","1","real","null","2","","",""
"d3-animate-choice","154","492035","0.0-76.0-1.6","247","659","17","Male","true","false","false","false","""event"",""trial"",""time""
""fullscreenenter"",""5"",""15671""
","
","
","""event"",""trial"",""time""
""fullscreenenter"",""5"",""15671""
","
","644.6000000238419","","79","","","3000","1","826.2000000476837,1637.6000000238419","79,48","images/redplanet1.jpg","images/alien2","images/alien1","images/rocket2","images/alien2","images/t.png","2","real","true","","common","1","2022-02-03 22:59:25.043"
"two-step-fixation","155","493040","0.0-76.0-2.6","247","659","17","Male","true","false","false","false","""event"",""trial"",""time""
""fullscreenenter"",""5"",""15671""
","
","
","""event"",""trial"",""time""
""fullscreenenter"",""5"",""15671""
","
","","images/earth.jpg","","","","","","","","","","","","","","fixation","","","","","",""
"d3-animate-choice","156","495383","0.0-76.0-0.7","247","659","17","Male","true","false","false","false","""event"",""trial"",""time""
""fullscreenenter"",""5"",""15671""
","
","
","""event"",""trial"",""time""
""fullscreenenter"",""5"",""15671""
","
","334.6999999284744","","48","","","3000","1","591.8999999761581","48","images/earth.jpg","images/rocket2","images/rocket1","null","images/rocket2","","1","real","null","2","","",""
"d3-animate-choice","157","497832","0.0-76.0-1.7","247","659","17","Male","true","false","false","false","""event"",""trial"",""time""
""fullscreenenter"",""5"",""15671""
","
","
","""event"",""trial"",""time""
""fullscreenenter"",""5"",""15671""
","
","441.89999997615814","","48","","","3000","1","621.6000000238419,821.7000000476837","48,48","images/redplanet1.jpg","images/alien2","images/alien1","images/rocket2","images/alien2","images/t.png","2","real","true","2","common","1","2022-02-03 22:59:30.840"
"two-step-fixation","158","498840","0.0-76.0-2.7","247","659","17","Male","true","false","false","false","""event"",""trial"",""time""
""fullscreenenter"",""5"",""15671""
","
","
","""event"",""trial"",""time""
""fullscreenenter"",""5"",""15671""
","
","","images/earth.jpg","","","","","","","","","","","","","","fixation","","","","","",""
"d3-animate-choice","159","500867","0.0-76.0-0.8","247","659","17","Male","true","false","false","false","""event"",""trial"",""time""
""fullscreenenter"",""5"",""15671""
","
","
","""event"",""trial"",""time""
""fullscreenenter"",""5"",""15671""
","
","22","","48","","","3000","1","229","48","images/earth.jpg","images/rocket2","images/rocket1","null","images/rocket2","","1","real","null","2","","",""
"d3-animate-choice","160","503549","0.0-76.0-1.8","247","659","17","Male","true","false","false","false","""event"",""trial"",""time""
""fullscreenenter"",""5"",""15671""
","
","
","""event"",""trial"",""time""
""fullscreenenter"",""5"",""15671""
","
","677.3999999761581","","48","","","3000","1","","","images/purpleplanet.jpg","images/alien4","images/alien3","images/rocket2","images/alien4","images/t.png","2","real","false","2","rare","1","2022-02-03 22:59:36.557"
"two-step-fixation","161","504555","0.0-76.0-2.8","247","659","17","Male","true","false","false","false","""event"",""trial"",""time""
""fullscreenenter"",""5"",""15671""
","
","
","""event"",""trial"",""time""
""fullscreenenter"",""5"",""15671""
","
","","images/earth.jpg","","","","","","","","","","","","","","fixation","","","","","",""
"d3-animate-choice","162","506605","0.0-76.0-0.9","247","659","17","Male","true","false","false","false","""event"",""trial"",""time""
""fullscreenenter"",""5"",""15671""
","
","
","""event"",""trial"",""time""
""fullscreenenter"",""5"",""15671""
","
","43.10000002384186","","48","","","3000","1","278.8000000715256","48","images/earth.jpg","images/rocket2","images/rocket1","null","images/rocket2","","1","real","null","2","","",""
"d3-animate-choice","163","509027","0.0-76.0-1.9","247","659","17","Male","true","false","false","false","""event"",""trial"",""time""
""fullscreenenter"",""5"",""15671""
","
","
","""event"",""trial"",""time""
""fullscreenenter"",""5"",""15671""
","
","416.8000000715256","","48","","","3000","1","614.1000000238419,854.3000000715256","48,48","images/redplanet1.jpg","images/alien2","images/alien1","images/rocket2","images/alien2","images/t.png","2","real","true","2","common","1","2022-02-03 22:59:42.036"
"two-step-fixation","164","510034","0.0-76.0-2.9","247","659","17","Male","true","false","false","false","""event"",""trial"",""time""
""fullscreenenter"",""5"",""15671""
","
","
","""event"",""trial"",""time""
""fullscreenenter"",""5"",""15671""
","
","","images/earth.jpg","","","","","","","","","","","","","","fixation","","","","","",""
"d3-animate-choice","165","512240","0.0-76.0-0.10","247","659","17","Male","true","false","false","false","""event"",""trial"",""time""
""fullscreenenter"",""5"",""15671""
","
","
","""event"",""trial"",""time""
""fullscreenenter"",""5"",""15671""
","
","198","","48","","","3000","1","","","images/earth.jpg","images/rocket2","images/rocket1","null","images/rocket2","","1","real","null","2","","",""
"d3-animate-choice","166","514451","0.0-76.0-1.10","247","659","17","Male","true","false","false","false","""event"",""trial"",""time""
""fullscreenenter"",""5"",""15671""
","
","
","""event"",""trial"",""time""
""fullscreenenter"",""5"",""15671""
","
","203","","48","","","3000","1","424","48","images/redplanet1.jpg","images/alien2","images/alien1","images/rocket2","images/alien2","images/nothing.png","2","real","true","2","common","0","2022-02-03 22:59:47.459"
"two-step-fixation","167","515457","0.0-76.0-2.10","247","659","17","Male","true","false","false","false","""event"",""trial"",""time""
""fullscreenenter"",""5"",""15671""
","
","
","""event"",""trial"",""time""
""fullscreenenter"",""5"",""15671""
","
","","images/earth.jpg","","","","","","","","","","","","","","fixation","","","","","",""
"d3-animate-choice","168","517667","0.0-76.0-0.11","247","659","17","Male","true","false","false","false","""event"",""trial"",""time""
""fullscreenenter"",""5"",""15671""
","
","
","""event"",""trial"",""time""
""fullscreenenter"",""5"",""15671""
","
","203.79999995231628","","48","","","3000","1","","","images/earth.jpg","images/rocket2","images/rocket1","null","images/rocket2","","1","real","null","2","","",""
"d3-animate-choice","169","520047","0.0-76.0-1.11","247","659","17","Male","true","false","false","false","""event"",""trial"",""time""
""fullscreenenter"",""5"",""15671""
","
","
","""event"",""trial"",""time""
""fullscreenenter"",""5"",""15671""
","
","374.7999999523163","","48","","","3000","1","577.6999999284744","48","images/redplanet1.jpg","images/alien2","images/alien1","images/rocket2","images/alien2","images/t.png","2","real","true","2","common","1","2022-02-03 22:59:53.056"
"two-step-fixation","170","521053","0.0-76.0-2.11","247","659","17","Male","true","false","false","false","""event"",""trial"",""time""
""fullscreenenter"",""5"",""15671""
","
","
","""event"",""trial"",""time""
""fullscreenenter"",""5"",""15671""
","
","","images/earth.jpg","","","","","","","","","","","","","","fixation","","","","","",""
"d3-animate-choice","171","523214","0.0-76.0-0.12","247","659","17","Male","true","false","false","false","""event"",""trial"",""time""
""fullscreenenter"",""5"",""15671""
","
","
","""event"",""trial"",""time""
""fullscreenenter"",""5"",""15671""
","
","155.69999992847443","","48","","","3000","1","372.60000002384186","48","images/earth.jpg","images/rocket2","images/rocket1","null","images/rocket2","","1","real","null","2","","",""
"d3-animate-choice","172","525576","0.0-76.0-1.12","247","659","17","Male","true","false","false","false","""event"",""trial"",""time""
""fullscreenenter"",""5"",""15671""
","
","
","""event"",""trial"",""time""
""fullscreenenter"",""5"",""15671""
","
","357.2000000476837","","48","","","3000","1","565.8999999761581","48","images/redplanet1.jpg","images/alien2","images/alien1","images/rocket2","images/alien2","images/nothing.png","2","real","true","2","common","0","2022-02-03 22:59:58.585"
"two-step-fixation","173","526582","0.0-76.0-2.12","247","659","17","Male","true","false","false","false","""event"",""trial"",""time""
""fullscreenenter"",""5"",""15671""
","
","
","""event"",""trial"",""time""
""fullscreenenter"",""5"",""15671""
","
","","images/earth.jpg","","","","","","","","","","","","","","fixation","","","","","",""
"d3-animate-choice","174","528587","0.0-76.0-0.13","247","659","17","Male","true","false","false","false","""event"",""trial"",""time""
""fullscreenenter"",""5"",""15671""
","
","
","""event"",""trial"",""time""
""fullscreenenter"",""5"",""15671""
","
","0.40000009536743164","","49","","","3000","1","205.80000007152557","49","images/earth.jpg","images/rocket2","images/rocket1","null","images/rocket1","","1","real","null","1","","",""
"d3-animate-choice","175","530935","0.0-76.0-1.13","247","659","17","Male","true","false","false","false","""event"",""trial"",""time""
""fullscreenenter"",""5"",""15671""
","
","
","""event"",""trial"",""time""
""fullscreenenter"",""5"",""15671""
","
","341.3000000715256","","48","","","3000","1","547.5","48","images/purpleplanet.jpg","images/alien4","images/alien3","images/rocket1","images/alien4","images/t.png","2","real","true","2","common","1","2022-02-03 23:00:03.943"
"two-step-fixation","176","531942","0.0-76.0-2.13","247","659","17","Male","true","false","false","false","""event"",""trial"",""time""
""fullscreenenter"",""5"",""15671""
","
","
","""event"",""trial"",""time""
""fullscreenenter"",""5"",""15671""
","
","","images/earth.jpg","","","","","","","","","","","","","","fixation","","","","","",""
"d3-animate-choice","177","534050","0.0-76.0-0.14","247","659","17","Male","true","false","false","false","""event"",""trial"",""time""
""fullscreenenter"",""5"",""15671""
","
","
","""event"",""trial"",""time""
""fullscreenenter"",""5"",""15671""
","
","103.19999992847443","","49","","","3000","1","298.1999999284744","49","images/earth.jpg","images/rocket2","images/rocket1","null","images/rocket1","","1","real","null","1","","",""
"d3-animate-choice","178","536469","0.0-76.0-1.14","247","659","17","Male","true","false","false","false","""event"",""trial"",""time""
""fullscreenenter"",""5"",""15671""
","
","
","""event"",""trial"",""time""
""fullscreenenter"",""5"",""15671""
","
","415.5","","48","","","3000","1","617.8000000715256","48","images/purpleplanet.jpg","images/alien4","images/alien3","images/rocket1","images/alien4","images/t.png","2","real","true","2","common","1","2022-02-03 23:00:09.477"
"two-step-fixation","179","537475","0.0-76.0-2.14","247","659","17","Male","true","false","false","false","""event"",""trial"",""time""
""fullscreenenter"",""5"",""15671""
","
","
","""event"",""trial"",""time""
""fullscreenenter"",""5"",""15671""
","
","","images/earth.jpg","","","","","","","","","","","","","","fixation","","","","","",""
"d3-animate-choice","180","539544","0.0-76.0-0.15","247","659","17","Male","true","false","false","false","""event"",""trial"",""time""
""fullscreenenter"",""5"",""15671""
","
","
","""event"",""trial"",""time""
""fullscreenenter"",""5"",""15671""
","
","60.09999990463257","","49","","","3000","1","243.09999990463257,2001.3999999761581","49,48","images/earth.jpg","images/rocket2","images/rocket1","null","images/rocket1","","1","real","null","1","","",""
"d3-animate-choice","181","541713","0.0-76.0-1.15","247","659","17","Male","true","false","false","false","""event"",""trial"",""time""
""fullscreenenter"",""5"",""15671""
","
","
","""event"",""trial"",""time""
""fullscreenenter"",""5"",""15671""
","
","164.90000009536743","","48","","","3000","1","368.90000009536743","48","images/redplanet1.jpg","images/alien2","images/alien1","images/rocket1","images/alien2","images/nothing.png","2","real","false","2","rare","0","2022-02-03 23:00:14.721"
"two-step-fixation","182","542718","0.0-76.0-2.15","247","659","17","Male","true","false","false","false","""event"",""trial"",""time""
""fullscreenenter"",""5"",""15671""
","
","
","""event"",""trial"",""time""
""fullscreenenter"",""5"",""15671""
","
","","images/earth.jpg","","","","","","","","","","","","","","fixation","","","","","",""
"d3-animate-choice","183","544787","0.0-76.0-0.16","247","659","17","Male","true","false","false","false","""event"",""trial"",""time""
""fullscreenenter"",""5"",""15671""
","
","
","""event"",""trial"",""time""
""fullscreenenter"",""5"",""15671""
","
","62.10000002384186","","49","","","3000","1","269.89999997615814","49","images/earth.jpg","images/rocket2","images/rocket1","null","images/rocket1","","1","real","null","1","","",""
"d3-animate-choice","184","547351","0.0-76.0-1.16","247","659","17","Male","true","false","false","false","""event"",""trial"",""time""
""fullscreenenter"",""5"",""15671""
","
","
","""event"",""trial"",""time""
""fullscreenenter"",""5"",""15671""
","
","554.8999999761581","","48","","","3000","1","746.3999999761581","48","images/purpleplanet.jpg","images/alien4","images/alien3","images/rocket1","images/alien4","images/t.png","2","real","true","2","common","1","2022-02-03 23:00:20.359"
"two-step-fixation","185","548357","0.0-76.0-2.16","247","659","17","Male","true","false","false","false","""event"",""trial"",""time""
""fullscreenenter"",""5"",""15671""
","
","
","""event"",""trial"",""time""
""fullscreenenter"",""5"",""15671""
","
","","images/earth.jpg","","","","","","","","","","","","","","fixation","","","","","",""
"d3-animate-choice","186","550499","0.0-76.0-0.17","247","659","17","Male","true","false","false","false","""event"",""trial"",""time""
""fullscreenenter"",""5"",""15671""
","
","
","""event"",""trial"",""time""
""fullscreenenter"",""5"",""15671""
","
","136.20000004768372","","49","","","3000","1","","","images/earth.jpg","images/rocket2","images/rocket1","null","images/rocket1","","1","real","null","1","","",""
"d3-animate-choice","187","552882","0.0-76.0-1.17","247","659","17","Male","true","false","false","false","""event"",""trial"",""time""
""fullscreenenter"",""5"",""15671""
","
","
","""event"",""trial"",""time""
""fullscreenenter"",""5"",""15671""
","
","374.2999999523163","","48","","","3000","1","580.8999999761581","48","images/purpleplanet.jpg","images/alien4","images/alien3","images/rocket1","images/alien4","images/t.png","2","real","true","2","common","1","2022-02-03 23:00:25.890"
"two-step-fixation","188","553887","0.0-76.0-2.17","247","659","17","Male","true","false","false","false","""event"",""trial"",""time""
""fullscreenenter"",""5"",""15671""
","
","
","""event"",""trial"",""time""
""fullscreenenter"",""5"",""15671""
","
","","images/earth.jpg","","","","","","","","","","","","","","fixation","","","","","",""
"d3-animate-choice","189","556180","0.0-76.0-0.18","247","659","17","Male","true","false","false","false","""event"",""trial"",""time""
""fullscreenenter"",""5"",""15671""
","
","
","""event"",""trial"",""time""
""fullscreenenter"",""5"",""15671""
","
","286.7999999523163","","49","","","3000","1","","","images/earth.jpg","images/rocket2","images/rocket1","null","images/rocket1","","1","real","null","1","","",""
"d3-animate-choice","190","558550","0.0-76.0-1.18","247","659","17","Male","true","false","false","false","""event"",""trial"",""time""
""fullscreenenter"",""5"",""15671""
","
","
","""event"",""trial"",""time""
""fullscreenenter"",""5"",""15671""
","
","364.60000002384186","","48","","","3000","1","624.3999999761581","48","images/redplanet1.jpg","images/alien2","images/alien1","images/rocket1","images/alien2","images/t.png","2","real","false","2","rare","1","2022-02-03 23:00:31.558"
"two-step-fixation","191","559555","0.0-76.0-2.18","247","659","17","Male","true","false","false","false","""event"",""trial"",""time""
""fullscreenenter"",""5"",""15671""
","
","
","""event"",""trial"",""time""
""fullscreenenter"",""5"",""15671""
","
","","images/earth.jpg","","","","","","","","","","","","","","fixation","","","","","",""
"d3-animate-choice","192","561726","0.0-76.0-0.19","247","659","17","Male","true","false","false","false","""event"",""trial"",""time""
""fullscreenenter"",""5"",""15671""
","
","
","""event"",""trial"",""time""
""fullscreenenter"",""5"",""15671""
","
","162.79999995231628","","49","","","3000","1","","","images/earth.jpg","images/rocket2","images/rocket1","null","images/rocket1","","1","real","null","1","","",""
"d3-animate-choice","193","564308","0.0-76.0-1.19","247","659","17","Male","true","false","false","false","""event"",""trial"",""time""
""fullscreenenter"",""5"",""15671""
","
","
","""event"",""trial"",""time""
""fullscreenenter"",""5"",""15671""
","
","574.5","","48","","","3000","1","","","images/purpleplanet.jpg","images/alien4","images/alien3","images/rocket1","images/alien4","images/nothing.png","2","real","true","2","common","0","2022-02-03 23:00:37.316"
"two-step-fixation","194","565316","0.0-76.0-2.19","247","659","17","Male","true","false","false","false","""event"",""trial"",""time""
""fullscreenenter"",""5"",""15671""
","
","
","""event"",""trial"",""time""
""fullscreenenter"",""5"",""15671""
","
","","images/earth.jpg","","","","","","","","","","","","","","fixation","","","","","",""
"d3-animate-choice","195","567768","0.0-76.0-0.20","247","659","17","Male","true","false","false","false","""event"",""trial"",""time""
""fullscreenenter"",""5"",""15671""
","
","
","""event"",""trial"",""time""
""fullscreenenter"",""5"",""15671""
","
","443.1999999284744","","49","","","3000","1","","","images/earth.jpg","images/rocket2","images/rocket1","null","images/rocket1","","1","real","null","1","","",""
"d3-animate-choice","196","570121","0.0-76.0-1.20","247","659","17","Male","true","false","false","false","""event"",""trial"",""time""
""fullscreenenter"",""5"",""15671""
","
","
","""event"",""trial"",""time""
""fullscreenenter"",""5"",""15671""
","
","346.7000000476837","","49","","","3000","1","","","images/purpleplanet.jpg","images/alien4","images/alien3","images/rocket1","images/alien3","images/nothing.png","2","real","true","1","common","0","2022-02-03 23:00:43.129"
"two-step-fixation","197","571128","0.0-76.0-2.20","247","659","17","Male","true","false","false","false","""event"",""trial"",""time""
""fullscreenenter"",""5"",""15671""
","
","
","""event"",""trial"",""time""
""fullscreenenter"",""5"",""15671""
","
","","images/earth.jpg","","","","","","","","","","","","","","fixation","","","","","",""
"d3-animate-choice","198","573315","0.0-76.0-0.21","247","659","17","Male","true","false","false","false","""event"",""trial"",""time""
""fullscreenenter"",""5"",""15671""
","
","
","""event"",""trial"",""time""
""fullscreenenter"",""5"",""15671""
","
","179","","49","","","3000","1","","","images/earth.jpg","images/rocket2","images/rocket1","null","images/rocket1","","1","real","null","1","","",""
"d3-animate-choice","199","575700","0.0-76.0-1.21","247","659","17","Male","true","false","false","false","""event"",""trial"",""time""
""fullscreenenter"",""5"",""15671""
","
","
","""event"",""trial"",""time""
""fullscreenenter"",""5"",""15671""
","
","378","","48","","","3000","1","","","images/purpleplanet.jpg","images/alien4","images/alien3","images/rocket1","images/alien4","images/nothing.png","2","real","true","2","common","0","2022-02-03 23:00:48.708"
"two-step-fixation","200","576706","0.0-76.0-2.21","247","659","17","Male","true","false","false","false","""event"",""trial"",""time""
""fullscreenenter"",""5"",""15671""
","
","
","""event"",""trial"",""time""
""fullscreenenter"",""5"",""15671""
","
","","images/earth.jpg","","","","","","","","","","","","","","fixation","","","","","",""
"d3-animate-choice","201","578713","0.0-76.0-0.22","247","659","17","Male","true","false","false","false","""event"",""trial"",""time""
""fullscreenenter"",""5"",""15671""
","
","
","""event"",""trial"",""time""
""fullscreenenter"",""5"",""15671""
","
","0.3999999761581421","","48","","","3000","1","184.39999997615814","48","images/earth.jpg","images/rocket2","images/rocket1","null","images/rocket2","","1","real","null","2","","",""
"d3-animate-choice","202","580964","0.0-76.0-1.22","247","659","17","Male","true","false","false","false","""event"",""trial"",""time""
""fullscreenenter"",""5"",""15671""
","
","
","""event"",""trial"",""time""
""fullscreenenter"",""5"",""15671""
","
","243","","49","","","3000","1","436.7000000476837","49","images/redplanet1.jpg","images/alien2","images/alien1","images/rocket2","images/alien1","images/t.png","2","real","true","1","common","1","2022-02-03 23:00:53.972"
"two-step-fixation","203","581969","0.0-76.0-2.22","247","659","17","Male","true","false","false","false","""event"",""trial"",""time""
""fullscreenenter"",""5"",""15671""
","
","
","""event"",""trial"",""time""
""fullscreenenter"",""5"",""15671""
","
","","images/earth.jpg","","","","","","","","","","","","","","fixation","","","","","",""
"d3-animate-choice","204","584009","0.0-76.0-0.23","247","659","17","Male","true","false","false","false","""event"",""trial"",""time""
""fullscreenenter"",""5"",""15671""
","
","
","""event"",""trial"",""time""
""fullscreenenter"",""5"",""15671""
","
","35.5","","48","","","3000","1","221.20000004768372","48","images/earth.jpg","images/rocket2","images/rocket1","null","images/rocket2","","1","real","null","2","","",""
"d3-animate-choice","205","586281","0.0-76.0-1.23","247","659","17","Male","true","false","false","false","""event"",""trial"",""time""
""fullscreenenter"",""5"",""15671""
","
","
","""event"",""trial"",""time""
""fullscreenenter"",""5"",""15671""
","
","264","","49","","","3000","1","502.60000002384186","49","images/purpleplanet.jpg","images/alien4","images/alien3","images/rocket2","images/alien3","images/nothing.png","2","real","false","1","rare","0","2022-02-03 23:00:59.289"
"two-step-fixation","206","587287","0.0-76.0-2.23","247","659","17","Male","true","false","false","false","""event"",""trial"",""time""
""fullscreenenter"",""5"",""15671""
","
","
","""event"",""trial"",""time""
""fullscreenenter"",""5"",""15671""
","
","","images/earth.jpg","","","","","","","","","","","","","","fixation","","","","","",""
"d3-animate-choice","207","589488","0.0-76.0-0.24","247","659","17","Male","true","false","false","false","""event"",""trial"",""time""
""fullscreenenter"",""5"",""15671""
","
","
","""event"",""trial"",""time""
""fullscreenenter"",""5"",""15671""
","
","195.5","","48","","","3000","1","","","images/earth.jpg","images/rocket2","images/rocket1","null","images/rocket2","","1","real","null","2","","",""
"d3-animate-choice","208","591849","0.0-76.0-1.24","247","659","17","Male","true","false","false","false","""event"",""trial"",""time""
""fullscreenenter"",""5"",""15671""
","
","
","""event"",""trial"",""time""
""fullscreenenter"",""5"",""15671""
","
","351.6999999284744","","49","","","3000","1","577.1999999284744","49","images/redplanet1.jpg","images/alien2","images/alien1","images/rocket2","images/alien1","images/t.png","2","real","true","1","common","1","2022-02-03 23:01:04.858"
"two-step-fixation","209","592858","0.0-76.0-2.24","247","659","17","Male","true","false","false","false","""event"",""trial"",""time""
""fullscreenenter"",""5"",""15671""
","
","
","""event"",""trial"",""time""
""fullscreenenter"",""5"",""15671""
","
","","images/earth.jpg","","","","","","","","","","","","","","fixation","","","","","",""
"d3-animate-choice","210","594964","0.0-76.0-0.25","247","659","17","Male","true","false","false","false","""event"",""trial"",""time""
""fullscreenenter"",""5"",""15671""
","
","
","""event"",""trial"",""time""
""fullscreenenter"",""5"",""15671""
","
","102.19999992847443","","48","","","3000","1","","","images/earth.jpg","images/rocket2","images/rocket1","null","images/rocket2","","1","real","null","2","","",""
"d3-animate-choice","211","597072","0.0-76.0-1.25","247","659","17","Male","true","false","false","false","""event"",""trial"",""time""
""fullscreenenter"",""5"",""15671""
","
","
","""event"",""trial"",""time""
""fullscreenenter"",""5"",""15671""
","
","101.89999997615814","","49","","","3000","1","309.2000000476837","49","images/redplanet1.jpg","images/alien2","images/alien1","images/rocket2","images/alien1","images/t.png","2","real","true","1","common","1","2022-02-03 23:01:10.080"
"two-step-fixation","212","598078","0.0-76.0-2.25","247","659","17","Male","true","false","false","false","""event"",""trial"",""time""
""fullscreenenter"",""5"",""15671""
","
","
","""event"",""trial"",""time""
""fullscreenenter"",""5"",""15671""
","
","","images/earth.jpg","","","","","","","","","","","","","","fixation","","","","","",""
"d3-animate-choice","213","600226","0.0-76.0-0.26","247","659","17","Male","true","false","false","false","""event"",""trial"",""time""
""fullscreenenter"",""5"",""15671""
","
","
","""event"",""trial"",""time""
""fullscreenenter"",""5"",""15671""
","
","140","","48","","","3000","1","","","images/earth.jpg","images/rocket2","images/rocket1","null","images/rocket2","","1","real","null","2","","",""
"d3-animate-choice","214","602263","0.0-76.0-1.26","247","659","17","Male","true","false","false","false","""event"",""trial"",""time""
""fullscreenenter"",""5"",""15671""
","
","
","""event"",""trial"",""time""
""fullscreenenter"",""5"",""15671""
","
","30","","49","","","3000","1","279.7999999523163,456.1999999284744","49,49","images/redplanet1.jpg","images/alien2","images/alien1","images/rocket2","images/alien1","images/t.png","2","real","true","1","common","1","2022-02-03 23:01:15.272"
"two-step-fixation","215","603269","0.0-76.0-2.26","247","659","17","Male","true","false","false","false","""event"",""trial"",""time""
""fullscreenenter"",""5"",""15671""
","
","
","""event"",""trial"",""time""
""fullscreenenter"",""5"",""15671""
","
","","images/earth.jpg","","","","","","","","","","","","","","fixation","","","","","",""
"d3-animate-choice","216","605461","0.0-76.0-0.27","247","659","17","Male","true","false","false","false","""event"",""trial"",""time""
""fullscreenenter"",""5"",""15671""
","
","
","""event"",""trial"",""time""
""fullscreenenter"",""5"",""15671""
","
","189","","48","","","3000","1","2185.4000000953674","49","images/earth.jpg","images/rocket2","images/rocket1","null","images/rocket2","","1","real","null","2","","",""
"d3-animate-choice","217","607668","0.0-76.0-1.27","247","659","17","Male","true","false","false","false","""event"",""trial"",""time""
""fullscreenenter"",""5"",""15671""
","
","
","""event"",""trial"",""time""
""fullscreenenter"",""5"",""15671""
","
","202.89999997615814","","49","","","3000","1","416.7000000476837","49","images/purpleplanet.jpg","images/alien4","images/alien3","images/rocket2","images/alien3","images/nothing.png","2","real","false","1","rare","0","2022-02-03 23:01:20.677"
"two-step-fixation","218","608674","0.0-76.0-2.27","247","659","17","Male","true","false","false","false","""event"",""trial"",""time""
""fullscreenenter"",""5"",""15671""
","
","
","""event"",""trial"",""time""
""fullscreenenter"",""5"",""15671""
","
","","images/earth.jpg","","","","","","","","","","","","","","fixation","","","","","",""
"d3-animate-choice","219","610818","0.0-76.0-0.28","247","659","17","Male","true","false","false","false","""event"",""trial"",""time""
""fullscreenenter"",""5"",""15671""
","
","
","""event"",""trial"",""time""
""fullscreenenter"",""5"",""15671""
","
","138","","48","","","3000","1","379.89999997615814","48","images/earth.jpg","images/rocket2","images/rocket1","null","images/rocket2","","1","real","null","2","","",""
"d3-animate-choice","220","613453","0.0-76.0-1.28","247","659","17","Male","true","false","false","false","""event"",""trial"",""time""
""fullscreenenter"",""5"",""15671""
","
","
","""event"",""trial"",""time""
""fullscreenenter"",""5"",""15671""
","
","629.6000000238419","","48","","","3000","1","","","images/purpleplanet.jpg","images/alien4","images/alien3","images/rocket2","images/alien4","images/t.png","2","real","false","2","rare","1","2022-02-03 23:01:26.462"
"two-step-fixation","221","614460","0.0-76.0-2.28","247","659","17","Male","true","false","false","false","""event"",""trial"",""time""
""fullscreenenter"",""5"",""15671""
","
","
","""event"",""trial"",""time""
""fullscreenenter"",""5"",""15671""
","
","","images/earth.jpg","","","","","","","","","","","","","","fixation","","","","","",""
"d3-animate-choice","222","616568","0.0-76.0-0.29","247","659","17","Male","true","false","false","false","""event"",""trial"",""time""
""fullscreenenter"",""5"",""15671""
","
","
","""event"",""trial"",""time""
""fullscreenenter"",""5"",""15671""
","
","98.79999995231628","","48","","","3000","1","","","images/earth.jpg","images/rocket2","images/rocket1","null","images/rocket2","","1","real","null","2","","",""
"d3-animate-choice","223","619252","0.0-76.0-1.29","247","659","17","Male","true","false","false","false","""event"",""trial"",""time""
""fullscreenenter"",""5"",""15671""
","
","
","""event"",""trial"",""time""
""fullscreenenter"",""5"",""15671""
","
","674.7000000476837","","48","","","3000","1","","","images/purpleplanet.jpg","images/alien4","images/alien3","images/rocket2","images/alien4","images/t.png","2","real","false","2","rare","1","2022-02-03 23:01:32.260"
"two-step-fixation","224","620258","0.0-76.0-2.29","247","659","17","Male","true","false","false","false","""event"",""trial"",""time""
""fullscreenenter"",""5"",""15671""
","
","
","""event"",""trial"",""time""
""fullscreenenter"",""5"",""15671""
","
","","images/earth.jpg","","","","","","","","","","","","","","fixation","","","","","",""
"d3-animate-choice","225","622460","0.0-76.0-0.30","247","659","17","Male","true","false","false","false","""event"",""trial"",""time""
""fullscreenenter"",""5"",""15671""
","
","
","""event"",""trial"",""time""
""fullscreenenter"",""5"",""15671""
","
","194.20000004768372","","48","","","3000","1","","","images/earth.jpg","images/rocket2","images/rocket1","null","images/rocket2","","1","real","null","2","","",""
"d3-animate-choice","226","624516","0.0-76.0-1.30","247","659","17","Male","true","false","false","false","""event"",""trial"",""time""
""fullscreenenter"",""5"",""15671""
","
","
","""event"",""trial"",""time""
""fullscreenenter"",""5"",""15671""
","
","50.10000002384186","","49","","","3000","1","268.7000000476837","49","images/purpleplanet.jpg","images/alien4","images/alien3","images/rocket2","images/alien3","images/nothing.png","2","real","false","1","rare","0","2022-02-03 23:01:37.524"
"two-step-fixation","227","625524","0.0-76.0-2.30","247","659","17","Male","true","false","false","false","""event"",""trial"",""time""
""fullscreenenter"",""5"",""15671""
","
","
","""event"",""trial"",""time""
""fullscreenenter"",""5"",""15671""
","
","","images/earth.jpg","","","","","","","","","","","","","","fixation","","","","","",""
"d3-animate-choice","228","627710","0.0-76.0-0.31","247","659","17","Male","true","false","false","false","""event"",""trial"",""time""
""fullscreenenter"",""5"",""15671""
","
","
","""event"",""trial"",""time""
""fullscreenenter"",""5"",""15671""
","
","178.20000004768372","","48","","","3000","1","422.5","48","images/earth.jpg","images/rocket2","images/rocket1","null","images/rocket2","","1","real","null","2","","",""
"d3-animate-choice","229","630569","0.0-76.0-1.31","247","659","17","Male","true","false","false","false","""event"",""trial"",""time""
""fullscreenenter"",""5"",""15671""
","
","
","""event"",""trial"",""time""
""fullscreenenter"",""5"",""15671""
","
","852.7000000476837","","49","","","3000","1","","","images/redplanet1.jpg","images/alien2","images/alien1","images/rocket2","images/alien1","images/t.png","2","real","true","1","common","1","2022-02-03 23:01:43.578"
"two-step-fixation","230","631578","0.0-76.0-2.31","247","659","17","Male","true","false","false","false","""event"",""trial"",""time""
""fullscreenenter"",""5"",""15671""
","
","
","""event"",""trial"",""time""
""fullscreenenter"",""5"",""15671""
","
","","images/earth.jpg","","","","","","","","","","","","","","fixation","","","","","",""
"d3-animate-choice","231","633650","0.0-76.0-0.32","247","659","17","Male","true","false","false","false","""event"",""trial"",""time""
""fullscreenenter"",""5"",""15671""
","
","
","""event"",""trial"",""time""
""fullscreenenter"",""5"",""15671""
","
","63.90000009536743","","48","","","3000","1","252.30000007152557","48","images/earth.jpg","images/rocket2","images/rocket1","null","images/rocket2","","1","real","null","2","","",""
"d3-animate-choice","232","636093","0.0-76.0-1.32","247","659","17","Male","true","false","false","false","""event"",""trial"",""time""
""fullscreenenter"",""5"",""15671""
","
","
","""event"",""trial"",""time""
""fullscreenenter"",""5"",""15671""
","
","436.2999999523163","","48","","","3000","1","","","images/purpleplanet.jpg","images/alien4","images/alien3","images/rocket2","images/alien4","images/t.png","2","real","false","2","rare","1","2022-02-03 23:01:49.102"
"two-step-fixation","233","637099","0.0-76.0-2.32","247","659","17","Male","true","false","false","false","""event"",""trial"",""time""
""fullscreenenter"",""5"",""15671""
","
","
","""event"",""trial"",""time""
""fullscreenenter"",""5"",""15671""
","
","","images/earth.jpg","","","","","","","","","","","","","","fixation","","","","","",""
"d3-animate-choice","234","639300","0.0-76.0-0.33","247","659","17","Male","true","false","false","false","""event"",""trial"",""time""
""fullscreenenter"",""5"",""15671""
","
","
","""event"",""trial"",""time""
""fullscreenenter"",""5"",""15671""
","
","193.5","","48","","","3000","1","","","images/earth.jpg","images/rocket2","images/rocket1","null","images/rocket2","","1","real","null","2","","",""
"d3-animate-choice","235","641935","0.0-76.0-1.33","247","659","17","Male","true","false","false","false","""event"",""trial"",""time""
""fullscreenenter"",""5"",""15671""
","
","
","""event"",""trial"",""time""
""fullscreenenter"",""5"",""15671""
","
","626.2000000476837","","48","","","3000","1","","","images/purpleplanet.jpg","images/alien4","images/alien3","images/rocket2","images/alien4","images/t.png","2","real","false","2","rare","1","2022-02-03 23:01:54.943"
"two-step-fixation","236","642941","0.0-76.0-2.33","247","659","17","Male","true","false","false","false","""event"",""trial"",""time""
""fullscreenenter"",""5"",""15671""
","
","
","""event"",""trial"",""time""
""fullscreenenter"",""5"",""15671""
","
","","images/earth.jpg","","","","","","","","","","","","","","fixation","","","","","",""
"d3-animate-choice","237","645102","0.0-76.0-0.34","247","659","17","Male","true","false","false","false","""event"",""trial"",""time""
""fullscreenenter"",""5"",""15671""
","
","
","""event"",""trial"",""time""
""fullscreenenter"",""5"",""15671""
","
","155.19999992847443","","48","","","3000","1","366.39999997615814","48","images/earth.jpg","images/rocket2","images/rocket1","null","images/rocket2","","1","real","null","2","","",""
"d3-animate-choice","238","648274","0.0-76.0-1.34","247","659","17","Male","true","false","false","false","""event"",""trial"",""time""
""fullscreenenter"",""5"",""15671""
","
","
","""event"",""trial"",""time""
""fullscreenenter"",""5"",""15671""
","
","1165","","49","","","3000","1","","","images/redplanet1.jpg","images/alien2","images/alien1","images/rocket2","images/alien1","images/nothing.png","2","real","true","1","common","0","2022-02-03 23:02:01.282"
"two-step-fixation","239","649279","0.0-76.0-2.34","247","659","17","Male","true","false","false","false","""event"",""trial"",""time""
""fullscreenenter"",""5"",""15671""
","
","
","""event"",""trial"",""time""
""fullscreenenter"",""5"",""15671""
","
","","images/earth.jpg","","","","","","","","","","","","","","fixation","","","","","",""
"d3-animate-choice","240","651385","0.0-76.0-0.35","247","659","17","Male","true","false","false","false","""event"",""trial"",""time""
""fullscreenenter"",""5"",""15671""
","
","
","""event"",""trial"",""time""
""fullscreenenter"",""5"",""15671""
","
","98.10000002384186","","48","","","3000","1","","","images/earth.jpg","images/rocket2","images/rocket1","null","images/rocket2","","1","real","null","2","","",""
"d3-animate-choice","241","654084","0.0-76.0-1.35","247","659","17","Male","true","false","false","false","""event"",""trial"",""time""
""fullscreenenter"",""5"",""15671""
","
","
","""event"",""trial"",""time""
""fullscreenenter"",""5"",""15671""
","
","692.7999999523163","","48","","","3000","1","","","images/purpleplanet.jpg","images/alien4","images/alien3","images/rocket2","images/alien4","images/nothing.png","2","real","false","2","rare","0","2022-02-03 23:02:07.092"
"two-step-fixation","242","655090","0.0-76.0-2.35","247","659","17","Male","true","false","false","false","""event"",""trial"",""time""
""fullscreenenter"",""5"",""15671""
","
","
","""event"",""trial"",""time""
""fullscreenenter"",""5"",""15671""
","
","","images/earth.jpg","","","","","","","","","","","","","","fixation","","","","","",""
