"trial_type","trial_index","time_elapsed","internal_node_id","participant_id","subject_id","age","gender","rocket_sides","red_planet_first_rocket","red_display_order","purple_display_order","interactions","blur_events","focus_events","fullscreenenter_events","fullscreenexit_events","rt","stimulus","key_press","button_pressed","success","duration","valid_pressed","rts","keys","planet_text","right_text","left_text","center_text","chosen_text","reward_text","trial_stage","practice_trial","transition_type","reward","timestamp","choice","transition"
"pavlovia","0","5","0.0-0.0","1339","3566","10","Male","true","false","false","true","
","
","
","
","
","","","","","","","","","","","","","","","","","","","","","",""
"html-keyboard-response","1","2365","0.0-1.0","1339","3566","10","Male","true","false","false","true","
","
","
","
","
","2357.9000000953674","Welcome! Press the space bar to begin.","32","","","","","","","","","","","","","","","","","","",""
"audio-keyboard-response","2","4835","0.0-2.0","1339","3566","10","Male","true","false","false","true","
","
","
","
","
","2251","audio/beep_loop.wav","32","","","","","","","","","","","","","","","","","","",""
"audio-button-response","3","9300","0.0-3.0","1339","3566","10","Male","true","false","false","true","
","
","
","
","
","NaN","audio/fish.mp3","","1","","","","","","","","","","","","","","","","","",""
"audio-button-response","4","11947","0.0-4.0","1339","3566","10","Male","true","false","false","true","""event"",""trial"",""time""
""fullscreenenter"",""5"",""18471""
","
","
","""event"",""trial"",""time""
""fullscreenenter"",""5"",""18471""
","
","NaN","audio/tiger.mp3","","4","","","","","","","","","","","","","","","","","",""
"fullscreen","5","19455","0.0-5.0","1339","3566","10","Male","true","false","false","true","""event"",""trial"",""time""
""fullscreenenter"",""5"",""18471""
","
","
","""event"",""trial"",""time""
""fullscreenenter"",""5"",""18471""
","
","","","","","true","","","","","","","","","","","","","","","","",""
"d3-instructions","6","34094","0.0-6.0","1339","3566","10","Male","true","false","false","true","""event"",""trial"",""time""
""fullscreenenter"",""5"",""18471""
","
","
","""event"",""trial"",""time""
""fullscreenenter"",""5"",""18471""
","
","","","","","","","","","","","","","","","","","","","","","",""
"d3-instructions","7","42853","0.0-7.0","1339","3566","10","Male","true","false","false","true","""event"",""trial"",""time""
""fullscreenenter"",""5"",""18471""
","
","
","""event"",""trial"",""time""
""fullscreenenter"",""5"",""18471""
","
","","","","","","","","","","","","","","","","","","","","","",""
"d3-instructions","8","59005","0.0-8.0","1339","3566","10","Male","true","false","false","true","""event"",""trial"",""time""
""fullscreenenter"",""5"",""18471""
","
","
","""event"",""trial"",""time""
""fullscreenenter"",""5"",""18471""
","
","","","","","","","","","","","","","","","","","","","","","",""
"d3-instructions","9","64482","0.0-9.0","1339","3566","10","Male","true","false","false","true","""event"",""trial"",""time""
""fullscreenenter"",""5"",""18471""
","
","
","""event"",""trial"",""time""
""fullscreenenter"",""5"",""18471""
","
","","","","","","","","","","","","","","","","","","","","","",""
"d3-instructions","10","73332","0.0-10.0","1339","3566","10","Male","true","false","false","true","""event"",""trial"",""time""
""fullscreenenter"",""5"",""18471""
","
","
","""event"",""trial"",""time""
""fullscreenenter"",""5"",""18471""
","
","","","","","","","","","","","","","","","","","","","","","",""
"d3-animate-choice","11","78146","0.0-11.0","1339","3566","10","Male","true","false","false","true","""event"",""trial"",""time""
""fullscreenenter"",""5"",""18471""
","
","
","""event"",""trial"",""time""
""fullscreenenter"",""5"",""18471""
","
","2808","","49","","","3000","1","4768.900000095367","48","images/tutgreenplanet.jpg","images/tutalien1","images/tutalien2","null","images/tutalien2","","NA","practice","null","","","",""
"d3-animate-choice","12","83072","0.0-12.0","1339","3566","10","Male","true","false","false","true","""event"",""trial"",""time""
""fullscreenenter"",""5"",""18471""
","
","
","""event"",""trial"",""time""
""fullscreenenter"",""5"",""18471""
","
","2915.0999999046326","","48","","","3000","1","","","images/tutgreenplanet.jpg","images/tutalien1","images/tutalien2","null","images/tutalien1","","NA","practice","null","","","",""
"d3-animate-choice","13","85622","0.0-13.0","1339","3566","10","Male","true","false","false","true","""event"",""trial"",""time""
""fullscreenenter"",""5"",""18471""
","
","
","""event"",""trial"",""time""
""fullscreenenter"",""5"",""18471""
","
","538.7999999523163","","49","","","3000","1","1978.2999999523163,2118.5,2298.699999809265,2398.699999809265,2528.699999809265","48,49,48,49,48","images/tutgreenplanet.jpg","images/tutalien1","images/tutalien2","null","images/tutalien2","","NA","practice","null","","","",""
"d3-animate-choice","14","88025","0.0-14.0","1339","3566","10","Male","true","false","false","true","""event"",""trial"",""time""
""fullscreenenter"",""5"",""18471""
","
","
","""event"",""trial"",""time""
""fullscreenenter"",""5"",""18471""
","
","399.09999990463257","","48","","","3000","1","648.7999999523163,778.5999999046326,908.7000000476837,1088.9000000953674,1148.9000000953674,1949","48,49,48,49,48,32","images/tutgreenplanet.jpg","images/tutalien1","images/tutalien2","null","images/tutalien1","","NA","practice","null","","","",""
"d3-instructions","15","94192","0.0-15.0","1339","3566","10","Male","true","false","false","true","""event"",""trial"",""time""
""fullscreenenter"",""5"",""18471""
","
","
","""event"",""trial"",""time""
""fullscreenenter"",""5"",""18471""
","
","","","","","","","","","","","","","","","","","","","","","",""
"d3-instructions","16","100141","0.0-16.0","1339","3566","10","Male","true","false","false","true","""event"",""trial"",""time""
""fullscreenenter"",""5"",""18471""
","
","
","""event"",""trial"",""time""
""fullscreenenter"",""5"",""18471""
","
","","","","","","","","","","","","","","","","","","","","","",""
"d3-instructions","17","104442","0.0-17.0","1339","3566","10","Male","true","false","false","true","""event"",""trial"",""time""
""fullscreenenter"",""5"",""18471""
","
","
","""event"",""trial"",""time""
""fullscreenenter"",""5"",""18471""
","
","","","","","","","","","","","","","","","","","","","","","",""
"d3-instructions","18","105342","0.0-18.0","1339","3566","10","Male","true","false","false","true","""event"",""trial"",""time""
""fullscreenenter"",""5"",""18471""
","
","
","""event"",""trial"",""time""
""fullscreenenter"",""5"",""18471""
","
","","","","","","","","","","","","","","","","","","","","","",""
"d3-instructions","19","113872","0.0-19.0","1339","3566","10","Male","true","false","false","true","""event"",""trial"",""time""
""fullscreenenter"",""5"",""18471""
","
","
","""event"",""trial"",""time""
""fullscreenenter"",""5"",""18471""
","
","","","","","","","","","","","","","","","","","","","","","",""
"d3-animate-choice","20","118082","0.0-20.0","1339","3566","10","Male","true","false","false","true","""event"",""trial"",""time""
""fullscreenenter"",""5"",""18471""
","
","
","""event"",""trial"",""time""
""fullscreenenter"",""5"",""18471""
","
","2198.0999999046326","","49","","","3000","1","","","images/tutyellowplanet.jpg","null","images/tutalien3","null","images/tutalien3","images/t.png","NA","practice","null","","","",""
"d3-animate-choice","21","120662","0.0-21.0","1339","3566","10","Male","true","false","false","true","""event"",""trial"",""time""
""fullscreenenter"",""5"",""18471""
","
","
","""event"",""trial"",""time""
""fullscreenenter"",""5"",""18471""
","
","568","","49","","","3000","1","","","images/tutyellowplanet.jpg","null","images/tutalien3","null","images/tutalien3","images/t.png","NA","practice","null","","","",""
"d3-animate-choice","22","123032","0.0-22.0","1339","3566","10","Male","true","false","false","true","""event"",""trial"",""time""
""fullscreenenter"",""5"",""18471""
","
","
","""event"",""trial"",""time""
""fullscreenenter"",""5"",""18471""
","
","368.2000000476837","","49","","","3000","1","","","images/tutyellowplanet.jpg","null","images/tutalien3","null","images/tutalien3","images/t.png","NA","practice","null","","","",""
"d3-animate-choice","23","125573","0.0-23.0","1339","3566","10","Male","true","false","false","true","""event"",""trial"",""time""
""fullscreenenter"",""5"",""18471""
","
","
","""event"",""trial"",""time""
""fullscreenenter"",""5"",""18471""
","
","528.0999999046326","","49","","","3000","1","2498.7000000476837","49","images/tutyellowplanet.jpg","null","images/tutalien3","null","images/tutalien3","images/t.png","NA","practice","null","","","",""
"d3-animate-choice","24","127964","0.0-24.0","1339","3566","10","Male","true","false","false","true","""event"",""trial"",""time""
""fullscreenenter"",""5"",""18471""
","
","
","""event"",""trial"",""time""
""fullscreenenter"",""5"",""18471""
","
","387.09999990463257","","49","","","3000","1","2257.2999999523163","49","images/tutyellowplanet.jpg","null","images/tutalien3","null","images/tutalien3","images/t.png","NA","practice","null","","","",""
"d3-animate-choice","25","130293","0.0-25.0","1339","3566","10","Male","true","false","false","true","""event"",""trial"",""time""
""fullscreenenter"",""5"",""18471""
","
","
","""event"",""trial"",""time""
""fullscreenenter"",""5"",""18471""
","
","327","","49","","","3000","1","1616.4000000953674,2246.9000000953674","32,49","images/tutyellowplanet.jpg","null","images/tutalien3","null","images/tutalien3","images/t.png","NA","practice","null","","","",""
"d3-animate-choice","26","132602","0.0-26.0","1339","3566","10","Male","true","false","false","true","""event"",""trial"",""time""
""fullscreenenter"",""5"",""18471""
","
","
","""event"",""trial"",""time""
""fullscreenenter"",""5"",""18471""
","
","307.2999999523163","","49","","","3000","1","","","images/tutyellowplanet.jpg","null","images/tutalien3","null","images/tutalien3","images/t.png","NA","practice","null","","","",""
"d3-animate-choice","27","136763","0.0-27.0","1339","3566","10","Male","true","false","false","true","""event"",""trial"",""time""
""fullscreenenter"",""5"",""18471""
","
","
","""event"",""trial"",""time""
""fullscreenenter"",""5"",""18471""
","
","2156.0999999046326","","49","","","3000","1","3906","49","images/tutyellowplanet.jpg","null","images/tutalien3","null","images/tutalien3","images/t.png","NA","practice","null","","","",""
"d3-animate-choice","28","139673","0.0-28.0","1339","3566","10","Male","true","false","false","true","""event"",""trial"",""time""
""fullscreenenter"",""5"",""18471""
","
","
","""event"",""trial"",""time""
""fullscreenenter"",""5"",""18471""
","
","906.0999999046326","","49","","","3000","1","1995.7000000476837","49","images/tutyellowplanet.jpg","null","images/tutalien3","null","images/tutalien3","images/t.png","NA","practice","null","","","",""
"d3-animate-choice","29","142132","0.0-29.0","1339","3566","10","Male","true","false","false","true","""event"",""trial"",""time""
""fullscreenenter"",""5"",""18471""
","
","
","""event"",""trial"",""time""
""fullscreenenter"",""5"",""18471""
","
","455.80000019073486","","49","","","3000","1","","","images/tutyellowplanet.jpg","null","images/tutalien3","null","images/tutalien3","images/t.png","NA","practice","null","","","",""
"d3-instructions","30","152171","0.0-30.0","1339","3566","10","Male","true","false","false","true","""event"",""trial"",""time""
""fullscreenenter"",""5"",""18471""
","
","
","""event"",""trial"",""time""
""fullscreenenter"",""5"",""18471""
","
","","","","","","","","","","","","","","","","","","","","","",""
"d3-instructions","31","154352","0.0-31.0","1339","3566","10","Male","true","false","false","true","""event"",""trial"",""time""
""fullscreenenter"",""5"",""18471""
","
","
","""event"",""trial"",""time""
""fullscreenenter"",""5"",""18471""
","
","","","","","","","","","","","","","","","","","","","","","",""
"d3-instructions","32","156841","0.0-32.0","1339","3566","10","Male","true","false","false","true","""event"",""trial"",""time""
""fullscreenenter"",""5"",""18471""
","
","
","""event"",""trial"",""time""
""fullscreenenter"",""5"",""18471""
","
","","","","","","","","","","","","","","","","","","","","","",""
"d3-instructions","33","158331","0.0-33.0","1339","3566","10","Male","true","false","false","true","""event"",""trial"",""time""
""fullscreenenter"",""5"",""18471""
","
","
","""event"",""trial"",""time""
""fullscreenenter"",""5"",""18471""
","
","","","","","","","","","","","","","","","","","","","","","",""
"d3-animate-choice","34","161573","0.0-34.0","1339","3566","10","Male","true","false","false","true","""event"",""trial"",""time""
""fullscreenenter"",""5"",""18471""
","
","
","""event"",""trial"",""time""
""fullscreenenter"",""5"",""18471""
","
","1222.2999999523163","","49","","","3000","1","","","images/tutgreenplanet.jpg","images/tutalien1","images/tutalien2","null","images/tutalien2","images/t.png","NA","practice","null","","","",""
"d3-animate-choice","35","164604","0.0-35.0","1339","3566","10","Male","true","false","false","true","""event"",""trial"",""time""
""fullscreenenter"",""5"",""18471""
","
","
","""event"",""trial"",""time""
""fullscreenenter"",""5"",""18471""
","
","1027.5","","49","","","3000","1","","","images/tutgreenplanet.jpg","images/tutalien1","images/tutalien2","null","images/tutalien2","images/t.png","NA","practice","null","","","",""
"d3-animate-choice","36","167013","0.0-36.0","1339","3566","10","Male","true","false","false","true","""event"",""trial"",""time""
""fullscreenenter"",""5"",""18471""
","
","
","""event"",""trial"",""time""
""fullscreenenter"",""5"",""18471""
","
","385.2000000476837","","49","","","3000","1","","","images/tutgreenplanet.jpg","images/tutalien1","images/tutalien2","null","images/tutalien2","images/t.png","NA","practice","null","","","",""
"d3-animate-choice","37","169363","0.0-37.0","1339","3566","10","Male","true","false","false","true","""event"",""trial"",""time""
""fullscreenenter"",""5"",""18471""
","
","
","""event"",""trial"",""time""
""fullscreenenter"",""5"",""18471""
","
","336.40000009536743","","48","","","3000","1","","","images/tutgreenplanet.jpg","images/tutalien1","images/tutalien2","null","images/tutalien1","images/nothing.png","NA","practice","null","","","",""
"d3-animate-choice","38","171682","0.0-38.0","1339","3566","10","Male","true","false","false","true","""event"",""trial"",""time""
""fullscreenenter"",""5"",""18471""
","
","
","""event"",""trial"",""time""
""fullscreenenter"",""5"",""18471""
","
","315.90000009536743","","49","","","3000","1","1806","49","images/tutgreenplanet.jpg","images/tutalien1","images/tutalien2","null","images/tutalien2","images/t.png","NA","practice","null","","","",""
"d3-animate-choice","39","174123","0.0-39.0","1339","3566","10","Male","true","false","false","true","""event"",""trial"",""time""
""fullscreenenter"",""5"",""18471""
","
","
","""event"",""trial"",""time""
""fullscreenenter"",""5"",""18471""
","
","437.39999985694885","","49","","","3000","1","","","images/tutgreenplanet.jpg","images/tutalien1","images/tutalien2","null","images/tutalien2","images/t.png","NA","practice","null","","","",""
"d3-animate-choice","40","177031","0.0-40.0","1339","3566","10","Male","true","false","false","true","""event"",""trial"",""time""
""fullscreenenter"",""5"",""18471""
","
","
","""event"",""trial"",""time""
""fullscreenenter"",""5"",""18471""
","
","905","","49","","","3000","1","","","images/tutgreenplanet.jpg","images/tutalien1","images/tutalien2","null","images/tutalien2","images/t.png","NA","practice","null","","","",""
"d3-animate-choice","41","179691","0.0-41.0","1339","3566","10","Male","true","false","false","true","""event"",""trial"",""time""
""fullscreenenter"",""5"",""18471""
","
","
","""event"",""trial"",""time""
""fullscreenenter"",""5"",""18471""
","
","657.2999999523163","","49","","","3000","1","","","images/tutgreenplanet.jpg","images/tutalien1","images/tutalien2","null","images/tutalien2","images/t.png","NA","practice","null","","","",""
"d3-animate-choice","42","182003","0.0-42.0","1339","3566","10","Male","true","false","false","true","""event"",""trial"",""time""
""fullscreenenter"",""5"",""18471""
","
","
","""event"",""trial"",""time""
""fullscreenenter"",""5"",""18471""
","
","307.19999980926514","","49","","","3000","1","","","images/tutgreenplanet.jpg","images/tutalien1","images/tutalien2","null","images/tutalien2","images/t.png","NA","practice","null","","","",""
"d3-animate-choice","43","184363","0.0-43.0","1339","3566","10","Male","true","false","false","true","""event"",""trial"",""time""
""fullscreenenter"",""5"",""18471""
","
","
","""event"",""trial"",""time""
""fullscreenenter"",""5"",""18471""
","
","356","","49","","","3000","1","","","images/tutgreenplanet.jpg","images/tutalien1","images/tutalien2","null","images/tutalien2","images/t.png","NA","practice","null","","","",""
"d3-instructions","44","187770","0.0-44.0","1339","3566","10","Male","true","false","false","true","""event"",""trial"",""time""
""fullscreenenter"",""5"",""18471""
","
","
","""event"",""trial"",""time""
""fullscreenenter"",""5"",""18471""
","
","","","","","","","","","","","","","","","","","","","","","",""
"d3-instructions","45","188690","0.0-45.0","1339","3566","10","Male","true","false","false","true","""event"",""trial"",""time""
""fullscreenenter"",""5"",""18471""
","
","
","""event"",""trial"",""time""
""fullscreenenter"",""5"",""18471""
","
","","","","","","","","","","","","","","","","","","","","","",""
"d3-instructions","46","189490","0.0-46.0","1339","3566","10","Male","true","false","false","true","""event"",""trial"",""time""
""fullscreenenter"",""5"",""18471""
","
","
","""event"",""trial"",""time""
""fullscreenenter"",""5"",""18471""
","
","","","","","","","","","","","","","","","","","","","","","",""
"d3-instructions","47","190190","0.0-47.0","1339","3566","10","Male","true","false","false","true","""event"",""trial"",""time""
""fullscreenenter"",""5"",""18471""
","
","
","""event"",""trial"",""time""
""fullscreenenter"",""5"",""18471""
","
","","","","","","","","","","","","","","","","","","","","","",""
"d3-instructions","48","191790","0.0-48.0","1339","3566","10","Male","true","false","false","true","""event"",""trial"",""time""
""fullscreenenter"",""5"",""18471""
","
","
","""event"",""trial"",""time""
""fullscreenenter"",""5"",""18471""
","
","","","","","","","","","","","","","","","","","","","","","",""
"d3-instructions","49","192611","0.0-49.0","1339","3566","10","Male","true","false","false","true","""event"",""trial"",""time""
""fullscreenenter"",""5"",""18471""
","
","
","""event"",""trial"",""time""
""fullscreenenter"",""5"",""18471""
","
","","","","","","","","","","","","","","","","","","","","","",""
"d3-instructions","50","193581","0.0-50.0","1339","3566","10","Male","true","false","false","true","""event"",""trial"",""time""
""fullscreenenter"",""5"",""18471""
","
","
","""event"",""trial"",""time""
""fullscreenenter"",""5"",""18471""
","
","","","","","","","","","","","","","","","","","","","","","",""
"d3-instructions","51","196061","0.0-51.0","1339","3566","10","Male","true","false","false","true","""event"",""trial"",""time""
""fullscreenenter"",""5"",""18471""
","
","
","""event"",""trial"",""time""
""fullscreenenter"",""5"",""18471""
","
","","","","","","","","","","","","","","","","","","","","","",""
"d3-instructions","52","198710","0.0-52.0","1339","3566","10","Male","true","false","false","true","""event"",""trial"",""time""
""fullscreenenter"",""5"",""18471""
","
","
","""event"",""trial"",""time""
""fullscreenenter"",""5"",""18471""
","
","","","","","","","","","","","","","","","","","","","","","",""
"d3-instructions","53","211600","0.0-53.0","1339","3566","10","Male","true","false","false","true","""event"",""trial"",""time""
""fullscreenenter"",""5"",""18471""
","
","
","""event"",""trial"",""time""
""fullscreenenter"",""5"",""18471""
","
","","","","","","","","","","","","","","","","","","","","","",""
"d3-instructions","54","212490","0.0-54.0","1339","3566","10","Male","true","false","false","true","""event"",""trial"",""time""
""fullscreenenter"",""5"",""18471""
","
","
","""event"",""trial"",""time""
""fullscreenenter"",""5"",""18471""
","
","","","","","","","","","","","","","","","","","","","","","",""
"d3-instructions","55","213181","0.0-55.0","1339","3566","10","Male","true","false","false","true","""event"",""trial"",""time""
""fullscreenenter"",""5"",""18471""
","
","
","""event"",""trial"",""time""
""fullscreenenter"",""5"",""18471""
","
","","","","","","","","","","","","","","","","","","","","","",""
"d3-instructions","56","214441","0.0-56.0","1339","3566","10","Male","true","false","false","true","""event"",""trial"",""time""
""fullscreenenter"",""5"",""18471""
","
","
","""event"",""trial"",""time""
""fullscreenenter"",""5"",""18471""
","
","","","","","","","","","","","","","","","","","","","","","",""
"d3-instructions","57","214921","0.0-57.0","1339","3566","10","Male","true","false","false","true","""event"",""trial"",""time""
""fullscreenenter"",""5"",""18471""
","
","
","""event"",""trial"",""time""
""fullscreenenter"",""5"",""18471""
","
","","","","","","","","","","","","","","","","","","","","","",""
"d3-instructions","58","216250","0.0-58.0","1339","3566","10","Male","true","false","false","true","""event"",""trial"",""time""
""fullscreenenter"",""5"",""18471""
","
","
","""event"",""trial"",""time""
""fullscreenenter"",""5"",""18471""
","
","","","","","","","","","","","","","","","","","","","","","",""
"d3-instructions","59","217020","0.0-59.0","1339","3566","10","Male","true","false","false","true","""event"",""trial"",""time""
""fullscreenenter"",""5"",""18471""
","
","
","""event"",""trial"",""time""
""fullscreenenter"",""5"",""18471""
","
","","","","","","","","","","","","","","","","","","","","","",""
"d3-instructions","60","217589","0.0-60.0","1339","3566","10","Male","true","false","false","true","""event"",""trial"",""time""
""fullscreenenter"",""5"",""18471""
","
","
","""event"",""trial"",""time""
""fullscreenenter"",""5"",""18471""
","
","","","","","","","","","","","","","","","","","","","","","",""
"d3-animate-choice","61","221596","0.0-61.0-0.0","1339","3566","10","Male","true","false","false","true","""event"",""trial"",""time""
""fullscreenenter"",""5"",""18471""
","
","
","""event"",""trial"",""time""
""fullscreenenter"",""5"",""18471""
","
","null","","null","","","3000","0","","","images/earth.jpg","images/tutrocket2","images/tutrocket1","null","","","1","practice","null","","","",""
"d3-animate-choice","62","222599","0.0-61.0-1.0","1339","3566","10","Male","true","false","false","true","""event"",""trial"",""time""
""fullscreenenter"",""5"",""18471""
","
","
","""event"",""trial"",""time""
""fullscreenenter"",""5"",""18471""
","
","null","","null","","","0","0","","","images/earth.jpg","images/tutrocket2","images/tutrocket1","null","","","2","practice","null","0","2022-11-03 02:04:36.013","",""
"two-step-fixation","63","223602","0.0-61.0-2.0","1339","3566","10","Male","true","false","false","true","""event"",""trial"",""time""
""fullscreenenter"",""5"",""18471""
","
","
","""event"",""trial"",""time""
""fullscreenenter"",""5"",""18471""
","
","","images/earth.jpg","","","","","","","","","","","","","","fixation","","","","","",""
"d3-animate-choice","64","227513","0.0-61.0-0.1","1339","3566","10","Male","true","false","false","true","""event"",""trial"",""time""
""fullscreenenter"",""5"",""18471""
","
","
","""event"",""trial"",""time""
""fullscreenenter"",""5"",""18471""
","
","1905.0999999046326","","49","","","3000","1","","","images/earth.jpg","images/tutrocket2","images/tutrocket1","null","images/tutrocket1","","1","practice","null","","","1",""
"d3-animate-choice","65","230583","0.0-61.0-1.1","1339","3566","10","Male","true","false","false","true","""event"",""trial"",""time""
""fullscreenenter"",""5"",""18471""
","
","
","""event"",""trial"",""time""
""fullscreenenter"",""5"",""18471""
","
","1064.7000000476837","","49","","","3000","1","","","images/tutyellowplanet.jpg","images/tutalien4","images/tutalien3","images/tutrocket1","images/tutalien3","images/nothing.png","2","practice","true","0","2022-11-03 02:04:43.997","1","common"
"two-step-fixation","66","231593","0.0-61.0-2.1","1339","3566","10","Male","true","false","false","true","""event"",""trial"",""time""
""fullscreenenter"",""5"",""18471""
","
","
","""event"",""trial"",""time""
""fullscreenenter"",""5"",""18471""
","
","","images/earth.jpg","","","","","","","","","","","","","","fixation","","","","","",""
"d3-animate-choice","67","234364","0.0-61.0-0.2","1339","3566","10","Male","true","false","false","true","""event"",""trial"",""time""
""fullscreenenter"",""5"",""18471""
","
","
","""event"",""trial"",""time""
""fullscreenenter"",""5"",""18471""
","
","752.6000001430511","","48","","","3000","1","","","images/earth.jpg","images/tutrocket2","images/tutrocket1","null","images/tutrocket2","","1","practice","null","","","2",""
"d3-animate-choice","68","237093","0.0-61.0-1.2","1339","3566","10","Male","true","false","false","true","""event"",""trial"",""time""
""fullscreenenter"",""5"",""18471""
","
","
","""event"",""trial"",""time""
""fullscreenenter"",""5"",""18471""
","
","724.0999999046326","","49","","","3000","1","","","images/tutgreenplanet.jpg","images/tutalien2","images/tutalien1","images/tutrocket2","images/tutalien1","images/nothing.png","2","practice","true","0","2022-11-03 02:04:50.507","1","common"
"two-step-fixation","69","238095","0.0-61.0-2.2","1339","3566","10","Male","true","false","false","true","""event"",""trial"",""time""
""fullscreenenter"",""5"",""18471""
","
","
","""event"",""trial"",""time""
""fullscreenenter"",""5"",""18471""
","
","","images/earth.jpg","","","","","","","","","","","","","","fixation","","","","","",""
"d3-animate-choice","70","240443","0.0-61.0-0.3","1339","3566","10","Male","true","false","false","true","""event"",""trial"",""time""
""fullscreenenter"",""5"",""18471""
","
","
","""event"",""trial"",""time""
""fullscreenenter"",""5"",""18471""
","
","332.10000014305115","","49","","","3000","1","","","images/earth.jpg","images/tutrocket2","images/tutrocket1","null","images/tutrocket1","","1","practice","null","","","1",""
"d3-animate-choice","71","242972","0.0-61.0-1.3","1339","3566","10","Male","true","false","false","true","""event"",""trial"",""time""
""fullscreenenter"",""5"",""18471""
","
","
","""event"",""trial"",""time""
""fullscreenenter"",""5"",""18471""
","
","513.2999999523163","","48","","","3000","1","","","images/tutyellowplanet.jpg","images/tutalien4","images/tutalien3","images/tutrocket1","images/tutalien4","images/t.png","2","practice","true","1","2022-11-03 02:04:56.386","2","common"
"two-step-fixation","72","243984","0.0-61.0-2.3","1339","3566","10","Male","true","false","false","true","""event"",""trial"",""time""
""fullscreenenter"",""5"",""18471""
","
","
","""event"",""trial"",""time""
""fullscreenenter"",""5"",""18471""
","
","","images/earth.jpg","","","","","","","","","","","","","","fixation","","","","","",""
"d3-animate-choice","73","246102","0.0-61.0-0.4","1339","3566","10","Male","true","false","false","true","""event"",""trial"",""time""
""fullscreenenter"",""5"",""18471""
","
","
","""event"",""trial"",""time""
""fullscreenenter"",""5"",""18471""
","
","113.69999980926514","","48","","","3000","1","","","images/earth.jpg","images/tutrocket2","images/tutrocket1","null","images/tutrocket2","","1","practice","null","","","2",""
"d3-animate-choice","74","248382","0.0-61.0-1.4","1339","3566","10","Male","true","false","false","true","""event"",""trial"",""time""
""fullscreenenter"",""5"",""18471""
","
","
","""event"",""trial"",""time""
""fullscreenenter"",""5"",""18471""
","
","276.89999985694885","","48","","","3000","1","","","images/tutyellowplanet.jpg","images/tutalien4","images/tutalien3","images/tutrocket2","images/tutalien4","images/t.png","2","practice","false","1","2022-11-03 02:05:01.796","2","rare"
"two-step-fixation","75","249385","0.0-61.0-2.4","1339","3566","10","Male","true","false","false","true","""event"",""trial"",""time""
""fullscreenenter"",""5"",""18471""
","
","
","""event"",""trial"",""time""
""fullscreenenter"",""5"",""18471""
","
","","images/earth.jpg","","","","","","","","","","","","","","fixation","","","","","",""
"d3-animate-choice","76","251802","0.0-61.0-0.5","1339","3566","10","Male","true","false","false","true","""event"",""trial"",""time""
""fullscreenenter"",""5"",""18471""
","
","
","""event"",""trial"",""time""
""fullscreenenter"",""5"",""18471""
","
","412.5","","49","","","3000","1","","","images/earth.jpg","images/tutrocket2","images/tutrocket1","null","images/tutrocket1","","1","practice","null","","","1",""
"d3-animate-choice","77","254431","0.0-61.0-1.5","1339","3566","10","Male","true","false","false","true","""event"",""trial"",""time""
""fullscreenenter"",""5"",""18471""
","
","
","""event"",""trial"",""time""
""fullscreenenter"",""5"",""18471""
","
","625.5999999046326","","48","","","3000","1","","","images/tutgreenplanet.jpg","images/tutalien2","images/tutalien1","images/tutrocket1","images/tutalien2","images/t.png","2","practice","false","1","2022-11-03 02:05:07.845","2","rare"
"two-step-fixation","78","255435","0.0-61.0-2.5","1339","3566","10","Male","true","false","false","true","""event"",""trial"",""time""
""fullscreenenter"",""5"",""18471""
","
","
","""event"",""trial"",""time""
""fullscreenenter"",""5"",""18471""
","
","","images/earth.jpg","","","","","","","","","","","","","","fixation","","","","","",""
"d3-animate-choice","79","257540","0.0-61.0-0.6","1339","3566","10","Male","true","false","false","true","""event"",""trial"",""time""
""fullscreenenter"",""5"",""18471""
","
","
","""event"",""trial"",""time""
""fullscreenenter"",""5"",""18471""
","
","101.90000009536743","","48","","","3000","1","","","images/earth.jpg","images/tutrocket2","images/tutrocket1","null","images/tutrocket2","","1","practice","null","","","2",""
"d3-animate-choice","80","259710","0.0-61.0-1.6","1339","3566","10","Male","true","false","false","true","""event"",""trial"",""time""
""fullscreenenter"",""5"",""18471""
","
","
","""event"",""trial"",""time""
""fullscreenenter"",""5"",""18471""
","
","166.39999985694885","","48","","","3000","1","","","images/tutyellowplanet.jpg","images/tutalien4","images/tutalien3","images/tutrocket2","images/tutalien4","images/nothing.png","2","practice","false","0","2022-11-03 02:05:13.124","2","rare"
"two-step-fixation","81","260713","0.0-61.0-2.6","1339","3566","10","Male","true","false","false","true","""event"",""trial"",""time""
""fullscreenenter"",""5"",""18471""
","
","
","""event"",""trial"",""time""
""fullscreenenter"",""5"",""18471""
","
","","images/earth.jpg","","","","","","","","","","","","","","fixation","","","","","",""
"d3-animate-choice","82","263069","0.0-61.0-0.7","1339","3566","10","Male","true","false","false","true","""event"",""trial"",""time""
""fullscreenenter"",""5"",""18471""
","
","
","""event"",""trial"",""time""
""fullscreenenter"",""5"",""18471""
","
","352.40000009536743","","49","","","3000","1","","","images/earth.jpg","images/tutrocket2","images/tutrocket1","null","images/tutrocket1","","1","practice","null","","","1",""
"d3-animate-choice","83","265520","0.0-61.0-1.7","1339","3566","10","Male","true","false","false","true","""event"",""trial"",""time""
""fullscreenenter"",""5"",""18471""
","
","
","""event"",""trial"",""time""
""fullscreenenter"",""5"",""18471""
","
","447.09999990463257","","48","","","3000","1","","","images/tutyellowplanet.jpg","images/tutalien4","images/tutalien3","images/tutrocket1","images/tutalien4","images/t.png","2","practice","true","1","2022-11-03 02:05:18.934","2","common"
"two-step-fixation","84","266524","0.0-61.0-2.7","1339","3566","10","Male","true","false","false","true","""event"",""trial"",""time""
""fullscreenenter"",""5"",""18471""
","
","
","""event"",""trial"",""time""
""fullscreenenter"",""5"",""18471""
","
","","images/earth.jpg","","","","","","","","","","","","","","fixation","","","","","",""
"d3-animate-choice","85","268870","0.0-61.0-0.8","1339","3566","10","Male","true","false","false","true","""event"",""trial"",""time""
""fullscreenenter"",""5"",""18471""
","
","
","""event"",""trial"",""time""
""fullscreenenter"",""5"",""18471""
","
","341.7999999523163","","48","","","3000","1","","","images/earth.jpg","images/tutrocket2","images/tutrocket1","null","images/tutrocket2","","1","practice","null","","","2",""
"d3-animate-choice","86","272041","0.0-61.0-1.8","1339","3566","10","Male","true","false","false","true","""event"",""trial"",""time""
""fullscreenenter"",""5"",""18471""
","
","
","""event"",""trial"",""time""
""fullscreenenter"",""5"",""18471""
","
","1166.0999999046326","","49","","","3000","1","","","images/tutgreenplanet.jpg","images/tutalien2","images/tutalien1","images/tutrocket2","images/tutalien1","images/nothing.png","2","practice","true","0","2022-11-03 02:05:25.455","1","common"
"two-step-fixation","87","273045","0.0-61.0-2.8","1339","3566","10","Male","true","false","false","true","""event"",""trial"",""time""
""fullscreenenter"",""5"",""18471""
","
","
","""event"",""trial"",""time""
""fullscreenenter"",""5"",""18471""
","
","","images/earth.jpg","","","","","","","","","","","","","","fixation","","","","","",""
"d3-animate-choice","88","276430","0.0-61.0-0.9","1339","3566","10","Male","true","false","false","true","""event"",""trial"",""time""
""fullscreenenter"",""5"",""18471""
","
","
","""event"",""trial"",""time""
""fullscreenenter"",""5"",""18471""
","
","1380.7999999523163","","49","","","3000","1","","","images/earth.jpg","images/tutrocket2","images/tutrocket1","null","images/tutrocket1","","1","practice","null","","","1",""
"d3-animate-choice","89","278839","0.0-61.0-1.9","1339","3566","10","Male","true","false","false","true","""event"",""trial"",""time""
""fullscreenenter"",""5"",""18471""
","
","
","""event"",""trial"",""time""
""fullscreenenter"",""5"",""18471""
","
","405.09999990463257","","48","","","3000","1","","","images/tutyellowplanet.jpg","images/tutalien4","images/tutalien3","images/tutrocket1","images/tutalien4","images/t.png","2","practice","true","1","2022-11-03 02:05:32.253","2","common"
"two-step-fixation","90","279842","0.0-61.0-2.9","1339","3566","10","Male","true","false","false","true","""event"",""trial"",""time""
""fullscreenenter"",""5"",""18471""
","
","
","""event"",""trial"",""time""
""fullscreenenter"",""5"",""18471""
","
","","images/earth.jpg","","","","","","","","","","","","","","fixation","","","","","",""
"d3-animate-choice","91","282261","0.0-61.0-0.10","1339","3566","10","Male","true","false","false","true","""event"",""trial"",""time""
""fullscreenenter"",""5"",""18471""
","
","
","""event"",""trial"",""time""
""fullscreenenter"",""5"",""18471""
","
","414.09999990463257","","48","","","3000","1","","","images/earth.jpg","images/tutrocket2","images/tutrocket1","null","images/tutrocket2","","1","practice","null","","","2",""
"d3-animate-choice","92","284840","0.0-61.0-1.10","1339","3566","10","Male","true","false","false","true","""event"",""trial"",""time""
""fullscreenenter"",""5"",""18471""
","
","
","""event"",""trial"",""time""
""fullscreenenter"",""5"",""18471""
","
","574.7000000476837","","48","","","3000","1","","","images/tutyellowplanet.jpg","images/tutalien4","images/tutalien3","images/tutrocket2","images/tutalien4","images/t.png","2","practice","false","1","2022-11-03 02:05:38.254","2","rare"
"two-step-fixation","93","285845","0.0-61.0-2.10","1339","3566","10","Male","true","false","false","true","""event"",""trial"",""time""
""fullscreenenter"",""5"",""18471""
","
","
","""event"",""trial"",""time""
""fullscreenenter"",""5"",""18471""
","
","","images/earth.jpg","","","","","","","","","","","","","","fixation","","","","","",""
"d3-animate-choice","94","288481","0.0-61.0-0.11","1339","3566","10","Male","true","false","false","true","""event"",""trial"",""time""
""fullscreenenter"",""5"",""18471""
","
","
","""event"",""trial"",""time""
""fullscreenenter"",""5"",""18471""
","
","630.3999998569489","","49","","","3000","1","","","images/earth.jpg","images/tutrocket2","images/tutrocket1","null","images/tutrocket1","","1","practice","null","","","1",""
"d3-animate-choice","95","291079","0.0-61.0-1.11","1339","3566","10","Male","true","false","false","true","""event"",""trial"",""time""
""fullscreenenter"",""5"",""18471""
","
","
","""event"",""trial"",""time""
""fullscreenenter"",""5"",""18471""
","
","595.2000000476837","","48","","","3000","1","","","images/tutyellowplanet.jpg","images/tutalien4","images/tutalien3","images/tutrocket1","images/tutalien4","images/t.png","2","practice","true","1","2022-11-03 02:05:44.493","2","common"
"two-step-fixation","96","292084","0.0-61.0-2.11","1339","3566","10","Male","true","false","false","true","""event"",""trial"",""time""
""fullscreenenter"",""5"",""18471""
","
","
","""event"",""trial"",""time""
""fullscreenenter"",""5"",""18471""
","
","","images/earth.jpg","","","","","","","","","","","","","","fixation","","","","","",""
"d3-animate-choice","97","294601","0.0-61.0-0.12","1339","3566","10","Male","true","false","false","true","""event"",""trial"",""time""
""fullscreenenter"",""5"",""18471""
","
","
","""event"",""trial"",""time""
""fullscreenenter"",""5"",""18471""
","
","512.2999999523163","","48","","","3000","1","","","images/earth.jpg","images/tutrocket2","images/tutrocket1","null","images/tutrocket2","","1","practice","null","","","2",""
"d3-animate-choice","98","296861","0.0-61.0-1.12","1339","3566","10","Male","true","false","false","true","""event"",""trial"",""time""
""fullscreenenter"",""5"",""18471""
","
","
","""event"",""trial"",""time""
""fullscreenenter"",""5"",""18471""
","
","255.39999985694885","","49","","","3000","1","","","images/tutgreenplanet.jpg","images/tutalien2","images/tutalien1","images/tutrocket2","images/tutalien1","images/nothing.png","2","practice","true","0","2022-11-03 02:05:50.275","1","common"
"two-step-fixation","99","297865","0.0-61.0-2.12","1339","3566","10","Male","true","false","false","true","""event"",""trial"",""time""
""fullscreenenter"",""5"",""18471""
","
","
","""event"",""trial"",""time""
""fullscreenenter"",""5"",""18471""
","
","","images/earth.jpg","","","","","","","","","","","","","","fixation","","","","","",""
"d3-animate-choice","100","300220","0.0-61.0-0.13","1339","3566","10","Male","true","false","false","true","""event"",""trial"",""time""
""fullscreenenter"",""5"",""18471""
","
","
","""event"",""trial"",""time""
""fullscreenenter"",""5"",""18471""
","
","350.69999980926514","","48","","","3000","1","380.7999999523163,1850.1999998092651,1860.0999999046326,2190.699999809265,2250.2999999523163","49,48,49,49,48","images/earth.jpg","images/tutrocket2","images/tutrocket1","null","images/tutrocket2","","1","practice","null","","","2",""
"d3-animate-choice","101","302470","0.0-61.0-1.13","1339","3566","10","Male","true","false","false","true","""event"",""trial"",""time""
""fullscreenenter"",""5"",""18471""
","
","
","""event"",""trial"",""time""
""fullscreenenter"",""5"",""18471""
","
","247","","49","","","3000","1","287.2000000476837,656.8999998569489,676.3999998569489","48,49,48","images/tutgreenplanet.jpg","images/tutalien2","images/tutalien1","images/tutrocket2","images/tutalien1","images/nothing.png","2","practice","true","0","2022-11-03 02:05:55.884","1","common"
"two-step-fixation","102","303474","0.0-61.0-2.13","1339","3566","10","Male","true","false","false","true","""event"",""trial"",""time""
""fullscreenenter"",""5"",""18471""
","
","
","""event"",""trial"",""time""
""fullscreenenter"",""5"",""18471""
","
","","images/earth.jpg","","","","","","","","","","","","","","fixation","","","","","",""
"d3-animate-choice","103","305549","0.0-61.0-0.14","1339","3566","10","Male","true","false","false","true","""event"",""trial"",""time""
""fullscreenenter"",""5"",""18471""
","
","
","""event"",""trial"",""time""
""fullscreenenter"",""5"",""18471""
","
","71.5","","48","","","3000","1","371.59999990463257","49","images/earth.jpg","images/tutrocket2","images/tutrocket1","null","images/tutrocket2","","1","practice","null","","","2",""
"d3-animate-choice","104","308029","0.0-61.0-1.14","1339","3566","10","Male","true","false","false","true","""event"",""trial"",""time""
""fullscreenenter"",""5"",""18471""
","
","
","""event"",""trial"",""time""
""fullscreenenter"",""5"",""18471""
","
","476.2999999523163","","48","","","3000","1","","","images/tutgreenplanet.jpg","images/tutalien2","images/tutalien1","images/tutrocket2","images/tutalien2","images/nothing.png","2","practice","true","0","2022-11-03 02:06:01.443","2","common"
"two-step-fixation","105","309033","0.0-61.0-2.14","1339","3566","10","Male","true","false","false","true","""event"",""trial"",""time""
""fullscreenenter"",""5"",""18471""
","
","
","""event"",""trial"",""time""
""fullscreenenter"",""5"",""18471""
","
","","images/earth.jpg","","","","","","","","","","","","","","fixation","","","","","",""
"d3-animate-choice","106","311079","0.0-61.0-0.15","1339","3566","10","Male","true","false","false","true","""event"",""trial"",""time""
""fullscreenenter"",""5"",""18471""
","
","
","""event"",""trial"",""time""
""fullscreenenter"",""5"",""18471""
","
","41.299999952316284","","48","","","3000","1","331.09999990463257,360.89999985694885,611.3999998569489,621.3999998569489,911.5,941.5999999046326,1181.2999999523163,1201.3999998569489,1471.2999999523163,1481.1999998092651,1781.5999999046326,2001.2999999523163","49,48,48,49,48,49,48,49,48,49,48,49","images/earth.jpg","images/tutrocket2","images/tutrocket1","null","images/tutrocket2","","1","practice","null","","","2",""
"d3-animate-choice","107","313190","0.0-61.0-1.15","1339","3566","10","Male","true","false","false","true","""event"",""trial"",""time""
""fullscreenenter"",""5"",""18471""
","
","
","""event"",""trial"",""time""
""fullscreenenter"",""5"",""18471""
","
","107","","48","","","3000","1","286.59999990463257,461.5,596.5,766.3999998569489,886.7999999523163,1106.1999998092651,1246.5,1436.3999998569489,1536.2999999523163,1757.0999999046326,1886.3999998569489,2076.2999999523163","49,48,49,48,49,48,49,48,49,48,49,48","images/tutyellowplanet.jpg","images/tutalien4","images/tutalien3","images/tutrocket2","images/tutalien4","images/nothing.png","2","practice","false","0","2022-11-03 02:06:06.604","2","rare"
"two-step-fixation","108","314194","0.0-61.0-2.15","1339","3566","10","Male","true","false","false","true","""event"",""trial"",""time""
""fullscreenenter"",""5"",""18471""
","
","
","""event"",""trial"",""time""
""fullscreenenter"",""5"",""18471""
","
","","images/earth.jpg","","","","","","","","","","","","","","fixation","","","","","",""
"d3-animate-choice","109","316411","0.0-61.0-0.16","1339","3566","10","Male","true","false","false","true","""event"",""trial"",""time""
""fullscreenenter"",""5"",""18471""
","
","
","""event"",""trial"",""time""
""fullscreenenter"",""5"",""18471""
","
","211.09999990463257","","49","","","3000","1","441.19999980926514,731,1000.2999999523163,1300.8999998569489,1581,1861,2151.0999999046326","49,49,49,49,49,49,49","images/earth.jpg","images/tutrocket2","images/tutrocket1","null","images/tutrocket1","","1","practice","null","","","1",""
"d3-animate-choice","110","318779","0.0-61.0-1.16","1339","3566","10","Male","true","false","false","true","""event"",""trial"",""time""
""fullscreenenter"",""5"",""18471""
","
","
","""event"",""trial"",""time""
""fullscreenenter"",""5"",""18471""
","
","365","","49","","","3000","1","685.0999999046326,1085,1705,2095.0999999046326","49,49,49,49","images/tutyellowplanet.jpg","images/tutalien4","images/tutalien3","images/tutrocket1","images/tutalien3","images/t.png","2","practice","true","1","2022-11-03 02:06:12.193","1","common"
"two-step-fixation","111","319783","0.0-61.0-2.16","1339","3566","10","Male","true","false","false","true","""event"",""trial"",""time""
""fullscreenenter"",""5"",""18471""
","
","
","""event"",""trial"",""time""
""fullscreenenter"",""5"",""18471""
","
","","images/earth.jpg","","","","","","","","","","","","","","fixation","","","","","",""
"d3-animate-choice","112","321851","0.0-61.0-0.17","1339","3566","10","Male","true","false","false","true","""event"",""trial"",""time""
""fullscreenenter"",""5"",""18471""
","
","
","""event"",""trial"",""time""
""fullscreenenter"",""5"",""18471""
","
","61.90000009536743","","49","","","3000","1","411.7000000476837,621.9000000953674,901.7000000476837,1521.9000000953674,1891.9000000953674","49,48,49,48,48","images/earth.jpg","images/tutrocket2","images/tutrocket1","null","images/tutrocket1","","1","practice","null","","","1",""
"d3-animate-choice","113","324000","0.0-61.0-1.17","1339","3566","10","Male","true","false","false","true","""event"",""trial"",""time""
""fullscreenenter"",""5"",""18471""
","
","
","""event"",""trial"",""time""
""fullscreenenter"",""5"",""18471""
","
","144.10000014305115","","48","","","3000","1","564.2000000476837","49","images/tutyellowplanet.jpg","images/tutalien4","images/tutalien3","images/tutrocket1","images/tutalien4","images/t.png","2","practice","true","1","2022-11-03 02:06:17.414","2","common"
"two-step-fixation","114","325003","0.0-61.0-2.17","1339","3566","10","Male","true","false","false","true","""event"",""trial"",""time""
""fullscreenenter"",""5"",""18471""
","
","
","""event"",""trial"",""time""
""fullscreenenter"",""5"",""18471""
","
","","images/earth.jpg","","","","","","","","","","","","","","fixation","","","","","",""
"d3-animate-choice","115","327021","0.0-61.0-0.18","1339","3566","10","Male","true","false","false","true","""event"",""trial"",""time""
""fullscreenenter"",""5"",""18471""
","
","
","""event"",""trial"",""time""
""fullscreenenter"",""5"",""18471""
","
","12.099999904632568","","49","","","3000","1","212.20000004768372,522.2000000476837,1012.2000000476837,1412.2000000476837,1672.0999999046326,1992.2000000476837","48,48,48,48,48,49","images/earth.jpg","images/tutrocket2","images/tutrocket1","null","images/tutrocket1","","1","practice","null","","","1",""
"d3-animate-choice","116","329031","0.0-61.0-1.18","1339","3566","10","Male","true","false","false","true","""event"",""trial"",""time""
""fullscreenenter"",""5"",""18471""
","
","
","""event"",""trial"",""time""
""fullscreenenter"",""5"",""18471""
","
","5.200000047683716","","48","","","3000","1","375.2999999523163","48","images/tutyellowplanet.jpg","images/tutalien4","images/tutalien3","images/tutrocket1","images/tutalien4","images/t.png","2","practice","true","1","2022-11-03 02:06:22.445","2","common"
"two-step-fixation","117","330033","0.0-61.0-2.18","1339","3566","10","Male","true","false","false","true","""event"",""trial"",""time""
""fullscreenenter"",""5"",""18471""
","
","
","""event"",""trial"",""time""
""fullscreenenter"",""5"",""18471""
","
","","images/earth.jpg","","","","","","","","","","","","","","fixation","","","","","",""
"d3-animate-choice","118","332181","0.0-61.0-0.19","1339","3566","10","Male","true","false","false","true","""event"",""trial"",""time""
""fullscreenenter"",""5"",""18471""
","
","
","""event"",""trial"",""time""
""fullscreenenter"",""5"",""18471""
","
","144.20000004768372","","48","","","3000","1","484,534","49,48","images/earth.jpg","images/tutrocket2","images/tutrocket1","null","images/tutrocket2","","1","practice","null","","","2",""
"d3-animate-choice","119","334949","0.0-61.0-1.19","1339","3566","10","Male","true","false","false","true","""event"",""trial"",""time""
""fullscreenenter"",""5"",""18471""
","
","
","""event"",""trial"",""time""
""fullscreenenter"",""5"",""18471""
","
","764.2000000476837","","49","","","3000","1","904.3000001907349","48","images/tutyellowplanet.jpg","images/tutalien4","images/tutalien3","images/tutrocket2","images/tutalien3","images/nothing.png","2","practice","false","0","2022-11-03 02:06:28.363","1","rare"
"two-step-fixation","120","335953","0.0-61.0-2.19","1339","3566","10","Male","true","false","false","true","""event"",""trial"",""time""
""fullscreenenter"",""5"",""18471""
","
","
","""event"",""trial"",""time""
""fullscreenenter"",""5"",""18471""
","
","","images/earth.jpg","","","","","","","","","","","","","","fixation","","","","","",""
"d3-instructions","121","348588","0.0-62.0","1339","3566","10","Male","true","false","false","true","""event"",""trial"",""time""
""fullscreenenter"",""5"",""18471""
","
","
","""event"",""trial"",""time""
""fullscreenenter"",""5"",""18471""
","
","","","","","","","","","","","","","","","","","","","","","",""
"audio-keyboard-response","122","351618","0.0-63.0","1339","3566","10","Male","true","false","false","true","""event"",""trial"",""time""
""fullscreenenter"",""5"",""18471""
","
","
","""event"",""trial"",""time""
""fullscreenenter"",""5"",""18471""
","
","3029","audio/instructions/treasure_feedback.wav","32","","","","","","","","","","","","","","","","","","",""
"d3-instructions","123","355788","0.0-64.0","1339","3566","10","Male","true","false","false","true","""event"",""trial"",""time""
""fullscreenenter"",""5"",""18471""
","
","
","""event"",""trial"",""time""
""fullscreenenter"",""5"",""18471""
","
","","","","","","","","","","","","","","","","","","","","","",""
"d3-instructions","124","356877","0.0-65.0","1339","3566","10","Male","true","false","false","true","""event"",""trial"",""time""
""fullscreenenter"",""5"",""18471""
","
","
","""event"",""trial"",""time""
""fullscreenenter"",""5"",""18471""
","
","","","","","","","","","","","","","","","","","","","","","",""
"d3-instructions","125","357498","0.0-66.0","1339","3566","10","Male","true","false","false","true","""event"",""trial"",""time""
""fullscreenenter"",""5"",""18471""
","
","
","""event"",""trial"",""time""
""fullscreenenter"",""5"",""18471""
","
","","","","","","","","","","","","","","","","","","","","","",""
"d3-instructions","126","358029","0.0-67.0","1339","3566","10","Male","true","false","false","true","""event"",""trial"",""time""
""fullscreenenter"",""5"",""18471""
","
","
","""event"",""trial"",""time""
""fullscreenenter"",""5"",""18471""
","
","","","","","","","","","","","","","","","","","","","","","",""
"d3-instructions","127","358458","0.0-68.0","1339","3566","10","Male","true","false","false","true","""event"",""trial"",""time""
""fullscreenenter"",""5"",""18471""
","
","
","""event"",""trial"",""time""
""fullscreenenter"",""5"",""18471""
","
","","","","","","","","","","","","","","","","","","","","","",""
"instructions-quiz","128","362967","0.0-69.0","1339","3566","10","Male","true","false","false","true","""event"",""trial"",""time""
""fullscreenenter"",""5"",""18471""
","
","
","""event"",""trial"",""time""
""fullscreenenter"",""5"",""18471""
","
","4507.400000095367","audio/quiz/Q1_Prompt.wav","","1","","","","","","","","","","","","","","","","","",""
"audio-keyboard-response","129","364018","0.0-70.0","1339","3566","10","Male","true","false","false","true","""event"",""trial"",""time""
""fullscreenenter"",""5"",""18471""
","
","
","""event"",""trial"",""time""
""fullscreenenter"",""5"",""18471""
","
","1051","audio/quiz/Q1_Correct.wav","32","","","","","","","","","","","","","","","","","","",""
"instructions-quiz","130","370663","0.0-71.0","1339","3566","10","Male","true","false","false","true","""event"",""trial"",""time""
""fullscreenenter"",""5"",""18471""
","
","
","""event"",""trial"",""time""
""fullscreenenter"",""5"",""18471""
","
","6643.099999904633","audio/quiz/Q2_Prompt.wav","","1","","","","","","","","","","","","","","","","","",""
"audio-keyboard-response","131","371608","0.0-72.0","1339","3566","10","Male","true","false","false","true","""event"",""trial"",""time""
""fullscreenenter"",""5"",""18471""
","
","
","""event"",""trial"",""time""
""fullscreenenter"",""5"",""18471""
","
","949","audio/quiz/Q2_Incorrect.wav","32","","","","","","","","","","","","","","","","","","",""
"instructions-quiz","132","375536","0.0-73.0","1339","3566","10","Male","true","false","false","true","""event"",""trial"",""time""
""fullscreenenter"",""5"",""18471""
","
","
","""event"",""trial"",""time""
""fullscreenenter"",""5"",""18471""
","
","3925.2000000476837","audio/quiz/Q3_Prompt.wav","","1","","","","","","","","","","","","","","","","","",""
"audio-keyboard-response","133","375938","0.0-74.0","1339","3566","10","Male","true","false","false","true","""event"",""trial"",""time""
""fullscreenenter"",""5"",""18471""
","
","
","""event"",""trial"",""time""
""fullscreenenter"",""5"",""18471""
","
","400","audio/quiz/Q3_Correct.wav","32","","","","","","","","","","","","","","","","","","",""
"d3-instructions","134","377788","0.0-75.0","1339","3566","10","Male","true","false","false","true","""event"",""trial"",""time""
""fullscreenenter"",""5"",""18471""
","
","
","""event"",""trial"",""time""
""fullscreenenter"",""5"",""18471""
","
","","","","","","","","","","","","","","","","","","","","","",""
"d3-animate-choice","135","381280","0.0-76.0-0.0","1339","3566","10","Male","true","false","false","true","""event"",""trial"",""time""
""fullscreenenter"",""5"",""18471""
","
","
","""event"",""trial"",""time""
""fullscreenenter"",""5"",""18471""
","
","1486.9000000953674","","49","","","3000","1","1626.9000000953674,3177.2000000476837","192,48","images/earth.jpg","images/rocket2","images/rocket1","null","images/rocket1","","1","real","null","","","1",""
"d3-animate-choice","136","383306","0.0-76.0-1.0","1339","3566","10","Male","true","false","false","true","""event"",""trial"",""time""
""fullscreenenter"",""5"",""18471""
","
","
","""event"",""trial"",""time""
""fullscreenenter"",""5"",""18471""
","
","6.099999904632568","","48","","","3000","1","","","images/redplanet1.jpg","images/alien2","images/alien1","images/rocket1","images/alien2","images/nothing.png","2","real","false","0","2022-11-03 02:07:16.720","2","rare"
"two-step-fixation","137","384326","0.0-76.0-2.0","1339","3566","10","Male","true","false","false","true","""event"",""trial"",""time""
""fullscreenenter"",""5"",""18471""
","
","
","""event"",""trial"",""time""
""fullscreenenter"",""5"",""18471""
","
","","images/earth.jpg","","","","","","","","","","","","","","fixation","","","","","",""
"d3-animate-choice","138","386440","0.0-76.0-0.1","1339","3566","10","Male","true","false","false","true","""event"",""trial"",""time""
""fullscreenenter"",""5"",""18471""
","
","
","""event"",""trial"",""time""
""fullscreenenter"",""5"",""18471""
","
","108.20000004768372","","48","","","3000","1","","","images/earth.jpg","images/rocket2","images/rocket1","null","images/rocket2","","1","real","null","","","2",""
"d3-animate-choice","139","389068","0.0-76.0-1.1","1339","3566","10","Male","true","false","false","true","""event"",""trial"",""time""
""fullscreenenter"",""5"",""18471""
","
","
","""event"",""trial"",""time""
""fullscreenenter"",""5"",""18471""
","
","625","","49","","","3000","1","","","images/redplanet1.jpg","images/alien2","images/alien1","images/rocket2","images/alien1","images/nothing.png","2","real","true","0","2022-11-03 02:07:22.482","1","common"
"two-step-fixation","140","390076","0.0-76.0-2.1","1339","3566","10","Male","true","false","false","true","""event"",""trial"",""time""
""fullscreenenter"",""5"",""18471""
","
","
","""event"",""trial"",""time""
""fullscreenenter"",""5"",""18471""
","
","","images/earth.jpg","","","","","","","","","","","","","","fixation","","","","","",""
"d3-animate-choice","141","392338","0.0-76.0-0.2","1339","3566","10","Male","true","false","false","true","""event"",""trial"",""time""
""fullscreenenter"",""5"",""18471""
","
","
","""event"",""trial"",""time""
""fullscreenenter"",""5"",""18471""
","
","258.40000009536743","","49","","","3000","1","","","images/earth.jpg","images/rocket2","images/rocket1","null","images/rocket1","","1","real","null","","","1",""
"d3-animate-choice","142","394859","0.0-76.0-1.2","1339","3566","10","Male","true","false","false","true","""event"",""trial"",""time""
""fullscreenenter"",""5"",""18471""
","
","
","""event"",""trial"",""time""
""fullscreenenter"",""5"",""18471""
","
","517.9000000953674","","48","","","3000","1","","","images/purpleplanet.jpg","images/alien4","images/alien3","images/rocket1","images/alien4","images/t.png","2","real","true","1","2022-11-03 02:07:28.273","2","common"
"two-step-fixation","143","395864","0.0-76.0-2.2","1339","3566","10","Male","true","false","false","true","""event"",""trial"",""time""
""fullscreenenter"",""5"",""18471""
","
","
","""event"",""trial"",""time""
""fullscreenenter"",""5"",""18471""
","
","","images/earth.jpg","","","","","","","","","","","","","","fixation","","","","","",""
"d3-animate-choice","144","398296","0.0-76.0-0.3","1339","3566","10","Male","true","false","false","true","""event"",""trial"",""time""
""fullscreenenter"",""5"",""18471""
","
","
","""event"",""trial"",""time""
""fullscreenenter"",""5"",""18471""
","
","421.09999990463257","","48","","","3000","1","431","49","images/earth.jpg","images/rocket2","images/rocket1","null","images/rocket2","","1","real","null","","","2",""
"d3-animate-choice","145","401088","0.0-76.0-1.3","1339","3566","10","Male","true","false","false","true","""event"",""trial"",""time""
""fullscreenenter"",""5"",""18471""
","
","
","""event"",""trial"",""time""
""fullscreenenter"",""5"",""18471""
","
","788.7000000476837","","49","","","3000","1","","","images/redplanet1.jpg","images/alien2","images/alien1","images/rocket2","images/alien1","images/t.png","2","real","true","1","2022-11-03 02:07:34.502","1","common"
"two-step-fixation","146","402091","0.0-76.0-2.3","1339","3566","10","Male","true","false","false","true","""event"",""trial"",""time""
""fullscreenenter"",""5"",""18471""
","
","
","""event"",""trial"",""time""
""fullscreenenter"",""5"",""18471""
","
","","images/earth.jpg","","","","","","","","","","","","","","fixation","","","","","",""
"d3-animate-choice","147","404478","0.0-76.0-0.4","1339","3566","10","Male","true","false","false","true","""event"",""trial"",""time""
""fullscreenenter"",""5"",""18471""
","
","
","""event"",""trial"",""time""
""fullscreenenter"",""5"",""18471""
","
","383.89999985694885","","49","","","3000","1","","","images/earth.jpg","images/rocket2","images/rocket1","null","images/rocket1","","1","real","null","","","1",""
"d3-animate-choice","148","407080","0.0-76.0-1.4","1339","3566","10","Male","true","false","false","true","""event"",""trial"",""time""
""fullscreenenter"",""5"",""18471""
","
","
","""event"",""trial"",""time""
""fullscreenenter"",""5"",""18471""
","
","597.2000000476837","","48","","","3000","1","","","images/purpleplanet.jpg","images/alien4","images/alien3","images/rocket1","images/alien4","images/t.png","2","real","true","1","2022-11-03 02:07:40.494","2","common"
"two-step-fixation","149","408082","0.0-76.0-2.4","1339","3566","10","Male","true","false","false","true","""event"",""trial"",""time""
""fullscreenenter"",""5"",""18471""
","
","
","""event"",""trial"",""time""
""fullscreenenter"",""5"",""18471""
","
","","images/earth.jpg","","","","","","","","","","","","","","fixation","","","","","",""
"d3-animate-choice","150","410559","0.0-76.0-0.5","1339","3566","10","Male","true","false","false","true","""event"",""trial"",""time""
""fullscreenenter"",""5"",""18471""
","
","
","""event"",""trial"",""time""
""fullscreenenter"",""5"",""18471""
","
","472.80000019073486","","49","","","3000","1","","","images/earth.jpg","images/rocket2","images/rocket1","null","images/rocket1","","1","real","null","","","1",""
"d3-animate-choice","151","413079","0.0-76.0-1.5","1339","3566","10","Male","true","false","false","true","""event"",""trial"",""time""
""fullscreenenter"",""5"",""18471""
","
","
","""event"",""trial"",""time""
""fullscreenenter"",""5"",""18471""
","
","516","","48","","","3000","1","","","images/purpleplanet.jpg","images/alien4","images/alien3","images/rocket1","images/alien4","images/t.png","2","real","true","1","2022-11-03 02:07:46.493","2","common"
"two-step-fixation","152","414083","0.0-76.0-2.5","1339","3566","10","Male","true","false","false","true","""event"",""trial"",""time""
""fullscreenenter"",""5"",""18471""
","
","
","""event"",""trial"",""time""
""fullscreenenter"",""5"",""18471""
","
","","images/earth.jpg","","","","","","","","","","","","","","fixation","","","","","",""
"d3-animate-choice","153","416598","0.0-76.0-0.6","1339","3566","10","Male","true","false","false","true","""event"",""trial"",""time""
""fullscreenenter"",""5"",""18471""
","
","
","""event"",""trial"",""time""
""fullscreenenter"",""5"",""18471""
","
","510.10000014305115","","48","","","3000","1","","","images/earth.jpg","images/rocket2","images/rocket1","null","images/rocket2","","1","real","null","","","2",""
"d3-animate-choice","154","419149","0.0-76.0-1.6","1339","3566","10","Male","true","false","false","true","""event"",""trial"",""time""
""fullscreenenter"",""5"",""18471""
","
","
","""event"",""trial"",""time""
""fullscreenenter"",""5"",""18471""
","
","546.6999998092651","","49","","","3000","1","","","images/redplanet1.jpg","images/alien2","images/alien1","images/rocket2","images/alien1","images/t.png","2","real","true","1","2022-11-03 02:07:52.563","1","common"
"two-step-fixation","155","420152","0.0-76.0-2.6","1339","3566","10","Male","true","false","false","true","""event"",""trial"",""time""
""fullscreenenter"",""5"",""18471""
","
","
","""event"",""trial"",""time""
""fullscreenenter"",""5"",""18471""
","
","","images/earth.jpg","","","","","","","","","","","","","","fixation","","","","","",""
"d3-animate-choice","156","424157","0.0-76.0-0.7","1339","3566","10","Male","true","false","false","true","""event"",""trial"",""time""
""fullscreenenter"",""5"",""18471""
","
","
","""event"",""trial"",""time""
""fullscreenenter"",""5"",""18471""
","
","2553.2999999523163","","48","","","3000","1","","","images/earth.jpg","images/rocket2","images/rocket1","null","images/rocket2","","1","real","null","","","2",""
"d3-animate-choice","157","426908","0.0-76.0-1.7","1339","3566","10","Male","true","false","false","true","""event"",""trial"",""time""
""fullscreenenter"",""5"",""18471""
","
","
","""event"",""trial"",""time""
""fullscreenenter"",""5"",""18471""
","
","748.7000000476837","","48","","","3000","1","","","images/redplanet1.jpg","images/alien2","images/alien1","images/rocket2","images/alien2","images/nothing.png","2","real","true","0","2022-11-03 02:08:00.322","2","common"
"two-step-fixation","158","427913","0.0-76.0-2.7","1339","3566","10","Male","true","false","false","true","""event"",""trial"",""time""
""fullscreenenter"",""5"",""18471""
","
","
","""event"",""trial"",""time""
""fullscreenenter"",""5"",""18471""
","
","","images/earth.jpg","","","","","","","","","","","","","","fixation","","","","","",""
"d3-animate-choice","159","430308","0.0-76.0-0.8","1339","3566","10","Male","true","false","false","true","""event"",""trial"",""time""
""fullscreenenter"",""5"",""18471""
","
","
","""event"",""trial"",""time""
""fullscreenenter"",""5"",""18471""
","
","390.80000019073486","","49","","","3000","1","","","images/earth.jpg","images/rocket2","images/rocket1","null","images/rocket1","","1","real","null","","","1",""
"d3-animate-choice","160","432889","0.0-76.0-1.8","1339","3566","10","Male","true","false","false","true","""event"",""trial"",""time""
""fullscreenenter"",""5"",""18471""
","
","
","""event"",""trial"",""time""
""fullscreenenter"",""5"",""18471""
","
","575.0999999046326","","49","","","3000","1","","","images/purpleplanet.jpg","images/alien4","images/alien3","images/rocket1","images/alien3","images/t.png","2","real","true","1","2022-11-03 02:08:06.303","1","common"
"two-step-fixation","161","433894","0.0-76.0-2.8","1339","3566","10","Male","true","false","false","true","""event"",""trial"",""time""
""fullscreenenter"",""5"",""18471""
","
","
","""event"",""trial"",""time""
""fullscreenenter"",""5"",""18471""
","
","","images/earth.jpg","","","","","","","","","","","","","","fixation","","","","","",""
"d3-animate-choice","162","436156","0.0-76.0-0.9","1339","3566","10","Male","true","false","false","true","""event"",""trial"",""time""
""fullscreenenter"",""5"",""18471""
","
","
","""event"",""trial"",""time""
""fullscreenenter"",""5"",""18471""
","
","257.39999985694885","","48","","","3000","1","","","images/earth.jpg","images/rocket2","images/rocket1","null","images/rocket2","","1","real","null","","","2",""
"d3-animate-choice","163","438417","0.0-76.0-1.9","1339","3566","10","Male","true","false","false","true","""event"",""trial"",""time""
""fullscreenenter"",""5"",""18471""
","
","
","""event"",""trial"",""time""
""fullscreenenter"",""5"",""18471""
","
","256.7000000476837","","48","","","3000","1","","","images/redplanet1.jpg","images/alien2","images/alien1","images/rocket2","images/alien2","images/t.png","2","real","true","1","2022-11-03 02:08:11.831","2","common"
"two-step-fixation","164","439422","0.0-76.0-2.9","1339","3566","10","Male","true","false","false","true","""event"",""trial"",""time""
""fullscreenenter"",""5"",""18471""
","
","
","""event"",""trial"",""time""
""fullscreenenter"",""5"",""18471""
","
","","images/earth.jpg","","","","","","","","","","","","","","fixation","","","","","",""
"d3-animate-choice","165","441617","0.0-76.0-0.10","1339","3566","10","Male","true","false","false","true","""event"",""trial"",""time""
""fullscreenenter"",""5"",""18471""
","
","
","""event"",""trial"",""time""
""fullscreenenter"",""5"",""18471""
","
","191.39999985694885","","49","","","3000","1","","","images/earth.jpg","images/rocket2","images/rocket1","null","images/rocket1","","1","real","null","","","1",""
"d3-animate-choice","166","444247","0.0-76.0-1.10","1339","3566","10","Male","true","false","false","true","""event"",""trial"",""time""
""fullscreenenter"",""5"",""18471""
","
","
","""event"",""trial"",""time""
""fullscreenenter"",""5"",""18471""
","
","627.0999999046326","","48","","","3000","1","","","images/redplanet1.jpg","images/alien2","images/alien1","images/rocket1","images/alien2","images/nothing.png","2","real","false","0","2022-11-03 02:08:17.661","2","rare"
"two-step-fixation","167","445250","0.0-76.0-2.10","1339","3566","10","Male","true","false","false","true","""event"",""trial"",""time""
""fullscreenenter"",""5"",""18471""
","
","
","""event"",""trial"",""time""
""fullscreenenter"",""5"",""18471""
","
","","images/earth.jpg","","","","","","","","","","","","","","fixation","","","","","",""
"d3-animate-choice","168","447728","0.0-76.0-0.11","1339","3566","10","Male","true","false","false","true","""event"",""trial"",""time""
""fullscreenenter"",""5"",""18471""
","
","
","""event"",""trial"",""time""
""fullscreenenter"",""5"",""18471""
","
","474.7000000476837","","49","","","3000","1","","","images/earth.jpg","images/rocket2","images/rocket1","null","images/rocket1","","1","real","null","","","1",""
"d3-animate-choice","169","450116","0.0-76.0-1.11","1339","3566","10","Male","true","false","false","true","""event"",""trial"",""time""
""fullscreenenter"",""5"",""18471""
","
","
","""event"",""trial"",""time""
""fullscreenenter"",""5"",""18471""
","
","385.40000009536743","","48","","","3000","1","","","images/purpleplanet.jpg","images/alien4","images/alien3","images/rocket1","images/alien4","images/t.png","2","real","true","1","2022-11-03 02:08:23.530","2","common"
"two-step-fixation","170","451119","0.0-76.0-2.11","1339","3566","10","Male","true","false","false","true","""event"",""trial"",""time""
""fullscreenenter"",""5"",""18471""
","
","
","""event"",""trial"",""time""
""fullscreenenter"",""5"",""18471""
","
","","images/earth.jpg","","","","","","","","","","","","","","fixation","","","","","",""
"d3-animate-choice","171","453288","0.0-76.0-0.12","1339","3566","10","Male","true","false","false","true","""event"",""trial"",""time""
""fullscreenenter"",""5"",""18471""
","
","
","""event"",""trial"",""time""
""fullscreenenter"",""5"",""18471""
","
","165.10000014305115","","49","","","3000","1","","","images/earth.jpg","images/rocket2","images/rocket1","null","images/rocket1","","1","real","null","","","1",""
"d3-animate-choice","172","455828","0.0-76.0-1.12","1339","3566","10","Male","true","false","false","true","""event"",""trial"",""time""
""fullscreenenter"",""5"",""18471""
","
","
","""event"",""trial"",""time""
""fullscreenenter"",""5"",""18471""
","
","535.7999999523163","","48","","","3000","1","","","images/purpleplanet.jpg","images/alien4","images/alien3","images/rocket1","images/alien4","images/t.png","2","real","true","1","2022-11-03 02:08:29.242","2","common"
"two-step-fixation","173","456833","0.0-76.0-2.12","1339","3566","10","Male","true","false","false","true","""event"",""trial"",""time""
""fullscreenenter"",""5"",""18471""
","
","
","""event"",""trial"",""time""
""fullscreenenter"",""5"",""18471""
","
","","images/earth.jpg","","","","","","","","","","","","","","fixation","","","","","",""
"d3-animate-choice","174","459167","0.0-76.0-0.13","1339","3566","10","Male","true","false","false","true","""event"",""trial"",""time""
""fullscreenenter"",""5"",""18471""
","
","
","""event"",""trial"",""time""
""fullscreenenter"",""5"",""18471""
","
","331.5","","49","","","3000","1","","","images/earth.jpg","images/rocket2","images/rocket1","null","images/rocket1","","1","real","null","","","1",""
"d3-animate-choice","175","461938","0.0-76.0-1.13","1339","3566","10","Male","true","false","false","true","""event"",""trial"",""time""
""fullscreenenter"",""5"",""18471""
","
","
","""event"",""trial"",""time""
""fullscreenenter"",""5"",""18471""
","
","767.5999999046326","","48","","","3000","1","","","images/purpleplanet.jpg","images/alien4","images/alien3","images/rocket1","images/alien4","images/t.png","2","real","true","1","2022-11-03 02:08:35.352","2","common"
"two-step-fixation","176","462942","0.0-76.0-2.13","1339","3566","10","Male","true","false","false","true","""event"",""trial"",""time""
""fullscreenenter"",""5"",""18471""
","
","
","""event"",""trial"",""time""
""fullscreenenter"",""5"",""18471""
","
","","images/earth.jpg","","","","","","","","","","","","","","fixation","","","","","",""
"d3-animate-choice","177","465398","0.0-76.0-0.14","1339","3566","10","Male","true","false","false","true","""event"",""trial"",""time""
""fullscreenenter"",""5"",""18471""
","
","
","""event"",""trial"",""time""
""fullscreenenter"",""5"",""18471""
","
","452.7999999523163","","48","","","3000","1","","","images/earth.jpg","images/rocket2","images/rocket1","null","images/rocket2","","1","real","null","","","2",""
"d3-animate-choice","178","467989","0.0-76.0-1.14","1339","3566","10","Male","true","false","false","true","""event"",""trial"",""time""
""fullscreenenter"",""5"",""18471""
","
","
","""event"",""trial"",""time""
""fullscreenenter"",""5"",""18471""
","
","586.2999999523163","","49","","","3000","1","","","images/purpleplanet.jpg","images/alien4","images/alien3","images/rocket2","images/alien3","images/t.png","2","real","false","1","2022-11-03 02:08:41.403","1","rare"
"two-step-fixation","179","468994","0.0-76.0-2.14","1339","3566","10","Male","true","false","false","true","""event"",""trial"",""time""
""fullscreenenter"",""5"",""18471""
","
","
","""event"",""trial"",""time""
""fullscreenenter"",""5"",""18471""
","
","","images/earth.jpg","","","","","","","","","","","","","","fixation","","","","","",""
"d3-animate-choice","180","471377","0.0-76.0-0.15","1339","3566","10","Male","true","false","false","true","""event"",""trial"",""time""
""fullscreenenter"",""5"",""18471""
","
","
","""event"",""trial"",""time""
""fullscreenenter"",""5"",""18471""
","
","378.2999999523163","","48","","","3000","1","","","images/earth.jpg","images/rocket2","images/rocket1","null","images/rocket2","","1","real","null","","","2",""
"d3-animate-choice","181","473795","0.0-76.0-1.15","1339","3566","10","Male","true","false","false","true","""event"",""trial"",""time""
""fullscreenenter"",""5"",""18471""
","
","
","""event"",""trial"",""time""
""fullscreenenter"",""5"",""18471""
","
","415.59999990463257","","49","","","3000","1","","","images/redplanet1.jpg","images/alien2","images/alien1","images/rocket2","images/alien1","images/t.png","2","real","true","1","2022-11-03 02:08:47.209","1","common"
"two-step-fixation","182","474799","0.0-76.0-2.15","1339","3566","10","Male","true","false","false","true","""event"",""trial"",""time""
""fullscreenenter"",""5"",""18471""
","
","
","""event"",""trial"",""time""
""fullscreenenter"",""5"",""18471""
","
","","images/earth.jpg","","","","","","","","","","","","","","fixation","","","","","",""
"d3-animate-choice","183","478517","0.0-76.0-0.16","1339","3566","10","Male","true","false","false","true","""event"",""trial"",""time""
""fullscreenenter"",""5"",""18471""
","
","
","""event"",""trial"",""time""
""fullscreenenter"",""5"",""18471""
","
","1714.7999999523163","","49","","","3000","1","","","images/earth.jpg","images/rocket2","images/rocket1","null","images/rocket1","","1","real","null","","","1",""
"d3-animate-choice","184","480967","0.0-76.0-1.16","1339","3566","10","Male","true","false","false","true","""event"",""trial"",""time""
""fullscreenenter"",""5"",""18471""
","
","
","""event"",""trial"",""time""
""fullscreenenter"",""5"",""18471""
","
","446.5","","48","","","3000","1","","","images/purpleplanet.jpg","images/alien4","images/alien3","images/rocket1","images/alien4","images/t.png","2","real","true","1","2022-11-03 02:08:54.381","2","common"
"two-step-fixation","185","481971","0.0-76.0-2.16","1339","3566","10","Male","true","false","false","true","""event"",""trial"",""time""
""fullscreenenter"",""5"",""18471""
","
","
","""event"",""trial"",""time""
""fullscreenenter"",""5"",""18471""
","
","","images/earth.jpg","","","","","","","","","","","","","","fixation","","","","","",""
"d3-animate-choice","186","484856","0.0-76.0-0.17","1339","3566","10","Male","true","false","false","true","""event"",""trial"",""time""
""fullscreenenter"",""5"",""18471""
","
","
","""event"",""trial"",""time""
""fullscreenenter"",""5"",""18471""
","
","881.6000001430511","","48","","","3000","1","","","images/earth.jpg","images/rocket2","images/rocket1","null","images/rocket2","","1","real","null","","","2",""
"d3-animate-choice","187","487536","0.0-76.0-1.17","1339","3566","10","Male","true","false","false","true","""event"",""trial"",""time""
""fullscreenenter"",""5"",""18471""
","
","
","""event"",""trial"",""time""
""fullscreenenter"",""5"",""18471""
","
","677.7000000476837","","48","","","3000","1","839.2000000476837","49","images/redplanet1.jpg","images/alien2","images/alien1","images/rocket2","images/alien2","images/t.png","2","real","true","1","2022-11-03 02:09:00.950","2","common"
"two-step-fixation","188","488539","0.0-76.0-2.17","1339","3566","10","Male","true","false","false","true","""event"",""trial"",""time""
""fullscreenenter"",""5"",""18471""
","
","
","""event"",""trial"",""time""
""fullscreenenter"",""5"",""18471""
","
","","images/earth.jpg","","","","","","","","","","","","","","fixation","","","","","",""
"d3-animate-choice","189","491167","0.0-76.0-0.18","1339","3566","10","Male","true","false","false","true","""event"",""trial"",""time""
""fullscreenenter"",""5"",""18471""
","
","
","""event"",""trial"",""time""
""fullscreenenter"",""5"",""18471""
","
","624.5","","48","","","3000","1","","","images/earth.jpg","images/rocket2","images/rocket1","null","images/rocket2","","1","real","null","","","2",""
"d3-animate-choice","190","493777","0.0-76.0-1.18","1339","3566","10","Male","true","false","false","true","""event"",""trial"",""time""
""fullscreenenter"",""5"",""18471""
","
","
","""event"",""trial"",""time""
""fullscreenenter"",""5"",""18471""
","
","605.7999999523163","","48","","","3000","1","","","images/purpleplanet.jpg","images/alien4","images/alien3","images/rocket2","images/alien4","images/t.png","2","real","false","1","2022-11-03 02:09:07.191","2","rare"
"two-step-fixation","191","494780","0.0-76.0-2.18","1339","3566","10","Male","true","false","false","true","""event"",""trial"",""time""
""fullscreenenter"",""5"",""18471""
","
","
","""event"",""trial"",""time""
""fullscreenenter"",""5"",""18471""
","
","","images/earth.jpg","","","","","","","","","","","","","","fixation","","","","","",""
"d3-animate-choice","192","497348","0.0-76.0-0.19","1339","3566","10","Male","true","false","false","true","""event"",""trial"",""time""
""fullscreenenter"",""5"",""18471""
","
","
","""event"",""trial"",""time""
""fullscreenenter"",""5"",""18471""
","
","563.8999998569489","","48","","","3000","1","","","images/earth.jpg","images/rocket2","images/rocket1","null","images/rocket2","","1","real","null","","","2",""
"d3-animate-choice","193","499956","0.0-76.0-1.19","1339","3566","10","Male","true","false","false","true","""event"",""trial"",""time""
""fullscreenenter"",""5"",""18471""
","
","
","""event"",""trial"",""time""
""fullscreenenter"",""5"",""18471""
","
","604.9000000953674","","49","","","3000","1","","","images/redplanet1.jpg","images/alien2","images/alien1","images/rocket2","images/alien1","images/t.png","2","real","true","1","2022-11-03 02:09:13.370","1","common"
"two-step-fixation","194","500960","0.0-76.0-2.19","1339","3566","10","Male","true","false","false","true","""event"",""trial"",""time""
""fullscreenenter"",""5"",""18471""
","
","
","""event"",""trial"",""time""
""fullscreenenter"",""5"",""18471""
","
","","images/earth.jpg","","","","","","","","","","","","","","fixation","","","","","",""
"d3-animate-choice","195","504108","0.0-76.0-0.20","1339","3566","10","Male","true","false","false","true","""event"",""trial"",""time""
""fullscreenenter"",""5"",""18471""
","
","
","""event"",""trial"",""time""
""fullscreenenter"",""5"",""18471""
","
","1143.5999999046326","","48","","","3000","1","","","images/earth.jpg","images/rocket2","images/rocket1","null","images/rocket2","","1","real","null","","","2",""
"d3-animate-choice","196","506588","0.0-76.0-1.20","1339","3566","10","Male","true","false","false","true","""event"",""trial"",""time""
""fullscreenenter"",""5"",""18471""
","
","
","""event"",""trial"",""time""
""fullscreenenter"",""5"",""18471""
","
","476.2000000476837","","49","","","3000","1","","","images/purpleplanet.jpg","images/alien4","images/alien3","images/rocket2","images/alien3","images/t.png","2","real","false","1","2022-11-03 02:09:20.002","1","rare"
"two-step-fixation","197","507591","0.0-76.0-2.20","1339","3566","10","Male","true","false","false","true","""event"",""trial"",""time""
""fullscreenenter"",""5"",""18471""
","
","
","""event"",""trial"",""time""
""fullscreenenter"",""5"",""18471""
","
","","images/earth.jpg","","","","","","","","","","","","","","fixation","","","","","",""
"d3-animate-choice","198","510006","0.0-76.0-0.21","1339","3566","10","Male","true","false","false","true","""event"",""trial"",""time""
""fullscreenenter"",""5"",""18471""
","
","
","""event"",""trial"",""time""
""fullscreenenter"",""5"",""18471""
","
","412.19999980926514","","48","","","3000","1","","","images/earth.jpg","images/rocket2","images/rocket1","null","images/rocket2","","1","real","null","","","2",""
"d3-animate-choice","199","512798","0.0-76.0-1.21","1339","3566","10","Male","true","false","false","true","""event"",""trial"",""time""
""fullscreenenter"",""5"",""18471""
","
","
","""event"",""trial"",""time""
""fullscreenenter"",""5"",""18471""
","
","787.8999998569489","","48","","","3000","1","","","images/purpleplanet.jpg","images/alien4","images/alien3","images/rocket2","images/alien4","images/nothing.png","2","real","false","0","2022-11-03 02:09:26.212","2","rare"
"two-step-fixation","200","513801","0.0-76.0-2.21","1339","3566","10","Male","true","false","false","true","""event"",""trial"",""time""
""fullscreenenter"",""5"",""18471""
","
","
","""event"",""trial"",""time""
""fullscreenenter"",""5"",""18471""
","
","","images/earth.jpg","","","","","","","","","","","","","","fixation","","","","","",""
"d3-animate-choice","201","516636","0.0-76.0-0.22","1339","3566","10","Male","true","false","false","true","""event"",""trial"",""time""
""fullscreenenter"",""5"",""18471""
","
","
","""event"",""trial"",""time""
""fullscreenenter"",""5"",""18471""
","
","830.6999998092651","","49","","","3000","1","","","images/earth.jpg","images/rocket2","images/rocket1","null","images/rocket1","","1","real","null","","","1",""
"d3-animate-choice","202","519006","0.0-76.0-1.22","1339","3566","10","Male","true","false","false","true","""event"",""trial"",""time""
""fullscreenenter"",""5"",""18471""
","
","
","""event"",""trial"",""time""
""fullscreenenter"",""5"",""18471""
","
","365.59999990463257","","48","","","3000","1","","","images/purpleplanet.jpg","images/alien4","images/alien3","images/rocket1","images/alien4","images/nothing.png","2","real","true","0","2022-11-03 02:09:32.420","2","common"
"two-step-fixation","203","520010","0.0-76.0-2.22","1339","3566","10","Male","true","false","false","true","""event"",""trial"",""time""
""fullscreenenter"",""5"",""18471""
","
","
","""event"",""trial"",""time""
""fullscreenenter"",""5"",""18471""
","
","","images/earth.jpg","","","","","","","","","","","","","","fixation","","","","","",""
"d3-animate-choice","204","523246","0.0-76.0-0.23","1339","3566","10","Male","true","false","false","true","""event"",""trial"",""time""
""fullscreenenter"",""5"",""18471""
","
","
","""event"",""trial"",""time""
""fullscreenenter"",""5"",""18471""
","
","1232.2999999523163","","48","","","3000","1","","","images/earth.jpg","images/rocket2","images/rocket1","null","images/rocket2","","1","real","null","","","2",""
"d3-animate-choice","205","525666","0.0-76.0-1.23","1339","3566","10","Male","true","false","false","true","""event"",""trial"",""time""
""fullscreenenter"",""5"",""18471""
","
","
","""event"",""trial"",""time""
""fullscreenenter"",""5"",""18471""
","
","417.19999980926514","","48","","","3000","1","","","images/redplanet1.jpg","images/alien2","images/alien1","images/rocket2","images/alien2","images/nothing.png","2","real","true","0","2022-11-03 02:09:39.080","2","common"
"two-step-fixation","206","526670","0.0-76.0-2.23","1339","3566","10","Male","true","false","false","true","""event"",""trial"",""time""
""fullscreenenter"",""5"",""18471""
","
","
","""event"",""trial"",""time""
""fullscreenenter"",""5"",""18471""
","
","","images/earth.jpg","","","","","","","","","","","","","","fixation","","","","","",""
"d3-animate-choice","207","528985","0.0-76.0-0.24","1339","3566","10","Male","true","false","false","true","""event"",""trial"",""time""
""fullscreenenter"",""5"",""18471""
","
","
","""event"",""trial"",""time""
""fullscreenenter"",""5"",""18471""
","
","312.40000009536743","","48","","","3000","1","","","images/earth.jpg","images/rocket2","images/rocket1","null","images/rocket2","","1","real","null","","","2",""
"d3-animate-choice","208","531266","0.0-76.0-1.24","1339","3566","10","Male","true","false","false","true","""event"",""trial"",""time""
""fullscreenenter"",""5"",""18471""
","
","
","""event"",""trial"",""time""
""fullscreenenter"",""5"",""18471""
","
","277.2000000476837","","48","","","3000","1","","","images/purpleplanet.jpg","images/alien4","images/alien3","images/rocket2","images/alien4","images/nothing.png","2","real","false","0","2022-11-03 02:09:44.680","2","rare"
"two-step-fixation","209","532269","0.0-76.0-2.24","1339","3566","10","Male","true","false","false","true","""event"",""trial"",""time""
""fullscreenenter"",""5"",""18471""
","
","
","""event"",""trial"",""time""
""fullscreenenter"",""5"",""18471""
","
","","images/earth.jpg","","","","","","","","","","","","","","fixation","","","","","",""
"d3-animate-choice","210","534296","0.0-76.0-0.25","1339","3566","10","Male","true","false","false","true","""event"",""trial"",""time""
""fullscreenenter"",""5"",""18471""
","
","
","""event"",""trial"",""time""
""fullscreenenter"",""5"",""18471""
","
","22.299999952316284","","49","","","3000","1","552.2000000476837,812.2000000476837,1062.3999998569489,1202.3999998569489,1332.7999999523163,1563.5999999046326,1612.7999999523163,1852.3999998569489","48,49,48,49,48,49,48,48","images/earth.jpg","images/rocket2","images/rocket1","null","images/rocket1","","1","real","null","","","1",""
"d3-animate-choice","211","536586","0.0-76.0-1.25","1339","3566","10","Male","true","false","false","true","""event"",""trial"",""time""
""fullscreenenter"",""5"",""18471""
","
","
","""event"",""trial"",""time""
""fullscreenenter"",""5"",""18471""
","
","286.5","","48","","","3000","1","386.5","49","images/purpleplanet.jpg","images/alien4","images/alien3","images/rocket1","images/alien4","images/t.png","2","real","true","1","2022-11-03 02:09:50.000","2","common"
"two-step-fixation","212","537591","0.0-76.0-2.25","1339","3566","10","Male","true","false","false","true","""event"",""trial"",""time""
""fullscreenenter"",""5"",""18471""
","
","
","""event"",""trial"",""time""
""fullscreenenter"",""5"",""18471""
","
","","images/earth.jpg","","","","","","","","","","","","","","fixation","","","","","",""
"d3-animate-choice","213","539777","0.0-76.0-0.26","1339","3566","10","Male","true","false","false","true","""event"",""trial"",""time""
""fullscreenenter"",""5"",""18471""
","
","
","""event"",""trial"",""time""
""fullscreenenter"",""5"",""18471""
","
","180.30000019073486","","48","","","3000","1","2179.9000000953674","48","images/earth.jpg","images/rocket2","images/rocket1","null","images/rocket2","","1","real","null","","","2",""
"d3-animate-choice","214","542365","0.0-76.0-1.26","1339","3566","10","Male","true","false","false","true","""event"",""trial"",""time""
""fullscreenenter"",""5"",""18471""
","
","
","""event"",""trial"",""time""
""fullscreenenter"",""5"",""18471""
","
","586","","48","","","3000","1","","","images/purpleplanet.jpg","images/alien4","images/alien3","images/rocket2","images/alien4","images/t.png","2","real","false","1","2022-11-03 02:09:55.779","2","rare"
"two-step-fixation","215","543368","0.0-76.0-2.26","1339","3566","10","Male","true","false","false","true","""event"",""trial"",""time""
""fullscreenenter"",""5"",""18471""
","
","
","""event"",""trial"",""time""
""fullscreenenter"",""5"",""18471""
","
","","images/earth.jpg","","","","","","","","","","","","","","fixation","","","","","",""
"d3-animate-choice","216","545446","0.0-76.0-0.27","1339","3566","10","Male","true","false","false","true","""event"",""trial"",""time""
""fullscreenenter"",""5"",""18471""
","
","
","""event"",""trial"",""time""
""fullscreenenter"",""5"",""18471""
","
","74","","48","","","3000","1","","","images/earth.jpg","images/rocket2","images/rocket1","null","images/rocket2","","1","real","null","","","2",""
"d3-animate-choice","217","547916","0.0-76.0-1.27","1339","3566","10","Male","true","false","false","true","""event"",""trial"",""time""
""fullscreenenter"",""5"",""18471""
","
","
","""event"",""trial"",""time""
""fullscreenenter"",""5"",""18471""
","
","468.09999990463257","","48","","","3000","1","","","images/redplanet1.jpg","images/alien2","images/alien1","images/rocket2","images/alien2","images/nothing.png","2","real","true","0","2022-11-03 02:10:01.330","2","common"
"two-step-fixation","218","548919","0.0-76.0-2.27","1339","3566","10","Male","true","false","false","true","""event"",""trial"",""time""
""fullscreenenter"",""5"",""18471""
","
","
","""event"",""trial"",""time""
""fullscreenenter"",""5"",""18471""
","
","","images/earth.jpg","","","","","","","","","","","","","","fixation","","","","","",""
"d3-animate-choice","219","550926","0.0-76.0-0.28","1339","3566","10","Male","true","false","false","true","""event"",""trial"",""time""
""fullscreenenter"",""5"",""18471""
","
","
","""event"",""trial"",""time""
""fullscreenenter"",""5"",""18471""
","
","3.700000047683716","","49","","","3000","1","","","images/earth.jpg","images/rocket2","images/rocket1","null","images/rocket1","","1","real","null","","","1",""
"d3-animate-choice","220","553376","0.0-76.0-1.28","1339","3566","10","Male","true","false","false","true","""event"",""trial"",""time""
""fullscreenenter"",""5"",""18471""
","
","
","""event"",""trial"",""time""
""fullscreenenter"",""5"",""18471""
","
","447.59999990463257","","49","","","3000","1","","","images/purpleplanet.jpg","images/alien4","images/alien3","images/rocket1","images/alien3","images/nothing.png","2","real","true","0","2022-11-03 02:10:06.790","1","common"
"two-step-fixation","221","554380","0.0-76.0-2.28","1339","3566","10","Male","true","false","false","true","""event"",""trial"",""time""
""fullscreenenter"",""5"",""18471""
","
","
","""event"",""trial"",""time""
""fullscreenenter"",""5"",""18471""
","
","","images/earth.jpg","","","","","","","","","","","","","","fixation","","","","","",""
"d3-animate-choice","222","556826","0.0-76.0-0.29","1339","3566","10","Male","true","false","false","true","""event"",""trial"",""time""
""fullscreenenter"",""5"",""18471""
","
","
","""event"",""trial"",""time""
""fullscreenenter"",""5"",""18471""
","
","442.09999990463257","","49","","","3000","1","","","images/earth.jpg","images/rocket2","images/rocket1","null","images/rocket1","","1","real","null","","","1",""
"d3-animate-choice","223","559755","0.0-76.0-1.29","1339","3566","10","Male","true","false","false","true","""event"",""trial"",""time""
""fullscreenenter"",""5"",""18471""
","
","
","""event"",""trial"",""time""
""fullscreenenter"",""5"",""18471""
","
","925.5999999046326","","48","","","3000","1","","","images/purpleplanet.jpg","images/alien4","images/alien3","images/rocket1","images/alien4","images/t.png","2","real","true","1","2022-11-03 02:10:13.170","2","common"
"two-step-fixation","224","560760","0.0-76.0-2.29","1339","3566","10","Male","true","false","false","true","""event"",""trial"",""time""
""fullscreenenter"",""5"",""18471""
","
","
","""event"",""trial"",""time""
""fullscreenenter"",""5"",""18471""
","
","","images/earth.jpg","","","","","","","","","","","","","","fixation","","","","","",""
"d3-animate-choice","225","563235","0.0-76.0-0.30","1339","3566","10","Male","true","false","false","true","""event"",""trial"",""time""
""fullscreenenter"",""5"",""18471""
","
","
","""event"",""trial"",""time""
""fullscreenenter"",""5"",""18471""
","
","471.90000009536743","","49","","","3000","1","","","images/earth.jpg","images/rocket2","images/rocket1","null","images/rocket1","","1","real","null","","","1",""
"d3-animate-choice","226","566315","0.0-76.0-1.30","1339","3566","10","Male","true","false","false","true","""event"",""trial"",""time""
""fullscreenenter"",""5"",""18471""
","
","
","""event"",""trial"",""time""
""fullscreenenter"",""5"",""18471""
","
","1075.5","","48","","","3000","1","","","images/purpleplanet.jpg","images/alien4","images/alien3","images/rocket1","images/alien4","images/t.png","2","real","true","1","2022-11-03 02:10:19.729","2","common"
"two-step-fixation","227","567318","0.0-76.0-2.30","1339","3566","10","Male","true","false","false","true","""event"",""trial"",""time""
""fullscreenenter"",""5"",""18471""
","
","
","""event"",""trial"",""time""
""fullscreenenter"",""5"",""18471""
","
","","images/earth.jpg","","","","","","","","","","","","","","fixation","","","","","",""
"d3-animate-choice","228","569845","0.0-76.0-0.31","1339","3566","10","Male","true","false","false","true","""event"",""trial"",""time""
""fullscreenenter"",""5"",""18471""
","
","
","""event"",""trial"",""time""
""fullscreenenter"",""5"",""18471""
","
","524.5999999046326","","49","","","3000","1","","","images/earth.jpg","images/rocket2","images/rocket1","null","images/rocket1","","1","real","null","","","1",""
"d3-animate-choice","229","572645","0.0-76.0-1.31","1339","3566","10","Male","true","false","false","true","""event"",""trial"",""time""
""fullscreenenter"",""5"",""18471""
","
","
","""event"",""trial"",""time""
""fullscreenenter"",""5"",""18471""
","
","796.6000001430511","","48","","","3000","1","","","images/purpleplanet.jpg","images/alien4","images/alien3","images/rocket1","images/alien4","images/t.png","2","real","true","1","2022-11-03 02:10:26.059","2","common"
"two-step-fixation","230","573648","0.0-76.0-2.31","1339","3566","10","Male","true","false","false","true","""event"",""trial"",""time""
""fullscreenenter"",""5"",""18471""
","
","
","""event"",""trial"",""time""
""fullscreenenter"",""5"",""18471""
","
","","images/earth.jpg","","","","","","","","","","","","","","fixation","","","","","",""
"d3-animate-choice","231","575785","0.0-76.0-0.32","1339","3566","10","Male","true","false","false","true","""event"",""trial"",""time""
""fullscreenenter"",""5"",""18471""
","
","
","""event"",""trial"",""time""
""fullscreenenter"",""5"",""18471""
","
","133.90000009536743","","48","","","3000","1","","","images/earth.jpg","images/rocket2","images/rocket1","null","images/rocket2","","1","real","null","","","2",""
"d3-animate-choice","232","578196","0.0-76.0-1.32","1339","3566","10","Male","true","false","false","true","""event"",""trial"",""time""
""fullscreenenter"",""5"",""18471""
","
","
","""event"",""trial"",""time""
""fullscreenenter"",""5"",""18471""
","
","407.5","","49","","","3000","1","","","images/redplanet1.jpg","images/alien2","images/alien1","images/rocket2","images/alien1","images/t.png","2","real","true","1","2022-11-03 02:10:31.610","1","common"
"two-step-fixation","233","579200","0.0-76.0-2.32","1339","3566","10","Male","true","false","false","true","""event"",""trial"",""time""
""fullscreenenter"",""5"",""18471""
","
","
","""event"",""trial"",""time""
""fullscreenenter"",""5"",""18471""
","
","","images/earth.jpg","","","","","","","","","","","","","","fixation","","","","","",""
"d3-animate-choice","234","581385","0.0-76.0-0.33","1339","3566","10","Male","true","false","false","true","""event"",""trial"",""time""
""fullscreenenter"",""5"",""18471""
","
","
","""event"",""trial"",""time""
""fullscreenenter"",""5"",""18471""
","
","181.70000004768372","","48","","","3000","1","191","49","images/earth.jpg","images/rocket2","images/rocket1","null","images/rocket2","","1","real","null","","","2",""
"d3-animate-choice","235","584175","0.0-76.0-1.33","1339","3566","10","Male","true","false","false","true","""event"",""trial"",""time""
""fullscreenenter"",""5"",""18471""
","
","
","""event"",""trial"",""time""
""fullscreenenter"",""5"",""18471""
","
","786.2999999523163","","48","","","3000","1","","","images/purpleplanet.jpg","images/alien4","images/alien3","images/rocket2","images/alien4","images/t.png","2","real","false","1","2022-11-03 02:10:37.590","2","rare"
"two-step-fixation","236","585180","0.0-76.0-2.33","1339","3566","10","Male","true","false","false","true","""event"",""trial"",""time""
""fullscreenenter"",""5"",""18471""
","
","
","""event"",""trial"",""time""
""fullscreenenter"",""5"",""18471""
","
","","images/earth.jpg","","","","","","","","","","","","","","fixation","","","","","",""
"d3-animate-choice","237","587667","0.0-76.0-0.34","1339","3566","10","Male","true","false","false","true","""event"",""trial"",""time""
""fullscreenenter"",""5"",""18471""
","
","
","""event"",""trial"",""time""
""fullscreenenter"",""5"",""18471""
","
","481.59999990463257","","48","","","3000","1","","","images/earth.jpg","images/rocket2","images/rocket1","null","images/rocket2","","1","real","null","","","2",""
"d3-animate-choice","238","590336","0.0-76.0-1.34","1339","3566","10","Male","true","false","false","true","""event"",""trial"",""time""
""fullscreenenter"",""5"",""18471""
","
","
","""event"",""trial"",""time""
""fullscreenenter"",""5"",""18471""
","
","665.2000000476837","","49","","","3000","1","","","images/redplanet1.jpg","images/alien2","images/alien1","images/rocket2","images/alien1","images/t.png","2","real","true","1","2022-11-03 02:10:43.750","1","common"
"two-step-fixation","239","591339","0.0-76.0-2.34","1339","3566","10","Male","true","false","false","true","""event"",""trial"",""time""
""fullscreenenter"",""5"",""18471""
","
","
","""event"",""trial"",""time""
""fullscreenenter"",""5"",""18471""
","
","","images/earth.jpg","","","","","","","","","","","","","","fixation","","","","","",""
"d3-animate-choice","240","594017","0.0-76.0-0.35","1339","3566","10","Male","true","false","false","true","""event"",""trial"",""time""
""fullscreenenter"",""5"",""18471""
","
","
","""event"",""trial"",""time""
""fullscreenenter"",""5"",""18471""
","
","673.6000001430511","","49","","","3000","1","","","images/earth.jpg","images/rocket2","images/rocket1","null","images/rocket1","","1","real","null","","","1",""
"d3-animate-choice","241","596575","0.0-76.0-1.35","1339","3566","10","Male","true","false","false","true","""event"",""trial"",""time""
""fullscreenenter"",""5"",""18471""
","
","
","""event"",""trial"",""time""
""fullscreenenter"",""5"",""18471""
","
","555.8999998569489","","48","","","3000","1","","","images/purpleplanet.jpg","images/alien4","images/alien3","images/rocket1","images/alien4","images/nothing.png","2","real","true","0","2022-11-03 02:10:49.989","2","common"
"two-step-fixation","242","597579","0.0-76.0-2.35","1339","3566","10","Male","true","false","false","true","""event"",""trial"",""time""
""fullscreenenter"",""5"",""18471""
","
","
","""event"",""trial"",""time""
""fullscreenenter"",""5"",""18471""
","
