"trial_type","trial_index","time_elapsed","internal_node_id","participant_id","subject_id","age","gender","rocket_sides","red_planet_first_rocket","red_display_order","purple_display_order","interactions","blur_events","focus_events","fullscreenenter_events","fullscreenexit_events","rt","stimulus","key_press","button_pressed","success","duration","valid_pressed","rts","keys","planet_text","right_text","left_text","center_text","chosen_text","reward_text","trial_stage","practice_trial","transition_type","choice","transition","reward","timestamp"
"pavlovia","0","13","0.0-0.0","2282","4988","23","Female","false","false","false","false","
","
","
","
","
","","","","","","","","","","","","","","","","","","","","","",""
"html-keyboard-response","1","1031","0.0-1.0","2282","4988","23","Female","false","false","false","false","
","
","
","
","
","1015.9000000357628","Welcome! Press the space bar to begin.","32","","","","","","","","","","","","","","","","","","",""
"audio-keyboard-response","2","3938","0.0-2.0","2282","4988","23","Female","false","false","false","false","
","
","
","
","
","2901","audio/beep_loop.wav","32","","","","","","","","","","","","","","","","","","",""
"audio-button-response","3","8543","0.0-3.0","2282","4988","23","Female","false","false","false","false","
","
","
","
","
","NaN","audio/fish.mp3","","1","","","","","","","","","","","","","","","","","",""
"audio-button-response","4","13170","0.0-4.0","2282","4988","23","Female","false","false","false","false","""event"",""trial"",""time""
""fullscreenenter"",""5"",""16409""
","
","
","""event"",""trial"",""time""
""fullscreenenter"",""5"",""16409""
","
","NaN","audio/tiger.mp3","","4","","","","","","","","","","","","","","","","","",""
"fullscreen","5","17370","0.0-5.0","2282","4988","23","Female","false","false","false","false","""event"",""trial"",""time""
""fullscreenenter"",""5"",""16409""
","
","
","""event"",""trial"",""time""
""fullscreenenter"",""5"",""16409""
","
","","","","","true","","","","","","","","","","","","","","","","",""
"d3-instructions","6","32068","0.0-6.0","2282","4988","23","Female","false","false","false","false","""event"",""trial"",""time""
""fullscreenenter"",""5"",""16409""
","
","
","""event"",""trial"",""time""
""fullscreenenter"",""5"",""16409""
","
","","","","","","","","","","","","","","","","","","","","","",""
"d3-instructions","7","41152","0.0-7.0","2282","4988","23","Female","false","false","false","false","""event"",""trial"",""time""
""fullscreenenter"",""5"",""16409""
","
","
","""event"",""trial"",""time""
""fullscreenenter"",""5"",""16409""
","
","","","","","","","","","","","","","","","","","","","","","",""
"d3-instructions","8","50496","0.0-8.0","2282","4988","23","Female","false","false","false","false","""event"",""trial"",""time""
""fullscreenenter"",""5"",""16409""
","
","
","""event"",""trial"",""time""
""fullscreenenter"",""5"",""16409""
","
","","","","","","","","","","","","","","","","","","","","","",""
"d3-instructions","9","69511","0.0-9.0","2282","4988","23","Female","false","false","false","false","""event"",""trial"",""time""
""fullscreenenter"",""5"",""16409""
","
","
","""event"",""trial"",""time""
""fullscreenenter"",""5"",""16409""
","
","","","","","","","","","","","","","","","","","","","","","",""
"d3-instructions","10","91134","0.0-10.0","2282","4988","23","Female","false","false","false","false","""event"",""trial"",""time""
""fullscreenenter"",""5"",""16409""
","
","
","""event"",""trial"",""time""
""fullscreenenter"",""5"",""16409""
","
","","","","","","","","","","","","","","","","","","","","","",""
"d3-animate-choice","11","94323","0.0-11.0","2282","4988","23","Female","false","false","false","false","""event"",""trial"",""time""
""fullscreenenter"",""5"",""16409""
","
","
","""event"",""trial"",""time""
""fullscreenenter"",""5"",""16409""
","
","1173.300000011921","","49","","","3000","1","","","images/tutgreenplanet.jpg","images/tutalien1","images/tutalien2","null","images/tutalien2","","NA","practice","null","","","",""
"d3-animate-choice","12","97154","0.0-12.0","2282","4988","23","Female","false","false","false","false","""event"",""trial"",""time""
""fullscreenenter"",""5"",""16409""
","
","
","""event"",""trial"",""time""
""fullscreenenter"",""5"",""16409""
","
","819.8000000119209","","48","","","3000","1","","","images/tutgreenplanet.jpg","images/tutalien1","images/tutalien2","null","images/tutalien1","","NA","practice","null","","","",""
"d3-animate-choice","13","100227","0.0-13.0","2282","4988","23","Female","false","false","false","false","""event"",""trial"",""time""
""fullscreenenter"",""5"",""16409""
","
","
","""event"",""trial"",""time""
""fullscreenenter"",""5"",""16409""
","
","1056.8999999761581","","49","","","3000","1","","","images/tutgreenplanet.jpg","images/tutalien1","images/tutalien2","null","images/tutalien2","","NA","practice","null","","","",""
"d3-animate-choice","14","104251","0.0-14.0","2282","4988","23","Female","false","false","false","false","""event"",""trial"",""time""
""fullscreenenter"",""5"",""16409""
","
","
","""event"",""trial"",""time""
""fullscreenenter"",""5"",""16409""
","
","2011.5","","48","","","3000","1","","","images/tutgreenplanet.jpg","images/tutalien1","images/tutalien2","null","images/tutalien1","","NA","practice","null","","","",""
"d3-instructions","15","111648","0.0-15.0","2282","4988","23","Female","false","false","false","false","""event"",""trial"",""time""
""fullscreenenter"",""5"",""16409""
","
","
","""event"",""trial"",""time""
""fullscreenenter"",""5"",""16409""
","
","","","","","","","","","","","","","","","","","","","","","",""
"d3-instructions","16","119512","0.0-16.0","2282","4988","23","Female","false","false","false","false","""event"",""trial"",""time""
""fullscreenenter"",""5"",""16409""
","
","
","""event"",""trial"",""time""
""fullscreenenter"",""5"",""16409""
","
","","","","","","","","","","","","","","","","","","","","","",""
"d3-instructions","17","130374","0.0-17.0","2282","4988","23","Female","false","false","false","false","""event"",""trial"",""time""
""fullscreenenter"",""5"",""16409""
","
","
","""event"",""trial"",""time""
""fullscreenenter"",""5"",""16409""
","
","","","","","","","","","","","","","","","","","","","","","",""
"d3-instructions","18","144278","0.0-18.0","2282","4988","23","Female","false","false","false","false","""event"",""trial"",""time""
""fullscreenenter"",""5"",""16409""
","
","
","""event"",""trial"",""time""
""fullscreenenter"",""5"",""16409""
","
","","","","","","","","","","","","","","","","","","","","","",""
"d3-instructions","19","162779","0.0-19.0","2282","4988","23","Female","false","false","false","false","""event"",""trial"",""time""
""fullscreenenter"",""5"",""16409""
","
","
","""event"",""trial"",""time""
""fullscreenenter"",""5"",""16409""
","
","","","","","","","","","","","","","","","","","","","","","",""
"d3-animate-choice","20","165402","0.0-20.0","2282","4988","23","Female","false","false","false","false","""event"",""trial"",""time""
""fullscreenenter"",""5"",""16409""
","
","
","""event"",""trial"",""time""
""fullscreenenter"",""5"",""16409""
","
","615","","49","","","3000","1","","","images/tutyellowplanet.jpg","null","images/tutalien3","null","images/tutalien3","images/t.png","NA","practice","null","","","",""
"d3-animate-choice","21","167834","0.0-21.0","2282","4988","23","Female","false","false","false","false","""event"",""trial"",""time""
""fullscreenenter"",""5"",""16409""
","
","
","""event"",""trial"",""time""
""fullscreenenter"",""5"",""16409""
","
","423.30000001192093","","49","","","3000","1","","","images/tutyellowplanet.jpg","null","images/tutalien3","null","images/tutalien3","images/t.png","NA","practice","null","","","",""
"d3-animate-choice","22","170178","0.0-22.0","2282","4988","23","Female","false","false","false","false","""event"",""trial"",""time""
""fullscreenenter"",""5"",""16409""
","
","
","""event"",""trial"",""time""
""fullscreenenter"",""5"",""16409""
","
","333","","49","","","3000","1","","","images/tutyellowplanet.jpg","null","images/tutalien3","null","images/tutalien3","images/t.png","NA","practice","null","","","",""
"d3-animate-choice","23","172490","0.0-23.0","2282","4988","23","Female","false","false","false","false","""event"",""trial"",""time""
""fullscreenenter"",""5"",""16409""
","
","
","""event"",""trial"",""time""
""fullscreenenter"",""5"",""16409""
","
","295.0999999642372","","49","","","3000","1","","","images/tutyellowplanet.jpg","null","images/tutalien3","null","images/tutalien3","images/t.png","NA","practice","null","","","",""
"d3-animate-choice","24","174762","0.0-24.0","2282","4988","23","Female","false","false","false","false","""event"",""trial"",""time""
""fullscreenenter"",""5"",""16409""
","
","
","""event"",""trial"",""time""
""fullscreenenter"",""5"",""16409""
","
","256.10000002384186","","49","","","3000","1","","","images/tutyellowplanet.jpg","null","images/tutalien3","null","images/tutalien3","images/t.png","NA","practice","null","","","",""
"d3-animate-choice","25","177787","0.0-25.0","2282","4988","23","Female","false","false","false","false","""event"",""trial"",""time""
""fullscreenenter"",""5"",""16409""
","
","
","""event"",""trial"",""time""
""fullscreenenter"",""5"",""16409""
","
","1010","","49","","","3000","1","","","images/tutyellowplanet.jpg","null","images/tutalien3","null","images/tutalien3","images/t.png","NA","practice","null","","","",""
"d3-animate-choice","26","180211","0.0-26.0","2282","4988","23","Female","false","false","false","false","""event"",""trial"",""time""
""fullscreenenter"",""5"",""16409""
","
","
","""event"",""trial"",""time""
""fullscreenenter"",""5"",""16409""
","
","414.89999997615814","","49","","","3000","1","","","images/tutyellowplanet.jpg","null","images/tutalien3","null","images/tutalien3","images/t.png","NA","practice","null","","","",""
"d3-animate-choice","27","182658","0.0-27.0","2282","4988","23","Female","false","false","false","false","""event"",""trial"",""time""
""fullscreenenter"",""5"",""16409""
","
","
","""event"",""trial"",""time""
""fullscreenenter"",""5"",""16409""
","
","432.5","","49","","","3000","1","","","images/tutyellowplanet.jpg","null","images/tutalien3","null","images/tutalien3","images/t.png","NA","practice","null","","","",""
"d3-animate-choice","28","184890","0.0-28.0","2282","4988","23","Female","false","false","false","false","""event"",""trial"",""time""
""fullscreenenter"",""5"",""16409""
","
","
","""event"",""trial"",""time""
""fullscreenenter"",""5"",""16409""
","
","218","","49","","","3000","1","","","images/tutyellowplanet.jpg","null","images/tutalien3","null","images/tutalien3","images/t.png","NA","practice","null","","","",""
"d3-animate-choice","29","187178","0.0-29.0","2282","4988","23","Female","false","false","false","false","""event"",""trial"",""time""
""fullscreenenter"",""5"",""16409""
","
","
","""event"",""trial"",""time""
""fullscreenenter"",""5"",""16409""
","
","270.9000000357628","","49","","","3000","1","","","images/tutyellowplanet.jpg","null","images/tutalien3","null","images/tutalien3","images/t.png","NA","practice","null","","","",""
"d3-instructions","30","195558","0.0-30.0","2282","4988","23","Female","false","false","false","false","""event"",""trial"",""time""
""fullscreenenter"",""5"",""16409""
","
","
","""event"",""trial"",""time""
""fullscreenenter"",""5"",""16409""
","
","","","","","","","","","","","","","","","","","","","","","",""
"d3-instructions","31","206518","0.0-31.0","2282","4988","23","Female","false","false","false","false","""event"",""trial"",""time""
""fullscreenenter"",""5"",""16409""
","
","
","""event"",""trial"",""time""
""fullscreenenter"",""5"",""16409""
","
","","","","","","","","","","","","","","","","","","","","","",""
"d3-instructions","32","220289","0.0-32.0","2282","4988","23","Female","false","false","false","false","""event"",""trial"",""time""
""fullscreenenter"",""5"",""16409""
","
","
","""event"",""trial"",""time""
""fullscreenenter"",""5"",""16409""
","
","","","","","","","","","","","","","","","","","","","","","",""
"d3-instructions","33","235418","0.0-33.0","2282","4988","23","Female","false","false","false","false","""event"",""trial"",""time""
""fullscreenenter"",""5"",""16409""
","
","
","""event"",""trial"",""time""
""fullscreenenter"",""5"",""16409""
","
","","","","","","","","","","","","","","","","","","","","","",""
"d3-animate-choice","34","239379","0.0-34.0","2282","4988","23","Female","false","false","false","false","""event"",""trial"",""time""
""fullscreenenter"",""5"",""16409""
","
","
","""event"",""trial"",""time""
""fullscreenenter"",""5"",""16409""
","
","1953.1000000238419","","49","","","3000","1","","","images/tutgreenplanet.jpg","images/tutalien1","images/tutalien2","null","images/tutalien2","images/nothing.png","NA","practice","null","","","",""
"d3-animate-choice","35","241978","0.0-35.0","2282","4988","23","Female","false","false","false","false","""event"",""trial"",""time""
""fullscreenenter"",""5"",""16409""
","
","
","""event"",""trial"",""time""
""fullscreenenter"",""5"",""16409""
","
","587","","48","","","3000","1","","","images/tutgreenplanet.jpg","images/tutalien1","images/tutalien2","null","images/tutalien1","images/nothing.png","NA","practice","null","","","",""
"d3-animate-choice","36","244378","0.0-36.0","2282","4988","23","Female","false","false","false","false","""event"",""trial"",""time""
""fullscreenenter"",""5"",""16409""
","
","
","""event"",""trial"",""time""
""fullscreenenter"",""5"",""16409""
","
","388.5","","49","","","3000","1","","","images/tutgreenplanet.jpg","images/tutalien1","images/tutalien2","null","images/tutalien2","images/t.png","NA","practice","null","","","",""
"d3-animate-choice","37","246963","0.0-37.0","2282","4988","23","Female","false","false","false","false","""event"",""trial"",""time""
""fullscreenenter"",""5"",""16409""
","
","
","""event"",""trial"",""time""
""fullscreenenter"",""5"",""16409""
","
","572.8000000119209","","49","","","3000","1","","","images/tutgreenplanet.jpg","images/tutalien1","images/tutalien2","null","images/tutalien2","images/t.png","NA","practice","null","","","",""
"d3-animate-choice","38","249386","0.0-38.0","2282","4988","23","Female","false","false","false","false","""event"",""trial"",""time""
""fullscreenenter"",""5"",""16409""
","
","
","""event"",""trial"",""time""
""fullscreenenter"",""5"",""16409""
","
","411.19999998807907","","49","","","3000","1","","","images/tutgreenplanet.jpg","images/tutalien1","images/tutalien2","null","images/tutalien2","images/t.png","NA","practice","null","","","",""
"d3-animate-choice","39","251834","0.0-39.0","2282","4988","23","Female","false","false","false","false","""event"",""trial"",""time""
""fullscreenenter"",""5"",""16409""
","
","
","""event"",""trial"",""time""
""fullscreenenter"",""5"",""16409""
","
","434.5999999642372","","49","","","3000","1","","","images/tutgreenplanet.jpg","images/tutalien1","images/tutalien2","null","images/tutalien2","images/t.png","NA","practice","null","","","",""
"d3-animate-choice","40","254172","0.0-40.0","2282","4988","23","Female","false","false","false","false","""event"",""trial"",""time""
""fullscreenenter"",""5"",""16409""
","
","
","""event"",""trial"",""time""
""fullscreenenter"",""5"",""16409""
","
","318.5","","49","","","3000","1","","","images/tutgreenplanet.jpg","images/tutalien1","images/tutalien2","null","images/tutalien2","images/nothing.png","NA","practice","null","","","",""
"d3-animate-choice","41","256674","0.0-41.0","2282","4988","23","Female","false","false","false","false","""event"",""trial"",""time""
""fullscreenenter"",""5"",""16409""
","
","
","""event"",""trial"",""time""
""fullscreenenter"",""5"",""16409""
","
","486.30000001192093","","49","","","3000","1","","","images/tutgreenplanet.jpg","images/tutalien1","images/tutalien2","null","images/tutalien2","images/t.png","NA","practice","null","","","",""
"d3-animate-choice","42","259146","0.0-42.0","2282","4988","23","Female","false","false","false","false","""event"",""trial"",""time""
""fullscreenenter"",""5"",""16409""
","
","
","""event"",""trial"",""time""
""fullscreenenter"",""5"",""16409""
","
","461.2000000476837","","49","","","3000","1","","","images/tutgreenplanet.jpg","images/tutalien1","images/tutalien2","null","images/tutalien2","images/t.png","NA","practice","null","","","",""
"d3-animate-choice","43","262474","0.0-43.0","2282","4988","23","Female","false","false","false","false","""event"",""trial"",""time""
""fullscreenenter"",""5"",""16409""
","
","
","""event"",""trial"",""time""
""fullscreenenter"",""5"",""16409""
","
","1315.199999988079","","49","","","3000","1","","","images/tutgreenplanet.jpg","images/tutalien1","images/tutalien2","null","images/tutalien2","images/t.png","NA","practice","null","","","",""
"d3-instructions","44","277694","0.0-44.0","2282","4988","23","Female","false","false","false","false","""event"",""trial"",""time""
""fullscreenenter"",""5"",""16409""
","
","
","""event"",""trial"",""time""
""fullscreenenter"",""5"",""16409""
","
","","","","","","","","","","","","","","","","","","","","","",""
"d3-instructions","45","289280","0.0-45.0","2282","4988","23","Female","false","false","false","false","""event"",""trial"",""time""
""fullscreenenter"",""5"",""16409""
","
","
","""event"",""trial"",""time""
""fullscreenenter"",""5"",""16409""
","
","","","","","","","","","","","","","","","","","","","","","",""
"d3-instructions","46","300295","0.0-46.0","2282","4988","23","Female","false","false","false","false","""event"",""trial"",""time""
""fullscreenenter"",""5"",""16409""
","
","
","""event"",""trial"",""time""
""fullscreenenter"",""5"",""16409""
","
","","","","","","","","","","","","","","","","","","","","","",""
"d3-instructions","47","322746","0.0-47.0","2282","4988","23","Female","false","false","false","false","""event"",""trial"",""time""
""fullscreenenter"",""5"",""16409""
","
","
","""event"",""trial"",""time""
""fullscreenenter"",""5"",""16409""
","
","","","","","","","","","","","","","","","","","","","","","",""
"d3-instructions","48","330165","0.0-48.0","2282","4988","23","Female","false","false","false","false","""event"",""trial"",""time""
""fullscreenenter"",""5"",""16409""
","
","
","""event"",""trial"",""time""
""fullscreenenter"",""5"",""16409""
","
","","","","","","","","","","","","","","","","","","","","","",""
"d3-instructions","49","341864","0.0-49.0","2282","4988","23","Female","false","false","false","false","""event"",""trial"",""time""
""fullscreenenter"",""5"",""16409""
","
","
","""event"",""trial"",""time""
""fullscreenenter"",""5"",""16409""
","
","","","","","","","","","","","","","","","","","","","","","",""
"d3-instructions","50","351554","0.0-50.0","2282","4988","23","Female","false","false","false","false","""event"",""trial"",""time""
""fullscreenenter"",""5"",""16409""
","
","
","""event"",""trial"",""time""
""fullscreenenter"",""5"",""16409""
","
","","","","","","","","","","","","","","","","","","","","","",""
"d3-instructions","51","359797","0.0-51.0","2282","4988","23","Female","false","false","false","false","""event"",""trial"",""time""
""fullscreenenter"",""5"",""16409""
","
","
","""event"",""trial"",""time""
""fullscreenenter"",""5"",""16409""
","
","","","","","","","","","","","","","","","","","","","","","",""
"d3-instructions","52","363814","0.0-52.0","2282","4988","23","Female","false","false","false","false","""event"",""trial"",""time""
""fullscreenenter"",""5"",""16409""
","
","
","""event"",""trial"",""time""
""fullscreenenter"",""5"",""16409""
","
","","","","","","","","","","","","","","","","","","","","","",""
"d3-instructions","53","376585","0.0-53.0","2282","4988","23","Female","false","false","false","false","""event"",""trial"",""time""
""fullscreenenter"",""5"",""16409""
","
","
","""event"",""trial"",""time""
""fullscreenenter"",""5"",""16409""
","
","","","","","","","","","","","","","","","","","","","","","",""
"d3-instructions","54","390319","0.0-54.0","2282","4988","23","Female","false","false","false","false","""event"",""trial"",""time""
""fullscreenenter"",""5"",""16409""
","
","
","""event"",""trial"",""time""
""fullscreenenter"",""5"",""16409""
","
","","","","","","","","","","","","","","","","","","","","","",""
"d3-instructions","55","403378","0.0-55.0","2282","4988","23","Female","false","false","false","false","""event"",""trial"",""time""
""fullscreenenter"",""5"",""16409""
","
","
","""event"",""trial"",""time""
""fullscreenenter"",""5"",""16409""
","
","","","","","","","","","","","","","","","","","","","","","",""
"d3-instructions","56","414097","0.0-56.0","2282","4988","23","Female","false","false","false","false","""event"",""trial"",""time""
""fullscreenenter"",""5"",""16409""
","
","
","""event"",""trial"",""time""
""fullscreenenter"",""5"",""16409""
","
","","","","","","","","","","","","","","","","","","","","","",""
"d3-instructions","57","425000","0.0-57.0","2282","4988","23","Female","false","false","false","false","""event"",""trial"",""time""
""fullscreenenter"",""5"",""16409""
","
","
","""event"",""trial"",""time""
""fullscreenenter"",""5"",""16409""
","
","","","","","","","","","","","","","","","","","","","","","",""
"d3-instructions","58","446935","0.0-58.0","2282","4988","23","Female","false","false","false","false","""event"",""trial"",""time""
""fullscreenenter"",""5"",""16409""
","
","
","""event"",""trial"",""time""
""fullscreenenter"",""5"",""16409""
","
","","","","","","","","","","","","","","","","","","","","","",""
"d3-instructions","59","455374","0.0-59.0","2282","4988","23","Female","false","false","false","false","""event"",""trial"",""time""
""fullscreenenter"",""5"",""16409""
","
","
","""event"",""trial"",""time""
""fullscreenenter"",""5"",""16409""
","
","","","","","","","","","","","","","","","","","","","","","",""
"d3-instructions","60","462387","0.0-60.0","2282","4988","23","Female","false","false","false","false","""event"",""trial"",""time""
""fullscreenenter"",""5"",""16409""
","
","
","""event"",""trial"",""time""
""fullscreenenter"",""5"",""16409""
","
","","","","","","","","","","","","","","","","","","","","","",""
"d3-animate-choice","61","465387","0.0-61.0-0.0","2282","4988","23","Female","false","false","false","false","""event"",""trial"",""time""
""fullscreenenter"",""5"",""16409""
","
","
","""event"",""trial"",""time""
""fullscreenenter"",""5"",""16409""
","
","985.8000000119209","","49","","","3000","1","","","images/earth.jpg","images/tutrocket1","images/tutrocket2","null","images/tutrocket2","","1","practice","null","1","","",""
"d3-animate-choice","62","469170","0.0-61.0-1.0","2282","4988","23","Female","false","false","false","false","""event"",""trial"",""time""
""fullscreenenter"",""5"",""16409""
","
","
","""event"",""trial"",""time""
""fullscreenenter"",""5"",""16409""
","
","1762.199999988079","","49","","","3000","1","","","images/tutgreenplanet.jpg","images/tutalien2","images/tutalien1","images/tutrocket2","images/tutalien1","images/nothing.png","2","practice","true","1","common","0","2022-12-16 01:54:32.603"
"two-step-fixation","63","470187","0.0-61.0-2.0","2282","4988","23","Female","false","false","false","false","""event"",""trial"",""time""
""fullscreenenter"",""5"",""16409""
","
","
","""event"",""trial"",""time""
""fullscreenenter"",""5"",""16409""
","
","","images/earth.jpg","","","","","","","","","","","","","","fixation","","","","","",""
"d3-animate-choice","64","473131","0.0-61.0-0.1","2282","4988","23","Female","false","false","false","false","""event"",""trial"",""time""
""fullscreenenter"",""5"",""16409""
","
","
","""event"",""trial"",""time""
""fullscreenenter"",""5"",""16409""
","
","931.8999999761581","","49","","","3000","1","","","images/earth.jpg","images/tutrocket1","images/tutrocket2","null","images/tutrocket2","","1","practice","null","1","","",""
"d3-animate-choice","65","476931","0.0-61.0-1.1","2282","4988","23","Female","false","false","false","false","""event"",""trial"",""time""
""fullscreenenter"",""5"",""16409""
","
","
","""event"",""trial"",""time""
""fullscreenenter"",""5"",""16409""
","
","1779.0999999642372","","49","","","3000","1","","","images/tutyellowplanet.jpg","images/tutalien4","images/tutalien3","images/tutrocket2","images/tutalien3","images/nothing.png","2","practice","false","1","rare","0","2022-12-16 01:54:40.362"
"two-step-fixation","66","477943","0.0-61.0-2.1","2282","4988","23","Female","false","false","false","false","""event"",""trial"",""time""
""fullscreenenter"",""5"",""16409""
","
","
","""event"",""trial"",""time""
""fullscreenenter"",""5"",""16409""
","
","","images/earth.jpg","","","","","","","","","","","","","","fixation","","","","","",""
"d3-animate-choice","67","480507","0.0-61.0-0.2","2282","4988","23","Female","false","false","false","false","""event"",""trial"",""time""
""fullscreenenter"",""5"",""16409""
","
","
","""event"",""trial"",""time""
""fullscreenenter"",""5"",""16409""
","
","546","","49","","","3000","1","","","images/earth.jpg","images/tutrocket1","images/tutrocket2","null","images/tutrocket2","","1","practice","null","1","","",""
"d3-animate-choice","68","483746","0.0-61.0-1.2","2282","4988","23","Female","false","false","false","false","""event"",""trial"",""time""
""fullscreenenter"",""5"",""16409""
","
","
","""event"",""trial"",""time""
""fullscreenenter"",""5"",""16409""
","
","1225","","48","","","3000","1","","","images/tutyellowplanet.jpg","images/tutalien4","images/tutalien3","images/tutrocket2","images/tutalien4","images/nothing.png","2","practice","false","2","rare","0","2022-12-16 01:54:47.178"
"two-step-fixation","69","484763","0.0-61.0-2.2","2282","4988","23","Female","false","false","false","false","""event"",""trial"",""time""
""fullscreenenter"",""5"",""16409""
","
","
","""event"",""trial"",""time""
""fullscreenenter"",""5"",""16409""
","
","","images/earth.jpg","","","","","","","","","","","","","","fixation","","","","","",""
"d3-animate-choice","70","487254","0.0-61.0-0.3","2282","4988","23","Female","false","false","false","false","""event"",""trial"",""time""
""fullscreenenter"",""5"",""16409""
","
","
","""event"",""trial"",""time""
""fullscreenenter"",""5"",""16409""
","
","478.10000002384186","","49","","","3000","1","","","images/earth.jpg","images/tutrocket1","images/tutrocket2","null","images/tutrocket2","","1","practice","null","1","","",""
"d3-animate-choice","71","490787","0.0-61.0-1.3","2282","4988","23","Female","false","false","false","false","""event"",""trial"",""time""
""fullscreenenter"",""5"",""16409""
","
","
","""event"",""trial"",""time""
""fullscreenenter"",""5"",""16409""
","
","1511.6000000238419","","49","","","3000","1","","","images/tutgreenplanet.jpg","images/tutalien2","images/tutalien1","images/tutrocket2","images/tutalien1","images/t.png","2","practice","true","1","common","1","2022-12-16 01:54:54.218"
"two-step-fixation","72","491802","0.0-61.0-2.3","2282","4988","23","Female","false","false","false","false","""event"",""trial"",""time""
""fullscreenenter"",""5"",""16409""
","
","
","""event"",""trial"",""time""
""fullscreenenter"",""5"",""16409""
","
","","images/earth.jpg","","","","","","","","","","","","","","fixation","","","","","",""
"d3-animate-choice","73","494596","0.0-61.0-0.4","2282","4988","23","Female","false","false","false","false","""event"",""trial"",""time""
""fullscreenenter"",""5"",""16409""
","
","
","""event"",""trial"",""time""
""fullscreenenter"",""5"",""16409""
","
","778.6000000238419","","49","","","3000","1","","","images/earth.jpg","images/tutrocket1","images/tutrocket2","null","images/tutrocket2","","1","practice","null","1","","",""
"d3-animate-choice","74","497426","0.0-61.0-1.4","2282","4988","23","Female","false","false","false","false","""event"",""trial"",""time""
""fullscreenenter"",""5"",""16409""
","
","
","""event"",""trial"",""time""
""fullscreenenter"",""5"",""16409""
","
","810.6999999880791","","48","","","3000","1","","","images/tutyellowplanet.jpg","images/tutalien4","images/tutalien3","images/tutrocket2","images/tutalien4","images/nothing.png","2","practice","false","2","rare","0","2022-12-16 01:55:00.858"
"two-step-fixation","75","498442","0.0-61.0-2.4","2282","4988","23","Female","false","false","false","false","""event"",""trial"",""time""
""fullscreenenter"",""5"",""16409""
","
","
","""event"",""trial"",""time""
""fullscreenenter"",""5"",""16409""
","
","","images/earth.jpg","","","","","","","","","","","","","","fixation","","","","","",""
"d3-animate-choice","76","501828","0.0-61.0-0.5","2282","4988","23","Female","false","false","false","false","""event"",""trial"",""time""
""fullscreenenter"",""5"",""16409""
","
","
","""event"",""trial"",""time""
""fullscreenenter"",""5"",""16409""
","
","1374.199999988079","","49","","","3000","1","","","images/earth.jpg","images/tutrocket1","images/tutrocket2","null","images/tutrocket2","","1","practice","null","1","","",""
"d3-animate-choice","77","504947","0.0-61.0-1.5","2282","4988","23","Female","false","false","false","false","""event"",""trial"",""time""
""fullscreenenter"",""5"",""16409""
","
","
","""event"",""trial"",""time""
""fullscreenenter"",""5"",""16409""
","
","1091.1000000238419","","48","","","3000","1","","","images/tutgreenplanet.jpg","images/tutalien2","images/tutalien1","images/tutrocket2","images/tutalien2","images/nothing.png","2","practice","true","2","common","0","2022-12-16 01:55:08.378"
"two-step-fixation","78","505963","0.0-61.0-2.5","2282","4988","23","Female","false","false","false","false","""event"",""trial"",""time""
""fullscreenenter"",""5"",""16409""
","
","
","""event"",""trial"",""time""
""fullscreenenter"",""5"",""16409""
","
","","images/earth.jpg","","","","","","","","","","","","","","fixation","","","","","",""
"d3-animate-choice","79","508660","0.0-61.0-0.6","2282","4988","23","Female","false","false","false","false","""event"",""trial"",""time""
""fullscreenenter"",""5"",""16409""
","
","
","""event"",""trial"",""time""
""fullscreenenter"",""5"",""16409""
","
","683.2999999523163","","48","","","3000","1","","","images/earth.jpg","images/tutrocket1","images/tutrocket2","null","images/tutrocket1","","1","practice","null","2","","",""
"d3-animate-choice","80","511172","0.0-61.0-1.6","2282","4988","23","Female","false","false","false","false","""event"",""trial"",""time""
""fullscreenenter"",""5"",""16409""
","
","
","""event"",""trial"",""time""
""fullscreenenter"",""5"",""16409""
","
","492.7999999523163","","49","","","3000","1","","","images/tutgreenplanet.jpg","images/tutalien2","images/tutalien1","images/tutrocket1","images/tutalien1","images/t.png","2","practice","false","1","rare","1","2022-12-16 01:55:14.603"
"two-step-fixation","81","512187","0.0-61.0-2.6","2282","4988","23","Female","false","false","false","false","""event"",""trial"",""time""
""fullscreenenter"",""5"",""16409""
","
","
","""event"",""trial"",""time""
""fullscreenenter"",""5"",""16409""
","
","","images/earth.jpg","","","","","","","","","","","","","","fixation","","","","","",""
"d3-animate-choice","82","514650","0.0-61.0-0.7","2282","4988","23","Female","false","false","false","false","""event"",""trial"",""time""
""fullscreenenter"",""5"",""16409""
","
","
","""event"",""trial"",""time""
""fullscreenenter"",""5"",""16409""
","
","444.69999998807907","","48","","","3000","1","","","images/earth.jpg","images/tutrocket1","images/tutrocket2","null","images/tutrocket1","","1","practice","null","2","","",""
"d3-animate-choice","83","518283","0.0-61.0-1.7","2282","4988","23","Female","false","false","false","false","""event"",""trial"",""time""
""fullscreenenter"",""5"",""16409""
","
","
","""event"",""trial"",""time""
""fullscreenenter"",""5"",""16409""
","
","1618.199999988079","","48","","","3000","1","","","images/tutyellowplanet.jpg","images/tutalien4","images/tutalien3","images/tutrocket1","images/tutalien4","images/nothing.png","2","practice","true","2","common","0","2022-12-16 01:55:21.714"
"two-step-fixation","84","519298","0.0-61.0-2.7","2282","4988","23","Female","false","false","false","false","""event"",""trial"",""time""
""fullscreenenter"",""5"",""16409""
","
","
","""event"",""trial"",""time""
""fullscreenenter"",""5"",""16409""
","
","","images/earth.jpg","","","","","","","","","","","","","","fixation","","","","","",""
"d3-animate-choice","85","522203","0.0-61.0-0.8","2282","4988","23","Female","false","false","false","false","""event"",""trial"",""time""
""fullscreenenter"",""5"",""16409""
","
","
","""event"",""trial"",""time""
""fullscreenenter"",""5"",""16409""
","
","891.6000000238419","","48","","","3000","1","","","images/earth.jpg","images/tutrocket1","images/tutrocket2","null","images/tutrocket1","","1","practice","null","2","","",""
"d3-animate-choice","86","525050","0.0-61.0-1.8","2282","4988","23","Female","false","false","false","false","""event"",""trial"",""time""
""fullscreenenter"",""5"",""16409""
","
","
","""event"",""trial"",""time""
""fullscreenenter"",""5"",""16409""
","
","834.6999999880791","","49","","","3000","1","","","images/tutyellowplanet.jpg","images/tutalien4","images/tutalien3","images/tutrocket1","images/tutalien3","images/t.png","2","practice","true","1","common","1","2022-12-16 01:55:28.482"
"two-step-fixation","87","526068","0.0-61.0-2.8","2282","4988","23","Female","false","false","false","false","""event"",""trial"",""time""
""fullscreenenter"",""5"",""16409""
","
","
","""event"",""trial"",""time""
""fullscreenenter"",""5"",""16409""
","
","","images/earth.jpg","","","","","","","","","","","","","","fixation","","","","","",""
"d3-animate-choice","88","528459","0.0-61.0-0.9","2282","4988","23","Female","false","false","false","false","""event"",""trial"",""time""
""fullscreenenter"",""5"",""16409""
","
","
","""event"",""trial"",""time""
""fullscreenenter"",""5"",""16409""
","
","376.9000000357628","","48","","","3000","1","","","images/earth.jpg","images/tutrocket1","images/tutrocket2","null","images/tutrocket1","","1","practice","null","2","","",""
"d3-animate-choice","89","531666","0.0-61.0-1.9","2282","4988","23","Female","false","false","false","false","""event"",""trial"",""time""
""fullscreenenter"",""5"",""16409""
","
","
","""event"",""trial"",""time""
""fullscreenenter"",""5"",""16409""
","
","1195.800000011921","","49","","","3000","1","","","images/tutyellowplanet.jpg","images/tutalien4","images/tutalien3","images/tutrocket1","images/tutalien3","images/nothing.png","2","practice","true","1","common","0","2022-12-16 01:55:35.097"
"two-step-fixation","90","532675","0.0-61.0-2.9","2282","4988","23","Female","false","false","false","false","""event"",""trial"",""time""
""fullscreenenter"",""5"",""16409""
","
","
","""event"",""trial"",""time""
""fullscreenenter"",""5"",""16409""
","
","","images/earth.jpg","","","","","","","","","","","","","","fixation","","","","","",""
"d3-animate-choice","91","534987","0.0-61.0-0.10","2282","4988","23","Female","false","false","false","false","""event"",""trial"",""time""
""fullscreenenter"",""5"",""16409""
","
","
","""event"",""trial"",""time""
""fullscreenenter"",""5"",""16409""
","
","299.19999998807907","","49","","","3000","1","","","images/earth.jpg","images/tutrocket1","images/tutrocket2","null","images/tutrocket2","","1","practice","null","1","","",""
"d3-animate-choice","92","537731","0.0-61.0-1.10","2282","4988","23","Female","false","false","false","false","""event"",""trial"",""time""
""fullscreenenter"",""5"",""16409""
","
","
","""event"",""trial"",""time""
""fullscreenenter"",""5"",""16409""
","
","728.3000000119209","","49","","","3000","1","","","images/tutyellowplanet.jpg","images/tutalien4","images/tutalien3","images/tutrocket2","images/tutalien3","images/t.png","2","practice","false","1","rare","1","2022-12-16 01:55:41.162"
"two-step-fixation","93","538746","0.0-61.0-2.10","2282","4988","23","Female","false","false","false","false","""event"",""trial"",""time""
""fullscreenenter"",""5"",""16409""
","
","
","""event"",""trial"",""time""
""fullscreenenter"",""5"",""16409""
","
","","images/earth.jpg","","","","","","","","","","","","","","fixation","","","","","",""
"d3-animate-choice","94","541371","0.0-61.0-0.11","2282","4988","23","Female","false","false","false","false","""event"",""trial"",""time""
""fullscreenenter"",""5"",""16409""
","
","
","""event"",""trial"",""time""
""fullscreenenter"",""5"",""16409""
","
","610","","49","","","3000","1","","","images/earth.jpg","images/tutrocket1","images/tutrocket2","null","images/tutrocket2","","1","practice","null","1","","",""
"d3-animate-choice","95","543907","0.0-61.0-1.11","2282","4988","23","Female","false","false","false","false","""event"",""trial"",""time""
""fullscreenenter"",""5"",""16409""
","
","
","""event"",""trial"",""time""
""fullscreenenter"",""5"",""16409""
","
","519.1999999880791","","49","","","3000","1","","","images/tutyellowplanet.jpg","images/tutalien4","images/tutalien3","images/tutrocket2","images/tutalien3","images/nothing.png","2","practice","false","1","rare","0","2022-12-16 01:55:47.338"
"two-step-fixation","96","544923","0.0-61.0-2.11","2282","4988","23","Female","false","false","false","false","""event"",""trial"",""time""
""fullscreenenter"",""5"",""16409""
","
","
","""event"",""trial"",""time""
""fullscreenenter"",""5"",""16409""
","
","","images/earth.jpg","","","","","","","","","","","","","","fixation","","","","","",""
"d3-animate-choice","97","547275","0.0-61.0-0.12","2282","4988","23","Female","false","false","false","false","""event"",""trial"",""time""
""fullscreenenter"",""5"",""16409""
","
","
","""event"",""trial"",""time""
""fullscreenenter"",""5"",""16409""
","
","339.2999999523163","","48","","","3000","1","","","images/earth.jpg","images/tutrocket1","images/tutrocket2","null","images/tutrocket1","","1","practice","null","2","","",""
"d3-animate-choice","98","549803","0.0-61.0-1.12","2282","4988","23","Female","false","false","false","false","""event"",""trial"",""time""
""fullscreenenter"",""5"",""16409""
","
","
","""event"",""trial"",""time""
""fullscreenenter"",""5"",""16409""
","
","511.4000000357628","","49","","","3000","1","","","images/tutyellowplanet.jpg","images/tutalien4","images/tutalien3","images/tutrocket1","images/tutalien3","images/nothing.png","2","practice","true","1","common","0","2022-12-16 01:55:53.234"
"two-step-fixation","99","550819","0.0-61.0-2.12","2282","4988","23","Female","false","false","false","false","""event"",""trial"",""time""
""fullscreenenter"",""5"",""16409""
","
","
","""event"",""trial"",""time""
""fullscreenenter"",""5"",""16409""
","
","","images/earth.jpg","","","","","","","","","","","","","","fixation","","","","","",""
"d3-animate-choice","100","553319","0.0-61.0-0.13","2282","4988","23","Female","false","false","false","false","""event"",""trial"",""time""
""fullscreenenter"",""5"",""16409""
","
","
","""event"",""trial"",""time""
""fullscreenenter"",""5"",""16409""
","
","487.89999997615814","","48","","","3000","1","","","images/earth.jpg","images/tutrocket1","images/tutrocket2","null","images/tutrocket1","","1","practice","null","2","","",""
"d3-animate-choice","101","555835","0.0-61.0-1.13","2282","4988","23","Female","false","false","false","false","""event"",""trial"",""time""
""fullscreenenter"",""5"",""16409""
","
","
","""event"",""trial"",""time""
""fullscreenenter"",""5"",""16409""
","
","501.89999997615814","","49","","","3000","1","","","images/tutyellowplanet.jpg","images/tutalien4","images/tutalien3","images/tutrocket1","images/tutalien3","images/nothing.png","2","practice","true","1","common","0","2022-12-16 01:55:59.266"
"two-step-fixation","102","556850","0.0-61.0-2.13","2282","4988","23","Female","false","false","false","false","""event"",""trial"",""time""
""fullscreenenter"",""5"",""16409""
","
","
","""event"",""trial"",""time""
""fullscreenenter"",""5"",""16409""
","
","","images/earth.jpg","","","","","","","","","","","","","","fixation","","","","","",""
"d3-animate-choice","103","559179","0.0-61.0-0.14","2282","4988","23","Female","false","false","false","false","""event"",""trial"",""time""
""fullscreenenter"",""5"",""16409""
","
","
","""event"",""trial"",""time""
""fullscreenenter"",""5"",""16409""
","
","310.5","","48","","","3000","1","","","images/earth.jpg","images/tutrocket1","images/tutrocket2","null","images/tutrocket1","","1","practice","null","2","","",""
"d3-animate-choice","104","561603","0.0-61.0-1.14","2282","4988","23","Female","false","false","false","false","""event"",""trial"",""time""
""fullscreenenter"",""5"",""16409""
","
","
","""event"",""trial"",""time""
""fullscreenenter"",""5"",""16409""
","
","406.5999999642372","","49","","","3000","1","","","images/tutyellowplanet.jpg","images/tutalien4","images/tutalien3","images/tutrocket1","images/tutalien3","images/nothing.png","2","practice","true","1","common","0","2022-12-16 01:56:05.034"
"two-step-fixation","105","562619","0.0-61.0-2.14","2282","4988","23","Female","false","false","false","false","""event"",""trial"",""time""
""fullscreenenter"",""5"",""16409""
","
","
","""event"",""trial"",""time""
""fullscreenenter"",""5"",""16409""
","
","","images/earth.jpg","","","","","","","","","","","","","","fixation","","","","","",""
"d3-animate-choice","106","565141","0.0-61.0-0.15","2282","4988","23","Female","false","false","false","false","""event"",""trial"",""time""
""fullscreenenter"",""5"",""16409""
","
","
","""event"",""trial"",""time""
""fullscreenenter"",""5"",""16409""
","
","509.7000000476837","","48","","","3000","1","","","images/earth.jpg","images/tutrocket1","images/tutrocket2","null","images/tutrocket1","","1","practice","null","2","","",""
"d3-animate-choice","107","568131","0.0-61.0-1.15","2282","4988","23","Female","false","false","false","false","""event"",""trial"",""time""
""fullscreenenter"",""5"",""16409""
","
","
","""event"",""trial"",""time""
""fullscreenenter"",""5"",""16409""
","
","969.6999999880791","","49","","","3000","1","","","images/tutgreenplanet.jpg","images/tutalien2","images/tutalien1","images/tutrocket1","images/tutalien1","images/nothing.png","2","practice","false","1","rare","0","2022-12-16 01:56:11.562"
"two-step-fixation","108","569146","0.0-61.0-2.15","2282","4988","23","Female","false","false","false","false","""event"",""trial"",""time""
""fullscreenenter"",""5"",""16409""
","
","
","""event"",""trial"",""time""
""fullscreenenter"",""5"",""16409""
","
","","images/earth.jpg","","","","","","","","","","","","","","fixation","","","","","",""
"d3-animate-choice","109","571458","0.0-61.0-0.16","2282","4988","23","Female","false","false","false","false","""event"",""trial"",""time""
""fullscreenenter"",""5"",""16409""
","
","
","""event"",""trial"",""time""
""fullscreenenter"",""5"",""16409""
","
","295.69999998807907","","48","","","3000","1","","","images/earth.jpg","images/tutrocket1","images/tutrocket2","null","images/tutrocket1","","1","practice","null","2","","",""
"d3-animate-choice","110","575010","0.0-61.0-1.16","2282","4988","23","Female","false","false","false","false","""event"",""trial"",""time""
""fullscreenenter"",""5"",""16409""
","
","
","""event"",""trial"",""time""
""fullscreenenter"",""5"",""16409""
","
","480","","57","","","3000","1","1533.699999988079","48","images/tutyellowplanet.jpg","images/tutalien4","images/tutalien3","images/tutrocket1","images/tutalien4","images/t.png","2","practice","true","","common","1","2022-12-16 01:56:18.441"
"two-step-fixation","111","576018","0.0-61.0-2.16","2282","4988","23","Female","false","false","false","false","""event"",""trial"",""time""
""fullscreenenter"",""5"",""16409""
","
","
","""event"",""trial"",""time""
""fullscreenenter"",""5"",""16409""
","
","","images/earth.jpg","","","","","","","","","","","","","","fixation","","","","","",""
"d3-animate-choice","112","578442","0.0-61.0-0.17","2282","4988","23","Female","false","false","false","false","""event"",""trial"",""time""
""fullscreenenter"",""5"",""16409""
","
","
","""event"",""trial"",""time""
""fullscreenenter"",""5"",""16409""
","
","410.2000000476837","","48","","","3000","1","","","images/earth.jpg","images/tutrocket1","images/tutrocket2","null","images/tutrocket1","","1","practice","null","2","","",""
"d3-animate-choice","113","580906","0.0-61.0-1.17","2282","4988","23","Female","false","false","false","false","""event"",""trial"",""time""
""fullscreenenter"",""5"",""16409""
","
","
","""event"",""trial"",""time""
""fullscreenenter"",""5"",""16409""
","
","451.39999997615814","","48","","","3000","1","","","images/tutyellowplanet.jpg","images/tutalien4","images/tutalien3","images/tutrocket1","images/tutalien4","images/nothing.png","2","practice","true","2","common","0","2022-12-16 01:56:24.337"
"two-step-fixation","114","581914","0.0-61.0-2.17","2282","4988","23","Female","false","false","false","false","""event"",""trial"",""time""
""fullscreenenter"",""5"",""16409""
","
","
","""event"",""trial"",""time""
""fullscreenenter"",""5"",""16409""
","
","","images/earth.jpg","","","","","","","","","","","","","","fixation","","","","","",""
"d3-animate-choice","115","584258","0.0-61.0-0.18","2282","4988","23","Female","false","false","false","false","""event"",""trial"",""time""
""fullscreenenter"",""5"",""16409""
","
","
","""event"",""trial"",""time""
""fullscreenenter"",""5"",""16409""
","
","333.69999998807907","","48","","","3000","1","","","images/earth.jpg","images/tutrocket1","images/tutrocket2","null","images/tutrocket1","","1","practice","null","2","","",""
"d3-animate-choice","116","586738","0.0-61.0-1.18","2282","4988","23","Female","false","false","false","false","""event"",""trial"",""time""
""fullscreenenter"",""5"",""16409""
","
","
","""event"",""trial"",""time""
""fullscreenenter"",""5"",""16409""
","
","464.39999997615814","","48","","","3000","1","","","images/tutyellowplanet.jpg","images/tutalien4","images/tutalien3","images/tutrocket1","images/tutalien4","images/nothing.png","2","practice","true","2","common","0","2022-12-16 01:56:30.169"
"two-step-fixation","117","587755","0.0-61.0-2.18","2282","4988","23","Female","false","false","false","false","""event"",""trial"",""time""
""fullscreenenter"",""5"",""16409""
","
","
","""event"",""trial"",""time""
""fullscreenenter"",""5"",""16409""
","
","","images/earth.jpg","","","","","","","","","","","","","","fixation","","","","","",""
"d3-animate-choice","118","590042","0.0-61.0-0.19","2282","4988","23","Female","false","false","false","false","""event"",""trial"",""time""
""fullscreenenter"",""5"",""16409""
","
","
","""event"",""trial"",""time""
""fullscreenenter"",""5"",""16409""
","
","273","","49","","","3000","1","","","images/earth.jpg","images/tutrocket1","images/tutrocket2","null","images/tutrocket2","","1","practice","null","1","","",""
"d3-animate-choice","119","593867","0.0-61.0-1.19","2282","4988","23","Female","false","false","false","false","""event"",""trial"",""time""
""fullscreenenter"",""5"",""16409""
","
","
","""event"",""trial"",""time""
""fullscreenenter"",""5"",""16409""
","
","1811.4000000357628","","49","","","3000","1","","","images/tutyellowplanet.jpg","images/tutalien4","images/tutalien3","images/tutrocket2","images/tutalien3","images/nothing.png","2","practice","false","1","rare","0","2022-12-16 01:56:37.298"
"two-step-fixation","120","594881","0.0-61.0-2.19","2282","4988","23","Female","false","false","false","false","""event"",""trial"",""time""
""fullscreenenter"",""5"",""16409""
","
","
","""event"",""trial"",""time""
""fullscreenenter"",""5"",""16409""
","
","","images/earth.jpg","","","","","","","","","","","","","","fixation","","","","","",""
"d3-instructions","121","602663","0.0-62.0","2282","4988","23","Female","false","false","false","false","""event"",""trial"",""time""
""fullscreenenter"",""5"",""16409""
","
","
","""event"",""trial"",""time""
""fullscreenenter"",""5"",""16409""
","
","","","","","","","","","","","","","","","","","","","","","",""
"audio-keyboard-response","122","608109","0.0-63.0","2282","4988","23","Female","false","false","false","false","""event"",""trial"",""time""
""fullscreenenter"",""5"",""16409""
","
","
","""event"",""trial"",""time""
""fullscreenenter"",""5"",""16409""
","
","5440","audio/instructions/treasure_feedback.wav","32","","","","","","","","","","","","","","","","","","",""
"d3-instructions","123","629063","0.0-64.0","2282","4988","23","Female","false","false","false","false","""event"",""trial"",""time""
""fullscreenenter"",""5"",""16409""
","
","
","""event"",""trial"",""time""
""fullscreenenter"",""5"",""16409""
","
","","","","","","","","","","","","","","","","","","","","","",""
"d3-instructions","124","646492","0.0-65.0","2282","4988","23","Female","false","false","false","false","""event"",""trial"",""time""
""fullscreenenter"",""5"",""16409""
","
","
","""event"",""trial"",""time""
""fullscreenenter"",""5"",""16409""
","
","","","","","","","","","","","","","","","","","","","","","",""
"d3-instructions","125","671497","0.0-66.0","2282","4988","23","Female","false","false","false","false","""event"",""trial"",""time""
""fullscreenenter"",""5"",""16409""
","
","
","""event"",""trial"",""time""
""fullscreenenter"",""5"",""16409""
","
","","","","","","","","","","","","","","","","","","","","","",""
"d3-instructions","126","696704","0.0-67.0","2282","4988","23","Female","false","false","false","false","""event"",""trial"",""time""
""fullscreenenter"",""5"",""16409""
","
","
","""event"",""trial"",""time""
""fullscreenenter"",""5"",""16409""
","
","","","","","","","","","","","","","","","","","","","","","",""
"d3-instructions","127","708435","0.0-68.0","2282","4988","23","Female","false","false","false","false","""event"",""trial"",""time""
""fullscreenenter"",""5"",""16409""
","
","
","""event"",""trial"",""time""
""fullscreenenter"",""5"",""16409""
","
","","","","","","","","","","","","","","","","","","","","","",""
"instructions-quiz","128","713612","0.0-69.0","2282","4988","23","Female","false","false","false","false","""event"",""trial"",""time""
""fullscreenenter"",""5"",""16409""
","
","
","""event"",""trial"",""time""
""fullscreenenter"",""5"",""16409""
","
","5168.699999988079","audio/quiz/Q1_Prompt.wav","","1","","","","","","","","","","","","","","","","","",""
"audio-keyboard-response","129","722781","0.0-70.0","2282","4988","23","Female","false","false","false","false","""event"",""trial"",""time""
""fullscreenenter"",""5"",""16409""
","
","
","""event"",""trial"",""time""
""fullscreenenter"",""5"",""16409""
","
","null","audio/quiz/Q1_Correct.wav","null","","","","","","","","","","","","","","","","","","",""
"instructions-quiz","130","739620","0.0-71.0","2282","4988","23","Female","false","false","false","false","""event"",""trial"",""time""
""fullscreenenter"",""5"",""16409""
","
","
","""event"",""trial"",""time""
""fullscreenenter"",""5"",""16409""
","
","16830.399999976158","audio/quiz/Q2_Prompt.wav","","1","","","","","","","","","","","","","","","","","",""
"audio-keyboard-response","131","753703","0.0-72.0","2282","4988","23","Female","false","false","false","false","""event"",""trial"",""time""
""fullscreenenter"",""5"",""16409""
","
","
","""event"",""trial"",""time""
""fullscreenenter"",""5"",""16409""
","
","null","audio/quiz/Q2_Incorrect.wav","null","","","","","","","","","","","","","","","","","","",""
"instructions-quiz","132","759618","0.0-73.0","2282","4988","23","Female","false","false","false","false","""event"",""trial"",""time""
""fullscreenenter"",""5"",""16409""
","
","
","""event"",""trial"",""time""
""fullscreenenter"",""5"",""16409""
","
","5912.200000047684","audio/quiz/Q3_Prompt.wav","","1","","","","","","","","","","","","","","","","","",""
"audio-keyboard-response","133","765426","0.0-74.0","2282","4988","23","Female","false","false","false","false","""event"",""trial"",""time""
""fullscreenenter"",""5"",""16409""
","
","
","""event"",""trial"",""time""
""fullscreenenter"",""5"",""16409""
","
","null","audio/quiz/Q3_Correct.wav","null","","","","","","","","","","","","","","","","","","",""
"d3-instructions","134","842947","0.0-75.0","2282","4988","23","Female","false","false","false","false","""event"",""trial"",""time""
""fullscreenenter"",""5"",""16409""
","
","
","""event"",""trial"",""time""
""fullscreenenter"",""5"",""16409""
","
","","","","","","","","","","","","","","","","","","","","","",""
"d3-animate-choice","135","846243","0.0-76.0-0.0","2282","4988","23","Female","false","false","false","false","""event"",""trial"",""time""
""fullscreenenter"",""5"",""16409""
","
","
","""event"",""trial"",""time""
""fullscreenenter"",""5"",""16409""
","
","1275.699999988079","","49","","","3000","1","","","images/earth.jpg","images/rocket1","images/rocket2","null","images/rocket2","","1","real","null","1","","",""
"d3-animate-choice","136","849571","0.0-76.0-1.0","2282","4988","23","Female","false","false","false","false","""event"",""trial"",""time""
""fullscreenenter"",""5"",""16409""
","
","
","""event"",""trial"",""time""
""fullscreenenter"",""5"",""16409""
","
","1310.5","","49","","","3000","1","","","images/purpleplanet.jpg","images/alien4","images/alien3","images/rocket2","images/alien3","images/t.png","2","real","false","1","rare","1","2022-12-16 02:00:53.002"
"two-step-fixation","137","850587","0.0-76.0-2.0","2282","4988","23","Female","false","false","false","false","""event"",""trial"",""time""
""fullscreenenter"",""5"",""16409""
","
","
","""event"",""trial"",""time""
""fullscreenenter"",""5"",""16409""
","
","","images/earth.jpg","","","","","","","","","","","","","","fixation","","","","","",""
"d3-animate-choice","138","853091","0.0-76.0-0.1","2282","4988","23","Female","false","false","false","false","""event"",""trial"",""time""
""fullscreenenter"",""5"",""16409""
","
","
","""event"",""trial"",""time""
""fullscreenenter"",""5"",""16409""
","
","490.60000002384186","","49","","","3000","1","","","images/earth.jpg","images/rocket1","images/rocket2","null","images/rocket2","","1","real","null","1","","",""
"d3-animate-choice","139","856203","0.0-76.0-1.1","2282","4988","23","Female","false","false","false","false","""event"",""trial"",""time""
""fullscreenenter"",""5"",""16409""
","
","
","""event"",""trial"",""time""
""fullscreenenter"",""5"",""16409""
","
","1102.300000011921","","49","","","3000","1","","","images/redplanet1.jpg","images/alien2","images/alien1","images/rocket2","images/alien1","images/t.png","2","real","true","1","common","1","2022-12-16 02:00:59.634"
"two-step-fixation","140","857219","0.0-76.0-2.1","2282","4988","23","Female","false","false","false","false","""event"",""trial"",""time""
""fullscreenenter"",""5"",""16409""
","
","
","""event"",""trial"",""time""
""fullscreenenter"",""5"",""16409""
","
","","images/earth.jpg","","","","","","","","","","","","","","fixation","","","","","",""
"d3-animate-choice","141","859531","0.0-76.0-0.2","2282","4988","23","Female","false","false","false","false","""event"",""trial"",""time""
""fullscreenenter"",""5"",""16409""
","
","
","""event"",""trial"",""time""
""fullscreenenter"",""5"",""16409""
","
","296.0999999642372","","49","","","3000","1","","","images/earth.jpg","images/rocket1","images/rocket2","null","images/rocket2","","1","real","null","1","","",""
"d3-animate-choice","142","862275","0.0-76.0-1.2","2282","4988","23","Female","false","false","false","false","""event"",""trial"",""time""
""fullscreenenter"",""5"",""16409""
","
","
","""event"",""trial"",""time""
""fullscreenenter"",""5"",""16409""
","
","727.8000000119209","","49","","","3000","1","","","images/redplanet1.jpg","images/alien2","images/alien1","images/rocket2","images/alien1","images/nothing.png","2","real","true","1","common","0","2022-12-16 02:01:05.706"
"two-step-fixation","143","863291","0.0-76.0-2.2","2282","4988","23","Female","false","false","false","false","""event"",""trial"",""time""
""fullscreenenter"",""5"",""16409""
","
","
","""event"",""trial"",""time""
""fullscreenenter"",""5"",""16409""
","
","","images/earth.jpg","","","","","","","","","","","","","","fixation","","","","","",""
"d3-animate-choice","144","865707","0.0-76.0-0.3","2282","4988","23","Female","false","false","false","false","""event"",""trial"",""time""
""fullscreenenter"",""5"",""16409""
","
","
","""event"",""trial"",""time""
""fullscreenenter"",""5"",""16409""
","
","400","","49","","","3000","1","","","images/earth.jpg","images/rocket1","images/rocket2","null","images/rocket2","","1","real","null","1","","",""
"d3-animate-choice","145","868236","0.0-76.0-1.3","2282","4988","23","Female","false","false","false","false","""event"",""trial"",""time""
""fullscreenenter"",""5"",""16409""
","
","
","""event"",""trial"",""time""
""fullscreenenter"",""5"",""16409""
","
","513.3000000119209","","49","","","3000","1","","","images/redplanet1.jpg","images/alien2","images/alien1","images/rocket2","images/alien1","images/nothing.png","2","real","true","1","common","0","2022-12-16 02:01:11.667"
"two-step-fixation","146","869250","0.0-76.0-2.3","2282","4988","23","Female","false","false","false","false","""event"",""trial"",""time""
""fullscreenenter"",""5"",""16409""
","
","
","""event"",""trial"",""time""
""fullscreenenter"",""5"",""16409""
","
","","images/earth.jpg","","","","","","","","","","","","","","fixation","","","","","",""
"d3-animate-choice","147","871547","0.0-76.0-0.4","2282","4988","23","Female","false","false","false","false","""event"",""trial"",""time""
""fullscreenenter"",""5"",""16409""
","
","
","""event"",""trial"",""time""
""fullscreenenter"",""5"",""16409""
","
","286.5999999642372","","49","","","3000","1","","","images/earth.jpg","images/rocket1","images/rocket2","null","images/rocket2","","1","real","null","1","","",""
"d3-animate-choice","148","874003","0.0-76.0-1.4","2282","4988","23","Female","false","false","false","false","""event"",""trial"",""time""
""fullscreenenter"",""5"",""16409""
","
","
","""event"",""trial"",""time""
""fullscreenenter"",""5"",""16409""
","
","434","","48","","","3000","1","","","images/redplanet1.jpg","images/alien2","images/alien1","images/rocket2","images/alien2","images/nothing.png","2","real","true","2","common","0","2022-12-16 02:01:17.435"
"two-step-fixation","149","875019","0.0-76.0-2.4","2282","4988","23","Female","false","false","false","false","""event"",""trial"",""time""
""fullscreenenter"",""5"",""16409""
","
","
","""event"",""trial"",""time""
""fullscreenenter"",""5"",""16409""
","
","","images/earth.jpg","","","","","","","","","","","","","","fixation","","","","","",""
"d3-animate-choice","150","877331","0.0-76.0-0.5","2282","4988","23","Female","false","false","false","false","""event"",""trial"",""time""
""fullscreenenter"",""5"",""16409""
","
","
","""event"",""trial"",""time""
""fullscreenenter"",""5"",""16409""
","
","296.69999998807907","","49","","","3000","1","","","images/earth.jpg","images/rocket1","images/rocket2","null","images/rocket2","","1","real","null","1","","",""
"d3-animate-choice","151","880659","0.0-76.0-1.5","2282","4988","23","Female","false","false","false","false","""event"",""trial"",""time""
""fullscreenenter"",""5"",""16409""
","
","
","""event"",""trial"",""time""
""fullscreenenter"",""5"",""16409""
","
","1306.7999999523163","","49","","","3000","1","","","images/purpleplanet.jpg","images/alien4","images/alien3","images/rocket2","images/alien3","images/t.png","2","real","false","1","rare","1","2022-12-16 02:01:24.090"
"two-step-fixation","152","881675","0.0-76.0-2.5","2282","4988","23","Female","false","false","false","false","""event"",""trial"",""time""
""fullscreenenter"",""5"",""16409""
","
","
","""event"",""trial"",""time""
""fullscreenenter"",""5"",""16409""
","
","","images/earth.jpg","","","","","","","","","","","","","","fixation","","","","","",""
"d3-animate-choice","153","884203","0.0-76.0-0.6","2282","4988","23","Female","false","false","false","false","""event"",""trial"",""time""
""fullscreenenter"",""5"",""16409""
","
","
","""event"",""trial"",""time""
""fullscreenenter"",""5"",""16409""
","
","514.0999999642372","","49","","","3000","1","","","images/earth.jpg","images/rocket1","images/rocket2","null","images/rocket2","","1","real","null","1","","",""
"d3-animate-choice","154","886626","0.0-76.0-1.6","2282","4988","23","Female","false","false","false","false","""event"",""trial"",""time""
""fullscreenenter"",""5"",""16409""
","
","
","""event"",""trial"",""time""
""fullscreenenter"",""5"",""16409""
","
","408.19999998807907","","48","","","3000","1","","","images/purpleplanet.jpg","images/alien4","images/alien3","images/rocket2","images/alien4","images/nothing.png","2","real","false","2","rare","0","2022-12-16 02:01:30.057"
"two-step-fixation","155","887635","0.0-76.0-2.6","2282","4988","23","Female","false","false","false","false","""event"",""trial"",""time""
""fullscreenenter"",""5"",""16409""
","
","
","""event"",""trial"",""time""
""fullscreenenter"",""5"",""16409""
","
","","images/earth.jpg","","","","","","","","","","","","","","fixation","","","","","",""
"d3-animate-choice","156","890107","0.0-76.0-0.7","2282","4988","23","Female","false","false","false","false","""event"",""trial"",""time""
""fullscreenenter"",""5"",""16409""
","
","
","""event"",""trial"",""time""
""fullscreenenter"",""5"",""16409""
","
","458.4000000357628","","49","","","3000","1","","","images/earth.jpg","images/rocket1","images/rocket2","null","images/rocket2","","1","real","null","1","","",""
"d3-animate-choice","157","893483","0.0-76.0-1.7","2282","4988","23","Female","false","false","false","false","""event"",""trial"",""time""
""fullscreenenter"",""5"",""16409""
","
","
","""event"",""trial"",""time""
""fullscreenenter"",""5"",""16409""
","
","1350.800000011921","","48","","","3000","1","","","images/redplanet1.jpg","images/alien2","images/alien1","images/rocket2","images/alien2","images/t.png","2","real","true","2","common","1","2022-12-16 02:01:36.915"
"two-step-fixation","158","894499","0.0-76.0-2.7","2282","4988","23","Female","false","false","false","false","""event"",""trial"",""time""
""fullscreenenter"",""5"",""16409""
","
","
","""event"",""trial"",""time""
""fullscreenenter"",""5"",""16409""
","
","","images/earth.jpg","","","","","","","","","","","","","","fixation","","","","","",""
"d3-animate-choice","159","896755","0.0-76.0-0.8","2282","4988","23","Female","false","false","false","false","""event"",""trial"",""time""
""fullscreenenter"",""5"",""16409""
","
","
","""event"",""trial"",""time""
""fullscreenenter"",""5"",""16409""
","
","235.39999997615814","","49","","","3000","1","","","images/earth.jpg","images/rocket1","images/rocket2","null","images/rocket2","","1","real","null","1","","",""
"d3-animate-choice","160","900331","0.0-76.0-1.8","2282","4988","23","Female","false","false","false","false","""event"",""trial"",""time""
""fullscreenenter"",""5"",""16409""
","
","
","""event"",""trial"",""time""
""fullscreenenter"",""5"",""16409""
","
","1539.3999999761581","","49","","","3000","1","","","images/purpleplanet.jpg","images/alien4","images/alien3","images/rocket2","images/alien3","images/nothing.png","2","real","false","1","rare","0","2022-12-16 02:01:43.762"
"two-step-fixation","161","901347","0.0-76.0-2.8","2282","4988","23","Female","false","false","false","false","""event"",""trial"",""time""
""fullscreenenter"",""5"",""16409""
","
","
","""event"",""trial"",""time""
""fullscreenenter"",""5"",""16409""
","
","","images/earth.jpg","","","","","","","","","","","","","","fixation","","","","","",""
"d3-animate-choice","162","903722","0.0-76.0-0.9","2282","4988","23","Female","false","false","false","false","""event"",""trial"",""time""
""fullscreenenter"",""5"",""16409""
","
","
","""event"",""trial"",""time""
""fullscreenenter"",""5"",""16409""
","
","359.30000001192093","","49","","","3000","1","","","images/earth.jpg","images/rocket1","images/rocket2","null","images/rocket2","","1","real","null","1","","",""
"d3-animate-choice","163","906667","0.0-76.0-1.9","2282","4988","23","Female","false","false","false","false","""event"",""trial"",""time""
""fullscreenenter"",""5"",""16409""
","
","
","""event"",""trial"",""time""
""fullscreenenter"",""5"",""16409""
","
","934.2999999523163","","49","","","3000","1","","","images/purpleplanet.jpg","images/alien4","images/alien3","images/rocket2","images/alien3","images/nothing.png","2","real","false","1","rare","0","2022-12-16 02:01:50.098"
"two-step-fixation","164","907683","0.0-76.0-2.9","2282","4988","23","Female","false","false","false","false","""event"",""trial"",""time""
""fullscreenenter"",""5"",""16409""
","
","
","""event"",""trial"",""time""
""fullscreenenter"",""5"",""16409""
","
","","images/earth.jpg","","","","","","","","","","","","","","fixation","","","","","",""
"d3-animate-choice","165","909923","0.0-76.0-0.10","2282","4988","23","Female","false","false","false","false","""event"",""trial"",""time""
""fullscreenenter"",""5"",""16409""
","
","
","""event"",""trial"",""time""
""fullscreenenter"",""5"",""16409""
","
","223.5","","49","","","3000","1","","","images/earth.jpg","images/rocket1","images/rocket2","null","images/rocket2","","1","real","null","1","","",""
"d3-animate-choice","166","912675","0.0-76.0-1.10","2282","4988","23","Female","false","false","false","false","""event"",""trial"",""time""
""fullscreenenter"",""5"",""16409""
","
","
","""event"",""trial"",""time""
""fullscreenenter"",""5"",""16409""
","
","736.5999999642372","","49","","","3000","1","","","images/redplanet1.jpg","images/alien2","images/alien1","images/rocket2","images/alien1","images/t.png","2","real","true","1","common","1","2022-12-16 02:01:56.106"
"two-step-fixation","167","913691","0.0-76.0-2.10","2282","4988","23","Female","false","false","false","false","""event"",""trial"",""time""
""fullscreenenter"",""5"",""16409""
","
","
","""event"",""trial"",""time""
""fullscreenenter"",""5"",""16409""
","
","","images/earth.jpg","","","","","","","","","","","","","","fixation","","","","","",""
"d3-animate-choice","168","916243","0.0-76.0-0.11","2282","4988","23","Female","false","false","false","false","""event"",""trial"",""time""
""fullscreenenter"",""5"",""16409""
","
","
","""event"",""trial"",""time""
""fullscreenenter"",""5"",""16409""
","
","531.5","","49","","","3000","1","","","images/earth.jpg","images/rocket1","images/rocket2","null","images/rocket2","","1","real","null","1","","",""
"d3-animate-choice","169","918748","0.0-76.0-1.11","2282","4988","23","Female","false","false","false","false","""event"",""trial"",""time""
""fullscreenenter"",""5"",""16409""
","
","
","""event"",""trial"",""time""
""fullscreenenter"",""5"",""16409""
","
","482.30000001192093","","48","","","3000","1","","","images/redplanet1.jpg","images/alien2","images/alien1","images/rocket2","images/alien2","images/t.png","2","real","true","2","common","1","2022-12-16 02:02:02.179"
"two-step-fixation","170","919761","0.0-76.0-2.11","2282","4988","23","Female","false","false","false","false","""event"",""trial"",""time""
""fullscreenenter"",""5"",""16409""
","
","
","""event"",""trial"",""time""
""fullscreenenter"",""5"",""16409""
","
","","images/earth.jpg","","","","","","","","","","","","","","fixation","","","","","",""
"d3-animate-choice","171","922058","0.0-76.0-0.12","2282","4988","23","Female","false","false","false","false","""event"",""trial"",""time""
""fullscreenenter"",""5"",""16409""
","
","
","""event"",""trial"",""time""
""fullscreenenter"",""5"",""16409""
","
","283.5999999642372","","49","","","3000","1","","","images/earth.jpg","images/rocket1","images/rocket2","null","images/rocket2","","1","real","null","1","","",""
"d3-animate-choice","172","924595","0.0-76.0-1.12","2282","4988","23","Female","false","false","false","false","""event"",""trial"",""time""
""fullscreenenter"",""5"",""16409""
","
","
","""event"",""trial"",""time""
""fullscreenenter"",""5"",""16409""
","
","519.5","","48","","","3000","1","","","images/redplanet1.jpg","images/alien2","images/alien1","images/rocket2","images/alien2","images/nothing.png","2","real","true","2","common","0","2022-12-16 02:02:08.026"
"two-step-fixation","173","925611","0.0-76.0-2.12","2282","4988","23","Female","false","false","false","false","""event"",""trial"",""time""
""fullscreenenter"",""5"",""16409""
","
","
","""event"",""trial"",""time""
""fullscreenenter"",""5"",""16409""
","
","","images/earth.jpg","","","","","","","","","","","","","","fixation","","","","","",""
"d3-animate-choice","174","927891","0.0-76.0-0.13","2282","4988","23","Female","false","false","false","false","""event"",""trial"",""time""
""fullscreenenter"",""5"",""16409""
","
","
","""event"",""trial"",""time""
""fullscreenenter"",""5"",""16409""
","
","264.5","","49","","","3000","1","","","images/earth.jpg","images/rocket1","images/rocket2","null","images/rocket2","","1","real","null","1","","",""
"d3-animate-choice","175","930468","0.0-76.0-1.13","2282","4988","23","Female","false","false","false","false","""event"",""trial"",""time""
""fullscreenenter"",""5"",""16409""
","
","
","""event"",""trial"",""time""
""fullscreenenter"",""5"",""16409""
","
","555.3000000119209","","48","","","3000","1","","","images/redplanet1.jpg","images/alien2","images/alien1","images/rocket2","images/alien2","images/nothing.png","2","real","true","2","common","0","2022-12-16 02:02:13.900"
"two-step-fixation","176","931484","0.0-76.0-2.13","2282","4988","23","Female","false","false","false","false","""event"",""trial"",""time""
""fullscreenenter"",""5"",""16409""
","
","
","""event"",""trial"",""time""
""fullscreenenter"",""5"",""16409""
","
","","images/earth.jpg","","","","","","","","","","","","","","fixation","","","","","",""
"d3-animate-choice","177","933787","0.0-76.0-0.14","2282","4988","23","Female","false","false","false","false","""event"",""trial"",""time""
""fullscreenenter"",""5"",""16409""
","
","
","""event"",""trial"",""time""
""fullscreenenter"",""5"",""16409""
","
","289.80000001192093","","48","","","3000","1","","","images/earth.jpg","images/rocket1","images/rocket2","null","images/rocket1","","1","real","null","2","","",""
"d3-animate-choice","178","936203","0.0-76.0-1.14","2282","4988","23","Female","false","false","false","false","""event"",""trial"",""time""
""fullscreenenter"",""5"",""16409""
","
","
","""event"",""trial"",""time""
""fullscreenenter"",""5"",""16409""
","
","398.4000000357628","","48","","","3000","1","","","images/purpleplanet.jpg","images/alien4","images/alien3","images/rocket1","images/alien4","images/t.png","2","real","true","2","common","1","2022-12-16 02:02:19.634"
"two-step-fixation","179","937219","0.0-76.0-2.14","2282","4988","23","Female","false","false","false","false","""event"",""trial"",""time""
""fullscreenenter"",""5"",""16409""
","
","
","""event"",""trial"",""time""
""fullscreenenter"",""5"",""16409""
","
","","images/earth.jpg","","","","","","","","","","","","","","fixation","","","","","",""
"d3-animate-choice","180","939603","0.0-76.0-0.15","2282","4988","23","Female","false","false","false","false","""event"",""trial"",""time""
""fullscreenenter"",""5"",""16409""
","
","
","""event"",""trial"",""time""
""fullscreenenter"",""5"",""16409""
","
","362.69999998807907","","48","","","3000","1","","","images/earth.jpg","images/rocket1","images/rocket2","null","images/rocket1","","1","real","null","2","","",""
"d3-animate-choice","181","942947","0.0-76.0-1.15","2282","4988","23","Female","false","false","false","false","""event"",""trial"",""time""
""fullscreenenter"",""5"",""16409""
","
","
","""event"",""trial"",""time""
""fullscreenenter"",""5"",""16409""
","
","1328","","48","","","3000","1","","","images/redplanet1.jpg","images/alien2","images/alien1","images/rocket1","images/alien2","images/nothing.png","2","real","false","2","rare","0","2022-12-16 02:02:26.379"
"two-step-fixation","182","943964","0.0-76.0-2.15","2282","4988","23","Female","false","false","false","false","""event"",""trial"",""time""
""fullscreenenter"",""5"",""16409""
","
","
","""event"",""trial"",""time""
""fullscreenenter"",""5"",""16409""
","
","","images/earth.jpg","","","","","","","","","","","","","","fixation","","","","","",""
"d3-animate-choice","183","946291","0.0-76.0-0.16","2282","4988","23","Female","false","false","false","false","""event"",""trial"",""time""
""fullscreenenter"",""5"",""16409""
","
","
","""event"",""trial"",""time""
""fullscreenenter"",""5"",""16409""
","
","311","","48","","","3000","1","","","images/earth.jpg","images/rocket1","images/rocket2","null","images/rocket1","","1","real","null","2","","",""
"d3-animate-choice","184","949340","0.0-76.0-1.16","2282","4988","23","Female","false","false","false","false","""event"",""trial"",""time""
""fullscreenenter"",""5"",""16409""
","
","
","""event"",""trial"",""time""
""fullscreenenter"",""5"",""16409""
","
","1028.0999999642372","","49","","","3000","1","","","images/redplanet1.jpg","images/alien2","images/alien1","images/rocket1","images/alien1","images/t.png","2","real","false","1","rare","1","2022-12-16 02:02:32.771"
"two-step-fixation","185","950355","0.0-76.0-2.16","2282","4988","23","Female","false","false","false","false","""event"",""trial"",""time""
""fullscreenenter"",""5"",""16409""
","
","
","""event"",""trial"",""time""
""fullscreenenter"",""5"",""16409""
","
","","images/earth.jpg","","","","","","","","","","","","","","fixation","","","","","",""
"d3-animate-choice","186","952675","0.0-76.0-0.17","2282","4988","23","Female","false","false","false","false","""event"",""trial"",""time""
""fullscreenenter"",""5"",""16409""
","
","
","""event"",""trial"",""time""
""fullscreenenter"",""5"",""16409""
","
","305.19999998807907","","48","","","3000","1","","","images/earth.jpg","images/rocket1","images/rocket2","null","images/rocket1","","1","real","null","2","","",""
"d3-animate-choice","187","955228","0.0-76.0-1.17","2282","4988","23","Female","false","false","false","false","""event"",""trial"",""time""
""fullscreenenter"",""5"",""16409""
","
","
","""event"",""trial"",""time""
""fullscreenenter"",""5"",""16409""
","
","529.3999999761581","","49","","","3000","1","","","images/redplanet1.jpg","images/alien2","images/alien1","images/rocket1","images/alien1","images/nothing.png","2","real","false","1","rare","0","2022-12-16 02:02:38.659"
"two-step-fixation","188","956243","0.0-76.0-2.17","2282","4988","23","Female","false","false","false","false","""event"",""trial"",""time""
""fullscreenenter"",""5"",""16409""
","
","
","""event"",""trial"",""time""
""fullscreenenter"",""5"",""16409""
","
","","images/earth.jpg","","","","","","","","","","","","","","fixation","","","","","",""
"d3-animate-choice","189","958579","0.0-76.0-0.18","2282","4988","23","Female","false","false","false","false","""event"",""trial"",""time""
""fullscreenenter"",""5"",""16409""
","
","
","""event"",""trial"",""time""
""fullscreenenter"",""5"",""16409""
","
","321.80000001192093","","48","","","3000","1","","","images/earth.jpg","images/rocket1","images/rocket2","null","images/rocket1","","1","real","null","2","","",""
"d3-animate-choice","190","961188","0.0-76.0-1.18","2282","4988","23","Female","false","false","false","false","""event"",""trial"",""time""
""fullscreenenter"",""5"",""16409""
","
","
","""event"",""trial"",""time""
""fullscreenenter"",""5"",""16409""
","
","591.3000000119209","","48","","","3000","1","","","images/purpleplanet.jpg","images/alien4","images/alien3","images/rocket1","images/alien4","images/t.png","2","real","true","2","common","1","2022-12-16 02:02:44.619"
"two-step-fixation","191","962202","0.0-76.0-2.18","2282","4988","23","Female","false","false","false","false","""event"",""trial"",""time""
""fullscreenenter"",""5"",""16409""
","
","
","""event"",""trial"",""time""
""fullscreenenter"",""5"",""16409""
","
","","images/earth.jpg","","","","","","","","","","","","","","fixation","","","","","",""
"d3-animate-choice","192","964546","0.0-76.0-0.19","2282","4988","23","Female","false","false","false","false","""event"",""trial"",""time""
""fullscreenenter"",""5"",""16409""
","
","
","""event"",""trial"",""time""
""fullscreenenter"",""5"",""16409""
","
","327.19999998807907","","48","","","3000","1","","","images/earth.jpg","images/rocket1","images/rocket2","null","images/rocket1","","1","real","null","2","","",""
"d3-animate-choice","193","967362","0.0-76.0-1.19","2282","4988","23","Female","false","false","false","false","""event"",""trial"",""time""
""fullscreenenter"",""5"",""16409""
","
","
","""event"",""trial"",""time""
""fullscreenenter"",""5"",""16409""
","
","799.9000000357628","","49","","","3000","1","","","images/redplanet1.jpg","images/alien2","images/alien1","images/rocket1","images/alien1","images/nothing.png","2","real","false","1","rare","0","2022-12-16 02:02:50.794"
"two-step-fixation","194","968378","0.0-76.0-2.19","2282","4988","23","Female","false","false","false","false","""event"",""trial"",""time""
""fullscreenenter"",""5"",""16409""
","
","
","""event"",""trial"",""time""
""fullscreenenter"",""5"",""16409""
","
","","images/earth.jpg","","","","","","","","","","","","","","fixation","","","","","",""
"d3-animate-choice","195","970682","0.0-76.0-0.20","2282","4988","23","Female","false","false","false","false","""event"",""trial"",""time""
""fullscreenenter"",""5"",""16409""
","
","
","""event"",""trial"",""time""
""fullscreenenter"",""5"",""16409""
","
","289.10000002384186","","48","","","3000","1","","","images/earth.jpg","images/rocket1","images/rocket2","null","images/rocket1","","1","real","null","2","","",""
"d3-animate-choice","196","973757","0.0-76.0-1.20","2282","4988","23","Female","false","false","false","false","""event"",""trial"",""time""
""fullscreenenter"",""5"",""16409""
","
","
","""event"",""trial"",""time""
""fullscreenenter"",""5"",""16409""
","
","1065.300000011921","","48","","","3000","1","","","images/redplanet1.jpg","images/alien2","images/alien1","images/rocket1","images/alien2","images/nothing.png","2","real","false","2","rare","0","2022-12-16 02:02:57.188"
"two-step-fixation","197","974770","0.0-76.0-2.20","2282","4988","23","Female","false","false","false","false","""event"",""trial"",""time""
""fullscreenenter"",""5"",""16409""
","
","
","""event"",""trial"",""time""
""fullscreenenter"",""5"",""16409""
","
","","images/earth.jpg","","","","","","","","","","","","","","fixation","","","","","",""
"d3-animate-choice","198","976842","0.0-76.0-0.21","2282","4988","23","Female","false","false","false","false","""event"",""trial"",""time""
""fullscreenenter"",""5"",""16409""
","
","
","""event"",""trial"",""time""
""fullscreenenter"",""5"",""16409""
","
","59.10000002384186","","48","","","3000","1","","","images/earth.jpg","images/rocket1","images/rocket2","null","images/rocket1","","1","real","null","2","","",""
"d3-animate-choice","199","979354","0.0-76.0-1.21","2282","4988","23","Female","false","false","false","false","""event"",""trial"",""time""
""fullscreenenter"",""5"",""16409""
","
","
","""event"",""trial"",""time""
""fullscreenenter"",""5"",""16409""
","
","500.10000002384186","","48","","","3000","1","","","images/purpleplanet.jpg","images/alien4","images/alien3","images/rocket1","images/alien4","images/t.png","2","real","true","2","common","1","2022-12-16 02:03:02.785"
"two-step-fixation","200","980362","0.0-76.0-2.21","2282","4988","23","Female","false","false","false","false","""event"",""trial"",""time""
""fullscreenenter"",""5"",""16409""
","
","
","""event"",""trial"",""time""
""fullscreenenter"",""5"",""16409""
","
","","images/earth.jpg","","","","","","","","","","","","","","fixation","","","","","",""
"d3-animate-choice","201","982626","0.0-76.0-0.22","2282","4988","23","Female","false","false","false","false","""event"",""trial"",""time""
""fullscreenenter"",""5"",""16409""
","
","
","""event"",""trial"",""time""
""fullscreenenter"",""5"",""16409""
","
","247.79999995231628","","48","","","3000","1","","","images/earth.jpg","images/rocket1","images/rocket2","null","images/rocket1","","1","real","null","2","","",""
"d3-animate-choice","202","985434","0.0-76.0-1.22","2282","4988","23","Female","false","false","false","false","""event"",""trial"",""time""
""fullscreenenter"",""5"",""16409""
","
","
","""event"",""trial"",""time""
""fullscreenenter"",""5"",""16409""
","
","790.5999999642372","","49","","","3000","1","","","images/redplanet1.jpg","images/alien2","images/alien1","images/rocket1","images/alien1","images/nothing.png","2","real","false","1","rare","0","2022-12-16 02:03:08.866"
"two-step-fixation","203","986450","0.0-76.0-2.22","2282","4988","23","Female","false","false","false","false","""event"",""trial"",""time""
""fullscreenenter"",""5"",""16409""
","
","
","""event"",""trial"",""time""
""fullscreenenter"",""5"",""16409""
","
","","images/earth.jpg","","","","","","","","","","","","","","fixation","","","","","",""
"d3-animate-choice","204","988730","0.0-76.0-0.23","2282","4988","23","Female","false","false","false","false","""event"",""trial"",""time""
""fullscreenenter"",""5"",""16409""
","
","
","""event"",""trial"",""time""
""fullscreenenter"",""5"",""16409""
","
","269.10000002384186","","48","","","3000","1","","","images/earth.jpg","images/rocket1","images/rocket2","null","images/rocket1","","1","real","null","2","","",""
"d3-animate-choice","205","991211","0.0-76.0-1.23","2282","4988","23","Female","false","false","false","false","""event"",""trial"",""time""
""fullscreenenter"",""5"",""16409""
","
","
","""event"",""trial"",""time""
""fullscreenenter"",""5"",""16409""
","
","463.80000001192093","","48","","","3000","1","","","images/purpleplanet.jpg","images/alien4","images/alien3","images/rocket1","images/alien4","images/t.png","2","real","true","2","common","1","2022-12-16 02:03:14.642"
"two-step-fixation","206","992226","0.0-76.0-2.23","2282","4988","23","Female","false","false","false","false","""event"",""trial"",""time""
""fullscreenenter"",""5"",""16409""
","
","
","""event"",""trial"",""time""
""fullscreenenter"",""5"",""16409""
","
","","images/earth.jpg","","","","","","","","","","","","","","fixation","","","","","",""
"d3-animate-choice","207","994587","0.0-76.0-0.24","2282","4988","23","Female","false","false","false","false","""event"",""trial"",""time""
""fullscreenenter"",""5"",""16409""
","
","
","""event"",""trial"",""time""
""fullscreenenter"",""5"",""16409""
","
","348.10000002384186","","48","","","3000","1","","","images/earth.jpg","images/rocket1","images/rocket2","null","images/rocket1","","1","real","null","2","","",""
"d3-animate-choice","208","997035","0.0-76.0-1.24","2282","4988","23","Female","false","false","false","false","""event"",""trial"",""time""
""fullscreenenter"",""5"",""16409""
","
","
","""event"",""trial"",""time""
""fullscreenenter"",""5"",""16409""
","
","429.7999999523163","","48","","","3000","1","","","images/redplanet1.jpg","images/alien2","images/alien1","images/rocket1","images/alien2","images/t.png","2","real","false","2","rare","1","2022-12-16 02:03:20.466"
"two-step-fixation","209","998050","0.0-76.0-2.24","2282","4988","23","Female","false","false","false","false","""event"",""trial"",""time""
""fullscreenenter"",""5"",""16409""
","
","
","""event"",""trial"",""time""
""fullscreenenter"",""5"",""16409""
","
","","images/earth.jpg","","","","","","","","","","","","","","fixation","","","","","",""
"d3-animate-choice","210","1000346","0.0-76.0-0.25","2282","4988","23","Female","false","false","false","false","""event"",""trial"",""time""
""fullscreenenter"",""5"",""16409""
","
","
","""event"",""trial"",""time""
""fullscreenenter"",""5"",""16409""
","
","282.80000001192093","","48","","","3000","1","","","images/earth.jpg","images/rocket1","images/rocket2","null","images/rocket1","","1","real","null","2","","",""
"d3-animate-choice","211","1002862","0.0-76.0-1.25","2282","4988","23","Female","false","false","false","false","""event"",""trial"",""time""
""fullscreenenter"",""5"",""16409""
","
","
","""event"",""trial"",""time""
""fullscreenenter"",""5"",""16409""
","
","506.89999997615814","","48","","","3000","1","","","images/purpleplanet.jpg","images/alien4","images/alien3","images/rocket1","images/alien4","images/nothing.png","2","real","true","2","common","0","2022-12-16 02:03:26.294"
"two-step-fixation","212","1003874","0.0-76.0-2.25","2282","4988","23","Female","false","false","false","false","""event"",""trial"",""time""
""fullscreenenter"",""5"",""16409""
","
","
","""event"",""trial"",""time""
""fullscreenenter"",""5"",""16409""
","
","","images/earth.jpg","","","","","","","","","","","","","","fixation","","","","","",""
"d3-animate-choice","213","1006202","0.0-76.0-0.26","2282","4988","23","Female","false","false","false","false","""event"",""trial"",""time""
""fullscreenenter"",""5"",""16409""
","
","
","""event"",""trial"",""time""
""fullscreenenter"",""5"",""16409""
","
","310.19999998807907","","48","","","3000","1","","","images/earth.jpg","images/rocket1","images/rocket2","null","images/rocket1","","1","real","null","2","","",""
"d3-animate-choice","214","1008898","0.0-76.0-1.26","2282","4988","23","Female","false","false","false","false","""event"",""trial"",""time""
""fullscreenenter"",""5"",""16409""
","
","
","""event"",""trial"",""time""
""fullscreenenter"",""5"",""16409""
","
","684.9000000357628","","48","","","3000","1","","","images/purpleplanet.jpg","images/alien4","images/alien3","images/rocket1","images/alien4","images/t.png","2","real","true","2","common","1","2022-12-16 02:03:32.329"
"two-step-fixation","215","1009914","0.0-76.0-2.26","2282","4988","23","Female","false","false","false","false","""event"",""trial"",""time""
""fullscreenenter"",""5"",""16409""
","
","
","""event"",""trial"",""time""
""fullscreenenter"",""5"",""16409""
","
","","images/earth.jpg","","","","","","","","","","","","","","fixation","","","","","",""
"d3-animate-choice","216","1012194","0.0-76.0-0.27","2282","4988","23","Female","false","false","false","false","""event"",""trial"",""time""
""fullscreenenter"",""5"",""16409""
","
","
","""event"",""trial"",""time""
""fullscreenenter"",""5"",""16409""
","
","267.0999999642372","","48","","","3000","1","","","images/earth.jpg","images/rocket1","images/rocket2","null","images/rocket1","","1","real","null","2","","",""
"d3-animate-choice","217","1014979","0.0-76.0-1.27","2282","4988","23","Female","false","false","false","false","""event"",""trial"",""time""
""fullscreenenter"",""5"",""16409""
","
","
","""event"",""trial"",""time""
""fullscreenenter"",""5"",""16409""
","
","768.8999999761581","","48","","","3000","1","","","images/redplanet1.jpg","images/alien2","images/alien1","images/rocket1","images/alien2","images/t.png","2","real","false","2","rare","1","2022-12-16 02:03:38.410"
"two-step-fixation","218","1015994","0.0-76.0-2.27","2282","4988","23","Female","false","false","false","false","""event"",""trial"",""time""
""fullscreenenter"",""5"",""16409""
","
","
","""event"",""trial"",""time""
""fullscreenenter"",""5"",""16409""
","
","","images/earth.jpg","","","","","","","","","","","","","","fixation","","","","","",""
"d3-animate-choice","219","1018306","0.0-76.0-0.28","2282","4988","23","Female","false","false","false","false","""event"",""trial"",""time""
""fullscreenenter"",""5"",""16409""
","
","
","""event"",""trial"",""time""
""fullscreenenter"",""5"",""16409""
","
","296.69999998807907","","48","","","3000","1","","","images/earth.jpg","images/rocket1","images/rocket2","null","images/rocket1","","1","real","null","2","","",""
"d3-animate-choice","220","1020763","0.0-76.0-1.28","2282","4988","23","Female","false","false","false","false","""event"",""trial"",""time""
""fullscreenenter"",""5"",""16409""
","
","
","""event"",""trial"",""time""
""fullscreenenter"",""5"",""16409""
","
","438.5","","48","","","3000","1","","","images/redplanet1.jpg","images/alien2","images/alien1","images/rocket1","images/alien2","images/t.png","2","real","false","2","rare","1","2022-12-16 02:03:44.194"
"two-step-fixation","221","1021777","0.0-76.0-2.28","2282","4988","23","Female","false","false","false","false","""event"",""trial"",""time""
""fullscreenenter"",""5"",""16409""
","
","
","""event"",""trial"",""time""
""fullscreenenter"",""5"",""16409""
","
","","images/earth.jpg","","","","","","","","","","","","","","fixation","","","","","",""
"d3-animate-choice","222","1024090","0.0-76.0-0.29","2282","4988","23","Female","false","false","false","false","""event"",""trial"",""time""
""fullscreenenter"",""5"",""16409""
","
","
","""event"",""trial"",""time""
""fullscreenenter"",""5"",""16409""
","
","299.60000002384186","","48","","","3000","1","","","images/earth.jpg","images/rocket1","images/rocket2","null","images/rocket1","","1","real","null","2","","",""
"d3-animate-choice","223","1026639","0.0-76.0-1.29","2282","4988","23","Female","false","false","false","false","""event"",""trial"",""time""
""fullscreenenter"",""5"",""16409""
","
","
","""event"",""trial"",""time""
""fullscreenenter"",""5"",""16409""
","
","533.6999999880791","","48","","","3000","1","","","images/purpleplanet.jpg","images/alien4","images/alien3","images/rocket1","images/alien4","images/t.png","2","real","true","2","common","1","2022-12-16 02:03:50.070"
"two-step-fixation","224","1027650","0.0-76.0-2.29","2282","4988","23","Female","false","false","false","false","""event"",""trial"",""time""
""fullscreenenter"",""5"",""16409""
","
","
","""event"",""trial"",""time""
""fullscreenenter"",""5"",""16409""
","
","","images/earth.jpg","","","","","","","","","","","","","","fixation","","","","","",""
"d3-animate-choice","225","1029986","0.0-76.0-0.30","2282","4988","23","Female","false","false","false","false","""event"",""trial"",""time""
""fullscreenenter"",""5"",""16409""
","
","
","""event"",""trial"",""time""
""fullscreenenter"",""5"",""16409""
","
","321.60000002384186","","48","","","3000","1","","","images/earth.jpg","images/rocket1","images/rocket2","null","images/rocket1","","1","real","null","2","","",""
"d3-animate-choice","226","1032675","0.0-76.0-1.30","2282","4988","23","Female","false","false","false","false","""event"",""trial"",""time""
""fullscreenenter"",""5"",""16409""
","
","
","""event"",""trial"",""time""
""fullscreenenter"",""5"",""16409""
","
","670.9000000357628","","48","","","3000","1","","","images/purpleplanet.jpg","images/alien4","images/alien3","images/rocket1","images/alien4","images/t.png","2","real","true","2","common","1","2022-12-16 02:03:56.106"
"two-step-fixation","227","1033684","0.0-76.0-2.30","2282","4988","23","Female","false","false","false","false","""event"",""trial"",""time""
""fullscreenenter"",""5"",""16409""
","
","
","""event"",""trial"",""time""
""fullscreenenter"",""5"",""16409""
","
","","images/earth.jpg","","","","","","","","","","","","","","fixation","","","","","",""
"d3-animate-choice","228","1036042","0.0-76.0-0.31","2282","4988","23","Female","false","false","false","false","""event"",""trial"",""time""
""fullscreenenter"",""5"",""16409""
","
","
","""event"",""trial"",""time""
""fullscreenenter"",""5"",""16409""
","
","345.5","","48","","","3000","1","","","images/earth.jpg","images/rocket1","images/rocket2","null","images/rocket1","","1","real","null","2","","",""
"d3-animate-choice","229","1038923","0.0-76.0-1.31","2282","4988","23","Female","false","false","false","false","""event"",""trial"",""time""
""fullscreenenter"",""5"",""16409""
","
","
","""event"",""trial"",""time""
""fullscreenenter"",""5"",""16409""
","
","861.1999999880791","","48","","","3000","1","","","images/redplanet1.jpg","images/alien2","images/alien1","images/rocket1","images/alien2","images/nothing.png","2","real","false","2","rare","0","2022-12-16 02:04:02.354"
"two-step-fixation","230","1039938","0.0-76.0-2.31","2282","4988","23","Female","false","false","false","false","""event"",""trial"",""time""
""fullscreenenter"",""5"",""16409""
","
","
","""event"",""trial"",""time""
""fullscreenenter"",""5"",""16409""
","
","","images/earth.jpg","","","","","","","","","","","","","","fixation","","","","","",""
"d3-animate-choice","231","1042250","0.0-76.0-0.32","2282","4988","23","Female","false","false","false","false","""event"",""trial"",""time""
""fullscreenenter"",""5"",""16409""
","
","
","""event"",""trial"",""time""
""fullscreenenter"",""5"",""16409""
","
","296","","48","","","3000","1","","","images/earth.jpg","images/rocket1","images/rocket2","null","images/rocket1","","1","real","null","2","","",""
"d3-animate-choice","232","1044922","0.0-76.0-1.32","2282","4988","23","Female","false","false","false","false","""event"",""trial"",""time""
""fullscreenenter"",""5"",""16409""
","
","
","""event"",""trial"",""time""
""fullscreenenter"",""5"",""16409""
","
","655","","48","","","3000","1","","","images/redplanet1.jpg","images/alien2","images/alien1","images/rocket1","images/alien2","images/t.png","2","real","false","2","rare","1","2022-12-16 02:04:08.354"
"two-step-fixation","233","1045937","0.0-76.0-2.32","2282","4988","23","Female","false","false","false","false","""event"",""trial"",""time""
""fullscreenenter"",""5"",""16409""
","
","
","""event"",""trial"",""time""
""fullscreenenter"",""5"",""16409""
","
","","images/earth.jpg","","","","","","","","","","","","","","fixation","","","","","",""
"d3-animate-choice","234","1048282","0.0-76.0-0.33","2282","4988","23","Female","false","false","false","false","""event"",""trial"",""time""
""fullscreenenter"",""5"",""16409""
","
","
","""event"",""trial"",""time""
""fullscreenenter"",""5"",""16409""
","
","330.5999999642372","","48","","","3000","1","","","images/earth.jpg","images/rocket1","images/rocket2","null","images/rocket1","","1","real","null","2","","",""
"d3-animate-choice","235","1050998","0.0-76.0-1.33","2282","4988","23","Female","false","false","false","false","""event"",""trial"",""time""
""fullscreenenter"",""5"",""16409""
","
","
","""event"",""trial"",""time""
""fullscreenenter"",""5"",""16409""
","
","698.2000000476837","","48","","","3000","1","","","images/redplanet1.jpg","images/alien2","images/alien1","images/rocket1","images/alien2","images/nothing.png","2","real","false","2","rare","0","2022-12-16 02:04:14.429"
"two-step-fixation","236","1052011","0.0-76.0-2.33","2282","4988","23","Female","false","false","false","false","""event"",""trial"",""time""
""fullscreenenter"",""5"",""16409""
","
","
","""event"",""trial"",""time""
""fullscreenenter"",""5"",""16409""
","
","","images/earth.jpg","","","","","","","","","","","","","","fixation","","","","","",""
"d3-animate-choice","237","1054306","0.0-76.0-0.34","2282","4988","23","Female","false","false","false","false","""event"",""trial"",""time""
""fullscreenenter"",""5"",""16409""
","
","
","""event"",""trial"",""time""
""fullscreenenter"",""5"",""16409""
","
","280.80000001192093","","48","","","3000","1","","","images/earth.jpg","images/rocket1","images/rocket2","null","images/rocket1","","1","real","null","2","","",""
"d3-animate-choice","238","1056738","0.0-76.0-1.34","2282","4988","23","Female","false","false","false","false","""event"",""trial"",""time""
""fullscreenenter"",""5"",""16409""
","
","
","""event"",""trial"",""time""
""fullscreenenter"",""5"",""16409""
","
","415.0999999642372","","48","","","3000","1","","","images/purpleplanet.jpg","images/alien4","images/alien3","images/rocket1","images/alien4","images/t.png","2","real","true","2","common","1","2022-12-16 02:04:20.170"
"two-step-fixation","239","1057754","0.0-76.0-2.34","2282","4988","23","Female","false","false","false","false","""event"",""trial"",""time""
""fullscreenenter"",""5"",""16409""
","
","
","""event"",""trial"",""time""
""fullscreenenter"",""5"",""16409""
","
","","images/earth.jpg","","","","","","","","","","","","","","fixation","","","","","",""
"d3-animate-choice","240","1060034","0.0-76.0-0.35","2282","4988","23","Female","false","false","false","false","""event"",""trial"",""time""
""fullscreenenter"",""5"",""16409""
","
","
","""event"",""trial"",""time""
""fullscreenenter"",""5"",""16409""
","
","268.2000000476837","","49","","","3000","1","","","images/earth.jpg","images/rocket1","images/rocket2","null","images/rocket2","","1","real","null","1","","",""
"d3-animate-choice","241","1062578","0.0-76.0-1.35","2282","4988","23","Female","false","false","false","false","""event"",""trial"",""time""
""fullscreenenter"",""5"",""16409""
","
","
","""event"",""trial"",""time""
""fullscreenenter"",""5"",""16409""
","
","525.3999999761581","","48","","","3000","1","","","images/redplanet1.jpg","images/alien2","images/alien1","images/rocket2","images/alien2","images/t.png","2","real","true","2","common","1","2022-12-16 02:04:26.009"
"two-step-fixation","242","1063594","0.0-76.0-2.35","2282","4988","23","Female","false","false","false","false","""event"",""trial"",""time""
""fullscreenenter"",""5"",""16409""
","
","
","""event"",""trial"",""time""
""fullscreenenter"",""5"",""16409""
","
","","images/earth.jpg","","","","","","","","","","","","","","fixation","","","","","",""
"d3-animate-choice","243","1065939","0.0-76.0-0.36","2282","4988","23","Female","false","false","false","false","""event"",""trial"",""time""
""fullscreenenter"",""5"",""16409""
","
","
","""event"",""trial"",""time""
""fullscreenenter"",""5"",""16409""
","
","331.89999997615814","","49","","","3000","1","","","images/earth.jpg","images/rocket1","images/rocket2","null","images/rocket2","","1","real","null","1","","",""
"d3-animate-choice","244","1068347","0.0-76.0-1.36","2282","4988","23","Female","false","false","false","false","""event"",""trial"",""time""
""fullscreenenter"",""5"",""16409""
","
","
