"trial_type","trial_index","time_elapsed","internal_node_id","participant_id","subject_id","age","gender","rocket_sides","red_planet_first_rocket","red_display_order","purple_display_order","interactions","blur_events","focus_events","fullscreenenter_events","fullscreenexit_events","rt","stimulus","key_press","button_pressed","success","duration","valid_pressed","rts","keys","planet_text","right_text","left_text","center_text","chosen_text","reward_text","trial_stage","practice_trial","transition_type","choice","transition","reward","timestamp"
"pavlovia","0","3","0.0-0.0","139","1277","12","Female","false","true","false","false","
","
","
","
","
","","","","","","","","","","","","","","","","","","","","","",""
"html-keyboard-response","1","5437","0.0-1.0","139","1277","12","Female","false","true","false","false","
","
","
","
","
","5433.400000095367","Welcome! Press the space bar to begin.","32","","","","","","","","","","","","","","","","","","",""
"audio-keyboard-response","2","8974","0.0-2.0","139","1277","12","Female","false","true","false","false","
","
","
","
","
","3451","audio/beep_loop.wav","32","","","","","","","","","","","","","","","","","","",""
"audio-button-response","3","11854","0.0-3.0","139","1277","12","Female","false","true","false","false","
","
","
","
","
","NaN","audio/fish.mp3","","1","","","","","","","","","","","","","","","","","",""
"audio-button-response","4","14761","0.0-4.0","139","1277","12","Female","false","true","false","false","""event"",""trial"",""time""
""fullscreenenter"",""5"",""18722""
","
","
","""event"",""trial"",""time""
""fullscreenenter"",""5"",""18722""
","
","NaN","audio/tiger.mp3","","4","","","","","","","","","","","","","","","","","",""
"fullscreen","5","19703","0.0-5.0","139","1277","12","Female","false","true","false","false","""event"",""trial"",""time""
""fullscreenenter"",""5"",""18722""
","
","
","""event"",""trial"",""time""
""fullscreenenter"",""5"",""18722""
","
","","","","","true","","","","","","","","","","","","","","","","",""
"d3-instructions","6","37071","0.0-6.0","139","1277","12","Female","false","true","false","false","""event"",""trial"",""time""
""fullscreenenter"",""5"",""18722""
","
","
","""event"",""trial"",""time""
""fullscreenenter"",""5"",""18722""
","
","","","","","","","","","","","","","","","","","","","","","",""
"d3-instructions","7","50887","0.0-7.0","139","1277","12","Female","false","true","false","false","""event"",""trial"",""time""
""fullscreenenter"",""5"",""18722""
","
","
","""event"",""trial"",""time""
""fullscreenenter"",""5"",""18722""
","
","","","","","","","","","","","","","","","","","","","","","",""
"d3-instructions","8","63808","0.0-8.0","139","1277","12","Female","false","true","false","false","""event"",""trial"",""time""
""fullscreenenter"",""5"",""18722""
","
","
","""event"",""trial"",""time""
""fullscreenenter"",""5"",""18722""
","
","","","","","","","","","","","","","","","","","","","","","",""
"d3-instructions","9","81385","0.0-9.0","139","1277","12","Female","false","true","false","false","""event"",""trial"",""time""
""fullscreenenter"",""5"",""18722""
","
","
","""event"",""trial"",""time""
""fullscreenenter"",""5"",""18722""
","
","","","","","","","","","","","","","","","","","","","","","",""
"d3-instructions","10","112106","0.0-10.0","139","1277","12","Female","false","true","false","false","""event"",""trial"",""time""
""fullscreenenter"",""5"",""18722""
","
","
","""event"",""trial"",""time""
""fullscreenenter"",""5"",""18722""
","
","","","","","","","","","","","","","","","","","","","","","",""
"d3-animate-choice","11","115728","0.0-11.0","139","1277","12","Female","false","true","false","false","""event"",""trial"",""time""
""fullscreenenter"",""5"",""18722""
","
","
","""event"",""trial"",""time""
""fullscreenenter"",""5"",""18722""
","
","1609.9000000953674","","49","","","3000","1","","","images/tutgreenplanet.jpg","images/tutalien1","images/tutalien2","null","images/tutalien2","","NA","practice","null","","","",""
"d3-animate-choice","12","119060","0.0-12.0","139","1277","12","Female","false","true","false","false","""event"",""trial"",""time""
""fullscreenenter"",""5"",""18722""
","
","
","""event"",""trial"",""time""
""fullscreenenter"",""5"",""18722""
","
","1323.5","","48","","","3000","1","","","images/tutgreenplanet.jpg","images/tutalien1","images/tutalien2","null","images/tutalien1","","NA","practice","null","","","",""
"d3-animate-choice","13","122460","0.0-13.0","139","1277","12","Female","false","true","false","false","""event"",""trial"",""time""
""fullscreenenter"",""5"",""18722""
","
","
","""event"",""trial"",""time""
""fullscreenenter"",""5"",""18722""
","
","1394.5999999046326","","48","","","3000","1","1395.7999999523163","49","images/tutgreenplanet.jpg","images/tutalien1","images/tutalien2","null","images/tutalien1","","NA","practice","null","","","",""
"d3-animate-choice","14","125445","0.0-14.0","139","1277","12","Female","false","true","false","false","""event"",""trial"",""time""
""fullscreenenter"",""5"",""18722""
","
","
","""event"",""trial"",""time""
""fullscreenenter"",""5"",""18722""
","
","977.7999999523163","","49","","","3000","1","1073","48","images/tutgreenplanet.jpg","images/tutalien1","images/tutalien2","null","images/tutalien2","","NA","practice","null","","","",""
"d3-instructions","15","134596","0.0-15.0","139","1277","12","Female","false","true","false","false","""event"",""trial"",""time""
""fullscreenenter"",""5"",""18722""
","
","
","""event"",""trial"",""time""
""fullscreenenter"",""5"",""18722""
","
","","","","","","","","","","","","","","","","","","","","","",""
"d3-instructions","16","140663","0.0-16.0","139","1277","12","Female","false","true","false","false","""event"",""trial"",""time""
""fullscreenenter"",""5"",""18722""
","
","
","""event"",""trial"",""time""
""fullscreenenter"",""5"",""18722""
","
","","","","","","","","","","","","","","","","","","","","","",""
"d3-instructions","17","151197","0.0-17.0","139","1277","12","Female","false","true","false","false","""event"",""trial"",""time""
""fullscreenenter"",""5"",""18722""
","
","
","""event"",""trial"",""time""
""fullscreenenter"",""5"",""18722""
","
","","","","","","","","","","","","","","","","","","","","","",""
"d3-instructions","18","164247","0.0-18.0","139","1277","12","Female","false","true","false","false","""event"",""trial"",""time""
""fullscreenenter"",""5"",""18722""
","
","
","""event"",""trial"",""time""
""fullscreenenter"",""5"",""18722""
","
","","","","","","","","","","","","","","","","","","","","","",""
"d3-instructions","19","182505","0.0-19.0","139","1277","12","Female","false","true","false","false","""event"",""trial"",""time""
""fullscreenenter"",""5"",""18722""
","
","
","""event"",""trial"",""time""
""fullscreenenter"",""5"",""18722""
","
","","","","","","","","","","","","","","","","","","","","","",""
"d3-animate-choice","20","185844","0.0-20.0","139","1277","12","Female","false","true","false","false","""event"",""trial"",""time""
""fullscreenenter"",""5"",""18722""
","
","
","""event"",""trial"",""time""
""fullscreenenter"",""5"",""18722""
","
","1333.4000000953674","","49","","","3000","1","","","images/tutyellowplanet.jpg","null","images/tutalien3","null","images/tutalien3","images/t.png","NA","practice","null","","","",""
"d3-animate-choice","21","188421","0.0-21.0","139","1277","12","Female","false","true","false","false","""event"",""trial"",""time""
""fullscreenenter"",""5"",""18722""
","
","
","""event"",""trial"",""time""
""fullscreenenter"",""5"",""18722""
","
","571.3999998569489","","49","","","3000","1","","","images/tutyellowplanet.jpg","null","images/tutalien3","null","images/tutalien3","images/nothing.png","NA","practice","null","","","",""
"d3-animate-choice","22","191082","0.0-22.0","139","1277","12","Female","false","true","false","false","""event"",""trial"",""time""
""fullscreenenter"",""5"",""18722""
","
","
","""event"",""trial"",""time""
""fullscreenenter"",""5"",""18722""
","
","653.5999999046326","","49","","","3000","1","","","images/tutyellowplanet.jpg","null","images/tutalien3","null","images/tutalien3","images/t.png","NA","practice","null","","","",""
"d3-animate-choice","23","193520","0.0-23.0","139","1277","12","Female","false","true","false","false","""event"",""trial"",""time""
""fullscreenenter"",""5"",""18722""
","
","
","""event"",""trial"",""time""
""fullscreenenter"",""5"",""18722""
","
","432.59999990463257","","49","","","3000","1","2080.7000000476837","49","images/tutyellowplanet.jpg","null","images/tutalien3","null","images/tutalien3","images/t.png","NA","practice","null","","","",""
"d3-animate-choice","24","196053","0.0-24.0","139","1277","12","Female","false","true","false","false","""event"",""trial"",""time""
""fullscreenenter"",""5"",""18722""
","
","
","""event"",""trial"",""time""
""fullscreenenter"",""5"",""18722""
","
","523.7000000476837","","49","","","3000","1","","","images/tutyellowplanet.jpg","null","images/tutalien3","null","images/tutalien3","images/nothing.png","NA","practice","null","","","",""
"d3-animate-choice","25","198555","0.0-25.0","139","1277","12","Female","false","true","false","false","""event"",""trial"",""time""
""fullscreenenter"",""5"",""18722""
","
","
","""event"",""trial"",""time""
""fullscreenenter"",""5"",""18722""
","
","496.5","","49","","","3000","1","","","images/tutyellowplanet.jpg","null","images/tutalien3","null","images/tutalien3","images/t.png","NA","practice","null","","","",""
"d3-animate-choice","26","201457","0.0-26.0","139","1277","12","Female","false","true","false","false","""event"",""trial"",""time""
""fullscreenenter"",""5"",""18722""
","
","
","""event"",""trial"",""time""
""fullscreenenter"",""5"",""18722""
","
","892.9000000953674","","49","","","3000","1","","","images/tutyellowplanet.jpg","null","images/tutalien3","null","images/tutalien3","images/nothing.png","NA","practice","null","","","",""
"d3-animate-choice","27","204182","0.0-27.0","139","1277","12","Female","false","true","false","false","""event"",""trial"",""time""
""fullscreenenter"",""5"",""18722""
","
","
","""event"",""trial"",""time""
""fullscreenenter"",""5"",""18722""
","
","720.5999999046326","","49","","","3000","1","","","images/tutyellowplanet.jpg","null","images/tutalien3","null","images/tutalien3","images/nothing.png","NA","practice","null","","","",""
"d3-animate-choice","28","206838","0.0-28.0","139","1277","12","Female","false","true","false","false","""event"",""trial"",""time""
""fullscreenenter"",""5"",""18722""
","
","
","""event"",""trial"",""time""
""fullscreenenter"",""5"",""18722""
","
","651.2999999523163","","49","","","3000","1","","","images/tutyellowplanet.jpg","null","images/tutalien3","null","images/tutalien3","images/t.png","NA","practice","null","","","",""
"d3-animate-choice","29","209489","0.0-29.0","139","1277","12","Female","false","true","false","false","""event"",""trial"",""time""
""fullscreenenter"",""5"",""18722""
","
","
","""event"",""trial"",""time""
""fullscreenenter"",""5"",""18722""
","
","643.7000000476837","","49","","","3000","1","","","images/tutyellowplanet.jpg","null","images/tutalien3","null","images/tutalien3","images/nothing.png","NA","practice","null","","","",""
"d3-instructions","30","220208","0.0-30.0","139","1277","12","Female","false","true","false","false","""event"",""trial"",""time""
""fullscreenenter"",""5"",""18722""
","
","
","""event"",""trial"",""time""
""fullscreenenter"",""5"",""18722""
","
","","","","","","","","","","","","","","","","","","","","","",""
"d3-instructions","31","230533","0.0-31.0","139","1277","12","Female","false","true","false","false","""event"",""trial"",""time""
""fullscreenenter"",""5"",""18722""
","
","
","""event"",""trial"",""time""
""fullscreenenter"",""5"",""18722""
","
","","","","","","","","","","","","","","","","","","","","","",""
"d3-instructions","32","238200","0.0-32.0","139","1277","12","Female","false","true","false","false","""event"",""trial"",""time""
""fullscreenenter"",""5"",""18722""
","
","
","""event"",""trial"",""time""
""fullscreenenter"",""5"",""18722""
","
","","","","","","","","","","","","","","","","","","","","","",""
"d3-instructions","33","250023","0.0-33.0","139","1277","12","Female","false","true","false","false","""event"",""trial"",""time""
""fullscreenenter"",""5"",""18722""
","
","
","""event"",""trial"",""time""
""fullscreenenter"",""5"",""18722""
","
","","","","","","","","","","","","","","","","","","","","","",""
"d3-animate-choice","34","253151","0.0-34.0","139","1277","12","Female","false","true","false","false","""event"",""trial"",""time""
""fullscreenenter"",""5"",""18722""
","
","
","""event"",""trial"",""time""
""fullscreenenter"",""5"",""18722""
","
","1120.4000000953674","","49","","","3000","1","","","images/tutgreenplanet.jpg","images/tutalien1","images/tutalien2","null","images/tutalien2","images/t.png","NA","practice","null","","","",""
"d3-animate-choice","35","255903","0.0-35.0","139","1277","12","Female","false","true","false","false","""event"",""trial"",""time""
""fullscreenenter"",""5"",""18722""
","
","
","""event"",""trial"",""time""
""fullscreenenter"",""5"",""18722""
","
","743","","49","","","3000","1","","","images/tutgreenplanet.jpg","images/tutalien1","images/tutalien2","null","images/tutalien2","images/t.png","NA","practice","null","","","",""
"d3-animate-choice","36","258725","0.0-36.0","139","1277","12","Female","false","true","false","false","""event"",""trial"",""time""
""fullscreenenter"",""5"",""18722""
","
","
","""event"",""trial"",""time""
""fullscreenenter"",""5"",""18722""
","
","815","","49","","","3000","1","","","images/tutgreenplanet.jpg","images/tutalien1","images/tutalien2","null","images/tutalien2","images/nothing.png","NA","practice","null","","","",""
"d3-animate-choice","37","261369","0.0-37.0","139","1277","12","Female","false","true","false","false","""event"",""trial"",""time""
""fullscreenenter"",""5"",""18722""
","
","
","""event"",""trial"",""time""
""fullscreenenter"",""5"",""18722""
","
","638.7000000476837","","49","","","3000","1","","","images/tutgreenplanet.jpg","images/tutalien1","images/tutalien2","null","images/tutalien2","images/t.png","NA","practice","null","","","",""
"d3-animate-choice","38","263931","0.0-38.0","139","1277","12","Female","false","true","false","false","""event"",""trial"",""time""
""fullscreenenter"",""5"",""18722""
","
","
","""event"",""trial"",""time""
""fullscreenenter"",""5"",""18722""
","
","556.9000000953674","","49","","","3000","1","","","images/tutgreenplanet.jpg","images/tutalien1","images/tutalien2","null","images/tutalien2","images/t.png","NA","practice","null","","","",""
"d3-animate-choice","39","266483","0.0-39.0","139","1277","12","Female","false","true","false","false","""event"",""trial"",""time""
""fullscreenenter"",""5"",""18722""
","
","
","""event"",""trial"",""time""
""fullscreenenter"",""5"",""18722""
","
","543.7000000476837","","49","","","3000","1","","","images/tutgreenplanet.jpg","images/tutalien1","images/tutalien2","null","images/tutalien2","images/t.png","NA","practice","null","","","",""
"d3-animate-choice","40","269040","0.0-40.0","139","1277","12","Female","false","true","false","false","""event"",""trial"",""time""
""fullscreenenter"",""5"",""18722""
","
","
","""event"",""trial"",""time""
""fullscreenenter"",""5"",""18722""
","
","553.4000000953674","","49","","","3000","1","","","images/tutgreenplanet.jpg","images/tutalien1","images/tutalien2","null","images/tutalien2","images/t.png","NA","practice","null","","","",""
"d3-animate-choice","41","271533","0.0-41.0","139","1277","12","Female","false","true","false","false","""event"",""trial"",""time""
""fullscreenenter"",""5"",""18722""
","
","
","""event"",""trial"",""time""
""fullscreenenter"",""5"",""18722""
","
","488.2999999523163","","49","","","3000","1","","","images/tutgreenplanet.jpg","images/tutalien1","images/tutalien2","null","images/tutalien2","images/t.png","NA","practice","null","","","",""
"d3-animate-choice","42","274138","0.0-42.0","139","1277","12","Female","false","true","false","false","""event"",""trial"",""time""
""fullscreenenter"",""5"",""18722""
","
","
","""event"",""trial"",""time""
""fullscreenenter"",""5"",""18722""
","
","600.3000001907349","","49","","","3000","1","","","images/tutgreenplanet.jpg","images/tutalien1","images/tutalien2","null","images/tutalien2","images/t.png","NA","practice","null","","","",""
"d3-animate-choice","43","276791","0.0-43.0","139","1277","12","Female","false","true","false","false","""event"",""trial"",""time""
""fullscreenenter"",""5"",""18722""
","
","
","""event"",""trial"",""time""
""fullscreenenter"",""5"",""18722""
","
","649.8999998569489","","49","","","3000","1","","","images/tutgreenplanet.jpg","images/tutalien1","images/tutalien2","null","images/tutalien2","images/t.png","NA","practice","null","","","",""
"d3-instructions","44","290417","0.0-44.0","139","1277","12","Female","false","true","false","false","""event"",""trial"",""time""
""fullscreenenter"",""5"",""18722""
","
","
","""event"",""trial"",""time""
""fullscreenenter"",""5"",""18722""
","
","","","","","","","","","","","","","","","","","","","","","",""
"d3-instructions","45","296521","0.0-45.0","139","1277","12","Female","false","true","false","false","""event"",""trial"",""time""
""fullscreenenter"",""5"",""18722""
","
","
","""event"",""trial"",""time""
""fullscreenenter"",""5"",""18722""
","
","","","","","","","","","","","","","","","","","","","","","",""
"d3-instructions","46","302138","0.0-46.0","139","1277","12","Female","false","true","false","false","""event"",""trial"",""time""
""fullscreenenter"",""5"",""18722""
","
","
","""event"",""trial"",""time""
""fullscreenenter"",""5"",""18722""
","
","","","","","","","","","","","","","","","","","","","","","",""
"d3-instructions","47","319350","0.0-47.0","139","1277","12","Female","false","true","false","false","""event"",""trial"",""time""
""fullscreenenter"",""5"",""18722""
","
","
","""event"",""trial"",""time""
""fullscreenenter"",""5"",""18722""
","
","","","","","","","","","","","","","","","","","","","","","",""
"d3-instructions","48","328877","0.0-48.0","139","1277","12","Female","false","true","false","false","""event"",""trial"",""time""
""fullscreenenter"",""5"",""18722""
","
","
","""event"",""trial"",""time""
""fullscreenenter"",""5"",""18722""
","
","","","","","","","","","","","","","","","","","","","","","",""
"d3-instructions","49","343006","0.0-49.0","139","1277","12","Female","false","true","false","false","""event"",""trial"",""time""
""fullscreenenter"",""5"",""18722""
","
","
","""event"",""trial"",""time""
""fullscreenenter"",""5"",""18722""
","
","","","","","","","","","","","","","","","","","","","","","",""
"d3-instructions","50","357492","0.0-50.0","139","1277","12","Female","false","true","false","false","""event"",""trial"",""time""
""fullscreenenter"",""5"",""18722""
","
","
","""event"",""trial"",""time""
""fullscreenenter"",""5"",""18722""
","
","","","","","","","","","","","","","","","","","","","","","",""
"d3-instructions","51","361952","0.0-51.0","139","1277","12","Female","false","true","false","false","""event"",""trial"",""time""
""fullscreenenter"",""5"",""18722""
","
","
","""event"",""trial"",""time""
""fullscreenenter"",""5"",""18722""
","
","","","","","","","","","","","","","","","","","","","","","",""
"d3-instructions","52","365475","0.0-52.0","139","1277","12","Female","false","true","false","false","""event"",""trial"",""time""
""fullscreenenter"",""5"",""18722""
","
","
","""event"",""trial"",""time""
""fullscreenenter"",""5"",""18722""
","
","","","","","","","","","","","","","","","","","","","","","",""
"d3-instructions","53","385524","0.0-53.0","139","1277","12","Female","false","true","false","false","""event"",""trial"",""time""
""fullscreenenter"",""5"",""18722""
","
","
","""event"",""trial"",""time""
""fullscreenenter"",""5"",""18722""
","
","","","","","","","","","","","","","","","","","","","","","",""
"d3-instructions","54","400729","0.0-54.0","139","1277","12","Female","false","true","false","false","""event"",""trial"",""time""
""fullscreenenter"",""5"",""18722""
","
","
","""event"",""trial"",""time""
""fullscreenenter"",""5"",""18722""
","
","","","","","","","","","","","","","","","","","","","","","",""
"d3-instructions","55","411610","0.0-55.0","139","1277","12","Female","false","true","false","false","""event"",""trial"",""time""
""fullscreenenter"",""5"",""18722""
","
","
","""event"",""trial"",""time""
""fullscreenenter"",""5"",""18722""
","
","","","","","","","","","","","","","","","","","","","","","",""
"d3-instructions","56","424970","0.0-56.0","139","1277","12","Female","false","true","false","false","""event"",""trial"",""time""
""fullscreenenter"",""5"",""18722""
","
","
","""event"",""trial"",""time""
""fullscreenenter"",""5"",""18722""
","
","","","","","","","","","","","","","","","","","","","","","",""
"d3-instructions","57","438985","0.0-57.0","139","1277","12","Female","false","true","false","false","""event"",""trial"",""time""
""fullscreenenter"",""5"",""18722""
","
","
","""event"",""trial"",""time""
""fullscreenenter"",""5"",""18722""
","
","","","","","","","","","","","","","","","","","","","","","",""
"d3-instructions","58","518704","0.0-58.0","139","1277","12","Female","false","true","false","false","""event"",""trial"",""time""
""fullscreenenter"",""5"",""18722""
","
","
","""event"",""trial"",""time""
""fullscreenenter"",""5"",""18722""
","
","","","","","","","","","","","","","","","","","","","","","",""
"d3-instructions","59","524783","0.0-59.0","139","1277","12","Female","false","true","false","false","""event"",""trial"",""time""
""fullscreenenter"",""5"",""18722""
","
","
","""event"",""trial"",""time""
""fullscreenenter"",""5"",""18722""
","
","","","","","","","","","","","","","","","","","","","","","",""
"d3-instructions","60","531519","0.0-60.0","139","1277","12","Female","false","true","false","false","""event"",""trial"",""time""
""fullscreenenter"",""5"",""18722""
","
","
","""event"",""trial"",""time""
""fullscreenenter"",""5"",""18722""
","
","","","","","","","","","","","","","","","","","","","","","",""
"d3-animate-choice","61","534642","0.0-61.0-0.0","139","1277","12","Female","false","true","false","false","""event"",""trial"",""time""
""fullscreenenter"",""5"",""18722""
","
","
","""event"",""trial"",""time""
""fullscreenenter"",""5"",""18722""
","
","1112","","49","","","3000","1","","","images/earth.jpg","images/tutrocket1","images/tutrocket2","null","images/tutrocket2","","1","practice","null","1","","",""
"d3-animate-choice","62","538469","0.0-61.0-1.0","139","1277","12","Female","false","true","false","false","""event"",""trial"",""time""
""fullscreenenter"",""5"",""18722""
","
","
","""event"",""trial"",""time""
""fullscreenenter"",""5"",""18722""
","
","1816","","49","","","3000","1","","","images/tutyellowplanet.jpg","images/tutalien4","images/tutalien3","images/tutrocket2","images/tutalien3","images/nothing.png","2","practice","true","1","common","0","2022-03-27 15:26:01.448"
"two-step-fixation","63","539475","0.0-61.0-2.0","139","1277","12","Female","false","true","false","false","""event"",""trial"",""time""
""fullscreenenter"",""5"",""18722""
","
","
","""event"",""trial"",""time""
""fullscreenenter"",""5"",""18722""
","
","","images/earth.jpg","","","","","","","","","","","","","","fixation","","","","","",""
"d3-animate-choice","64","543233","0.0-61.0-0.1","139","1277","12","Female","false","true","false","false","""event"",""trial"",""time""
""fullscreenenter"",""5"",""18722""
","
","
","""event"",""trial"",""time""
""fullscreenenter"",""5"",""18722""
","
","1751.0999999046326","","49","","","3000","1","","","images/earth.jpg","images/tutrocket1","images/tutrocket2","null","images/tutrocket2","","1","practice","null","1","","",""
"d3-animate-choice","65","547237","0.0-61.0-1.1","139","1277","12","Female","false","true","false","false","""event"",""trial"",""time""
""fullscreenenter"",""5"",""18722""
","
","
","""event"",""trial"",""time""
""fullscreenenter"",""5"",""18722""
","
","2242.2999999523163","","48","","","3000","1","","","images/tutgreenplanet.jpg","images/tutalien2","images/tutalien1","images/tutrocket2","images/tutalien2","images/nothing.png","2","practice","false","2","rare","0","2022-03-27 15:26:10.216"
"two-step-fixation","66","548243","0.0-61.0-2.1","139","1277","12","Female","false","true","false","false","""event"",""trial"",""time""
""fullscreenenter"",""5"",""18722""
","
","
","""event"",""trial"",""time""
""fullscreenenter"",""5"",""18722""
","
","","images/earth.jpg","","","","","","","","","","","","","","fixation","","","","","",""
"d3-animate-choice","67","551175","0.0-61.0-0.2","139","1277","12","Female","false","true","false","false","""event"",""trial"",""time""
""fullscreenenter"",""5"",""18722""
","
","
","""event"",""trial"",""time""
""fullscreenenter"",""5"",""18722""
","
","926.2999999523163","","49","","","3000","1","","","images/earth.jpg","images/tutrocket1","images/tutrocket2","null","images/tutrocket2","","1","practice","null","1","","",""
"d3-animate-choice","68","554466","0.0-61.0-1.2","139","1277","12","Female","false","true","false","false","""event"",""trial"",""time""
""fullscreenenter"",""5"",""18722""
","
","
","""event"",""trial"",""time""
""fullscreenenter"",""5"",""18722""
","
","1285.2000000476837","","48","","","3000","1","","","images/tutgreenplanet.jpg","images/tutalien2","images/tutalien1","images/tutrocket2","images/tutalien2","images/nothing.png","2","practice","false","2","rare","0","2022-03-27 15:26:17.445"
"two-step-fixation","69","555473","0.0-61.0-2.2","139","1277","12","Female","false","true","false","false","""event"",""trial"",""time""
""fullscreenenter"",""5"",""18722""
","
","
","""event"",""trial"",""time""
""fullscreenenter"",""5"",""18722""
","
","","images/earth.jpg","","","","","","","","","","","","","","fixation","","","","","",""
"d3-animate-choice","70","558335","0.0-61.0-0.3","139","1277","12","Female","false","true","false","false","""event"",""trial"",""time""
""fullscreenenter"",""5"",""18722""
","
","
","""event"",""trial"",""time""
""fullscreenenter"",""5"",""18722""
","
","855.9000000953674","","49","","","3000","1","","","images/earth.jpg","images/tutrocket1","images/tutrocket2","null","images/tutrocket2","","1","practice","null","1","","",""
"d3-animate-choice","71","561838","0.0-61.0-1.3","139","1277","12","Female","false","true","false","false","""event"",""trial"",""time""
""fullscreenenter"",""5"",""18722""
","
","
","""event"",""trial"",""time""
""fullscreenenter"",""5"",""18722""
","
","1494.6000001430511","","49","","","3000","1","","","images/tutyellowplanet.jpg","images/tutalien4","images/tutalien3","images/tutrocket2","images/tutalien3","images/nothing.png","2","practice","true","1","common","0","2022-03-27 15:26:24.817"
"two-step-fixation","72","562842","0.0-61.0-2.3","139","1277","12","Female","false","true","false","false","""event"",""trial"",""time""
""fullscreenenter"",""5"",""18722""
","
","
","""event"",""trial"",""time""
""fullscreenenter"",""5"",""18722""
","
","","images/earth.jpg","","","","","","","","","","","","","","fixation","","","","","",""
"d3-animate-choice","73","565710","0.0-61.0-0.4","139","1277","12","Female","false","true","false","false","""event"",""trial"",""time""
""fullscreenenter"",""5"",""18722""
","
","
","""event"",""trial"",""time""
""fullscreenenter"",""5"",""18722""
","
","862.7000000476837","","48","","","3000","1","","","images/earth.jpg","images/tutrocket1","images/tutrocket2","null","images/tutrocket1","","1","practice","null","2","","",""
"d3-animate-choice","74","569022","0.0-61.0-1.4","139","1277","12","Female","false","true","false","false","""event"",""trial"",""time""
""fullscreenenter"",""5"",""18722""
","
","
","""event"",""trial"",""time""
""fullscreenenter"",""5"",""18722""
","
","1307.2000000476837","","49","","","3000","1","","","images/tutgreenplanet.jpg","images/tutalien2","images/tutalien1","images/tutrocket1","images/tutalien1","images/nothing.png","2","practice","true","1","common","0","2022-03-27 15:26:32.001"
"two-step-fixation","75","570028","0.0-61.0-2.4","139","1277","12","Female","false","true","false","false","""event"",""trial"",""time""
""fullscreenenter"",""5"",""18722""
","
","
","""event"",""trial"",""time""
""fullscreenenter"",""5"",""18722""
","
","","images/earth.jpg","","","","","","","","","","","","","","fixation","","","","","",""
"d3-animate-choice","76","572502","0.0-61.0-0.5","139","1277","12","Female","false","true","false","false","""event"",""trial"",""time""
""fullscreenenter"",""5"",""18722""
","
","
","""event"",""trial"",""time""
""fullscreenenter"",""5"",""18722""
","
","467.89999985694885","","48","","","3000","1","","","images/earth.jpg","images/tutrocket1","images/tutrocket2","null","images/tutrocket1","","1","practice","null","2","","",""
"d3-animate-choice","77","575535","0.0-61.0-1.5","139","1277","12","Female","false","true","false","false","""event"",""trial"",""time""
""fullscreenenter"",""5"",""18722""
","
","
","""event"",""trial"",""time""
""fullscreenenter"",""5"",""18722""
","
","1026.1999998092651","","49","","","3000","1","","","images/tutgreenplanet.jpg","images/tutalien2","images/tutalien1","images/tutrocket1","images/tutalien1","images/t.png","2","practice","true","1","common","1","2022-03-27 15:26:38.514"
"two-step-fixation","78","576541","0.0-61.0-2.5","139","1277","12","Female","false","true","false","false","""event"",""trial"",""time""
""fullscreenenter"",""5"",""18722""
","
","
","""event"",""trial"",""time""
""fullscreenenter"",""5"",""18722""
","
","","images/earth.jpg","","","","","","","","","","","","","","fixation","","","","","",""
"d3-animate-choice","79","579368","0.0-61.0-0.6","139","1277","12","Female","false","true","false","false","""event"",""trial"",""time""
""fullscreenenter"",""5"",""18722""
","
","
","""event"",""trial"",""time""
""fullscreenenter"",""5"",""18722""
","
","818.7000000476837","","48","","","3000","1","","","images/earth.jpg","images/tutrocket1","images/tutrocket2","null","images/tutrocket1","","1","practice","null","2","","",""
"d3-animate-choice","80","582239","0.0-61.0-1.6","139","1277","12","Female","false","true","false","false","""event"",""trial"",""time""
""fullscreenenter"",""5"",""18722""
","
","
","""event"",""trial"",""time""
""fullscreenenter"",""5"",""18722""
","
","866.4000000953674","","49","","","3000","1","","","images/tutgreenplanet.jpg","images/tutalien2","images/tutalien1","images/tutrocket1","images/tutalien1","images/nothing.png","2","practice","true","1","common","0","2022-03-27 15:26:45.218"
"two-step-fixation","81","583244","0.0-61.0-2.6","139","1277","12","Female","false","true","false","false","""event"",""trial"",""time""
""fullscreenenter"",""5"",""18722""
","
","
","""event"",""trial"",""time""
""fullscreenenter"",""5"",""18722""
","
","","images/earth.jpg","","","","","","","","","","","","","","fixation","","","","","",""
"d3-animate-choice","82","585752","0.0-61.0-0.7","139","1277","12","Female","false","true","false","false","""event"",""trial"",""time""
""fullscreenenter"",""5"",""18722""
","
","
","""event"",""trial"",""time""
""fullscreenenter"",""5"",""18722""
","
","504","","48","","","3000","1","","","images/earth.jpg","images/tutrocket1","images/tutrocket2","null","images/tutrocket1","","1","practice","null","2","","",""
"d3-animate-choice","83","588618","0.0-61.0-1.7","139","1277","12","Female","false","true","false","false","""event"",""trial"",""time""
""fullscreenenter"",""5"",""18722""
","
","
","""event"",""trial"",""time""
""fullscreenenter"",""5"",""18722""
","
","860.4000000953674","","48","","","3000","1","","","images/tutgreenplanet.jpg","images/tutalien2","images/tutalien1","images/tutrocket1","images/tutalien2","images/nothing.png","2","practice","true","2","common","0","2022-03-27 15:26:51.597"
"two-step-fixation","84","589624","0.0-61.0-2.7","139","1277","12","Female","false","true","false","false","""event"",""trial"",""time""
""fullscreenenter"",""5"",""18722""
","
","
","""event"",""trial"",""time""
""fullscreenenter"",""5"",""18722""
","
","","images/earth.jpg","","","","","","","","","","","","","","fixation","","","","","",""
"d3-animate-choice","85","592136","0.0-61.0-0.8","139","1277","12","Female","false","true","false","false","""event"",""trial"",""time""
""fullscreenenter"",""5"",""18722""
","
","
","""event"",""trial"",""time""
""fullscreenenter"",""5"",""18722""
","
","502.39999985694885","","49","","","3000","1","","","images/earth.jpg","images/tutrocket1","images/tutrocket2","null","images/tutrocket2","","1","practice","null","1","","",""
"d3-animate-choice","86","594666","0.0-61.0-1.8","139","1277","12","Female","false","true","false","false","""event"",""trial"",""time""
""fullscreenenter"",""5"",""18722""
","
","
","""event"",""trial"",""time""
""fullscreenenter"",""5"",""18722""
","
","522","","48","","","3000","1","","","images/tutyellowplanet.jpg","images/tutalien4","images/tutalien3","images/tutrocket2","images/tutalien4","images/nothing.png","2","practice","true","2","common","0","2022-03-27 15:26:57.645"
"two-step-fixation","87","595672","0.0-61.0-2.8","139","1277","12","Female","false","true","false","false","""event"",""trial"",""time""
""fullscreenenter"",""5"",""18722""
","
","
","""event"",""trial"",""time""
""fullscreenenter"",""5"",""18722""
","
","","images/earth.jpg","","","","","","","","","","","","","","fixation","","","","","",""
"d3-animate-choice","88","598049","0.0-61.0-0.9","139","1277","12","Female","false","true","false","false","""event"",""trial"",""time""
""fullscreenenter"",""5"",""18722""
","
","
","""event"",""trial"",""time""
""fullscreenenter"",""5"",""18722""
","
","369","","49","","","3000","1","","","images/earth.jpg","images/tutrocket1","images/tutrocket2","null","images/tutrocket2","","1","practice","null","1","","",""
"d3-animate-choice","89","600510","0.0-61.0-1.9","139","1277","12","Female","false","true","false","false","""event"",""trial"",""time""
""fullscreenenter"",""5"",""18722""
","
","
","""event"",""trial"",""time""
""fullscreenenter"",""5"",""18722""
","
","452.7000000476837","","48","","","3000","1","","","images/tutyellowplanet.jpg","images/tutalien4","images/tutalien3","images/tutrocket2","images/tutalien4","images/nothing.png","2","practice","true","2","common","0","2022-03-27 15:27:03.489"
"two-step-fixation","90","601519","0.0-61.0-2.9","139","1277","12","Female","false","true","false","false","""event"",""trial"",""time""
""fullscreenenter"",""5"",""18722""
","
","
","""event"",""trial"",""time""
""fullscreenenter"",""5"",""18722""
","
","","images/earth.jpg","","","","","","","","","","","","","","fixation","","","","","",""
"d3-animate-choice","91","604275","0.0-61.0-0.10","139","1277","12","Female","false","true","false","false","""event"",""trial"",""time""
""fullscreenenter"",""5"",""18722""
","
","
","""event"",""trial"",""time""
""fullscreenenter"",""5"",""18722""
","
","749.2000000476837","","48","","","3000","1","","","images/earth.jpg","images/tutrocket1","images/tutrocket2","null","images/tutrocket1","","1","practice","null","2","","",""
"d3-animate-choice","92","607774","0.0-61.0-1.10","139","1277","12","Female","false","true","false","false","""event"",""trial"",""time""
""fullscreenenter"",""5"",""18722""
","
","
","""event"",""trial"",""time""
""fullscreenenter"",""5"",""18722""
","
","1493.7000000476837","","49","","","3000","1","","","images/tutgreenplanet.jpg","images/tutalien2","images/tutalien1","images/tutrocket1","images/tutalien1","images/nothing.png","2","practice","true","1","common","0","2022-03-27 15:27:10.753"
"two-step-fixation","93","608782","0.0-61.0-2.10","139","1277","12","Female","false","true","false","false","""event"",""trial"",""time""
""fullscreenenter"",""5"",""18722""
","
","
","""event"",""trial"",""time""
""fullscreenenter"",""5"",""18722""
","
","","images/earth.jpg","","","","","","","","","","","","","","fixation","","","","","",""
"d3-animate-choice","94","611717","0.0-61.0-0.11","139","1277","12","Female","false","true","false","false","""event"",""trial"",""time""
""fullscreenenter"",""5"",""18722""
","
","
","""event"",""trial"",""time""
""fullscreenenter"",""5"",""18722""
","
","929","","49","","","3000","1","","","images/earth.jpg","images/tutrocket1","images/tutrocket2","null","images/tutrocket2","","1","practice","null","1","","",""
"d3-animate-choice","95","614307","0.0-61.0-1.11","139","1277","12","Female","false","true","false","false","""event"",""trial"",""time""
""fullscreenenter"",""5"",""18722""
","
","
","""event"",""trial"",""time""
""fullscreenenter"",""5"",""18722""
","
","584.2999999523163","","48","","","3000","1","","","images/tutyellowplanet.jpg","images/tutalien4","images/tutalien3","images/tutrocket2","images/tutalien4","images/nothing.png","2","practice","true","2","common","0","2022-03-27 15:27:17.286"
"two-step-fixation","96","615312","0.0-61.0-2.11","139","1277","12","Female","false","true","false","false","""event"",""trial"",""time""
""fullscreenenter"",""5"",""18722""
","
","
","""event"",""trial"",""time""
""fullscreenenter"",""5"",""18722""
","
","","images/earth.jpg","","","","","","","","","","","","","","fixation","","","","","",""
"d3-animate-choice","97","618189","0.0-61.0-0.12","139","1277","12","Female","false","true","false","false","""event"",""trial"",""time""
""fullscreenenter"",""5"",""18722""
","
","
","""event"",""trial"",""time""
""fullscreenenter"",""5"",""18722""
","
","871.5","","48","","","3000","1","","","images/earth.jpg","images/tutrocket1","images/tutrocket2","null","images/tutrocket1","","1","practice","null","2","","",""
"d3-animate-choice","98","620999","0.0-61.0-1.12","139","1277","12","Female","false","true","false","false","""event"",""trial"",""time""
""fullscreenenter"",""5"",""18722""
","
","
","""event"",""trial"",""time""
""fullscreenenter"",""5"",""18722""
","
","802.4000000953674","","49","","","3000","1","","","images/tutgreenplanet.jpg","images/tutalien2","images/tutalien1","images/tutrocket1","images/tutalien1","images/t.png","2","practice","true","1","common","1","2022-03-27 15:27:23.978"
"two-step-fixation","99","622008","0.0-61.0-2.12","139","1277","12","Female","false","true","false","false","""event"",""trial"",""time""
""fullscreenenter"",""5"",""18722""
","
","
","""event"",""trial"",""time""
""fullscreenenter"",""5"",""18722""
","
","","images/earth.jpg","","","","","","","","","","","","","","fixation","","","","","",""
"d3-animate-choice","100","624413","0.0-61.0-0.13","139","1277","12","Female","false","true","false","false","""event"",""trial"",""time""
""fullscreenenter"",""5"",""18722""
","
","
","""event"",""trial"",""time""
""fullscreenenter"",""5"",""18722""
","
","400.5","","48","","","3000","1","","","images/earth.jpg","images/tutrocket1","images/tutrocket2","null","images/tutrocket1","","1","practice","null","2","","",""
"d3-animate-choice","101","626842","0.0-61.0-1.13","139","1277","12","Female","false","true","false","false","""event"",""trial"",""time""
""fullscreenenter"",""5"",""18722""
","
","
","""event"",""trial"",""time""
""fullscreenenter"",""5"",""18722""
","
","423.7999999523163","","49","","","3000","1","","","images/tutgreenplanet.jpg","images/tutalien2","images/tutalien1","images/tutrocket1","images/tutalien1","images/nothing.png","2","practice","true","1","common","0","2022-03-27 15:27:29.821"
"two-step-fixation","102","627846","0.0-61.0-2.13","139","1277","12","Female","false","true","false","false","""event"",""trial"",""time""
""fullscreenenter"",""5"",""18722""
","
","
","""event"",""trial"",""time""
""fullscreenenter"",""5"",""18722""
","
","","images/earth.jpg","","","","","","","","","","","","","","fixation","","","","","",""
"d3-animate-choice","103","630349","0.0-61.0-0.14","139","1277","12","Female","false","true","false","false","""event"",""trial"",""time""
""fullscreenenter"",""5"",""18722""
","
","
","""event"",""trial"",""time""
""fullscreenenter"",""5"",""18722""
","
","495.2000000476837","","48","","","3000","1","","","images/earth.jpg","images/tutrocket1","images/tutrocket2","null","images/tutrocket1","","1","practice","null","2","","",""
"d3-animate-choice","104","632854","0.0-61.0-1.14","139","1277","12","Female","false","true","false","false","""event"",""trial"",""time""
""fullscreenenter"",""5"",""18722""
","
","
","""event"",""trial"",""time""
""fullscreenenter"",""5"",""18722""
","
","500.10000014305115","","49","","","3000","1","","","images/tutgreenplanet.jpg","images/tutalien2","images/tutalien1","images/tutrocket1","images/tutalien1","images/nothing.png","2","practice","true","1","common","0","2022-03-27 15:27:35.834"
"two-step-fixation","105","633862","0.0-61.0-2.14","139","1277","12","Female","false","true","false","false","""event"",""trial"",""time""
""fullscreenenter"",""5"",""18722""
","
","
","""event"",""trial"",""time""
""fullscreenenter"",""5"",""18722""
","
","","images/earth.jpg","","","","","","","","","","","","","","fixation","","","","","",""
"d3-animate-choice","106","636266","0.0-61.0-0.15","139","1277","12","Female","false","true","false","false","""event"",""trial"",""time""
""fullscreenenter"",""5"",""18722""
","
","
","""event"",""trial"",""time""
""fullscreenenter"",""5"",""18722""
","
","398.2000000476837","","48","","","3000","1","","","images/earth.jpg","images/tutrocket1","images/tutrocket2","null","images/tutrocket1","","1","practice","null","2","","",""
"d3-animate-choice","107","638815","0.0-61.0-1.15","139","1277","12","Female","false","true","false","false","""event"",""trial"",""time""
""fullscreenenter"",""5"",""18722""
","
","
","""event"",""trial"",""time""
""fullscreenenter"",""5"",""18722""
","
","542.2999999523163","","49","","","3000","1","","","images/tutgreenplanet.jpg","images/tutalien2","images/tutalien1","images/tutrocket1","images/tutalien1","images/nothing.png","2","practice","true","1","common","0","2022-03-27 15:27:41.794"
"two-step-fixation","108","639821","0.0-61.0-2.15","139","1277","12","Female","false","true","false","false","""event"",""trial"",""time""
""fullscreenenter"",""5"",""18722""
","
","
","""event"",""trial"",""time""
""fullscreenenter"",""5"",""18722""
","
","","images/earth.jpg","","","","","","","","","","","","","","fixation","","","","","",""
"d3-animate-choice","109","642220","0.0-61.0-0.16","139","1277","12","Female","false","true","false","false","""event"",""trial"",""time""
""fullscreenenter"",""5"",""18722""
","
","
","""event"",""trial"",""time""
""fullscreenenter"",""5"",""18722""
","
","395.5","","48","","","3000","1","","","images/earth.jpg","images/tutrocket1","images/tutrocket2","null","images/tutrocket1","","1","practice","null","2","","",""
"d3-animate-choice","110","646226","0.0-61.0-1.16","139","1277","12","Female","false","true","false","false","""event"",""trial"",""time""
""fullscreenenter"",""5"",""18722""
","
","
","""event"",""trial"",""time""
""fullscreenenter"",""5"",""18722""
","
","2880","","48","","","3000","1","","","images/tutyellowplanet.jpg","images/tutalien4","images/tutalien3","images/tutrocket1","images/tutalien4","","2","practice","false","2","rare","0","2022-03-27 15:27:49.205"
"two-step-fixation","111","647232","0.0-61.0-2.16","139","1277","12","Female","false","true","false","false","""event"",""trial"",""time""
""fullscreenenter"",""5"",""18722""
","
","
","""event"",""trial"",""time""
""fullscreenenter"",""5"",""18722""
","
","","images/earth.jpg","","","","","","","","","","","","","","fixation","","","","","",""
"d3-animate-choice","112","650403","0.0-61.0-0.17","139","1277","12","Female","false","true","false","false","""event"",""trial"",""time""
""fullscreenenter"",""5"",""18722""
","
","
","""event"",""trial"",""time""
""fullscreenenter"",""5"",""18722""
","
","1164.7999999523163","","49","","","3000","1","","","images/earth.jpg","images/tutrocket1","images/tutrocket2","null","images/tutrocket2","","1","practice","null","1","","",""
"d3-animate-choice","113","653133","0.0-61.0-1.17","139","1277","12","Female","false","true","false","false","""event"",""trial"",""time""
""fullscreenenter"",""5"",""18722""
","
","
","""event"",""trial"",""time""
""fullscreenenter"",""5"",""18722""
","
","722.0999999046326","","49","","","3000","1","","","images/tutyellowplanet.jpg","images/tutalien4","images/tutalien3","images/tutrocket2","images/tutalien3","images/t.png","2","practice","true","1","common","1","2022-03-27 15:27:56.113"
"two-step-fixation","114","654141","0.0-61.0-2.17","139","1277","12","Female","false","true","false","false","""event"",""trial"",""time""
""fullscreenenter"",""5"",""18722""
","
","
","""event"",""trial"",""time""
""fullscreenenter"",""5"",""18722""
","
","","images/earth.jpg","","","","","","","","","","","","","","fixation","","","","","",""
"d3-animate-choice","115","657091","0.0-61.0-0.18","139","1277","12","Female","false","true","false","false","""event"",""trial"",""time""
""fullscreenenter"",""5"",""18722""
","
","
","""event"",""trial"",""time""
""fullscreenenter"",""5"",""18722""
","
","943.5999999046326","","49","","","3000","1","","","images/earth.jpg","images/tutrocket1","images/tutrocket2","null","images/tutrocket2","","1","practice","null","1","","",""
"d3-animate-choice","116","659722","0.0-61.0-1.18","139","1277","12","Female","false","true","false","false","""event"",""trial"",""time""
""fullscreenenter"",""5"",""18722""
","
","
","""event"",""trial"",""time""
""fullscreenenter"",""5"",""18722""
","
","626.5","","49","","","3000","1","","","images/tutgreenplanet.jpg","images/tutalien2","images/tutalien1","images/tutrocket2","images/tutalien1","images/t.png","2","practice","false","1","rare","1","2022-03-27 15:28:02.701"
"two-step-fixation","117","660728","0.0-61.0-2.18","139","1277","12","Female","false","true","false","false","""event"",""trial"",""time""
""fullscreenenter"",""5"",""18722""
","
","
","""event"",""trial"",""time""
""fullscreenenter"",""5"",""18722""
","
","","images/earth.jpg","","","","","","","","","","","","","","fixation","","","","","",""
"d3-animate-choice","118","663458","0.0-61.0-0.19","139","1277","12","Female","false","true","false","false","""event"",""trial"",""time""
""fullscreenenter"",""5"",""18722""
","
","
","""event"",""trial"",""time""
""fullscreenenter"",""5"",""18722""
","
","725.2999999523163","","49","","","3000","1","","","images/earth.jpg","images/tutrocket1","images/tutrocket2","null","images/tutrocket2","","1","practice","null","1","","",""
"d3-animate-choice","119","665949","0.0-61.0-1.19","139","1277","12","Female","false","true","false","false","""event"",""trial"",""time""
""fullscreenenter"",""5"",""18722""
","
","
","""event"",""trial"",""time""
""fullscreenenter"",""5"",""18722""
","
","481.5","","49","","","3000","1","","","images/tutyellowplanet.jpg","images/tutalien4","images/tutalien3","images/tutrocket2","images/tutalien3","images/t.png","2","practice","true","1","common","1","2022-03-27 15:28:08.928"
"two-step-fixation","120","666954","0.0-61.0-2.19","139","1277","12","Female","false","true","false","false","""event"",""trial"",""time""
""fullscreenenter"",""5"",""18722""
","
","
","""event"",""trial"",""time""
""fullscreenenter"",""5"",""18722""
","
","","images/earth.jpg","","","","","","","","","","","","","","fixation","","","","","",""
"d3-instructions","121","675378","0.0-62.0","139","1277","12","Female","false","true","false","false","""event"",""trial"",""time""
""fullscreenenter"",""5"",""18722""
","
","
","""event"",""trial"",""time""
""fullscreenenter"",""5"",""18722""
","
","","","","","","","","","","","","","","","","","","","","","",""
"audio-keyboard-response","122","679208","0.0-63.0","139","1277","12","Female","false","true","false","false","""event"",""trial"",""time""
""fullscreenenter"",""5"",""18722""
","
","
","""event"",""trial"",""time""
""fullscreenenter"",""5"",""18722""
","
","3824","audio/instructions/treasure_feedback.wav","32","","","","","","","","","","","","","","","","","","",""
"d3-instructions","123","698497","0.0-64.0","139","1277","12","Female","false","true","false","false","""event"",""trial"",""time""
""fullscreenenter"",""5"",""18722""
","
","
","""event"",""trial"",""time""
""fullscreenenter"",""5"",""18722""
","
","","","","","","","","","","","","","","","","","","","","","",""
"d3-instructions","124","714210","0.0-65.0","139","1277","12","Female","false","true","false","false","""event"",""trial"",""time""
""fullscreenenter"",""5"",""18722""
","
","
","""event"",""trial"",""time""
""fullscreenenter"",""5"",""18722""
","
","","","","","","","","","","","","","","","","","","","","","",""
"d3-instructions","125","765281","0.0-66.0","139","1277","12","Female","false","true","false","false","""event"",""trial"",""time""
""fullscreenenter"",""5"",""18722""
","
","
","""event"",""trial"",""time""
""fullscreenenter"",""5"",""18722""
","
","","","","","","","","","","","","","","","","","","","","","",""
"d3-instructions","126","782100","0.0-67.0","139","1277","12","Female","false","true","false","false","""event"",""trial"",""time""
""fullscreenenter"",""5"",""18722""
","
","
","""event"",""trial"",""time""
""fullscreenenter"",""5"",""18722""
","
","","","","","","","","","","","","","","","","","","","","","",""
"d3-instructions","127","792288","0.0-68.0","139","1277","12","Female","false","true","false","false","""event"",""trial"",""time""
""fullscreenenter"",""5"",""18722""
","
","
","""event"",""trial"",""time""
""fullscreenenter"",""5"",""18722""
","
","","","","","","","","","","","","","","","","","","","","","",""
"instructions-quiz","128","797325","0.0-69.0","139","1277","12","Female","false","true","false","false","""event"",""trial"",""time""
""fullscreenenter"",""5"",""18722""
","
","
","""event"",""trial"",""time""
""fullscreenenter"",""5"",""18722""
","
","5034","audio/quiz/Q1_Prompt.wav","","1","","","","","","","","","","","","","","","","","",""
"audio-keyboard-response","129","806494","0.0-70.0","139","1277","12","Female","false","true","false","false","""event"",""trial"",""time""
""fullscreenenter"",""5"",""18722""
","
","
","""event"",""trial"",""time""
""fullscreenenter"",""5"",""18722""
","
","null","audio/quiz/Q1_Correct.wav","null","","","","","","","","","","","","","","","","","","",""
"instructions-quiz","130","815564","0.0-71.0","139","1277","12","Female","false","true","false","false","""event"",""trial"",""time""
""fullscreenenter"",""5"",""18722""
","
","
","""event"",""trial"",""time""
""fullscreenenter"",""5"",""18722""
","
","9067.600000143051","audio/quiz/Q2_Prompt.wav","","0","","","","","","","","","","","","","","","","","",""
"audio-keyboard-response","131","828434","0.0-72.0","139","1277","12","Female","false","true","false","false","""event"",""trial"",""time""
""fullscreenenter"",""5"",""18722""
","
","
","""event"",""trial"",""time""
""fullscreenenter"",""5"",""18722""
","
","null","audio/quiz/Q2_Correct.wav","null","","","","","","","","","","","","","","","","","","",""
"instructions-quiz","132","832716","0.0-73.0","139","1277","12","Female","false","true","false","false","""event"",""trial"",""time""
""fullscreenenter"",""5"",""18722""
","
","
","""event"",""trial"",""time""
""fullscreenenter"",""5"",""18722""
","
","4278.799999952316","audio/quiz/Q3_Prompt.wav","","1","","","","","","","","","","","","","","","","","",""
"audio-keyboard-response","133","838520","0.0-74.0","139","1277","12","Female","false","true","false","false","""event"",""trial"",""time""
""fullscreenenter"",""5"",""18722""
","
","
","""event"",""trial"",""time""
""fullscreenenter"",""5"",""18722""
","
","null","audio/quiz/Q3_Correct.wav","null","","","","","","","","","","","","","","","","","","",""
"d3-instructions","134","853319","0.0-75.0","139","1277","12","Female","false","true","false","false","""event"",""trial"",""time""
""fullscreenenter"",""5"",""18722""
","
","
","""event"",""trial"",""time""
""fullscreenenter"",""5"",""18722""
","
","","","","","","","","","","","","","","","","","","","","","",""
"d3-animate-choice","135","856576","0.0-76.0-0.0","139","1277","12","Female","false","true","false","false","""event"",""trial"",""time""
""fullscreenenter"",""5"",""18722""
","
","
","""event"",""trial"",""time""
""fullscreenenter"",""5"",""18722""
","
","1246.5999999046326","","49","","","3000","1","","","images/earth.jpg","images/rocket1","images/rocket2","null","images/rocket2","","1","real","null","1","","",""
"d3-animate-choice","136","860581","0.0-76.0-1.0","139","1277","12","Female","false","true","false","false","""event"",""trial"",""time""
""fullscreenenter"",""5"",""18722""
","
","
","""event"",""trial"",""time""
""fullscreenenter"",""5"",""18722""
","
","2077.399999856949","","48","","","3000","1","","","images/purpleplanet.jpg","images/alien4","images/alien3","images/rocket2","images/alien4","images/nothing.png","2","real","true","2","common","0","2022-03-27 15:31:23.560"
"two-step-fixation","137","861586","0.0-76.0-2.0","139","1277","12","Female","false","true","false","false","""event"",""trial"",""time""
""fullscreenenter"",""5"",""18722""
","
","
","""event"",""trial"",""time""
""fullscreenenter"",""5"",""18722""
","
","","images/earth.jpg","","","","","","","","","","","","","","fixation","","","","","",""
"d3-animate-choice","138","864671","0.0-76.0-0.1","139","1277","12","Female","false","true","false","false","""event"",""trial"",""time""
""fullscreenenter"",""5"",""18722""
","
","
","""event"",""trial"",""time""
""fullscreenenter"",""5"",""18722""
","
","1079.7999999523163","","48","","","3000","1","","","images/earth.jpg","images/rocket1","images/rocket2","null","images/rocket1","","1","real","null","2","","",""
"d3-animate-choice","139","868109","0.0-76.0-1.1","139","1277","12","Female","false","true","false","false","""event"",""trial"",""time""
""fullscreenenter"",""5"",""18722""
","
","
","""event"",""trial"",""time""
""fullscreenenter"",""5"",""18722""
","
","1431.7000000476837","","49","","","3000","1","","","images/redplanet1.jpg","images/alien2","images/alien1","images/rocket1","images/alien1","images/t.png","2","real","true","1","common","1","2022-03-27 15:31:31.088"
"two-step-fixation","140","869118","0.0-76.0-2.1","139","1277","12","Female","false","true","false","false","""event"",""trial"",""time""
""fullscreenenter"",""5"",""18722""
","
","
","""event"",""trial"",""time""
""fullscreenenter"",""5"",""18722""
","
","","images/earth.jpg","","","","","","","","","","","","","","fixation","","","","","",""
"d3-animate-choice","141","871610","0.0-76.0-0.2","139","1277","12","Female","false","true","false","false","""event"",""trial"",""time""
""fullscreenenter"",""5"",""18722""
","
","
","""event"",""trial"",""time""
""fullscreenenter"",""5"",""18722""
","
","485.90000009536743","","48","","","3000","1","","","images/earth.jpg","images/rocket1","images/rocket2","null","images/rocket1","","1","real","null","2","","",""
"d3-animate-choice","142","875093","0.0-76.0-1.2","139","1277","12","Female","false","true","false","false","""event"",""trial"",""time""
""fullscreenenter"",""5"",""18722""
","
","
","""event"",""trial"",""time""
""fullscreenenter"",""5"",""18722""
","
","1478.0999999046326","","48","","","3000","1","","","images/purpleplanet.jpg","images/alien4","images/alien3","images/rocket1","images/alien4","images/t.png","2","real","false","2","rare","1","2022-03-27 15:31:38.073"
"two-step-fixation","143","876100","0.0-76.0-2.2","139","1277","12","Female","false","true","false","false","""event"",""trial"",""time""
""fullscreenenter"",""5"",""18722""
","
","
","""event"",""trial"",""time""
""fullscreenenter"",""5"",""18722""
","
","","images/earth.jpg","","","","","","","","","","","","","","fixation","","","","","",""
"d3-animate-choice","144","878722","0.0-76.0-0.3","139","1277","12","Female","false","true","false","false","""event"",""trial"",""time""
""fullscreenenter"",""5"",""18722""
","
","
","""event"",""trial"",""time""
""fullscreenenter"",""5"",""18722""
","
","614.5","","49","","","3000","1","","","images/earth.jpg","images/rocket1","images/rocket2","null","images/rocket2","","1","real","null","1","","",""
"d3-animate-choice","145","882398","0.0-76.0-1.3","139","1277","12","Female","false","true","false","false","""event"",""trial"",""time""
""fullscreenenter"",""5"",""18722""
","
","
","""event"",""trial"",""time""
""fullscreenenter"",""5"",""18722""
","
","1669","","48","","","3000","1","","","images/purpleplanet.jpg","images/alien4","images/alien3","images/rocket2","images/alien4","images/nothing.png","2","real","true","2","common","0","2022-03-27 15:31:45.377"
"two-step-fixation","146","883405","0.0-76.0-2.3","139","1277","12","Female","false","true","false","false","""event"",""trial"",""time""
""fullscreenenter"",""5"",""18722""
","
","
","""event"",""trial"",""time""
""fullscreenenter"",""5"",""18722""
","
","","images/earth.jpg","","","","","","","","","","","","","","fixation","","","","","",""
"d3-animate-choice","147","886195","0.0-76.0-0.4","139","1277","12","Female","false","true","false","false","""event"",""trial"",""time""
""fullscreenenter"",""5"",""18722""
","
","
","""event"",""trial"",""time""
""fullscreenenter"",""5"",""18722""
","
","785","","48","","","3000","1","","","images/earth.jpg","images/rocket1","images/rocket2","null","images/rocket1","","1","real","null","2","","",""
"d3-animate-choice","148","889491","0.0-76.0-1.4","139","1277","12","Female","false","true","false","false","""event"",""trial"",""time""
""fullscreenenter"",""5"",""18722""
","
","
","""event"",""trial"",""time""
""fullscreenenter"",""5"",""18722""
","
","1291.7999999523163","","49","","","3000","1","","","images/redplanet1.jpg","images/alien2","images/alien1","images/rocket1","images/alien1","images/t.png","2","real","true","1","common","1","2022-03-27 15:31:52.470"
"two-step-fixation","149","890496","0.0-76.0-2.4","139","1277","12","Female","false","true","false","false","""event"",""trial"",""time""
""fullscreenenter"",""5"",""18722""
","
","
","""event"",""trial"",""time""
""fullscreenenter"",""5"",""18722""
","
","","images/earth.jpg","","","","","","","","","","","","","","fixation","","","","","",""
"d3-animate-choice","150","892918","0.0-76.0-0.5","139","1277","12","Female","false","true","false","false","""event"",""trial"",""time""
""fullscreenenter"",""5"",""18722""
","
","
","""event"",""trial"",""time""
""fullscreenenter"",""5"",""18722""
","
","411.90000009536743","","48","","","3000","1","","","images/earth.jpg","images/rocket1","images/rocket2","null","images/rocket1","","1","real","null","2","","",""
"d3-animate-choice","151","896318","0.0-76.0-1.5","139","1277","12","Female","false","true","false","false","""event"",""trial"",""time""
""fullscreenenter"",""5"",""18722""
","
","
","""event"",""trial"",""time""
""fullscreenenter"",""5"",""18722""
","
","1395.7999999523163","","48","","","3000","1","","","images/purpleplanet.jpg","images/alien4","images/alien3","images/rocket1","images/alien4","images/t.png","2","real","false","2","rare","1","2022-03-27 15:31:59.297"
"two-step-fixation","152","897325","0.0-76.0-2.5","139","1277","12","Female","false","true","false","false","""event"",""trial"",""time""
""fullscreenenter"",""5"",""18722""
","
","
","""event"",""trial"",""time""
""fullscreenenter"",""5"",""18722""
","
","","images/earth.jpg","","","","","","","","","","","","","","fixation","","","","","",""
"d3-animate-choice","153","899918","0.0-76.0-0.6","139","1277","12","Female","false","true","false","false","""event"",""trial"",""time""
""fullscreenenter"",""5"",""18722""
","
","
","""event"",""trial"",""time""
""fullscreenenter"",""5"",""18722""
","
","586.3999998569489","","49","","","3000","1","","","images/earth.jpg","images/rocket1","images/rocket2","null","images/rocket2","","1","real","null","1","","",""
"d3-animate-choice","154","902982","0.0-76.0-1.6","139","1277","12","Female","false","true","false","false","""event"",""trial"",""time""
""fullscreenenter"",""5"",""18722""
","
","
","""event"",""trial"",""time""
""fullscreenenter"",""5"",""18722""
","
","1058.9000000953674","","48","","","3000","1","","","images/purpleplanet.jpg","images/alien4","images/alien3","images/rocket2","images/alien4","images/t.png","2","real","true","2","common","1","2022-03-27 15:32:05.961"
"two-step-fixation","155","903987","0.0-76.0-2.6","139","1277","12","Female","false","true","false","false","""event"",""trial"",""time""
""fullscreenenter"",""5"",""18722""
","
","
","""event"",""trial"",""time""
""fullscreenenter"",""5"",""18722""
","
","","images/earth.jpg","","","","","","","","","","","","","","fixation","","","","","",""
"d3-animate-choice","156","906424","0.0-76.0-0.7","139","1277","12","Female","false","true","false","false","""event"",""trial"",""time""
""fullscreenenter"",""5"",""18722""
","
","
","""event"",""trial"",""time""
""fullscreenenter"",""5"",""18722""
","
","428.30000019073486","","49","","","3000","1","","","images/earth.jpg","images/rocket1","images/rocket2","null","images/rocket2","","1","real","null","1","","",""
"d3-animate-choice","157","909717","0.0-76.0-1.7","139","1277","12","Female","false","true","false","false","""event"",""trial"",""time""
""fullscreenenter"",""5"",""18722""
","
","
","""event"",""trial"",""time""
""fullscreenenter"",""5"",""18722""
","
","1283.9000000953674","","49","","","3000","1","","","images/redplanet1.jpg","images/alien2","images/alien1","images/rocket2","images/alien1","images/t.png","2","real","false","1","rare","1","2022-03-27 15:32:12.697"
"two-step-fixation","158","910723","0.0-76.0-2.7","139","1277","12","Female","false","true","false","false","""event"",""trial"",""time""
""fullscreenenter"",""5"",""18722""
","
","
","""event"",""trial"",""time""
""fullscreenenter"",""5"",""18722""
","
","","images/earth.jpg","","","","","","","","","","","","","","fixation","","","","","",""
"d3-animate-choice","159","913758","0.0-76.0-0.8","139","1277","12","Female","false","true","false","false","""event"",""trial"",""time""
""fullscreenenter"",""5"",""18722""
","
","
","""event"",""trial"",""time""
""fullscreenenter"",""5"",""18722""
","
","1030.9000000953674","","49","","","3000","1","","","images/earth.jpg","images/rocket1","images/rocket2","null","images/rocket2","","1","real","null","1","","",""
"d3-animate-choice","160","916294","0.0-76.0-1.8","139","1277","12","Female","false","true","false","false","""event"",""trial"",""time""
""fullscreenenter"",""5"",""18722""
","
","
","""event"",""trial"",""time""
""fullscreenenter"",""5"",""18722""
","
","530","","48","","","3000","1","","","images/redplanet1.jpg","images/alien2","images/alien1","images/rocket2","images/alien2","images/t.png","2","real","false","2","rare","1","2022-03-27 15:32:19.273"
"two-step-fixation","161","917299","0.0-76.0-2.8","139","1277","12","Female","false","true","false","false","""event"",""trial"",""time""
""fullscreenenter"",""5"",""18722""
","
","
","""event"",""trial"",""time""
""fullscreenenter"",""5"",""18722""
","
","","images/earth.jpg","","","","","","","","","","","","","","fixation","","","","","",""
"d3-animate-choice","162","919981","0.0-76.0-0.9","139","1277","12","Female","false","true","false","false","""event"",""trial"",""time""
""fullscreenenter"",""5"",""18722""
","
","
","""event"",""trial"",""time""
""fullscreenenter"",""5"",""18722""
","
","677.2999999523163","","49","","","3000","1","","","images/earth.jpg","images/rocket1","images/rocket2","null","images/rocket2","","1","real","null","1","","",""
"d3-animate-choice","163","922952","0.0-76.0-1.9","139","1277","12","Female","false","true","false","false","""event"",""trial"",""time""
""fullscreenenter"",""5"",""18722""
","
","
","""event"",""trial"",""time""
""fullscreenenter"",""5"",""18722""
","
","964.0999999046326","","48","","","3000","1","","","images/purpleplanet.jpg","images/alien4","images/alien3","images/rocket2","images/alien4","images/t.png","2","real","true","2","common","1","2022-03-27 15:32:25.931"
"two-step-fixation","164","923960","0.0-76.0-2.9","139","1277","12","Female","false","true","false","false","""event"",""trial"",""time""
""fullscreenenter"",""5"",""18722""
","
","
","""event"",""trial"",""time""
""fullscreenenter"",""5"",""18722""
","
","","images/earth.jpg","","","","","","","","","","","","","","fixation","","","","","",""
"d3-animate-choice","165","926621","0.0-76.0-0.10","139","1277","12","Female","false","true","false","false","""event"",""trial"",""time""
""fullscreenenter"",""5"",""18722""
","
","
","""event"",""trial"",""time""
""fullscreenenter"",""5"",""18722""
","
","654.7999999523163","","49","","","3000","1","","","images/earth.jpg","images/rocket1","images/rocket2","null","images/rocket2","","1","real","null","1","","",""
"d3-animate-choice","166","929734","0.0-76.0-1.10","139","1277","12","Female","false","true","false","false","""event"",""trial"",""time""
""fullscreenenter"",""5"",""18722""
","
","
","""event"",""trial"",""time""
""fullscreenenter"",""5"",""18722""
","
","1106.6000001430511","","49","","","3000","1","","","images/redplanet1.jpg","images/alien2","images/alien1","images/rocket2","images/alien1","images/nothing.png","2","real","false","1","rare","0","2022-03-27 15:32:32.713"
"two-step-fixation","167","930739","0.0-76.0-2.10","139","1277","12","Female","false","true","false","false","""event"",""trial"",""time""
""fullscreenenter"",""5"",""18722""
","
","
","""event"",""trial"",""time""
""fullscreenenter"",""5"",""18722""
","
","","images/earth.jpg","","","","","","","","","","","","","","fixation","","","","","",""
"d3-animate-choice","168","933307","0.0-76.0-0.11","139","1277","12","Female","false","true","false","false","""event"",""trial"",""time""
""fullscreenenter"",""5"",""18722""
","
","
","""event"",""trial"",""time""
""fullscreenenter"",""5"",""18722""
","
","561.4000000953674","","49","","","3000","1","","","images/earth.jpg","images/rocket1","images/rocket2","null","images/rocket2","","1","real","null","1","","",""
"d3-animate-choice","169","937209","0.0-76.0-1.11","139","1277","12","Female","false","true","false","false","""event"",""trial"",""time""
""fullscreenenter"",""5"",""18722""
","
","
","""event"",""trial"",""time""
""fullscreenenter"",""5"",""18722""
","
","1896.1000001430511","","48","","","3000","1","","","images/purpleplanet.jpg","images/alien4","images/alien3","images/rocket2","images/alien4","images/t.png","2","real","true","2","common","1","2022-03-27 15:32:40.188"
"two-step-fixation","170","938216","0.0-76.0-2.11","139","1277","12","Female","false","true","false","false","""event"",""trial"",""time""
""fullscreenenter"",""5"",""18722""
","
","
","""event"",""trial"",""time""
""fullscreenenter"",""5"",""18722""
","
","","images/earth.jpg","","","","","","","","","","","","","","fixation","","","","","",""
"d3-animate-choice","171","940915","0.0-76.0-0.12","139","1277","12","Female","false","true","false","false","""event"",""trial"",""time""
""fullscreenenter"",""5"",""18722""
","
","
","""event"",""trial"",""time""
""fullscreenenter"",""5"",""18722""
","
","691","","48","","","3000","1","","","images/earth.jpg","images/rocket1","images/rocket2","null","images/rocket1","","1","real","null","2","","",""
"d3-animate-choice","172","943667","0.0-76.0-1.12","139","1277","12","Female","false","true","false","false","""event"",""trial"",""time""
""fullscreenenter"",""5"",""18722""
","
","
","""event"",""trial"",""time""
""fullscreenenter"",""5"",""18722""
","
","748.2000000476837","","48","","","3000","1","","","images/purpleplanet.jpg","images/alien4","images/alien3","images/rocket1","images/alien4","images/t.png","2","real","false","2","rare","1","2022-03-27 15:32:46.646"
"two-step-fixation","173","944673","0.0-76.0-2.12","139","1277","12","Female","false","true","false","false","""event"",""trial"",""time""
""fullscreenenter"",""5"",""18722""
","
","
","""event"",""trial"",""time""
""fullscreenenter"",""5"",""18722""
","
","","images/earth.jpg","","","","","","","","","","","","","","fixation","","","","","",""
"d3-animate-choice","174","947160","0.0-76.0-0.13","139","1277","12","Female","false","true","false","false","""event"",""trial"",""time""
""fullscreenenter"",""5"",""18722""
","
","
","""event"",""trial"",""time""
""fullscreenenter"",""5"",""18722""
","
","480.2999999523163","","48","","","3000","1","","","images/earth.jpg","images/rocket1","images/rocket2","null","images/rocket1","","1","real","null","2","","",""
"d3-animate-choice","175","950138","0.0-76.0-1.13","139","1277","12","Female","false","true","false","false","""event"",""trial"",""time""
""fullscreenenter"",""5"",""18722""
","
","
","""event"",""trial"",""time""
""fullscreenenter"",""5"",""18722""
","
","972.3999998569489","","49","","","3000","1","","","images/redplanet1.jpg","images/alien2","images/alien1","images/rocket1","images/alien1","images/t.png","2","real","true","1","common","1","2022-03-27 15:32:53.117"
"two-step-fixation","176","951144","0.0-76.0-2.13","139","1277","12","Female","false","true","false","false","""event"",""trial"",""time""
""fullscreenenter"",""5"",""18722""
","
","
","""event"",""trial"",""time""
""fullscreenenter"",""5"",""18722""
","
","","images/earth.jpg","","","","","","","","","","","","","","fixation","","","","","",""
"d3-animate-choice","177","953688","0.0-76.0-0.14","139","1277","12","Female","false","true","false","false","""event"",""trial"",""time""
""fullscreenenter"",""5"",""18722""
","
","
","""event"",""trial"",""time""
""fullscreenenter"",""5"",""18722""
","
","535.2999999523163","","48","","","3000","1","","","images/earth.jpg","images/rocket1","images/rocket2","null","images/rocket1","","1","real","null","2","","",""
"d3-animate-choice","178","957051","0.0-76.0-1.14","139","1277","12","Female","false","true","false","false","""event"",""trial"",""time""
""fullscreenenter"",""5"",""18722""
","
","
","""event"",""trial"",""time""
""fullscreenenter"",""5"",""18722""
","
","1355.7000000476837","","49","","","3000","1","","","images/redplanet1.jpg","images/alien2","images/alien1","images/rocket1","images/alien1","images/nothing.png","2","real","true","1","common","0","2022-03-27 15:33:00.030"
"two-step-fixation","179","958056","0.0-76.0-2.14","139","1277","12","Female","false","true","false","false","""event"",""trial"",""time""
""fullscreenenter"",""5"",""18722""
","
","
","""event"",""trial"",""time""
""fullscreenenter"",""5"",""18722""
","
","","images/earth.jpg","","","","","","","","","","","","","","fixation","","","","","",""
"d3-animate-choice","180","960935","0.0-76.0-0.15","139","1277","12","Female","false","true","false","false","""event"",""trial"",""time""
""fullscreenenter"",""5"",""18722""
","
","
","""event"",""trial"",""time""
""fullscreenenter"",""5"",""18722""
","
","874.2999999523163","","48","","","3000","1","","","images/earth.jpg","images/rocket1","images/rocket2","null","images/rocket1","","1","real","null","2","","",""
"d3-animate-choice","181","964001","0.0-76.0-1.15","139","1277","12","Female","false","true","false","false","""event"",""trial"",""time""
""fullscreenenter"",""5"",""18722""
","
","
","""event"",""trial"",""time""
""fullscreenenter"",""5"",""18722""
","
","1058.3999998569489","","48","","","3000","1","","","images/purpleplanet.jpg","images/alien4","images/alien3","images/rocket1","images/alien4","images/t.png","2","real","false","2","rare","1","2022-03-27 15:33:06.980"
"two-step-fixation","182","965011","0.0-76.0-2.15","139","1277","12","Female","false","true","false","false","""event"",""trial"",""time""
""fullscreenenter"",""5"",""18722""
","
","
","""event"",""trial"",""time""
""fullscreenenter"",""5"",""18722""
","
","","images/earth.jpg","","","","","","","","","","","","","","fixation","","","","","",""
"d3-animate-choice","183","967670","0.0-76.0-0.16","139","1277","12","Female","false","true","false","false","""event"",""trial"",""time""
""fullscreenenter"",""5"",""18722""
","
","
","""event"",""trial"",""time""
""fullscreenenter"",""5"",""18722""
","
","654.9000000953674","","49","","","3000","1","","","images/earth.jpg","images/rocket1","images/rocket2","null","images/rocket2","","1","real","null","1","","",""
"d3-animate-choice","184","970924","0.0-76.0-1.16","139","1277","12","Female","false","true","false","false","""event"",""trial"",""time""
""fullscreenenter"",""5"",""18722""
","
","
","""event"",""trial"",""time""
""fullscreenenter"",""5"",""18722""
","
","1245.2999999523163","","49","","","3000","1","","","images/redplanet1.jpg","images/alien2","images/alien1","images/rocket2","images/alien1","images/t.png","2","real","false","1","rare","1","2022-03-27 15:33:13.903"
"two-step-fixation","185","971933","0.0-76.0-2.16","139","1277","12","Female","false","true","false","false","""event"",""trial"",""time""
""fullscreenenter"",""5"",""18722""
","
","
","""event"",""trial"",""time""
""fullscreenenter"",""5"",""18722""
","
","","images/earth.jpg","","","","","","","","","","","","","","fixation","","","","","",""
"d3-animate-choice","186","974418","0.0-76.0-0.17","139","1277","12","Female","false","true","false","false","""event"",""trial"",""time""
""fullscreenenter"",""5"",""18722""
","
","
","""event"",""trial"",""time""
""fullscreenenter"",""5"",""18722""
","
","477.09999990463257","","49","","","3000","1","","","images/earth.jpg","images/rocket1","images/rocket2","null","images/rocket2","","1","real","null","1","","",""
"d3-animate-choice","187","977395","0.0-76.0-1.17","139","1277","12","Female","false","true","false","false","""event"",""trial"",""time""
""fullscreenenter"",""5"",""18722""
","
","
","""event"",""trial"",""time""
""fullscreenenter"",""5"",""18722""
","
","969.6000001430511","","49","","","3000","1","","","images/redplanet1.jpg","images/alien2","images/alien1","images/rocket2","images/alien1","images/nothing.png","2","real","false","1","rare","0","2022-03-27 15:33:20.374"
"two-step-fixation","188","978403","0.0-76.0-2.17","139","1277","12","Female","false","true","false","false","""event"",""trial"",""time""
""fullscreenenter"",""5"",""18722""
","
","
","""event"",""trial"",""time""
""fullscreenenter"",""5"",""18722""
","
","","images/earth.jpg","","","","","","","","","","","","","","fixation","","","","","",""
"d3-animate-choice","189","980888","0.0-76.0-0.18","139","1277","12","Female","false","true","false","false","""event"",""trial"",""time""
""fullscreenenter"",""5"",""18722""
","
","
","""event"",""trial"",""time""
""fullscreenenter"",""5"",""18722""
","
","479","","48","","","3000","1","","","images/earth.jpg","images/rocket1","images/rocket2","null","images/rocket1","","1","real","null","2","","",""
"d3-animate-choice","190","983817","0.0-76.0-1.18","139","1277","12","Female","false","true","false","false","""event"",""trial"",""time""
""fullscreenenter"",""5"",""18722""
","
","
","""event"",""trial"",""time""
""fullscreenenter"",""5"",""18722""
","
","924.4000000953674","","48","","","3000","1","","","images/purpleplanet.jpg","images/alien4","images/alien3","images/rocket1","images/alien4","images/nothing.png","2","real","false","2","rare","0","2022-03-27 15:33:26.796"
"two-step-fixation","191","984823","0.0-76.0-2.18","139","1277","12","Female","false","true","false","false","""event"",""trial"",""time""
""fullscreenenter"",""5"",""18722""
","
","
","""event"",""trial"",""time""
""fullscreenenter"",""5"",""18722""
","
","","images/earth.jpg","","","","","","","","","","","","","","fixation","","","","","",""
"d3-animate-choice","192","987597","0.0-76.0-0.19","139","1277","12","Female","false","true","false","false","""event"",""trial"",""time""
""fullscreenenter"",""5"",""18722""
","
","
","""event"",""trial"",""time""
""fullscreenenter"",""5"",""18722""
","
","766.2000000476837","","48","","","3000","1","","","images/earth.jpg","images/rocket1","images/rocket2","null","images/rocket1","","1","real","null","2","","",""
"d3-animate-choice","193","990842","0.0-76.0-1.19","139","1277","12","Female","false","true","false","false","""event"",""trial"",""time""
""fullscreenenter"",""5"",""18722""
","
","
","""event"",""trial"",""time""
""fullscreenenter"",""5"",""18722""
","
","1241.0999999046326","","49","","","3000","1","","","images/redplanet1.jpg","images/alien2","images/alien1","images/rocket1","images/alien1","images/nothing.png","2","real","true","1","common","0","2022-03-27 15:33:33.822"
"two-step-fixation","194","991847","0.0-76.0-2.19","139","1277","12","Female","false","true","false","false","""event"",""trial"",""time""
""fullscreenenter"",""5"",""18722""
","
","
","""event"",""trial"",""time""
""fullscreenenter"",""5"",""18722""
","
","","images/earth.jpg","","","","","","","","","","","","","","fixation","","","","","",""
"d3-animate-choice","195","994405","0.0-76.0-0.20","139","1277","12","Female","false","true","false","false","""event"",""trial"",""time""
""fullscreenenter"",""5"",""18722""
","
","
","""event"",""trial"",""time""
""fullscreenenter"",""5"",""18722""
","
","552.9000000953674","","48","","","3000","1","","","images/earth.jpg","images/rocket1","images/rocket2","null","images/rocket1","","1","real","null","2","","",""
"d3-animate-choice","196","998341","0.0-76.0-1.20","139","1277","12","Female","false","true","false","false","""event"",""trial"",""time""
""fullscreenenter"",""5"",""18722""
","
","
","""event"",""trial"",""time""
""fullscreenenter"",""5"",""18722""
","
","1926.6000001430511","","48","","","3000","1","","","images/redplanet1.jpg","images/alien2","images/alien1","images/rocket1","images/alien2","images/t.png","2","real","true","2","common","1","2022-03-27 15:33:41.320"
"two-step-fixation","197","999346","0.0-76.0-2.20","139","1277","12","Female","false","true","false","false","""event"",""trial"",""time""
""fullscreenenter"",""5"",""18722""
","
","
","""event"",""trial"",""time""
""fullscreenenter"",""5"",""18722""
","
","","images/earth.jpg","","","","","","","","","","","","","","fixation","","","","","",""
"d3-animate-choice","198","1001856","0.0-76.0-0.21","139","1277","12","Female","false","true","false","false","""event"",""trial"",""time""
""fullscreenenter"",""5"",""18722""
","
","
","""event"",""trial"",""time""
""fullscreenenter"",""5"",""18722""
","
","502.7000000476837","","48","","","3000","1","","","images/earth.jpg","images/rocket1","images/rocket2","null","images/rocket1","","1","real","null","2","","",""
"d3-animate-choice","199","1004909","0.0-76.0-1.21","139","1277","12","Female","false","true","false","false","""event"",""trial"",""time""
""fullscreenenter"",""5"",""18722""
","
","
","""event"",""trial"",""time""
""fullscreenenter"",""5"",""18722""
","
","1046.0999999046326","","48","","","3000","1","","","images/purpleplanet.jpg","images/alien4","images/alien3","images/rocket1","images/alien4","images/t.png","2","real","false","2","rare","1","2022-03-27 15:33:47.888"
"two-step-fixation","200","1005913","0.0-76.0-2.21","139","1277","12","Female","false","true","false","false","""event"",""trial"",""time""
""fullscreenenter"",""5"",""18722""
","
","
","""event"",""trial"",""time""
""fullscreenenter"",""5"",""18722""
","
","","images/earth.jpg","","","","","","","","","","","","","","fixation","","","","","",""
"d3-animate-choice","201","1008535","0.0-76.0-0.22","139","1277","12","Female","false","true","false","false","""event"",""trial"",""time""
""fullscreenenter"",""5"",""18722""
","
","
","""event"",""trial"",""time""
""fullscreenenter"",""5"",""18722""
","
","614","","48","","","3000","1","","","images/earth.jpg","images/rocket1","images/rocket2","null","images/rocket1","","1","real","null","2","","",""
"d3-animate-choice","202","1011794","0.0-76.0-1.22","139","1277","12","Female","false","true","false","false","""event"",""trial"",""time""
""fullscreenenter"",""5"",""18722""
","
","
","""event"",""trial"",""time""
""fullscreenenter"",""5"",""18722""
","
","1253.8999998569489","","48","","","3000","1","","","images/redplanet1.jpg","images/alien2","images/alien1","images/rocket1","images/alien2","images/t.png","2","real","true","2","common","1","2022-03-27 15:33:54.773"
"two-step-fixation","203","1012802","0.0-76.0-2.22","139","1277","12","Female","false","true","false","false","""event"",""trial"",""time""
""fullscreenenter"",""5"",""18722""
","
","
","""event"",""trial"",""time""
""fullscreenenter"",""5"",""18722""
","
","","images/earth.jpg","","","","","","","","","","","","","","fixation","","","","","",""
"d3-animate-choice","204","1015322","0.0-76.0-0.23","139","1277","12","Female","false","true","false","false","""event"",""trial"",""time""
""fullscreenenter"",""5"",""18722""
","
","
","""event"",""trial"",""time""
""fullscreenenter"",""5"",""18722""
","
","515.9000000953674","","48","","","3000","1","","","images/earth.jpg","images/rocket1","images/rocket2","null","images/rocket1","","1","real","null","2","","",""
"d3-animate-choice","205","1018217","0.0-76.0-1.23","139","1277","12","Female","false","true","false","false","""event"",""trial"",""time""
""fullscreenenter"",""5"",""18722""
","
","
","""event"",""trial"",""time""
""fullscreenenter"",""5"",""18722""
","
","891","","48","","","3000","1","","","images/redplanet1.jpg","images/alien2","images/alien1","images/rocket1","images/alien2","images/t.png","2","real","true","2","common","1","2022-03-27 15:34:01.196"
"two-step-fixation","206","1019223","0.0-76.0-2.23","139","1277","12","Female","false","true","false","false","""event"",""trial"",""time""
""fullscreenenter"",""5"",""18722""
","
","
","""event"",""trial"",""time""
""fullscreenenter"",""5"",""18722""
","
","","images/earth.jpg","","","","","","","","","","","","","","fixation","","","","","",""
"d3-animate-choice","207","1021852","0.0-76.0-0.24","139","1277","12","Female","false","true","false","false","""event"",""trial"",""time""
""fullscreenenter"",""5"",""18722""
","
","
","""event"",""trial"",""time""
""fullscreenenter"",""5"",""18722""
","
","624.3999998569489","","48","","","3000","1","","","images/earth.jpg","images/rocket1","images/rocket2","null","images/rocket1","","1","real","null","2","","",""
"d3-animate-choice","208","1025530","0.0-76.0-1.24","139","1277","12","Female","false","true","false","false","""event"",""trial"",""time""
""fullscreenenter"",""5"",""18722""
","
","
","""event"",""trial"",""time""
""fullscreenenter"",""5"",""18722""
","
","1674","","48","","","3000","1","","","images/purpleplanet.jpg","images/alien4","images/alien3","images/rocket1","images/alien4","images/t.png","2","real","false","2","rare","1","2022-03-27 15:34:08.509"
"two-step-fixation","209","1026535","0.0-76.0-2.24","139","1277","12","Female","false","true","false","false","""event"",""trial"",""time""
""fullscreenenter"",""5"",""18722""
","
","
","""event"",""trial"",""time""
""fullscreenenter"",""5"",""18722""
","
","","images/earth.jpg","","","","","","","","","","","","","","fixation","","","","","",""
"d3-animate-choice","210","1029101","0.0-76.0-0.25","139","1277","12","Female","false","true","false","false","""event"",""trial"",""time""
""fullscreenenter"",""5"",""18722""
","
","
","""event"",""trial"",""time""
""fullscreenenter"",""5"",""18722""
","
","558.5999999046326","","48","","","3000","1","","","images/earth.jpg","images/rocket1","images/rocket2","null","images/rocket1","","1","real","null","2","","",""
"d3-animate-choice","211","1031575","0.0-76.0-1.25","139","1277","12","Female","false","true","false","false","""event"",""trial"",""time""
""fullscreenenter"",""5"",""18722""
","
","
","""event"",""trial"",""time""
""fullscreenenter"",""5"",""18722""
","
","468.10000014305115","","48","","","3000","1","","","images/redplanet1.jpg","images/alien2","images/alien1","images/rocket1","images/alien2","images/nothing.png","2","real","true","2","common","0","2022-03-27 15:34:14.555"
"two-step-fixation","212","1032580","0.0-76.0-2.25","139","1277","12","Female","false","true","false","false","""event"",""trial"",""time""
""fullscreenenter"",""5"",""18722""
","
","
","""event"",""trial"",""time""
""fullscreenenter"",""5"",""18722""
","
","","images/earth.jpg","","","","","","","","","","","","","","fixation","","","","","",""
"d3-animate-choice","213","1035116","0.0-76.0-0.26","139","1277","12","Female","false","true","false","false","""event"",""trial"",""time""
""fullscreenenter"",""5"",""18722""
","
","
","""event"",""trial"",""time""
""fullscreenenter"",""5"",""18722""
","
","530.2000000476837","","48","","","3000","1","","","images/earth.jpg","images/rocket1","images/rocket2","null","images/rocket1","","1","real","null","2","","",""
"d3-animate-choice","214","1037661","0.0-76.0-1.26","139","1277","12","Female","false","true","false","false","""event"",""trial"",""time""
""fullscreenenter"",""5"",""18722""
","
","
","""event"",""trial"",""time""
""fullscreenenter"",""5"",""18722""
","
","536.7000000476837","","49","","","3000","1","","","images/redplanet1.jpg","images/alien2","images/alien1","images/rocket1","images/alien1","images/t.png","2","real","true","1","common","1","2022-03-27 15:34:20.640"
"two-step-fixation","215","1038669","0.0-76.0-2.26","139","1277","12","Female","false","true","false","false","""event"",""trial"",""time""
""fullscreenenter"",""5"",""18722""
","
","
","""event"",""trial"",""time""
""fullscreenenter"",""5"",""18722""
","
","","images/earth.jpg","","","","","","","","","","","","","","fixation","","","","","",""
"d3-animate-choice","216","1041575","0.0-76.0-0.27","139","1277","12","Female","false","true","false","false","""event"",""trial"",""time""
""fullscreenenter"",""5"",""18722""
","
","
","""event"",""trial"",""time""
""fullscreenenter"",""5"",""18722""
","
","899.2999999523163","","49","","","3000","1","","","images/earth.jpg","images/rocket1","images/rocket2","null","images/rocket2","","1","real","null","1","","",""
"d3-animate-choice","217","1044846","0.0-76.0-1.27","139","1277","12","Female","false","true","false","false","""event"",""trial"",""time""
""fullscreenenter"",""5"",""18722""
","
","
","""event"",""trial"",""time""
""fullscreenenter"",""5"",""18722""
","
","1265.0999999046326","","49","","","3000","1","","","images/purpleplanet.jpg","images/alien4","images/alien3","images/rocket2","images/alien3","images/t.png","2","real","true","1","common","1","2022-03-27 15:34:27.825"
"two-step-fixation","218","1045851","0.0-76.0-2.27","139","1277","12","Female","false","true","false","false","""event"",""trial"",""time""
""fullscreenenter"",""5"",""18722""
","
","
","""event"",""trial"",""time""
""fullscreenenter"",""5"",""18722""
","
","","images/earth.jpg","","","","","","","","","","","","","","fixation","","","","","",""
"d3-animate-choice","219","1048684","0.0-76.0-0.28","139","1277","12","Female","false","true","false","false","""event"",""trial"",""time""
""fullscreenenter"",""5"",""18722""
","
","
","""event"",""trial"",""time""
""fullscreenenter"",""5"",""18722""
","
","828.1000001430511","","49","","","3000","1","","","images/earth.jpg","images/rocket1","images/rocket2","null","images/rocket2","","1","real","null","1","","",""
"d3-animate-choice","220","1051250","0.0-76.0-1.28","139","1277","12","Female","false","true","false","false","""event"",""trial"",""time""
""fullscreenenter"",""5"",""18722""
","
","
","""event"",""trial"",""time""
""fullscreenenter"",""5"",""18722""
","
","561","","49","","","3000","1","","","images/purpleplanet.jpg","images/alien4","images/alien3","images/rocket2","images/alien3","images/nothing.png","2","real","true","1","common","0","2022-03-27 15:34:34.229"
"two-step-fixation","221","1052256","0.0-76.0-2.28","139","1277","12","Female","false","true","false","false","""event"",""trial"",""time""
""fullscreenenter"",""5"",""18722""
","
","
","""event"",""trial"",""time""
""fullscreenenter"",""5"",""18722""
","
","","images/earth.jpg","","","","","","","","","","","","","","fixation","","","","","",""
"d3-animate-choice","222","1054802","0.0-76.0-0.29","139","1277","12","Female","false","true","false","false","""event"",""trial"",""time""
""fullscreenenter"",""5"",""18722""
","
","
","""event"",""trial"",""time""
""fullscreenenter"",""5"",""18722""
","
","540.7000000476837","","49","","","3000","1","","","images/earth.jpg","images/rocket1","images/rocket2","null","images/rocket2","","1","real","null","1","","",""
"d3-animate-choice","223","1058807","0.0-76.0-1.29","139","1277","12","Female","false","true","false","false","""event"",""trial"",""time""
""fullscreenenter"",""5"",""18722""
","
","
","""event"",""trial"",""time""
""fullscreenenter"",""5"",""18722""
","
","2252.300000190735","","49","","","3000","1","","","images/redplanet1.jpg","images/alien2","images/alien1","images/rocket2","images/alien1","images/t.png","2","real","false","1","rare","1","2022-03-27 15:34:41.787"
"two-step-fixation","224","1059813","0.0-76.0-2.29","139","1277","12","Female","false","true","false","false","""event"",""trial"",""time""
""fullscreenenter"",""5"",""18722""
","
","
","""event"",""trial"",""time""
""fullscreenenter"",""5"",""18722""
","
","","images/earth.jpg","","","","","","","","","","","","","","fixation","","","","","",""
"d3-animate-choice","225","1062562","0.0-76.0-0.30","139","1277","12","Female","false","true","false","false","""event"",""trial"",""time""
""fullscreenenter"",""5"",""18722""
","
","
","""event"",""trial"",""time""
""fullscreenenter"",""5"",""18722""
","
","742.7999999523163","","49","","","3000","1","","","images/earth.jpg","images/rocket1","images/rocket2","null","images/rocket2","","1","real","null","1","","",""
"d3-animate-choice","226","1065033","0.0-76.0-1.30","139","1277","12","Female","false","true","false","false","""event"",""trial"",""time""
""fullscreenenter"",""5"",""18722""
","
","
","""event"",""trial"",""time""
""fullscreenenter"",""5"",""18722""
","
","465.40000009536743","","48","","","3000","1","","","images/purpleplanet.jpg","images/alien4","images/alien3","images/rocket2","images/alien4","images/t.png","2","real","true","2","common","1","2022-03-27 15:34:48.013"
"two-step-fixation","227","1066039","0.0-76.0-2.30","139","1277","12","Female","false","true","false","false","""event"",""trial"",""time""
""fullscreenenter"",""5"",""18722""
","
","
","""event"",""trial"",""time""
""fullscreenenter"",""5"",""18722""
","
","","images/earth.jpg","","","","","","","","","","","","","","fixation","","","","","",""
"d3-animate-choice","228","1068487","0.0-76.0-0.31","139","1277","12","Female","false","true","false","false","""event"",""trial"",""time""
""fullscreenenter"",""5"",""18722""
","
","
","""event"",""trial"",""time""
""fullscreenenter"",""5"",""18722""
","
","442.80000019073486","","49","","","3000","1","","","images/earth.jpg","images/rocket1","images/rocket2","null","images/rocket2","","1","real","null","1","","",""
"d3-animate-choice","229","1070974","0.0-76.0-1.31","139","1277","12","Female","false","true","false","false","""event"",""trial"",""time""
""fullscreenenter"",""5"",""18722""
","
","
","""event"",""trial"",""time""
""fullscreenenter"",""5"",""18722""
","
","478.7000000476837","","48","","","3000","1","","","images/purpleplanet.jpg","images/alien4","images/alien3","images/rocket2","images/alien4","images/t.png","2","real","true","2","common","1","2022-03-27 15:34:53.954"
"two-step-fixation","230","1071979","0.0-76.0-2.31","139","1277","12","Female","false","true","false","false","""event"",""trial"",""time""
""fullscreenenter"",""5"",""18722""
","
","
","""event"",""trial"",""time""
""fullscreenenter"",""5"",""18722""
","
","","images/earth.jpg","","","","","","","","","","","","","","fixation","","","","","",""
"d3-animate-choice","231","1074407","0.0-76.0-0.32","139","1277","12","Female","false","true","false","false","""event"",""trial"",""time""
""fullscreenenter"",""5"",""18722""
","
","
","""event"",""trial"",""time""
""fullscreenenter"",""5"",""18722""
","
","423.7000000476837","","49","","","3000","1","","","images/earth.jpg","images/rocket1","images/rocket2","null","images/rocket2","","1","real","null","1","","",""
"d3-animate-choice","232","1076863","0.0-76.0-1.32","139","1277","12","Female","false","true","false","false","""event"",""trial"",""time""
""fullscreenenter"",""5"",""18722""
","
","
","""event"",""trial"",""time""
""fullscreenenter"",""5"",""18722""
","
","451.09999990463257","","48","","","3000","1","","","images/purpleplanet.jpg","images/alien4","images/alien3","images/rocket2","images/alien4","images/nothing.png","2","real","true","2","common","0","2022-03-27 15:34:59.842"
"two-step-fixation","233","1077868","0.0-76.0-2.32","139","1277","12","Female","false","true","false","false","""event"",""trial"",""time""
""fullscreenenter"",""5"",""18722""
","
","
","""event"",""trial"",""time""
""fullscreenenter"",""5"",""18722""
","
","","images/earth.jpg","","","","","","","","","","","","","","fixation","","","","","",""
"d3-animate-choice","234","1080967","0.0-76.0-0.33","139","1277","12","Female","false","true","false","false","""event"",""trial"",""time""
""fullscreenenter"",""5"",""18722""
","
","
","""event"",""trial"",""time""
""fullscreenenter"",""5"",""18722""
","
","1093","","48","","","3000","1","","","images/earth.jpg","images/rocket1","images/rocket2","null","images/rocket1","","1","real","null","2","","",""
"d3-animate-choice","235","1084871","0.0-76.0-1.33","139","1277","12","Female","false","true","false","false","""event"",""trial"",""time""
""fullscreenenter"",""5"",""18722""
","
","
","""event"",""trial"",""time""
""fullscreenenter"",""5"",""18722""
","
","1899.5999999046326","","49","","","3000","1","","","images/purpleplanet.jpg","images/alien4","images/alien3","images/rocket1","images/alien3","images/nothing.png","2","real","false","1","rare","0","2022-03-27 15:35:07.850"
"two-step-fixation","236","1085881","0.0-76.0-2.33","139","1277","12","Female","false","true","false","false","""event"",""trial"",""time""
""fullscreenenter"",""5"",""18722""
","
","
","""event"",""trial"",""time""
""fullscreenenter"",""5"",""18722""
","
","","images/earth.jpg","","","","","","","","","","","","","","fixation","","","","","",""
"d3-animate-choice","237","1088588","0.0-76.0-0.34","139","1277","12","Female","false","true","false","false","""event"",""trial"",""time""
""fullscreenenter"",""5"",""18722""
","
","
","""event"",""trial"",""time""
""fullscreenenter"",""5"",""18722""
","
","701.6000001430511","","48","","","3000","1","","","images/earth.jpg","images/rocket1","images/rocket2","null","images/rocket1","","1","real","null","2","","",""
"d3-animate-choice","238","1092055","0.0-76.0-1.34","139","1277","12","Female","false","true","false","false","""event"",""trial"",""time""
""fullscreenenter"",""5"",""18722""
","
","
","""event"",""trial"",""time""
""fullscreenenter"",""5"",""18722""
","
","1459.2999999523163","","48","","","3000","1","","","images/purpleplanet.jpg","images/alien4","images/alien3","images/rocket1","images/alien4","images/nothing.png","2","real","false","2","rare","0","2022-03-27 15:35:15.034"
"two-step-fixation","239","1093060","0.0-76.0-2.34","139","1277","12","Female","false","true","false","false","""event"",""trial"",""time""
""fullscreenenter"",""5"",""18722""
","
","
","""event"",""trial"",""time""
""fullscreenenter"",""5"",""18722""
","
","","images/earth.jpg","","","","","","","","","","","","","","fixation","","","","","",""
"d3-animate-choice","240","1095527","0.0-76.0-0.35","139","1277","12","Female","false","true","false","false","""event"",""trial"",""time""
""fullscreenenter"",""5"",""18722""
","
","
","""event"",""trial"",""time""
""fullscreenenter"",""5"",""18722""
","
","461.5","","48","","","3000","1","","","images/earth.jpg","images/rocket1","images/rocket2","null","images/rocket1","","1","real","null","2","","",""
"d3-animate-choice","241","1098769","0.0-76.0-1.35","139","1277","12","Female","false","true","false","false","""event"",""trial"",""time""
""fullscreenenter"",""5"",""18722""
","
","
","""event"",""trial"",""time""
""fullscreenenter"",""5"",""18722""
","
","1234.9000000953674","","48","","","3000","1","","","images/redplanet1.jpg","images/alien2","images/alien1","images/rocket1","images/alien2","images/t.png","2","real","true","2","common","1","2022-03-27 15:35:21.748"
"two-step-fixation","242","1099778","0.0-76.0-2.35","139","1277","12","Female","false","true","false","false","""event"",""trial"",""time""
""fullscreenenter"",""5"",""18722""
","
","
","""event"",""trial"",""time""
""fullscreenenter"",""5"",""18722""
","
","","images/earth.jpg","","","","","","","","","","","","","","fixation","","","","","",""
"d3-animate-choice","243","1102343","0.0-76.0-0.36","139","1277","12","Female","false","true","false","false","""event"",""trial"",""time""
""fullscreenenter"",""5"",""18722""
","
","
","""event"",""trial"",""time""
""fullscreenenter"",""5"",""18722""
","
","557.7999999523163","","48","","","3000","1","","","images/earth.jpg","images/rocket1","images/rocket2","null","images/rocket1","","1","real","null","2","","",""
"d3-animate-choice","244","1106002","0.0-76.0-1.36","139","1277","12","Female","false","true","false","false","""event"",""trial"",""time""
""fullscreenenter"",""5"",""18722""
","
","
","""event"",""trial"",""time""
""fullscreenenter"",""5"",""18722""
","
","1657.0999999046326","","48","","","3000","1","","","images/purpleplanet.jpg","images/alien4","images/alien3","images/rocket1","images/alien4","images/nothing.png","2","real","false","2","rare","0","2022-03-27 15:35:28.981"
"two-step-fixation","245","1107008","0.0-76.0-2.36","139","1277","12","Female","false","true","false","false","""event"",""trial"",""time""
""fullscreenenter"",""5"",""18722""
","
","
