"trial_type","trial_index","time_elapsed","internal_node_id","participant_id","subject_id","age","gender","rocket_sides","red_planet_first_rocket","red_display_order","purple_display_order","interactions","blur_events","focus_events","fullscreenenter_events","fullscreenexit_events","rt","stimulus","key_press","button_pressed","success","duration","valid_pressed","rts","keys","planet_text","right_text","left_text","center_text","chosen_text","reward_text","trial_stage","practice_trial","transition_type","choice","transition","reward","timestamp"
"pavlovia","0","2","0.0-0.0","285","5730","11","Male","true","true","true","true","
","
","
","
","
","","","","","","","","","","","","","","","","","","","","","",""
"html-keyboard-response","1","1786","0.0-1.0","285","5730","11","Male","true","true","true","true","
","
","
","
","
","1782.6000001430511","Welcome! Press the space bar to begin.","32","","","","","","","","","","","","","","","","","","",""
"audio-keyboard-response","2","6309","0.0-2.0","285","5730","11","Male","true","true","true","true","
","
","
","
","
","4091","audio/beep_loop.wav","32","","","","","","","","","","","","","","","","","","",""
"audio-button-response","3","9677","0.0-3.0","285","5730","11","Male","true","true","true","true","
","
","
","
","
","NaN","audio/fish.mp3","","1","","","","","","","","","","","","","","","","","",""
"audio-button-response","4","13828","0.0-4.0","285","5730","11","Male","true","true","true","true","""event"",""trial"",""time""
""fullscreenenter"",""5"",""17398""
","
","
","""event"",""trial"",""time""
""fullscreenenter"",""5"",""17398""
","
","NaN","audio/tiger.mp3","","4","","","","","","","","","","","","","","","","","",""
"fullscreen","5","18348","0.0-5.0","285","5730","11","Male","true","true","true","true","""event"",""trial"",""time""
""fullscreenenter"",""5"",""17398""
","
","
","""event"",""trial"",""time""
""fullscreenenter"",""5"",""17398""
","
","","","","","true","","","","","","","","","","","","","","","","",""
"d3-instructions","6","33318","0.0-6.0","285","5730","11","Male","true","true","true","true","""event"",""trial"",""time""
""fullscreenenter"",""5"",""17398""
","
","
","""event"",""trial"",""time""
""fullscreenenter"",""5"",""17398""
","
","","","","","","","","","","","","","","","","","","","","","",""
"d3-instructions","7","42872","0.0-7.0","285","5730","11","Male","true","true","true","true","""event"",""trial"",""time""
""fullscreenenter"",""5"",""17398""
","
","
","""event"",""trial"",""time""
""fullscreenenter"",""5"",""17398""
","
","","","","","","","","","","","","","","","","","","","","","",""
"d3-instructions","8","51073","0.0-8.0","285","5730","11","Male","true","true","true","true","""event"",""trial"",""time""
""fullscreenenter"",""5"",""17398""
","
","
","""event"",""trial"",""time""
""fullscreenenter"",""5"",""17398""
","
","","","","","","","","","","","","","","","","","","","","","",""
"d3-instructions","9","61867","0.0-9.0","285","5730","11","Male","true","true","true","true","""event"",""trial"",""time""
""fullscreenenter"",""5"",""17398""
","
","
","""event"",""trial"",""time""
""fullscreenenter"",""5"",""17398""
","
","","","","","","","","","","","","","","","","","","","","","",""
"d3-instructions","10","80691","0.0-10.0","285","5730","11","Male","true","true","true","true","""event"",""trial"",""time""
""fullscreenenter"",""5"",""17398""
","
","
","""event"",""trial"",""time""
""fullscreenenter"",""5"",""17398""
","
","","","","","","","","","","","","","","","","","","","","","",""
"d3-animate-choice","11","86998","0.0-11.0","285","5730","11","Male","true","true","true","true","""event"",""trial"",""time""
""fullscreenenter"",""5"",""17398""
","
","
","""event"",""trial"",""time""
""fullscreenenter"",""5"",""17398""
","
","4285.599999904633","","48","","","3000","1","","","images/tutgreenplanet.jpg","images/tutalien1","images/tutalien2","null","images/tutalien1","","NA","practice","null","","","",""
"d3-animate-choice","12","89084","0.0-12.0","285","5730","11","Male","true","true","true","true","""event"",""trial"",""time""
""fullscreenenter"",""5"",""17398""
","
","
","""event"",""trial"",""time""
""fullscreenenter"",""5"",""17398""
","
","70.5","","48","","","3000","1","903.0999999046326,1084.0999999046326,1272.0999999046326,1458.7999999523163","48,48,48,48","images/tutgreenplanet.jpg","images/tutalien1","images/tutalien2","null","images/tutalien1","","NA","practice","null","","","",""
"d3-animate-choice","13","92461","0.0-13.0","285","5730","11","Male","true","true","true","true","""event"",""trial"",""time""
""fullscreenenter"",""5"",""17398""
","
","
","""event"",""trial"",""time""
""fullscreenenter"",""5"",""17398""
","
","1361.2999999523163","","49","","","3000","1","","","images/tutgreenplanet.jpg","images/tutalien1","images/tutalien2","null","images/tutalien2","","NA","practice","null","","","",""
"d3-animate-choice","14","95410","0.0-14.0","285","5730","11","Male","true","true","true","true","""event"",""trial"",""time""
""fullscreenenter"",""5"",""17398""
","
","
","""event"",""trial"",""time""
""fullscreenenter"",""5"",""17398""
","
","937.2999999523163","","49","","","3000","1","2441.4000000953674","48","images/tutgreenplanet.jpg","images/tutalien1","images/tutalien2","null","images/tutalien2","","NA","practice","null","","","",""
"d3-instructions","15","101950","0.0-15.0","285","5730","11","Male","true","true","true","true","""event"",""trial"",""time""
""fullscreenenter"",""5"",""17398""
","
","
","""event"",""trial"",""time""
""fullscreenenter"",""5"",""17398""
","
","","","","","","","","","","","","","","","","","","","","","",""
"d3-instructions","16","107930","0.0-16.0","285","5730","11","Male","true","true","true","true","""event"",""trial"",""time""
""fullscreenenter"",""5"",""17398""
","
","
","""event"",""trial"",""time""
""fullscreenenter"",""5"",""17398""
","
","","","","","","","","","","","","","","","","","","","","","",""
"d3-instructions","17","118258","0.0-17.0","285","5730","11","Male","true","true","true","true","""event"",""trial"",""time""
""fullscreenenter"",""5"",""17398""
","
","
","""event"",""trial"",""time""
""fullscreenenter"",""5"",""17398""
","
","","","","","","","","","","","","","","","","","","","","","",""
"d3-instructions","18","130862","0.0-18.0","285","5730","11","Male","true","true","true","true","""event"",""trial"",""time""
""fullscreenenter"",""5"",""17398""
","
","
","""event"",""trial"",""time""
""fullscreenenter"",""5"",""17398""
","
","","","","","","","","","","","","","","","","","","","","","",""
"d3-instructions","19","143916","0.0-19.0","285","5730","11","Male","true","true","true","true","""event"",""trial"",""time""
""fullscreenenter"",""5"",""17398""
","
","
","""event"",""trial"",""time""
""fullscreenenter"",""5"",""17398""
","
","","","","","","","","","","","","","","","","","","","","","",""
"d3-animate-choice","20","146958","0.0-20.0","285","5730","11","Male","true","true","true","true","""event"",""trial"",""time""
""fullscreenenter"",""5"",""17398""
","
","
","""event"",""trial"",""time""
""fullscreenenter"",""5"",""17398""
","
","1019.1999998092651","","49","","","3000","1","","","images/tutyellowplanet.jpg","null","images/tutalien3","null","images/tutalien3","images/t.png","NA","practice","null","","","",""
"d3-animate-choice","21","149270","0.0-21.0","285","5730","11","Male","true","true","true","true","""event"",""trial"",""time""
""fullscreenenter"",""5"",""17398""
","
","
","""event"",""trial"",""time""
""fullscreenenter"",""5"",""17398""
","
","288.7000000476837","","49","","","3000","1","1744","49","images/tutyellowplanet.jpg","null","images/tutalien3","null","images/tutalien3","images/t.png","NA","practice","null","","","",""
"d3-animate-choice","22","151498","0.0-22.0","285","5730","11","Male","true","true","true","true","""event"",""trial"",""time""
""fullscreenenter"",""5"",""17398""
","
","
","""event"",""trial"",""time""
""fullscreenenter"",""5"",""17398""
","
","217.39999985694885","","49","","","3000","1","","","images/tutyellowplanet.jpg","null","images/tutalien3","null","images/tutalien3","images/nothing.png","NA","practice","null","","","",""
"d3-animate-choice","23","153786","0.0-23.0","285","5730","11","Male","true","true","true","true","""event"",""trial"",""time""
""fullscreenenter"",""5"",""17398""
","
","
","""event"",""trial"",""time""
""fullscreenenter"",""5"",""17398""
","
","263.60000014305115","","49","","","3000","1","1824.7999999523163","49","images/tutyellowplanet.jpg","null","images/tutalien3","null","images/tutalien3","images/t.png","NA","practice","null","","","",""
"d3-animate-choice","24","156105","0.0-24.0","285","5730","11","Male","true","true","true","true","""event"",""trial"",""time""
""fullscreenenter"",""5"",""17398""
","
","
","""event"",""trial"",""time""
""fullscreenenter"",""5"",""17398""
","
","299.39999985694885","","49","","","3000","1","","","images/tutyellowplanet.jpg","null","images/tutalien3","null","images/tutalien3","images/nothing.png","NA","practice","null","","","",""
"d3-animate-choice","25","158381","0.0-25.0","285","5730","11","Male","true","true","true","true","""event"",""trial"",""time""
""fullscreenenter"",""5"",""17398""
","
","
","""event"",""trial"",""time""
""fullscreenenter"",""5"",""17398""
","
","263.39999985694885","","49","","","3000","1","2233.199999809265","49","images/tutyellowplanet.jpg","null","images/tutalien3","null","images/tutalien3","images/t.png","NA","practice","null","","","",""
"d3-animate-choice","26","160804","0.0-26.0","285","5730","11","Male","true","true","true","true","""event"",""trial"",""time""
""fullscreenenter"",""5"",""17398""
","
","
","""event"",""trial"",""time""
""fullscreenenter"",""5"",""17398""
","
","412.60000014305115","","49","","","3000","1","","","images/tutyellowplanet.jpg","null","images/tutalien3","null","images/tutalien3","images/t.png","NA","practice","null","","","",""
"d3-animate-choice","27","163125","0.0-27.0","285","5730","11","Male","true","true","true","true","""event"",""trial"",""time""
""fullscreenenter"",""5"",""17398""
","
","
","""event"",""trial"",""time""
""fullscreenenter"",""5"",""17398""
","
","302.59999990463257","","49","","","3000","1","","","images/tutyellowplanet.jpg","null","images/tutalien3","null","images/tutalien3","images/nothing.png","NA","practice","null","","","",""
"d3-animate-choice","28","165597","0.0-28.0","285","5730","11","Male","true","true","true","true","""event"",""trial"",""time""
""fullscreenenter"",""5"",""17398""
","
","
","""event"",""trial"",""time""
""fullscreenenter"",""5"",""17398""
","
","459.7999999523163","","49","","","3000","1","","","images/tutyellowplanet.jpg","null","images/tutalien3","null","images/tutalien3","images/nothing.png","NA","practice","null","","","",""
"d3-animate-choice","29","169032","0.0-29.0","285","5730","11","Male","true","true","true","true","""event"",""trial"",""time""
""fullscreenenter"",""5"",""17398""
","
","
","""event"",""trial"",""time""
""fullscreenenter"",""5"",""17398""
","
","1419.6000001430511","","49","","","3000","1","","","images/tutyellowplanet.jpg","null","images/tutalien3","null","images/tutalien3","images/nothing.png","NA","practice","null","","","",""
"d3-instructions","30","176692","0.0-30.0","285","5730","11","Male","true","true","true","true","""event"",""trial"",""time""
""fullscreenenter"",""5"",""17398""
","
","
","""event"",""trial"",""time""
""fullscreenenter"",""5"",""17398""
","
","","","","","","","","","","","","","","","","","","","","","",""
"d3-instructions","31","184811","0.0-31.0","285","5730","11","Male","true","true","true","true","""event"",""trial"",""time""
""fullscreenenter"",""5"",""17398""
","
","
","""event"",""trial"",""time""
""fullscreenenter"",""5"",""17398""
","
","","","","","","","","","","","","","","","","","","","","","",""
"d3-instructions","32","190575","0.0-32.0","285","5730","11","Male","true","true","true","true","""event"",""trial"",""time""
""fullscreenenter"",""5"",""17398""
","
","
","""event"",""trial"",""time""
""fullscreenenter"",""5"",""17398""
","
","","","","","","","","","","","","","","","","","","","","","",""
"d3-instructions","33","200600","0.0-33.0","285","5730","11","Male","true","true","true","true","""event"",""trial"",""time""
""fullscreenenter"",""5"",""17398""
","
","
","""event"",""trial"",""time""
""fullscreenenter"",""5"",""17398""
","
","","","","","","","","","","","","","","","","","","","","","",""
"d3-animate-choice","34","206585","0.0-34.0","285","5730","11","Male","true","true","true","true","""event"",""trial"",""time""
""fullscreenenter"",""5"",""17398""
","
","
","""event"",""trial"",""time""
""fullscreenenter"",""5"",""17398""
","
","3972.7999999523163","","48","","","3000","1","","","images/tutgreenplanet.jpg","images/tutalien1","images/tutalien2","null","images/tutalien1","images/nothing.png","NA","practice","null","","","",""
"d3-animate-choice","35","209100","0.0-35.0","285","5730","11","Male","true","true","true","true","""event"",""trial"",""time""
""fullscreenenter"",""5"",""17398""
","
","
","""event"",""trial"",""time""
""fullscreenenter"",""5"",""17398""
","
","489","","49","","","3000","1","","","images/tutgreenplanet.jpg","images/tutalien1","images/tutalien2","null","images/tutalien2","images/t.png","NA","practice","null","","","",""
"d3-animate-choice","36","211433","0.0-36.0","285","5730","11","Male","true","true","true","true","""event"",""trial"",""time""
""fullscreenenter"",""5"",""17398""
","
","
","""event"",""trial"",""time""
""fullscreenenter"",""5"",""17398""
","
","316.2999999523163","","49","","","3000","1","","","images/tutgreenplanet.jpg","images/tutalien1","images/tutalien2","null","images/tutalien2","images/t.png","NA","practice","null","","","",""
"d3-animate-choice","37","213782","0.0-37.0","285","5730","11","Male","true","true","true","true","""event"",""trial"",""time""
""fullscreenenter"",""5"",""17398""
","
","
","""event"",""trial"",""time""
""fullscreenenter"",""5"",""17398""
","
","331.90000009536743","","49","","","3000","1","","","images/tutgreenplanet.jpg","images/tutalien1","images/tutalien2","null","images/tutalien2","images/t.png","NA","practice","null","","","",""
"d3-animate-choice","38","216351","0.0-38.0","285","5730","11","Male","true","true","true","true","""event"",""trial"",""time""
""fullscreenenter"",""5"",""17398""
","
","
","""event"",""trial"",""time""
""fullscreenenter"",""5"",""17398""
","
","562.2000000476837","","49","","","3000","1","","","images/tutgreenplanet.jpg","images/tutalien1","images/tutalien2","null","images/tutalien2","images/t.png","NA","practice","null","","","",""
"d3-animate-choice","39","218670","0.0-39.0","285","5730","11","Male","true","true","true","true","""event"",""trial"",""time""
""fullscreenenter"",""5"",""17398""
","
","
","""event"",""trial"",""time""
""fullscreenenter"",""5"",""17398""
","
","307.40000009536743","","49","","","3000","1","","","images/tutgreenplanet.jpg","images/tutalien1","images/tutalien2","null","images/tutalien2","images/t.png","NA","practice","null","","","",""
"d3-animate-choice","40","221630","0.0-40.0","285","5730","11","Male","true","true","true","true","""event"",""trial"",""time""
""fullscreenenter"",""5"",""17398""
","
","
","""event"",""trial"",""time""
""fullscreenenter"",""5"",""17398""
","
","952.9000000953674","","49","","","3000","1","1404.2000000476837","39","images/tutgreenplanet.jpg","images/tutalien1","images/tutalien2","null","images/tutalien2","images/t.png","NA","practice","null","","","",""
"d3-animate-choice","41","224663","0.0-41.0","285","5730","11","Male","true","true","true","true","""event"",""trial"",""time""
""fullscreenenter"",""5"",""17398""
","
","
","""event"",""trial"",""time""
""fullscreenenter"",""5"",""17398""
","
","1017.2999999523163","","49","","","3000","1","","","images/tutgreenplanet.jpg","images/tutalien1","images/tutalien2","null","images/tutalien2","images/t.png","NA","practice","null","","","",""
"d3-animate-choice","42","226935","0.0-42.0","285","5730","11","Male","true","true","true","true","""event"",""trial"",""time""
""fullscreenenter"",""5"",""17398""
","
","
","""event"",""trial"",""time""
""fullscreenenter"",""5"",""17398""
","
","259.90000009536743","","49","","","3000","1","","","images/tutgreenplanet.jpg","images/tutalien1","images/tutalien2","null","images/tutalien2","images/t.png","NA","practice","null","","","",""
"d3-animate-choice","43","229866","0.0-43.0","285","5730","11","Male","true","true","true","true","""event"",""trial"",""time""
""fullscreenenter"",""5"",""17398""
","
","
","""event"",""trial"",""time""
""fullscreenenter"",""5"",""17398""
","
","919.8999998569489","","49","","","3000","1","","","images/tutgreenplanet.jpg","images/tutalien1","images/tutalien2","null","images/tutalien2","images/t.png","NA","practice","null","","","",""
"d3-instructions","44","242449","0.0-44.0","285","5730","11","Male","true","true","true","true","""event"",""trial"",""time""
""fullscreenenter"",""5"",""17398""
","
","
","""event"",""trial"",""time""
""fullscreenenter"",""5"",""17398""
","
","","","","","","","","","","","","","","","","","","","","","",""
"d3-instructions","45","249842","0.0-45.0","285","5730","11","Male","true","true","true","true","""event"",""trial"",""time""
""fullscreenenter"",""5"",""17398""
","
","
","""event"",""trial"",""time""
""fullscreenenter"",""5"",""17398""
","
","","","","","","","","","","","","","","","","","","","","","",""
"d3-instructions","46","254189","0.0-46.0","285","5730","11","Male","true","true","true","true","""event"",""trial"",""time""
""fullscreenenter"",""5"",""17398""
","
","
","""event"",""trial"",""time""
""fullscreenenter"",""5"",""17398""
","
","","","","","","","","","","","","","","","","","","","","","",""
"d3-instructions","47","269781","0.0-47.0","285","5730","11","Male","true","true","true","true","""event"",""trial"",""time""
""fullscreenenter"",""5"",""17398""
","
","
","""event"",""trial"",""time""
""fullscreenenter"",""5"",""17398""
","
","","","","","","","","","","","","","","","","","","","","","",""
"d3-instructions","48","275708","0.0-48.0","285","5730","11","Male","true","true","true","true","""event"",""trial"",""time""
""fullscreenenter"",""5"",""17398""
","
","
","""event"",""trial"",""time""
""fullscreenenter"",""5"",""17398""
","
","","","","","","","","","","","","","","","","","","","","","",""
"d3-instructions","49","286037","0.0-49.0","285","5730","11","Male","true","true","true","true","""event"",""trial"",""time""
""fullscreenenter"",""5"",""17398""
","
","
","""event"",""trial"",""time""
""fullscreenenter"",""5"",""17398""
","
","","","","","","","","","","","","","","","","","","","","","",""
"d3-instructions","50","295020","0.0-50.0","285","5730","11","Male","true","true","true","true","""event"",""trial"",""time""
""fullscreenenter"",""5"",""17398""
","
","
","""event"",""trial"",""time""
""fullscreenenter"",""5"",""17398""
","
","","","","","","","","","","","","","","","","","","","","","",""
"d3-instructions","51","298237","0.0-51.0","285","5730","11","Male","true","true","true","true","""event"",""trial"",""time""
""fullscreenenter"",""5"",""17398""
","
","
","""event"",""trial"",""time""
""fullscreenenter"",""5"",""17398""
","
","","","","","","","","","","","","","","","","","","","","","",""
"d3-instructions","52","300558","0.0-52.0","285","5730","11","Male","true","true","true","true","""event"",""trial"",""time""
""fullscreenenter"",""5"",""17398""
","
","
","""event"",""trial"",""time""
""fullscreenenter"",""5"",""17398""
","
","","","","","","","","","","","","","","","","","","","","","",""
"d3-instructions","53","313502","0.0-53.0","285","5730","11","Male","true","true","true","true","""event"",""trial"",""time""
""fullscreenenter"",""5"",""17398""
","
","
","""event"",""trial"",""time""
""fullscreenenter"",""5"",""17398""
","
","","","","","","","","","","","","","","","","","","","","","",""
"d3-instructions","54","325901","0.0-54.0","285","5730","11","Male","true","true","true","true","""event"",""trial"",""time""
""fullscreenenter"",""5"",""17398""
","
","
","""event"",""trial"",""time""
""fullscreenenter"",""5"",""17398""
","
","","","","","","","","","","","","","","","","","","","","","",""
"d3-instructions","55","328404","0.0-55.0","285","5730","11","Male","true","true","true","true","""event"",""trial"",""time""
""fullscreenenter"",""5"",""17398""
","
","
","""event"",""trial"",""time""
""fullscreenenter"",""5"",""17398""
","
","","","","","","","","","","","","","","","","","","","","","",""
"d3-instructions","56","337460","0.0-56.0","285","5730","11","Male","true","true","true","true","""event"",""trial"",""time""
""fullscreenenter"",""5"",""17398""
","
","
","""event"",""trial"",""time""
""fullscreenenter"",""5"",""17398""
","
","","","","","","","","","","","","","","","","","","","","","",""
"d3-instructions","57","346881","0.0-57.0","285","5730","11","Male","true","true","true","true","""event"",""trial"",""time""
""fullscreenenter"",""5"",""17398""
","
","
","""event"",""trial"",""time""
""fullscreenenter"",""5"",""17398""
","
","","","","","","","","","","","","","","","","","","","","","",""
"d3-instructions","58","356708","0.0-58.0","285","5730","11","Male","true","true","true","true","""event"",""trial"",""time""
""fullscreenenter"",""5"",""17398""
","
","
","""event"",""trial"",""time""
""fullscreenenter"",""5"",""17398""
","
","","","","","","","","","","","","","","","","","","","","","",""
"d3-instructions","59","361602","0.0-59.0","285","5730","11","Male","true","true","true","true","""event"",""trial"",""time""
""fullscreenenter"",""5"",""17398""
","
","
","""event"",""trial"",""time""
""fullscreenenter"",""5"",""17398""
","
","","","","","","","","","","","","","","","","","","","","","",""
"d3-instructions","60","368307","0.0-60.0","285","5730","11","Male","true","true","true","true","""event"",""trial"",""time""
""fullscreenenter"",""5"",""17398""
","
","
","""event"",""trial"",""time""
""fullscreenenter"",""5"",""17398""
","
","","","","","","","","","","","","","","","","","","","","","",""
"d3-animate-choice","61","371546","0.0-61.0-0.0","285","5730","11","Male","true","true","true","true","""event"",""trial"",""time""
""fullscreenenter"",""5"",""17398""
","
","
","""event"",""trial"",""time""
""fullscreenenter"",""5"",""17398""
","
","1220.1000001430511","","48","","","3000","1","","","images/earth.jpg","images/tutrocket2","images/tutrocket1","null","images/tutrocket2","","1","practice","null","2","","",""
"d3-animate-choice","62","375424","0.0-61.0-1.0","285","5730","11","Male","true","true","true","true","""event"",""trial"",""time""
""fullscreenenter"",""5"",""17398""
","
","
","""event"",""trial"",""time""
""fullscreenenter"",""5"",""17398""
","
","1856.2999999523163","","49","","","3000","1","","","images/tutgreenplanet.jpg","images/tutalien2","images/tutalien1","images/tutrocket2","images/tutalien1","images/nothing.png","2","practice","false","1","rare","0","2023-01-06 19:05:15.978"
"two-step-fixation","63","376445","0.0-61.0-2.0","285","5730","11","Male","true","true","true","true","""event"",""trial"",""time""
""fullscreenenter"",""5"",""17398""
","
","
","""event"",""trial"",""time""
""fullscreenenter"",""5"",""17398""
","
","","images/earth.jpg","","","","","","","","","","","","","","fixation","","","","","",""
"d3-animate-choice","64","379050","0.0-61.0-0.1","285","5730","11","Male","true","true","true","true","""event"",""trial"",""time""
""fullscreenenter"",""5"",""17398""
","
","
","""event"",""trial"",""time""
""fullscreenenter"",""5"",""17398""
","
","595.3999998569489","","48","","","3000","1","","","images/earth.jpg","images/tutrocket2","images/tutrocket1","null","images/tutrocket2","","1","practice","null","2","","",""
"d3-animate-choice","65","382194","0.0-61.0-1.1","285","5730","11","Male","true","true","true","true","""event"",""trial"",""time""
""fullscreenenter"",""5"",""17398""
","
","
","""event"",""trial"",""time""
""fullscreenenter"",""5"",""17398""
","
","1114.2000000476837","","48","","","3000","1","","","images/tutyellowplanet.jpg","images/tutalien4","images/tutalien3","images/tutrocket2","images/tutalien4","images/t.png","2","practice","true","2","common","1","2023-01-06 19:05:22.748"
"two-step-fixation","66","383203","0.0-61.0-2.1","285","5730","11","Male","true","true","true","true","""event"",""trial"",""time""
""fullscreenenter"",""5"",""17398""
","
","
","""event"",""trial"",""time""
""fullscreenenter"",""5"",""17398""
","
","","images/earth.jpg","","","","","","","","","","","","","","fixation","","","","","",""
"d3-animate-choice","67","385646","0.0-61.0-0.2","285","5730","11","Male","true","true","true","true","""event"",""trial"",""time""
""fullscreenenter"",""5"",""17398""
","
","
","""event"",""trial"",""time""
""fullscreenenter"",""5"",""17398""
","
","428.5","","49","","","3000","1","","","images/earth.jpg","images/tutrocket2","images/tutrocket1","null","images/tutrocket1","","1","practice","null","1","","",""
"d3-animate-choice","68","388403","0.0-61.0-1.2","285","5730","11","Male","true","true","true","true","""event"",""trial"",""time""
""fullscreenenter"",""5"",""17398""
","
","
","""event"",""trial"",""time""
""fullscreenenter"",""5"",""17398""
","
","735.5999999046326","","48","","","3000","1","","","images/tutgreenplanet.jpg","images/tutalien2","images/tutalien1","images/tutrocket1","images/tutalien2","images/nothing.png","2","practice","true","2","common","0","2023-01-06 19:05:28.957"
"two-step-fixation","69","389420","0.0-61.0-2.2","285","5730","11","Male","true","true","true","true","""event"",""trial"",""time""
""fullscreenenter"",""5"",""17398""
","
","
","""event"",""trial"",""time""
""fullscreenenter"",""5"",""17398""
","
","","images/earth.jpg","","","","","","","","","","","","","","fixation","","","","","",""
"d3-animate-choice","70","391955","0.0-61.0-0.3","285","5730","11","Male","true","true","true","true","""event"",""trial"",""time""
""fullscreenenter"",""5"",""17398""
","
","
","""event"",""trial"",""time""
""fullscreenenter"",""5"",""17398""
","
","521.2000000476837","","48","","","3000","1","","","images/earth.jpg","images/tutrocket2","images/tutrocket1","null","images/tutrocket2","","1","practice","null","2","","",""
"d3-animate-choice","71","395024","0.0-61.0-1.3","285","5730","11","Male","true","true","true","true","""event"",""trial"",""time""
""fullscreenenter"",""5"",""17398""
","
","
","""event"",""trial"",""time""
""fullscreenenter"",""5"",""17398""
","
","1045.8999998569489","","49","","","3000","1","","","images/tutyellowplanet.jpg","images/tutalien4","images/tutalien3","images/tutrocket2","images/tutalien3","images/nothing.png","2","practice","true","1","common","0","2023-01-06 19:05:35.578"
"two-step-fixation","72","396038","0.0-61.0-2.3","285","5730","11","Male","true","true","true","true","""event"",""trial"",""time""
""fullscreenenter"",""5"",""17398""
","
","
","""event"",""trial"",""time""
""fullscreenenter"",""5"",""17398""
","
","","images/earth.jpg","","","","","","","","","","","","","","fixation","","","","","",""
"d3-animate-choice","73","398081","0.0-61.0-0.4","285","5730","11","Male","true","true","true","true","""event"",""trial"",""time""
""fullscreenenter"",""5"",""17398""
","
","
","""event"",""trial"",""time""
""fullscreenenter"",""5"",""17398""
","
","27.5","","48","","","3000","1","","","images/earth.jpg","images/tutrocket2","images/tutrocket1","null","images/tutrocket2","","1","practice","null","2","","",""
"d3-animate-choice","74","400723","0.0-61.0-1.4","285","5730","11","Male","true","true","true","true","""event"",""trial"",""time""
""fullscreenenter"",""5"",""17398""
","
","
","""event"",""trial"",""time""
""fullscreenenter"",""5"",""17398""
","
","628.8999998569489","","49","","","3000","1","","","images/tutyellowplanet.jpg","images/tutalien4","images/tutalien3","images/tutrocket2","images/tutalien3","images/t.png","2","practice","true","1","common","1","2023-01-06 19:05:41.277"
"two-step-fixation","75","401736","0.0-61.0-2.4","285","5730","11","Male","true","true","true","true","""event"",""trial"",""time""
""fullscreenenter"",""5"",""17398""
","
","
","""event"",""trial"",""time""
""fullscreenenter"",""5"",""17398""
","
","","images/earth.jpg","","","","","","","","","","","","","","fixation","","","","","",""
"d3-animate-choice","76","404288","0.0-61.0-0.5","285","5730","11","Male","true","true","true","true","""event"",""trial"",""time""
""fullscreenenter"",""5"",""17398""
","
","
","""event"",""trial"",""time""
""fullscreenenter"",""5"",""17398""
","
","535","","48","","","3000","1","","","images/earth.jpg","images/tutrocket2","images/tutrocket1","null","images/tutrocket2","","1","practice","null","2","","",""
"d3-animate-choice","77","406814","0.0-61.0-1.5","285","5730","11","Male","true","true","true","true","""event"",""trial"",""time""
""fullscreenenter"",""5"",""17398""
","
","
","""event"",""trial"",""time""
""fullscreenenter"",""5"",""17398""
","
","521","","49","","","3000","1","","","images/tutgreenplanet.jpg","images/tutalien2","images/tutalien1","images/tutrocket2","images/tutalien1","images/nothing.png","2","practice","false","1","rare","0","2023-01-06 19:05:47.368"
"two-step-fixation","78","407826","0.0-61.0-2.5","285","5730","11","Male","true","true","true","true","""event"",""trial"",""time""
""fullscreenenter"",""5"",""17398""
","
","
","""event"",""trial"",""time""
""fullscreenenter"",""5"",""17398""
","
","","images/earth.jpg","","","","","","","","","","","","","","fixation","","","","","",""
"d3-animate-choice","79","410595","0.0-61.0-0.6","285","5730","11","Male","true","true","true","true","""event"",""trial"",""time""
""fullscreenenter"",""5"",""17398""
","
","
","""event"",""trial"",""time""
""fullscreenenter"",""5"",""17398""
","
","759.4000000953674","","48","","","3000","1","","","images/earth.jpg","images/tutrocket2","images/tutrocket1","null","images/tutrocket2","","1","practice","null","2","","",""
"d3-animate-choice","80","413492","0.0-61.0-1.6","285","5730","11","Male","true","true","true","true","""event"",""trial"",""time""
""fullscreenenter"",""5"",""17398""
","
","
","""event"",""trial"",""time""
""fullscreenenter"",""5"",""17398""
","
","884.4000000953674","","48","","","3000","1","","","images/tutyellowplanet.jpg","images/tutalien4","images/tutalien3","images/tutrocket2","images/tutalien4","images/t.png","2","practice","true","2","common","1","2023-01-06 19:05:54.046"
"two-step-fixation","81","414508","0.0-61.0-2.6","285","5730","11","Male","true","true","true","true","""event"",""trial"",""time""
""fullscreenenter"",""5"",""17398""
","
","
","""event"",""trial"",""time""
""fullscreenenter"",""5"",""17398""
","
","","images/earth.jpg","","","","","","","","","","","","","","fixation","","","","","",""
"d3-animate-choice","82","417502","0.0-61.0-0.7","285","5730","11","Male","true","true","true","true","""event"",""trial"",""time""
""fullscreenenter"",""5"",""17398""
","
","
","""event"",""trial"",""time""
""fullscreenenter"",""5"",""17398""
","
","979.6999998092651","","48","","","3000","1","","","images/earth.jpg","images/tutrocket2","images/tutrocket1","null","images/tutrocket2","","1","practice","null","2","","",""
"d3-animate-choice","83","420028","0.0-61.0-1.7","285","5730","11","Male","true","true","true","true","""event"",""trial"",""time""
""fullscreenenter"",""5"",""17398""
","
","
","""event"",""trial"",""time""
""fullscreenenter"",""5"",""17398""
","
","514","","48","","","3000","1","","","images/tutyellowplanet.jpg","images/tutalien4","images/tutalien3","images/tutrocket2","images/tutalien4","images/nothing.png","2","practice","true","2","common","0","2023-01-06 19:06:00.582"
"two-step-fixation","84","421036","0.0-61.0-2.7","285","5730","11","Male","true","true","true","true","""event"",""trial"",""time""
""fullscreenenter"",""5"",""17398""
","
","
","""event"",""trial"",""time""
""fullscreenenter"",""5"",""17398""
","
","","images/earth.jpg","","","","","","","","","","","","","","fixation","","","","","",""
"d3-animate-choice","85","423360","0.0-61.0-0.8","285","5730","11","Male","true","true","true","true","""event"",""trial"",""time""
""fullscreenenter"",""5"",""17398""
","
","
","""event"",""trial"",""time""
""fullscreenenter"",""5"",""17398""
","
","308.30000019073486","","49","","","3000","1","","","images/earth.jpg","images/tutrocket2","images/tutrocket1","null","images/tutrocket1","","1","practice","null","1","","",""
"d3-animate-choice","86","425749","0.0-61.0-1.8","285","5730","11","Male","true","true","true","true","""event"",""trial"",""time""
""fullscreenenter"",""5"",""17398""
","
","
","""event"",""trial"",""time""
""fullscreenenter"",""5"",""17398""
","
","375.2000000476837","","49","","","3000","1","","","images/tutyellowplanet.jpg","images/tutalien4","images/tutalien3","images/tutrocket1","images/tutalien3","images/nothing.png","2","practice","false","1","rare","0","2023-01-06 19:06:06.304"
"two-step-fixation","87","426756","0.0-61.0-2.8","285","5730","11","Male","true","true","true","true","""event"",""trial"",""time""
""fullscreenenter"",""5"",""17398""
","
","
","""event"",""trial"",""time""
""fullscreenenter"",""5"",""17398""
","
","","images/earth.jpg","","","","","","","","","","","","","","fixation","","","","","",""
"d3-animate-choice","88","429554","0.0-61.0-0.9","285","5730","11","Male","true","true","true","true","""event"",""trial"",""time""
""fullscreenenter"",""5"",""17398""
","
","
","""event"",""trial"",""time""
""fullscreenenter"",""5"",""17398""
","
","788.3999998569489","","49","","","3000","1","","","images/earth.jpg","images/tutrocket2","images/tutrocket1","null","images/tutrocket1","","1","practice","null","1","","",""
"d3-animate-choice","89","432488","0.0-61.0-1.9","285","5730","11","Male","true","true","true","true","""event"",""trial"",""time""
""fullscreenenter"",""5"",""17398""
","
","
","""event"",""trial"",""time""
""fullscreenenter"",""5"",""17398""
","
","926.2000000476837","","48","","","3000","1","","","images/tutgreenplanet.jpg","images/tutalien2","images/tutalien1","images/tutrocket1","images/tutalien2","images/nothing.png","2","practice","true","2","common","0","2023-01-06 19:06:13.042"
"two-step-fixation","90","433498","0.0-61.0-2.9","285","5730","11","Male","true","true","true","true","""event"",""trial"",""time""
""fullscreenenter"",""5"",""17398""
","
","
","""event"",""trial"",""time""
""fullscreenenter"",""5"",""17398""
","
","","images/earth.jpg","","","","","","","","","","","","","","fixation","","","","","",""
"d3-animate-choice","91","436053","0.0-61.0-0.10","285","5730","11","Male","true","true","true","true","""event"",""trial"",""time""
""fullscreenenter"",""5"",""17398""
","
","
","""event"",""trial"",""time""
""fullscreenenter"",""5"",""17398""
","
","542.7000000476837","","49","","","3000","1","","","images/earth.jpg","images/tutrocket2","images/tutrocket1","null","images/tutrocket1","","1","practice","null","1","","",""
"d3-animate-choice","92","440071","0.0-61.0-1.10","285","5730","11","Male","true","true","true","true","""event"",""trial"",""time""
""fullscreenenter"",""5"",""17398""
","
","
","""event"",""trial"",""time""
""fullscreenenter"",""5"",""17398""
","
","null","","null","","","3000","0","","","images/tutgreenplanet.jpg","images/tutalien2","images/tutalien1","images/tutrocket1","","","2","practice","true","","common","0","2023-01-06 19:06:20.626"
"two-step-fixation","93","441085","0.0-61.0-2.10","285","5730","11","Male","true","true","true","true","""event"",""trial"",""time""
""fullscreenenter"",""5"",""17398""
","
","
","""event"",""trial"",""time""
""fullscreenenter"",""5"",""17398""
","
","","images/earth.jpg","","","","","","","","","","","","","","fixation","","","","","",""
"d3-animate-choice","94","443484","0.0-61.0-0.11","285","5730","11","Male","true","true","true","true","""event"",""trial"",""time""
""fullscreenenter"",""5"",""17398""
","
","
","""event"",""trial"",""time""
""fullscreenenter"",""5"",""17398""
","
","387","","48","","","3000","1","","","images/earth.jpg","images/tutrocket2","images/tutrocket1","null","images/tutrocket2","","1","practice","null","2","","",""
"d3-animate-choice","95","446010","0.0-61.0-1.11","285","5730","11","Male","true","true","true","true","""event"",""trial"",""time""
""fullscreenenter"",""5"",""17398""
","
","
","""event"",""trial"",""time""
""fullscreenenter"",""5"",""17398""
","
","514","","49","","","3000","1","","","images/tutyellowplanet.jpg","images/tutalien4","images/tutalien3","images/tutrocket2","images/tutalien3","images/t.png","2","practice","true","1","common","1","2023-01-06 19:06:26.565"
"two-step-fixation","96","447023","0.0-61.0-2.11","285","5730","11","Male","true","true","true","true","""event"",""trial"",""time""
""fullscreenenter"",""5"",""17398""
","
","
","""event"",""trial"",""time""
""fullscreenenter"",""5"",""17398""
","
","","images/earth.jpg","","","","","","","","","","","","","","fixation","","","","","",""
"d3-animate-choice","97","450767","0.0-61.0-0.12","285","5730","11","Male","true","true","true","true","""event"",""trial"",""time""
""fullscreenenter"",""5"",""17398""
","
","
","""event"",""trial"",""time""
""fullscreenenter"",""5"",""17398""
","
","1724.2999999523163","","48","","","3000","1","","","images/earth.jpg","images/tutrocket2","images/tutrocket1","null","images/tutrocket2","","1","practice","null","2","","",""
"d3-animate-choice","98","453532","0.0-61.0-1.12","285","5730","11","Male","true","true","true","true","""event"",""trial"",""time""
""fullscreenenter"",""5"",""17398""
","
","
","""event"",""trial"",""time""
""fullscreenenter"",""5"",""17398""
","
","754.0999999046326","","48","","","3000","1","","","images/tutyellowplanet.jpg","images/tutalien4","images/tutalien3","images/tutrocket2","images/tutalien4","images/t.png","2","practice","true","2","common","1","2023-01-06 19:06:34.086"
"two-step-fixation","99","454549","0.0-61.0-2.12","285","5730","11","Male","true","true","true","true","""event"",""trial"",""time""
""fullscreenenter"",""5"",""17398""
","
","
","""event"",""trial"",""time""
""fullscreenenter"",""5"",""17398""
","
","","images/earth.jpg","","","","","","","","","","","","","","fixation","","","","","",""
"d3-animate-choice","100","456906","0.0-61.0-0.13","285","5730","11","Male","true","true","true","true","""event"",""trial"",""time""
""fullscreenenter"",""5"",""17398""
","
","
","""event"",""trial"",""time""
""fullscreenenter"",""5"",""17398""
","
","349.2999999523163","","49","","","3000","1","","","images/earth.jpg","images/tutrocket2","images/tutrocket1","null","images/tutrocket1","","1","practice","null","1","","",""
"d3-animate-choice","101","460916","0.0-61.0-1.13","285","5730","11","Male","true","true","true","true","""event"",""trial"",""time""
""fullscreenenter"",""5"",""17398""
","
","
","""event"",""trial"",""time""
""fullscreenenter"",""5"",""17398""
","
","3061.7999999523163","","49","","","3000","0","","","images/tutgreenplanet.jpg","images/tutalien2","images/tutalien1","images/tutrocket1","","","2","practice","true","1","common","0","2023-01-06 19:06:41.470"
"two-step-fixation","102","461930","0.0-61.0-2.13","285","5730","11","Male","true","true","true","true","""event"",""trial"",""time""
""fullscreenenter"",""5"",""17398""
","
","
","""event"",""trial"",""time""
""fullscreenenter"",""5"",""17398""
","
","","images/earth.jpg","","","","","","","","","","","","","","fixation","","","","","",""
"d3-animate-choice","103","464987","0.0-61.0-0.14","285","5730","11","Male","true","true","true","true","""event"",""trial"",""time""
""fullscreenenter"",""5"",""17398""
","
","
","""event"",""trial"",""time""
""fullscreenenter"",""5"",""17398""
","
","1038.8999998569489","","49","","","3000","1","","","images/earth.jpg","images/tutrocket2","images/tutrocket1","null","images/tutrocket1","","1","practice","null","1","","",""
"d3-animate-choice","104","467712","0.0-61.0-1.14","285","5730","11","Male","true","true","true","true","""event"",""trial"",""time""
""fullscreenenter"",""5"",""17398""
","
","
","""event"",""trial"",""time""
""fullscreenenter"",""5"",""17398""
","
","711.5","","49","","","3000","1","","","images/tutgreenplanet.jpg","images/tutalien2","images/tutalien1","images/tutrocket1","images/tutalien1","images/t.png","2","practice","true","1","common","1","2023-01-06 19:06:48.267"
"two-step-fixation","105","468725","0.0-61.0-2.14","285","5730","11","Male","true","true","true","true","""event"",""trial"",""time""
""fullscreenenter"",""5"",""17398""
","
","
","""event"",""trial"",""time""
""fullscreenenter"",""5"",""17398""
","
","","images/earth.jpg","","","","","","","","","","","","","","fixation","","","","","",""
"d3-animate-choice","106","472751","0.0-61.0-0.15","285","5730","11","Male","true","true","true","true","""event"",""trial"",""time""
""fullscreenenter"",""5"",""17398""
","
","
","""event"",""trial"",""time""
""fullscreenenter"",""5"",""17398""
","
","304.40000009536743","","50","","","3000","1","729.4000000953674,1002.0999999046326,1125,1280.5999999046326,1412.5999999046326,1860,2382.0999999046326","51,50,52,51,53,55,48","images/earth.jpg","images/tutrocket2","images/tutrocket1","null","images/tutrocket2","","1","practice","null","","","",""
"d3-animate-choice","107","476771","0.0-61.0-1.15","285","5730","11","Male","true","true","true","true","""event"",""trial"",""time""
""fullscreenenter"",""5"",""17398""
","
","
","""event"",""trial"",""time""
""fullscreenenter"",""5"",""17398""
","
","2077.5","","49","","","3000","1","","","images/tutyellowplanet.jpg","images/tutalien4","images/tutalien3","images/tutrocket2","images/tutalien3","images/nothing.png","2","practice","true","1","common","0","2023-01-06 19:06:57.325"
"two-step-fixation","108","477782","0.0-61.0-2.15","285","5730","11","Male","true","true","true","true","""event"",""trial"",""time""
""fullscreenenter"",""5"",""17398""
","
","
","""event"",""trial"",""time""
""fullscreenenter"",""5"",""17398""
","
","","images/earth.jpg","","","","","","","","","","","","","","fixation","","","","","",""
"d3-animate-choice","109","480151","0.0-61.0-0.16","285","5730","11","Male","true","true","true","true","""event"",""trial"",""time""
""fullscreenenter"",""5"",""17398""
","
","
","""event"",""trial"",""time""
""fullscreenenter"",""5"",""17398""
","
","350.7000000476837","","48","","","3000","1","","","images/earth.jpg","images/tutrocket2","images/tutrocket1","null","images/tutrocket2","","1","practice","null","2","","",""
"d3-animate-choice","110","483323","0.0-61.0-1.16","285","5730","11","Male","true","true","true","true","""event"",""trial"",""time""
""fullscreenenter"",""5"",""17398""
","
","
","""event"",""trial"",""time""
""fullscreenenter"",""5"",""17398""
","
","1151.5","","49","","","3000","1","","","images/tutyellowplanet.jpg","images/tutalien4","images/tutalien3","images/tutrocket2","images/tutalien3","images/t.png","2","practice","true","1","common","1","2023-01-06 19:07:03.877"
"two-step-fixation","111","484336","0.0-61.0-2.16","285","5730","11","Male","true","true","true","true","""event"",""trial"",""time""
""fullscreenenter"",""5"",""17398""
","
","
","""event"",""trial"",""time""
""fullscreenenter"",""5"",""17398""
","
","","images/earth.jpg","","","","","","","","","","","","","","fixation","","","","","",""
"d3-animate-choice","112","486425","0.0-61.0-0.17","285","5730","11","Male","true","true","true","true","""event"",""trial"",""time""
""fullscreenenter"",""5"",""17398""
","
","
","""event"",""trial"",""time""
""fullscreenenter"",""5"",""17398""
","
","72.70000004768372","","49","","","3000","1","285.7000000476837","48","images/earth.jpg","images/tutrocket2","images/tutrocket1","null","images/tutrocket1","","1","practice","null","1","","",""
"d3-animate-choice","113","489977","0.0-61.0-1.17","285","5730","11","Male","true","true","true","true","""event"",""trial"",""time""
""fullscreenenter"",""5"",""17398""
","
","
","""event"",""trial"",""time""
""fullscreenenter"",""5"",""17398""
","
","1541.0999999046326","","48","","","3000","1","","","images/tutgreenplanet.jpg","images/tutalien2","images/tutalien1","images/tutrocket1","images/tutalien2","images/nothing.png","2","practice","true","2","common","0","2023-01-06 19:07:10.531"
"two-step-fixation","114","490987","0.0-61.0-2.17","285","5730","11","Male","true","true","true","true","""event"",""trial"",""time""
""fullscreenenter"",""5"",""17398""
","
","
","""event"",""trial"",""time""
""fullscreenenter"",""5"",""17398""
","
","","images/earth.jpg","","","","","","","","","","","","","","fixation","","","","","",""
"d3-animate-choice","115","494633","0.0-61.0-0.18","285","5730","11","Male","true","true","true","true","""event"",""trial"",""time""
""fullscreenenter"",""5"",""17398""
","
","
","""event"",""trial"",""time""
""fullscreenenter"",""5"",""17398""
","
","1532.3999998569489","","192","","","3000","1","1628,2491.7999999523163","48,192","images/earth.jpg","images/tutrocket2","images/tutrocket1","null","images/tutrocket2","","1","practice","null","","","",""
"d3-animate-choice","116","497260","0.0-61.0-1.18","285","5730","11","Male","true","true","true","true","""event"",""trial"",""time""
""fullscreenenter"",""5"",""17398""
","
","
","""event"",""trial"",""time""
""fullscreenenter"",""5"",""17398""
","
","612.4000000953674","","48","","","3000","1","649.4000000953674","49","images/tutyellowplanet.jpg","images/tutalien4","images/tutalien3","images/tutrocket2","images/tutalien4","images/t.png","2","practice","true","2","common","1","2023-01-06 19:07:17.815"
"two-step-fixation","117","498272","0.0-61.0-2.18","285","5730","11","Male","true","true","true","true","""event"",""trial"",""time""
""fullscreenenter"",""5"",""17398""
","
","
","""event"",""trial"",""time""
""fullscreenenter"",""5"",""17398""
","
","","images/earth.jpg","","","","","","","","","","","","","","fixation","","","","","",""
"d3-animate-choice","118","500459","0.0-61.0-0.19","285","5730","11","Male","true","true","true","true","""event"",""trial"",""time""
""fullscreenenter"",""5"",""17398""
","
","
","""event"",""trial"",""time""
""fullscreenenter"",""5"",""17398""
","
","180.59999990463257","","48","","","3000","1","206.90000009536743","49","images/earth.jpg","images/tutrocket2","images/tutrocket1","null","images/tutrocket2","","1","practice","null","2","","",""
"d3-animate-choice","119","503202","0.0-61.0-1.19","285","5730","11","Male","true","true","true","true","""event"",""trial"",""time""
""fullscreenenter"",""5"",""17398""
","
","
","""event"",""trial"",""time""
""fullscreenenter"",""5"",""17398""
","
","731.2000000476837","","48","","","3000","1","830.5","49","images/tutyellowplanet.jpg","images/tutalien4","images/tutalien3","images/tutrocket2","images/tutalien4","images/nothing.png","2","practice","true","2","common","0","2023-01-06 19:07:23.756"
"two-step-fixation","120","504215","0.0-61.0-2.19","285","5730","11","Male","true","true","true","true","""event"",""trial"",""time""
""fullscreenenter"",""5"",""17398""
","
","
","""event"",""trial"",""time""
""fullscreenenter"",""5"",""17398""
","
","","images/earth.jpg","","","","","","","","","","","","","","fixation","","","","","",""
"d3-instructions","121","511566","0.0-62.0","285","5730","11","Male","true","true","true","true","""event"",""trial"",""time""
""fullscreenenter"",""5"",""17398""
","
","
","""event"",""trial"",""time""
""fullscreenenter"",""5"",""17398""
","
","","","","","","","","","","","","","","","","","","","","","",""
"audio-keyboard-response","122","515937","0.0-63.0","285","5730","11","Male","true","true","true","true","""event"",""trial"",""time""
""fullscreenenter"",""5"",""17398""
","
","
","""event"",""trial"",""time""
""fullscreenenter"",""5"",""17398""
","
","4360","audio/instructions/treasure_feedback.wav","32","","","","","","","","","","","","","","","","","","",""
"d3-instructions","123","534386","0.0-64.0","285","5730","11","Male","true","true","true","true","""event"",""trial"",""time""
""fullscreenenter"",""5"",""17398""
","
","
","""event"",""trial"",""time""
""fullscreenenter"",""5"",""17398""
","
","","","","","","","","","","","","","","","","","","","","","",""
"d3-instructions","124","550441","0.0-65.0","285","5730","11","Male","true","true","true","true","""event"",""trial"",""time""
""fullscreenenter"",""5"",""17398""
","
","
","""event"",""trial"",""time""
""fullscreenenter"",""5"",""17398""
","
","","","","","","","","","","","","","","","","","","","","","",""
"d3-instructions","125","578440","0.0-66.0","285","5730","11","Male","true","true","true","true","""event"",""trial"",""time""
""fullscreenenter"",""5"",""17398""
","
","
","""event"",""trial"",""time""
""fullscreenenter"",""5"",""17398""
","
","","","","","","","","","","","","","","","","","","","","","",""
"d3-instructions","126","595104","0.0-67.0","285","5730","11","Male","true","true","true","true","""event"",""trial"",""time""
""fullscreenenter"",""5"",""17398""
","
","
","""event"",""trial"",""time""
""fullscreenenter"",""5"",""17398""
","
","","","","","","","","","","","","","","","","","","","","","",""
"d3-instructions","127","602161","0.0-68.0","285","5730","11","Male","true","true","true","true","""event"",""trial"",""time""
""fullscreenenter"",""5"",""17398""
","
","
","""event"",""trial"",""time""
""fullscreenenter"",""5"",""17398""
","
","","","","","","","","","","","","","","","","","","","","","",""
"instructions-quiz","128","606789","0.0-69.0","285","5730","11","Male","true","true","true","true","""event"",""trial"",""time""
""fullscreenenter"",""5"",""17398""
","
","
","""event"",""trial"",""time""
""fullscreenenter"",""5"",""17398""
","
","4622.200000047684","audio/quiz/Q1_Prompt.wav","","1","","","","","","","","","","","","","","","","","",""
"audio-keyboard-response","129","615742","0.0-70.0","285","5730","11","Male","true","true","true","true","""event"",""trial"",""time""
""fullscreenenter"",""5"",""17398""
","
","
","""event"",""trial"",""time""
""fullscreenenter"",""5"",""17398""
","
","8941","audio/quiz/Q1_Correct.wav","32","","","","","","","","","","","","","","","","","","",""
"instructions-quiz","130","621127","0.0-71.0","285","5730","11","Male","true","true","true","true","""event"",""trial"",""time""
""fullscreenenter"",""5"",""17398""
","
","
","""event"",""trial"",""time""
""fullscreenenter"",""5"",""17398""
","
","5379.200000047684","audio/quiz/Q2_Prompt.wav","","0","","","","","","","","","","","","","","","","","",""
"audio-keyboard-response","131","632638","0.0-72.0","285","5730","11","Male","true","true","true","true","""event"",""trial"",""time""
""fullscreenenter"",""5"",""17398""
","
","
","""event"",""trial"",""time""
""fullscreenenter"",""5"",""17398""
","
","11509","audio/quiz/Q2_Correct.wav","32","","","","","","","","","","","","","","","","","","",""
"instructions-quiz","132","636181","0.0-73.0","285","5730","11","Male","true","true","true","true","""event"",""trial"",""time""
""fullscreenenter"",""5"",""17398""
","
","
","""event"",""trial"",""time""
""fullscreenenter"",""5"",""17398""
","
","3537.2000000476837","audio/quiz/Q3_Prompt.wav","","1","","","","","","","","","","","","","","","","","",""
"audio-keyboard-response","133","641984","0.0-74.0","285","5730","11","Male","true","true","true","true","""event"",""trial"",""time""
""fullscreenenter"",""5"",""17398""
","
","
","""event"",""trial"",""time""
""fullscreenenter"",""5"",""17398""
","
","null","audio/quiz/Q3_Correct.wav","null","","","","","","","","","","","","","","","","","","",""
"d3-instructions","134","656047","0.0-75.0","285","5730","11","Male","true","true","true","true","""event"",""trial"",""time""
""fullscreenenter"",""5"",""17398""
","
","
","""event"",""trial"",""time""
""fullscreenenter"",""5"",""17398""
","
","","","","","","","","","","","","","","","","","","","","","",""
"pavlovia","135","656051","0.0-76.0","285","5730","11","Male","true","true","true","true","""event"",""trial"",""time""
""fullscreenenter"",""5"",""17398""
","
","
","""event"",""trial"",""time""
""fullscreenenter"",""5"",""17398""
","
","","","","","","","","","","","","","","","","","","","","","",""
"d3-animate-choice","136","659852","0.0-77.0-0.0","285","5730","11","Male","true","true","true","true","""event"",""trial"",""time""
""fullscreenenter"",""5"",""17398""
","
","
","""event"",""trial"",""time""
""fullscreenenter"",""5"",""17398""
","
","1782.5999999046326","","48","","","3000","1","","","images/earth.jpg","images/rocket2","images/rocket1","null","images/rocket2","","1","real","null","2","","",""
"d3-animate-choice","137","662844","0.0-77.0-1.0","285","5730","11","Male","true","true","true","true","""event"",""trial"",""time""
""fullscreenenter"",""5"",""17398""
","
","
","""event"",""trial"",""time""
""fullscreenenter"",""5"",""17398""
","
","971.5","","49","","","3000","1","","","images/purpleplanet.jpg","images/alien4","images/alien3","images/rocket2","images/alien3","images/nothing.png","2","real","true","1","common","0","2023-01-06 19:10:03.398"
"two-step-fixation","138","663862","0.0-77.0-2.0","285","5730","11","Male","true","true","true","true","""event"",""trial"",""time""
""fullscreenenter"",""5"",""17398""
","
","
","""event"",""trial"",""time""
""fullscreenenter"",""5"",""17398""
","
","","images/earth.jpg","","","","","","","","","","","","","","fixation","","","","","",""
"d3-animate-choice","139","666102","0.0-77.0-0.1","285","5730","11","Male","true","true","true","true","""event"",""trial"",""time""
""fullscreenenter"",""5"",""17398""
","
","
","""event"",""trial"",""time""
""fullscreenenter"",""5"",""17398""
","
","225.29999995231628","","48","","","3000","1","","","images/earth.jpg","images/rocket2","images/rocket1","null","images/rocket2","","1","real","null","2","","",""
"d3-animate-choice","140","668447","0.0-77.0-1.1","285","5730","11","Male","true","true","true","true","""event"",""trial"",""time""
""fullscreenenter"",""5"",""17398""
","
","
","""event"",""trial"",""time""
""fullscreenenter"",""5"",""17398""
","
","327.2999999523163","","48","","","3000","1","","","images/purpleplanet.jpg","images/alien4","images/alien3","images/rocket2","images/alien4","images/t.png","2","real","true","2","common","1","2023-01-06 19:10:09.001"
"two-step-fixation","141","669473","0.0-77.0-2.1","285","5730","11","Male","true","true","true","true","""event"",""trial"",""time""
""fullscreenenter"",""5"",""17398""
","
","
","""event"",""trial"",""time""
""fullscreenenter"",""5"",""17398""
","
","","images/earth.jpg","","","","","","","","","","","","","","fixation","","","","","",""
"d3-animate-choice","142","671847","0.0-77.0-0.2","285","5730","11","Male","true","true","true","true","""event"",""trial"",""time""
""fullscreenenter"",""5"",""17398""
","
","
","""event"",""trial"",""time""
""fullscreenenter"",""5"",""17398""
","
","365.09999990463257","","49","","","3000","1","","","images/earth.jpg","images/rocket2","images/rocket1","null","images/rocket1","","1","real","null","1","","",""
"d3-animate-choice","143","674591","0.0-77.0-1.2","285","5730","11","Male","true","true","true","true","""event"",""trial"",""time""
""fullscreenenter"",""5"",""17398""
","
","
","""event"",""trial"",""time""
""fullscreenenter"",""5"",""17398""
","
","723.9000000953674","","48","","","3000","1","","","images/redplanet1.jpg","images/alien2","images/alien1","images/rocket1","images/alien2","images/t.png","2","real","true","2","common","1","2023-01-06 19:10:15.145"
"two-step-fixation","144","675599","0.0-77.0-2.2","285","5730","11","Male","true","true","true","true","""event"",""trial"",""time""
""fullscreenenter"",""5"",""17398""
","
","
","""event"",""trial"",""time""
""fullscreenenter"",""5"",""17398""
","
","","images/earth.jpg","","","","","","","","","","","","","","fixation","","","","","",""
"d3-animate-choice","145","677950","0.0-77.0-0.3","285","5730","11","Male","true","true","true","true","""event"",""trial"",""time""
""fullscreenenter"",""5"",""17398""
","
","
","""event"",""trial"",""time""
""fullscreenenter"",""5"",""17398""
","
","338","","48","","","3000","1","","","images/earth.jpg","images/rocket2","images/rocket1","null","images/rocket2","","1","real","null","2","","",""
"d3-animate-choice","146","681167","0.0-77.0-1.3","285","5730","11","Male","true","true","true","true","""event"",""trial"",""time""
""fullscreenenter"",""5"",""17398""
","
","
","""event"",""trial"",""time""
""fullscreenenter"",""5"",""17398""
","
","1195","","48","","","3000","1","","","images/redplanet1.jpg","images/alien2","images/alien1","images/rocket2","images/alien2","images/t.png","2","real","false","2","rare","1","2023-01-06 19:10:21.722"
"two-step-fixation","147","682189","0.0-77.0-2.3","285","5730","11","Male","true","true","true","true","""event"",""trial"",""time""
""fullscreenenter"",""5"",""17398""
","
","
","""event"",""trial"",""time""
""fullscreenenter"",""5"",""17398""
","
","","images/earth.jpg","","","","","","","","","","","","","","fixation","","","","","",""
"d3-animate-choice","148","684751","0.0-77.0-0.4","285","5730","11","Male","true","true","true","true","""event"",""trial"",""time""
""fullscreenenter"",""5"",""17398""
","
","
","""event"",""trial"",""time""
""fullscreenenter"",""5"",""17398""
","
","548","","48","","","3000","1","","","images/earth.jpg","images/rocket2","images/rocket1","null","images/rocket2","","1","real","null","2","","",""
"d3-animate-choice","149","687647","0.0-77.0-1.4","285","5730","11","Male","true","true","true","true","""event"",""trial"",""time""
""fullscreenenter"",""5"",""17398""
","
","
","""event"",""trial"",""time""
""fullscreenenter"",""5"",""17398""
","
","876.5999999046326","","48","","","3000","1","","","images/redplanet1.jpg","images/alien2","images/alien1","images/rocket2","images/alien2","images/t.png","2","real","false","2","rare","1","2023-01-06 19:10:28.201"
"two-step-fixation","150","688656","0.0-77.0-2.4","285","5730","11","Male","true","true","true","true","""event"",""trial"",""time""
""fullscreenenter"",""5"",""17398""
","
","
","""event"",""trial"",""time""
""fullscreenenter"",""5"",""17398""
","
","","images/earth.jpg","","","","","","","","","","","","","","fixation","","","","","",""
"d3-animate-choice","151","690896","0.0-77.0-0.5","285","5730","11","Male","true","true","true","true","""event"",""trial"",""time""
""fullscreenenter"",""5"",""17398""
","
","
","""event"",""trial"",""time""
""fullscreenenter"",""5"",""17398""
","
","228.70000004768372","","48","","","3000","1","","","images/earth.jpg","images/rocket2","images/rocket1","null","images/rocket2","","1","real","null","2","","",""
"d3-animate-choice","152","694329","0.0-77.0-1.5","285","5730","11","Male","true","true","true","true","""event"",""trial"",""time""
""fullscreenenter"",""5"",""17398""
","
","
","""event"",""trial"",""time""
""fullscreenenter"",""5"",""17398""
","
","1420.5","","49","","","3000","1","","","images/purpleplanet.jpg","images/alien4","images/alien3","images/rocket2","images/alien3","images/t.png","2","real","true","1","common","1","2023-01-06 19:10:34.883"
"two-step-fixation","153","695351","0.0-77.0-2.5","285","5730","11","Male","true","true","true","true","""event"",""trial"",""time""
""fullscreenenter"",""5"",""17398""
","
","
","""event"",""trial"",""time""
""fullscreenenter"",""5"",""17398""
","
","","images/earth.jpg","","","","","","","","","","","","","","fixation","","","","","",""
"d3-animate-choice","154","698544","0.0-77.0-0.6","285","5730","11","Male","true","true","true","true","""event"",""trial"",""time""
""fullscreenenter"",""5"",""17398""
","
","
","""event"",""trial"",""time""
""fullscreenenter"",""5"",""17398""
","
","1177.8000001907349","","49","","","3000","1","","","images/earth.jpg","images/rocket2","images/rocket1","null","images/rocket1","","1","real","null","1","","",""
"d3-animate-choice","155","701182","0.0-77.0-1.6","285","5730","11","Male","true","true","true","true","""event"",""trial"",""time""
""fullscreenenter"",""5"",""17398""
","
","
","""event"",""trial"",""time""
""fullscreenenter"",""5"",""17398""
","
","622.0999999046326","","49","","","3000","1","","","images/redplanet1.jpg","images/alien2","images/alien1","images/rocket1","images/alien1","images/t.png","2","real","true","1","common","1","2023-01-06 19:10:41.736"
"two-step-fixation","156","702193","0.0-77.0-2.6","285","5730","11","Male","true","true","true","true","""event"",""trial"",""time""
""fullscreenenter"",""5"",""17398""
","
","
","""event"",""trial"",""time""
""fullscreenenter"",""5"",""17398""
","
","","images/earth.jpg","","","","","","","","","","","","","","fixation","","","","","",""
"d3-animate-choice","157","704542","0.0-77.0-0.7","285","5730","11","Male","true","true","true","true","""event"",""trial"",""time""
""fullscreenenter"",""5"",""17398""
","
","
","""event"",""trial"",""time""
""fullscreenenter"",""5"",""17398""
","
","339.2000000476837","","49","","","3000","1","","","images/earth.jpg","images/rocket2","images/rocket1","null","images/rocket1","","1","real","null","1","","",""
"d3-animate-choice","158","707352","0.0-77.0-1.7","285","5730","11","Male","true","true","true","true","""event"",""trial"",""time""
""fullscreenenter"",""5"",""17398""
","
","
","""event"",""trial"",""time""
""fullscreenenter"",""5"",""17398""
","
","799","","49","","","3000","1","","","images/redplanet1.jpg","images/alien2","images/alien1","images/rocket1","images/alien1","images/t.png","2","real","true","1","common","1","2023-01-06 19:10:47.906"
"two-step-fixation","159","708369","0.0-77.0-2.7","285","5730","11","Male","true","true","true","true","""event"",""trial"",""time""
""fullscreenenter"",""5"",""17398""
","
","
","""event"",""trial"",""time""
""fullscreenenter"",""5"",""17398""
","
","","images/earth.jpg","","","","","","","","","","","","","","fixation","","","","","",""
"d3-animate-choice","160","711029","0.0-77.0-0.8","285","5730","11","Male","true","true","true","true","""event"",""trial"",""time""
""fullscreenenter"",""5"",""17398""
","
","
","""event"",""trial"",""time""
""fullscreenenter"",""5"",""17398""
","
","631.8999998569489","","48","","","3000","1","","","images/earth.jpg","images/rocket2","images/rocket1","null","images/rocket2","","1","real","null","2","","",""
"d3-animate-choice","161","713924","0.0-77.0-1.8","285","5730","11","Male","true","true","true","true","""event"",""trial"",""time""
""fullscreenenter"",""5"",""17398""
","
","
","""event"",""trial"",""time""
""fullscreenenter"",""5"",""17398""
","
","877.4000000953674","","48","","","3000","1","","","images/purpleplanet.jpg","images/alien4","images/alien3","images/rocket2","images/alien4","images/t.png","2","real","true","2","common","1","2023-01-06 19:10:54.478"
"two-step-fixation","162","714940","0.0-77.0-2.8","285","5730","11","Male","true","true","true","true","""event"",""trial"",""time""
""fullscreenenter"",""5"",""17398""
","
","
","""event"",""trial"",""time""
""fullscreenenter"",""5"",""17398""
","
","","images/earth.jpg","","","","","","","","","","","","","","fixation","","","","","",""
"d3-animate-choice","163","717740","0.0-77.0-0.9","285","5730","11","Male","true","true","true","true","""event"",""trial"",""time""
""fullscreenenter"",""5"",""17398""
","
","
","""event"",""trial"",""time""
""fullscreenenter"",""5"",""17398""
","
","789.7000000476837","","49","","","3000","1","","","images/earth.jpg","images/rocket2","images/rocket1","null","images/rocket1","","1","real","null","1","","",""
"d3-animate-choice","164","721254","0.0-77.0-1.9","285","5730","11","Male","true","true","true","true","""event"",""trial"",""time""
""fullscreenenter"",""5"",""17398""
","
","
","""event"",""trial"",""time""
""fullscreenenter"",""5"",""17398""
","
","1492.0999999046326","","48","","","3000","1","","","images/redplanet1.jpg","images/alien2","images/alien1","images/rocket1","images/alien2","images/t.png","2","real","true","2","common","1","2023-01-06 19:11:01.808"
"two-step-fixation","165","722270","0.0-77.0-2.9","285","5730","11","Male","true","true","true","true","""event"",""trial"",""time""
""fullscreenenter"",""5"",""17398""
","
","
","""event"",""trial"",""time""
""fullscreenenter"",""5"",""17398""
","
","","images/earth.jpg","","","","","","","","","","","","","","fixation","","","","","",""
"d3-animate-choice","166","724796","0.0-77.0-0.10","285","5730","11","Male","true","true","true","true","""event"",""trial"",""time""
""fullscreenenter"",""5"",""17398""
","
","
","""event"",""trial"",""time""
""fullscreenenter"",""5"",""17398""
","
","511.7999999523163","","49","","","3000","1","","","images/earth.jpg","images/rocket2","images/rocket1","null","images/rocket1","","1","real","null","1","","",""
"d3-animate-choice","167","727662","0.0-77.0-1.10","285","5730","11","Male","true","true","true","true","""event"",""trial"",""time""
""fullscreenenter"",""5"",""17398""
","
","
","""event"",""trial"",""time""
""fullscreenenter"",""5"",""17398""
","
","855.7999999523163","","48","","","3000","1","","","images/purpleplanet.jpg","images/alien4","images/alien3","images/rocket1","images/alien4","images/t.png","2","real","false","2","rare","1","2023-01-06 19:11:08.216"
"two-step-fixation","168","728677","0.0-77.0-2.10","285","5730","11","Male","true","true","true","true","""event"",""trial"",""time""
""fullscreenenter"",""5"",""17398""
","
","
","""event"",""trial"",""time""
""fullscreenenter"",""5"",""17398""
","
","","images/earth.jpg","","","","","","","","","","","","","","fixation","","","","","",""
"d3-animate-choice","169","731306","0.0-77.0-0.11","285","5730","11","Male","true","true","true","true","""event"",""trial"",""time""
""fullscreenenter"",""5"",""17398""
","
","
","""event"",""trial"",""time""
""fullscreenenter"",""5"",""17398""
","
","609.9000000953674","","48","","","3000","1","","","images/earth.jpg","images/rocket2","images/rocket1","null","images/rocket2","","1","real","null","2","","",""
"d3-animate-choice","170","733818","0.0-77.0-1.11","285","5730","11","Male","true","true","true","true","""event"",""trial"",""time""
""fullscreenenter"",""5"",""17398""
","
","
","""event"",""trial"",""time""
""fullscreenenter"",""5"",""17398""
","
","506.39999985694885","","48","","","3000","1","","","images/redplanet1.jpg","images/alien2","images/alien1","images/rocket2","images/alien2","images/nothing.png","2","real","false","2","rare","0","2023-01-06 19:11:14.372"
"two-step-fixation","171","734832","0.0-77.0-2.11","285","5730","11","Male","true","true","true","true","""event"",""trial"",""time""
""fullscreenenter"",""5"",""17398""
","
","
","""event"",""trial"",""time""
""fullscreenenter"",""5"",""17398""
","
","","images/earth.jpg","","","","","","","","","","","","","","fixation","","","","","",""
"d3-animate-choice","172","737217","0.0-77.0-0.12","285","5730","11","Male","true","true","true","true","""event"",""trial"",""time""
""fullscreenenter"",""5"",""17398""
","
","
","""event"",""trial"",""time""
""fullscreenenter"",""5"",""17398""
","
","371.19999980926514","","48","","","3000","1","","","images/earth.jpg","images/rocket2","images/rocket1","null","images/rocket2","","1","real","null","2","","",""
"d3-animate-choice","173","740132","0.0-77.0-1.12","285","5730","11","Male","true","true","true","true","""event"",""trial"",""time""
""fullscreenenter"",""5"",""17398""
","
","
","""event"",""trial"",""time""
""fullscreenenter"",""5"",""17398""
","
","897.4000000953674","","48","","","3000","1","","","images/redplanet1.jpg","images/alien2","images/alien1","images/rocket2","images/alien2","images/t.png","2","real","false","2","rare","1","2023-01-06 19:11:20.687"
"two-step-fixation","174","741141","0.0-77.0-2.12","285","5730","11","Male","true","true","true","true","""event"",""trial"",""time""
""fullscreenenter"",""5"",""17398""
","
","
","""event"",""trial"",""time""
""fullscreenenter"",""5"",""17398""
","
","","images/earth.jpg","","","","","","","","","","","","","","fixation","","","","","",""
"d3-animate-choice","175","743893","0.0-77.0-0.13","285","5730","11","Male","true","true","true","true","""event"",""trial"",""time""
""fullscreenenter"",""5"",""17398""
","
","
","""event"",""trial"",""time""
""fullscreenenter"",""5"",""17398""
","
","736.0999999046326","","49","","","3000","1","","","images/earth.jpg","images/rocket2","images/rocket1","null","images/rocket1","","1","real","null","1","","",""
"d3-animate-choice","176","746425","0.0-77.0-1.13","285","5730","11","Male","true","true","true","true","""event"",""trial"",""time""
""fullscreenenter"",""5"",""17398""
","
","
","""event"",""trial"",""time""
""fullscreenenter"",""5"",""17398""
","
","520","","49","","","3000","1","","","images/redplanet1.jpg","images/alien2","images/alien1","images/rocket1","images/alien1","images/t.png","2","real","true","1","common","1","2023-01-06 19:11:26.979"
"two-step-fixation","177","747440","0.0-77.0-2.13","285","5730","11","Male","true","true","true","true","""event"",""trial"",""time""
""fullscreenenter"",""5"",""17398""
","
","
","""event"",""trial"",""time""
""fullscreenenter"",""5"",""17398""
","
","","images/earth.jpg","","","","","","","","","","","","","","fixation","","","","","",""
"d3-animate-choice","178","749850","0.0-77.0-0.14","285","5730","11","Male","true","true","true","true","""event"",""trial"",""time""
""fullscreenenter"",""5"",""17398""
","
","
","""event"",""trial"",""time""
""fullscreenenter"",""5"",""17398""
","
","393.2000000476837","","49","","","3000","1","","","images/earth.jpg","images/rocket2","images/rocket1","null","images/rocket1","","1","real","null","1","","",""
"d3-animate-choice","179","752324","0.0-77.0-1.14","285","5730","11","Male","true","true","true","true","""event"",""trial"",""time""
""fullscreenenter"",""5"",""17398""
","
","
","""event"",""trial"",""time""
""fullscreenenter"",""5"",""17398""
","
","458.89999985694885","","49","","","3000","1","","","images/redplanet1.jpg","images/alien2","images/alien1","images/rocket1","images/alien1","images/nothing.png","2","real","true","1","common","0","2023-01-06 19:11:32.878"
"two-step-fixation","180","753336","0.0-77.0-2.14","285","5730","11","Male","true","true","true","true","""event"",""trial"",""time""
""fullscreenenter"",""5"",""17398""
","
","
","""event"",""trial"",""time""
""fullscreenenter"",""5"",""17398""
","
","","images/earth.jpg","","","","","","","","","","","","","","fixation","","","","","",""
"d3-animate-choice","181","756742","0.0-77.0-0.15","285","5730","11","Male","true","true","true","true","""event"",""trial"",""time""
""fullscreenenter"",""5"",""17398""
","
","
","""event"",""trial"",""time""
""fullscreenenter"",""5"",""17398""
","
","1392.8999998569489","","48","","","3000","1","","","images/earth.jpg","images/rocket2","images/rocket1","null","images/rocket2","","1","real","null","2","","",""
"d3-animate-choice","182","759871","0.0-77.0-1.15","285","5730","11","Male","true","true","true","true","""event"",""trial"",""time""
""fullscreenenter"",""5"",""17398""
","
","
","""event"",""trial"",""time""
""fullscreenenter"",""5"",""17398""
","
","1118.7000000476837","","48","","","3000","1","","","images/redplanet1.jpg","images/alien2","images/alien1","images/rocket2","images/alien2","images/nothing.png","2","real","false","2","rare","0","2023-01-06 19:11:40.425"
"two-step-fixation","183","760878","0.0-77.0-2.15","285","5730","11","Male","true","true","true","true","""event"",""trial"",""time""
""fullscreenenter"",""5"",""17398""
","
","
","""event"",""trial"",""time""
""fullscreenenter"",""5"",""17398""
","
","","images/earth.jpg","","","","","","","","","","","","","","fixation","","","","","",""
"d3-animate-choice","184","762927","0.0-77.0-0.16","285","5730","11","Male","true","true","true","true","""event"",""trial"",""time""
""fullscreenenter"",""5"",""17398""
","
","
","""event"",""trial"",""time""
""fullscreenenter"",""5"",""17398""
","
","40.5","","48","","","3000","1","","","images/earth.jpg","images/rocket2","images/rocket1","null","images/rocket2","","1","real","null","2","","",""
"d3-animate-choice","185","766077","0.0-77.0-1.16","285","5730","11","Male","true","true","true","true","""event"",""trial"",""time""
""fullscreenenter"",""5"",""17398""
","
","
","""event"",""trial"",""time""
""fullscreenenter"",""5"",""17398""
","
","1140.7999999523163","","49","","","3000","1","","","images/purpleplanet.jpg","images/alien4","images/alien3","images/rocket2","images/alien3","images/t.png","2","real","true","1","common","1","2023-01-06 19:11:46.631"
"two-step-fixation","186","767088","0.0-77.0-2.16","285","5730","11","Male","true","true","true","true","""event"",""trial"",""time""
""fullscreenenter"",""5"",""17398""
","
","
","""event"",""trial"",""time""
""fullscreenenter"",""5"",""17398""
","
","","images/earth.jpg","","","","","","","","","","","","","","fixation","","","","","",""
"d3-animate-choice","187","769439","0.0-77.0-0.17","285","5730","11","Male","true","true","true","true","""event"",""trial"",""time""
""fullscreenenter"",""5"",""17398""
","
","
","""event"",""trial"",""time""
""fullscreenenter"",""5"",""17398""
","
","340.2999999523163","","49","","","3000","1","","","images/earth.jpg","images/rocket2","images/rocket1","null","images/rocket1","","1","real","null","1","","",""
"d3-animate-choice","188","772240","0.0-77.0-1.17","285","5730","11","Male","true","true","true","true","""event"",""trial"",""time""
""fullscreenenter"",""5"",""17398""
","
","
","""event"",""trial"",""time""
""fullscreenenter"",""5"",""17398""
","
","786","","49","","","3000","1","","","images/purpleplanet.jpg","images/alien4","images/alien3","images/rocket1","images/alien3","images/t.png","2","real","false","1","rare","1","2023-01-06 19:11:52.795"
"two-step-fixation","189","773257","0.0-77.0-2.17","285","5730","11","Male","true","true","true","true","""event"",""trial"",""time""
""fullscreenenter"",""5"",""17398""
","
","
","""event"",""trial"",""time""
""fullscreenenter"",""5"",""17398""
","
","","images/earth.jpg","","","","","","","","","","","","","","fixation","","","","","",""
"d3-animate-choice","190","775960","0.0-77.0-0.18","285","5730","11","Male","true","true","true","true","""event"",""trial"",""time""
""fullscreenenter"",""5"",""17398""
","
","
","""event"",""trial"",""time""
""fullscreenenter"",""5"",""17398""
","
","690","","49","","","3000","1","","","images/earth.jpg","images/rocket2","images/rocket1","null","images/rocket1","","1","real","null","1","","",""
"d3-animate-choice","191","778790","0.0-77.0-1.18","285","5730","11","Male","true","true","true","true","""event"",""trial"",""time""
""fullscreenenter"",""5"",""17398""
","
","
","""event"",""trial"",""time""
""fullscreenenter"",""5"",""17398""
","
","811.4000000953674","","48","","","3000","1","","","images/redplanet1.jpg","images/alien2","images/alien1","images/rocket1","images/alien2","images/t.png","2","real","true","2","common","1","2023-01-06 19:11:59.344"
"two-step-fixation","192","779798","0.0-77.0-2.18","285","5730","11","Male","true","true","true","true","""event"",""trial"",""time""
""fullscreenenter"",""5"",""17398""
","
","
","""event"",""trial"",""time""
""fullscreenenter"",""5"",""17398""
","
","","images/earth.jpg","","","","","","","","","","","","","","fixation","","","","","",""
"d3-animate-choice","193","782466","0.0-77.0-0.19","285","5730","11","Male","true","true","true","true","""event"",""trial"",""time""
""fullscreenenter"",""5"",""17398""
","
","
","""event"",""trial"",""time""
""fullscreenenter"",""5"",""17398""
","
","652.3999998569489","","48","","","3000","1","","","images/earth.jpg","images/rocket2","images/rocket1","null","images/rocket2","","1","real","null","2","","",""
"d3-animate-choice","194","785090","0.0-77.0-1.19","285","5730","11","Male","true","true","true","true","""event"",""trial"",""time""
""fullscreenenter"",""5"",""17398""
","
","
","""event"",""trial"",""time""
""fullscreenenter"",""5"",""17398""
","
","609.0999999046326","","48","","","3000","1","","","images/purpleplanet.jpg","images/alien4","images/alien3","images/rocket2","images/alien4","images/t.png","2","real","true","2","common","1","2023-01-06 19:12:05.645"
"two-step-fixation","195","786105","0.0-77.0-2.19","285","5730","11","Male","true","true","true","true","""event"",""trial"",""time""
""fullscreenenter"",""5"",""17398""
","
","
","""event"",""trial"",""time""
""fullscreenenter"",""5"",""17398""
","
","","images/earth.jpg","","","","","","","","","","","","","","fixation","","","","","",""
"d3-animate-choice","196","788198","0.0-77.0-0.20","285","5730","11","Male","true","true","true","true","""event"",""trial"",""time""
""fullscreenenter"",""5"",""17398""
","
","
","""event"",""trial"",""time""
""fullscreenenter"",""5"",""17398""
","
","81.60000014305115","","48","","","3000","1","","","images/earth.jpg","images/rocket2","images/rocket1","null","images/rocket2","","1","real","null","2","","",""
"d3-animate-choice","197","790632","0.0-77.0-1.20","285","5730","11","Male","true","true","true","true","""event"",""trial"",""time""
""fullscreenenter"",""5"",""17398""
","
","
","""event"",""trial"",""time""
""fullscreenenter"",""5"",""17398""
","
","418.89999985694885","","48","","","3000","1","","","images/purpleplanet.jpg","images/alien4","images/alien3","images/rocket2","images/alien4","images/nothing.png","2","real","true","2","common","0","2023-01-06 19:12:11.187"
"two-step-fixation","198","791651","0.0-77.0-2.20","285","5730","11","Male","true","true","true","true","""event"",""trial"",""time""
""fullscreenenter"",""5"",""17398""
","
","
","""event"",""trial"",""time""
""fullscreenenter"",""5"",""17398""
","
","","images/earth.jpg","","","","","","","","","","","","","","fixation","","","","","",""
"d3-animate-choice","199","794729","0.0-77.0-0.21","285","5730","11","Male","true","true","true","true","""event"",""trial"",""time""
""fullscreenenter"",""5"",""17398""
","
","
","""event"",""trial"",""time""
""fullscreenenter"",""5"",""17398""
","
","1068.7999999523163","","48","","","3000","1","","","images/earth.jpg","images/rocket2","images/rocket1","null","images/rocket2","","1","real","null","2","","",""
"d3-animate-choice","200","797579","0.0-77.0-1.21","285","5730","11","Male","true","true","true","true","""event"",""trial"",""time""
""fullscreenenter"",""5"",""17398""
","
","
","""event"",""trial"",""time""
""fullscreenenter"",""5"",""17398""
","
","834.2999999523163","","48","","","3000","1","","","images/purpleplanet.jpg","images/alien4","images/alien3","images/rocket2","images/alien4","images/t.png","2","real","true","2","common","1","2023-01-06 19:12:18.133"
"two-step-fixation","201","798585","0.0-77.0-2.21","285","5730","11","Male","true","true","true","true","""event"",""trial"",""time""
""fullscreenenter"",""5"",""17398""
","
","
","""event"",""trial"",""time""
""fullscreenenter"",""5"",""17398""
","
","","images/earth.jpg","","","","","","","","","","","","","","fixation","","","","","",""
"d3-animate-choice","202","800701","0.0-77.0-0.22","285","5730","11","Male","true","true","true","true","""event"",""trial"",""time""
""fullscreenenter"",""5"",""17398""
","
","
","""event"",""trial"",""time""
""fullscreenenter"",""5"",""17398""
","
","108.10000014305115","","48","","","3000","1","","","images/earth.jpg","images/rocket2","images/rocket1","null","images/rocket2","","1","real","null","2","","",""
"d3-animate-choice","203","803291","0.0-77.0-1.22","285","5730","11","Male","true","true","true","true","""event"",""trial"",""time""
""fullscreenenter"",""5"",""17398""
","
","
","""event"",""trial"",""time""
""fullscreenenter"",""5"",""17398""
","
","575.1000001430511","","48","","","3000","1","","","images/purpleplanet.jpg","images/alien4","images/alien3","images/rocket2","images/alien4","images/t.png","2","real","true","2","common","1","2023-01-06 19:12:23.845"
"two-step-fixation","204","804307","0.0-77.0-2.22","285","5730","11","Male","true","true","true","true","""event"",""trial"",""time""
""fullscreenenter"",""5"",""17398""
","
","
","""event"",""trial"",""time""
""fullscreenenter"",""5"",""17398""
","
","","images/earth.jpg","","","","","","","","","","","","","","fixation","","","","","",""
"d3-animate-choice","205","806546","0.0-77.0-0.23","285","5730","11","Male","true","true","true","true","""event"",""trial"",""time""
""fullscreenenter"",""5"",""17398""
","
","
","""event"",""trial"",""time""
""fullscreenenter"",""5"",""17398""
","
","225.5","","48","","","3000","1","","","images/earth.jpg","images/rocket2","images/rocket1","null","images/rocket2","","1","real","null","2","","",""
"d3-animate-choice","206","808850","0.0-77.0-1.23","285","5730","11","Male","true","true","true","true","""event"",""trial"",""time""
""fullscreenenter"",""5"",""17398""
","
","
","""event"",""trial"",""time""
""fullscreenenter"",""5"",""17398""
","
","289.89999985694885","","48","","","3000","1","","","images/purpleplanet.jpg","images/alien4","images/alien3","images/rocket2","images/alien4","images/nothing.png","2","real","true","2","common","0","2023-01-06 19:12:29.404"
"two-step-fixation","207","809867","0.0-77.0-2.23","285","5730","11","Male","true","true","true","true","""event"",""trial"",""time""
""fullscreenenter"",""5"",""17398""
","
","
","""event"",""trial"",""time""
""fullscreenenter"",""5"",""17398""
","
","","images/earth.jpg","","","","","","","","","","","","","","fixation","","","","","",""
"d3-animate-choice","208","812258","0.0-77.0-0.24","285","5730","11","Male","true","true","true","true","""event"",""trial"",""time""
""fullscreenenter"",""5"",""17398""
","
","
","""event"",""trial"",""time""
""fullscreenenter"",""5"",""17398""
","
","379.2999999523163","","48","","","3000","1","","","images/earth.jpg","images/rocket2","images/rocket1","null","images/rocket2","","1","real","null","2","","",""
"d3-animate-choice","209","814664","0.0-77.0-1.24","285","5730","11","Male","true","true","true","true","""event"",""trial"",""time""
""fullscreenenter"",""5"",""17398""
","
","
","""event"",""trial"",""time""
""fullscreenenter"",""5"",""17398""
","
","399.7999999523163","","49","","","3000","1","","","images/purpleplanet.jpg","images/alien4","images/alien3","images/rocket2","images/alien3","images/nothing.png","2","real","true","1","common","0","2023-01-06 19:12:35.218"
"two-step-fixation","210","815672","0.0-77.0-2.24","285","5730","11","Male","true","true","true","true","""event"",""trial"",""time""
""fullscreenenter"",""5"",""17398""
","
","
","""event"",""trial"",""time""
""fullscreenenter"",""5"",""17398""
","
","","images/earth.jpg","","","","","","","","","","","","","","fixation","","","","","",""
"d3-animate-choice","211","818318","0.0-77.0-0.25","285","5730","11","Male","true","true","true","true","""event"",""trial"",""time""
""fullscreenenter"",""5"",""17398""
","
","
","""event"",""trial"",""time""
""fullscreenenter"",""5"",""17398""
","
","623.7999999523163","","49","","","3000","1","","","images/earth.jpg","images/rocket2","images/rocket1","null","images/rocket1","","1","real","null","1","","",""
"d3-animate-choice","212","822335","0.0-77.0-1.25","285","5730","11","Male","true","true","true","true","""event"",""trial"",""time""
""fullscreenenter"",""5"",""17398""
","
","
","""event"",""trial"",""time""
""fullscreenenter"",""5"",""17398""
","
","2535.9000000953674","","48","","","3000","1","","","images/purpleplanet.jpg","images/alien4","images/alien3","images/rocket1","images/alien4","images/nothing.png","2","real","false","2","rare","0","2023-01-06 19:12:42.889"
"two-step-fixation","213","823358","0.0-77.0-2.25","285","5730","11","Male","true","true","true","true","""event"",""trial"",""time""
""fullscreenenter"",""5"",""17398""
","
","
","""event"",""trial"",""time""
""fullscreenenter"",""5"",""17398""
","
","","images/earth.jpg","","","","","","","","","","","","","","fixation","","","","","",""
"d3-animate-choice","214","825990","0.0-77.0-0.26","285","5730","11","Male","true","true","true","true","""event"",""trial"",""time""
""fullscreenenter"",""5"",""17398""
","
","
","""event"",""trial"",""time""
""fullscreenenter"",""5"",""17398""
","
","621.8999998569489","","48","","","3000","1","","","images/earth.jpg","images/rocket2","images/rocket1","null","images/rocket2","","1","real","null","2","","",""
"d3-animate-choice","215","828703","0.0-77.0-1.26","285","5730","11","Male","true","true","true","true","""event"",""trial"",""time""
""fullscreenenter"",""5"",""17398""
","
","
","""event"",""trial"",""time""
""fullscreenenter"",""5"",""17398""
","
","704.0999999046326","","49","","","3000","1","","","images/purpleplanet.jpg","images/alien4","images/alien3","images/rocket2","images/alien3","images/t.png","2","real","true","1","common","1","2023-01-06 19:12:49.257"
"two-step-fixation","216","829711","0.0-77.0-2.26","285","5730","11","Male","true","true","true","true","""event"",""trial"",""time""
""fullscreenenter"",""5"",""17398""
","
","
","""event"",""trial"",""time""
""fullscreenenter"",""5"",""17398""
","
","","images/earth.jpg","","","","","","","","","","","","","","fixation","","","","","",""
"d3-animate-choice","217","832002","0.0-77.0-0.27","285","5730","11","Male","true","true","true","true","""event"",""trial"",""time""
""fullscreenenter"",""5"",""17398""
","
","
","""event"",""trial"",""time""
""fullscreenenter"",""5"",""17398""
","
","274.40000009536743","","48","","","3000","1","","","images/earth.jpg","images/rocket2","images/rocket1","null","images/rocket2","","1","real","null","2","","",""
"d3-animate-choice","218","834693","0.0-77.0-1.27","285","5730","11","Male","true","true","true","true","""event"",""trial"",""time""
""fullscreenenter"",""5"",""17398""
","
","
","""event"",""trial"",""time""
""fullscreenenter"",""5"",""17398""
","
","681.5999999046326","","48","","","3000","1","","","images/redplanet1.jpg","images/alien2","images/alien1","images/rocket2","images/alien2","images/t.png","2","real","false","2","rare","1","2023-01-06 19:12:55.248"
"two-step-fixation","219","835709","0.0-77.0-2.27","285","5730","11","Male","true","true","true","true","""event"",""trial"",""time""
""fullscreenenter"",""5"",""17398""
","
","
","""event"",""trial"",""time""
""fullscreenenter"",""5"",""17398""
","
","","images/earth.jpg","","","","","","","","","","","","","","fixation","","","","","",""
"d3-animate-choice","220","837958","0.0-77.0-0.28","285","5730","11","Male","true","true","true","true","""event"",""trial"",""time""
""fullscreenenter"",""5"",""17398""
","
","
","""event"",""trial"",""time""
""fullscreenenter"",""5"",""17398""
","
","240.70000004768372","","48","","","3000","1","","","images/earth.jpg","images/rocket2","images/rocket1","null","images/rocket2","","1","real","null","2","","",""
"d3-animate-choice","221","841976","0.0-77.0-1.28","285","5730","11","Male","true","true","true","true","""event"",""trial"",""time""
""fullscreenenter"",""5"",""17398""
","
","
","""event"",""trial"",""time""
""fullscreenenter"",""5"",""17398""
","
","null","","null","","","3000","0","","","images/redplanet1.jpg","images/alien2","images/alien1","images/rocket2","","","2","real","false","","rare","0","2023-01-06 19:13:02.530"
"two-step-fixation","222","842991","0.0-77.0-2.28","285","5730","11","Male","true","true","true","true","""event"",""trial"",""time""
""fullscreenenter"",""5"",""17398""
","
","
","""event"",""trial"",""time""
""fullscreenenter"",""5"",""17398""
","
","","images/earth.jpg","","","","","","","","","","","","","","fixation","","","","","",""
"d3-animate-choice","223","845551","0.0-77.0-0.29","285","5730","11","Male","true","true","true","true","""event"",""trial"",""time""
""fullscreenenter"",""5"",""17398""
","
","
","""event"",""trial"",""time""
""fullscreenenter"",""5"",""17398""
","
","551.7999999523163","","48","","","3000","1","","","images/earth.jpg","images/rocket2","images/rocket1","null","images/rocket2","","1","real","null","2","","",""
"d3-animate-choice","224","848190","0.0-77.0-1.29","285","5730","11","Male","true","true","true","true","""event"",""trial"",""time""
""fullscreenenter"",""5"",""17398""
","
","
","""event"",""trial"",""time""
""fullscreenenter"",""5"",""17398""
","
","627.1000001430511","","48","","","3000","1","","","images/purpleplanet.jpg","images/alien4","images/alien3","images/rocket2","images/alien4","images/nothing.png","2","real","true","2","common","0","2023-01-06 19:13:08.744"
"two-step-fixation","225","849203","0.0-77.0-2.29","285","5730","11","Male","true","true","true","true","""event"",""trial"",""time""
""fullscreenenter"",""5"",""17398""
","
","
","""event"",""trial"",""time""
""fullscreenenter"",""5"",""17398""
","
","","images/earth.jpg","","","","","","","","","","","","","","fixation","","","","","",""
"d3-animate-choice","226","852677","0.0-77.0-0.30","285","5730","11","Male","true","true","true","true","""event"",""trial"",""time""
""fullscreenenter"",""5"",""17398""
","
","
","""event"",""trial"",""time""
""fullscreenenter"",""5"",""17398""
","
","1452.3000001907349","","48","","","3000","1","","","images/earth.jpg","images/rocket2","images/rocket1","null","images/rocket2","","1","real","null","2","","",""
"d3-animate-choice","227","855663","0.0-77.0-1.30","285","5730","11","Male","true","true","true","true","""event"",""trial"",""time""
""fullscreenenter"",""5"",""17398""
","
","
","""event"",""trial"",""time""
""fullscreenenter"",""5"",""17398""
","
","975.2999999523163","","48","","","3000","1","","","images/purpleplanet.jpg","images/alien4","images/alien3","images/rocket2","images/alien4","images/t.png","2","real","true","2","common","1","2023-01-06 19:13:16.217"
"two-step-fixation","228","856681","0.0-77.0-2.30","285","5730","11","Male","true","true","true","true","""event"",""trial"",""time""
""fullscreenenter"",""5"",""17398""
","
","
","""event"",""trial"",""time""
""fullscreenenter"",""5"",""17398""
","
","","images/earth.jpg","","","","","","","","","","","","","","fixation","","","","","",""
"d3-animate-choice","229","860704","0.0-77.0-0.31","285","5730","11","Male","true","true","true","true","""event"",""trial"",""time""
""fullscreenenter"",""5"",""17398""
","
","
","""event"",""trial"",""time""
""fullscreenenter"",""5"",""17398""
","
","2782.899999856949","","49","","","3000","1","","","images/earth.jpg","images/rocket2","images/rocket1","null","images/rocket1","","1","real","null","1","","",""
"d3-animate-choice","230","864719","0.0-77.0-1.31","285","5730","11","Male","true","true","true","true","""event"",""trial"",""time""
""fullscreenenter"",""5"",""17398""
","
","
","""event"",""trial"",""time""
""fullscreenenter"",""5"",""17398""
","
","528.1000001430511","","173","","","3000","1","1116.7000000476837,2095.2000000476837","173,49","images/redplanet1.jpg","images/alien2","images/alien1","images/rocket1","images/alien1","images/t.png","2","real","true","","common","1","2023-01-06 19:13:25.273"
"two-step-fixation","231","865736","0.0-77.0-2.31","285","5730","11","Male","true","true","true","true","""event"",""trial"",""time""
""fullscreenenter"",""5"",""17398""
","
","
","""event"",""trial"",""time""
""fullscreenenter"",""5"",""17398""
","
","","images/earth.jpg","","","","","","","","","","","","","","fixation","","","","","",""
"d3-animate-choice","232","869752","0.0-77.0-0.32","285","5730","11","Male","true","true","true","true","""event"",""trial"",""time""
""fullscreenenter"",""5"",""17398""
","
","
","""event"",""trial"",""time""
""fullscreenenter"",""5"",""17398""
","
","2135.199999809265","","49","","","3000","1","","","images/earth.jpg","images/rocket2","images/rocket1","null","images/rocket1","","1","real","null","1","","",""
"d3-animate-choice","233","873317","0.0-77.0-1.32","285","5730","11","Male","true","true","true","true","""event"",""trial"",""time""
""fullscreenenter"",""5"",""17398""
","
","
","""event"",""trial"",""time""
""fullscreenenter"",""5"",""17398""
","
","1543.2999999523163","","48","","","3000","1","","","images/redplanet1.jpg","images/alien2","images/alien1","images/rocket1","images/alien2","images/t.png","2","real","true","2","common","1","2023-01-06 19:13:33.872"
"two-step-fixation","234","874333","0.0-77.0-2.32","285","5730","11","Male","true","true","true","true","""event"",""trial"",""time""
""fullscreenenter"",""5"",""17398""
","
","
","""event"",""trial"",""time""
""fullscreenenter"",""5"",""17398""
","
","","images/earth.jpg","","","","","","","","","","","","","","fixation","","","","","",""
"d3-animate-choice","235","877061","0.0-77.0-0.33","285","5730","11","Male","true","true","true","true","""event"",""trial"",""time""
""fullscreenenter"",""5"",""17398""
","
","
","""event"",""trial"",""time""
""fullscreenenter"",""5"",""17398""
","
","711.6999998092651","","49","","","3000","1","","","images/earth.jpg","images/rocket2","images/rocket1","null","images/rocket1","","1","real","null","1","","",""
"d3-animate-choice","236","879793","0.0-77.0-1.33","285","5730","11","Male","true","true","true","true","""event"",""trial"",""time""
""fullscreenenter"",""5"",""17398""
","
","
","""event"",""trial"",""time""
""fullscreenenter"",""5"",""17398""
","
","718.1999998092651","","49","","","3000","1","","","images/redplanet1.jpg","images/alien2","images/alien1","images/rocket1","images/alien1","images/t.png","2","real","true","1","common","1","2023-01-06 19:13:40.347"
"two-step-fixation","237","880814","0.0-77.0-2.33","285","5730","11","Male","true","true","true","true","""event"",""trial"",""time""
""fullscreenenter"",""5"",""17398""
","
","
","""event"",""trial"",""time""
""fullscreenenter"",""5"",""17398""
","
","","images/earth.jpg","","","","","","","","","","","","","","fixation","","","","","",""
"d3-animate-choice","238","883261","0.0-77.0-0.34","285","5730","11","Male","true","true","true","true","""event"",""trial"",""time""
""fullscreenenter"",""5"",""17398""
","
","
","""event"",""trial"",""time""
""fullscreenenter"",""5"",""17398""
","
","434.2999999523163","","48","","","3000","1","590.2999999523163","49","images/earth.jpg","images/rocket2","images/rocket1","null","images/rocket2","","1","real","null","2","","",""
"d3-animate-choice","239","885596","0.0-77.0-1.34","285","5730","11","Male","true","true","true","true","""event"",""trial"",""time""
""fullscreenenter"",""5"",""17398""
","
","
","""event"",""trial"",""time""
""fullscreenenter"",""5"",""17398""
","
","321.2000000476837","","49","","","3000","1","","","images/purpleplanet.jpg","images/alien4","images/alien3","images/rocket2","images/alien3","images/t.png","2","real","true","1","common","1","2023-01-06 19:13:46.151"
"two-step-fixation","240","886611","0.0-77.0-2.34","285","5730","11","Male","true","true","true","true","""event"",""trial"",""time""
""fullscreenenter"",""5"",""17398""
","
","
","""event"",""trial"",""time""
""fullscreenenter"",""5"",""17398""
","
","","images/earth.jpg","","","","","","","","","","","","","","fixation","","","","","",""
"d3-animate-choice","241","888856","0.0-77.0-0.35","285","5730","11","Male","true","true","true","true","""event"",""trial"",""time""
""fullscreenenter"",""5"",""17398""
","
","
","""event"",""trial"",""time""
""fullscreenenter"",""5"",""17398""
","
","234.29999995231628","","49","","","3000","1","","","images/earth.jpg","images/rocket2","images/rocket1","null","images/rocket1","","1","real","null","1","","",""
"d3-animate-choice","242","891463","0.0-77.0-1.35","285","5730","11","Male","true","true","true","true","""event"",""trial"",""time""
""fullscreenenter"",""5"",""17398""
","
","
","""event"",""trial"",""time""
""fullscreenenter"",""5"",""17398""
","
","596.7999999523163","","49","","","3000","1","","","images/purpleplanet.jpg","images/alien4","images/alien3","images/rocket1","images/alien3","images/nothing.png","2","real","false","1","rare","0","2023-01-06 19:13:52.017"
"two-step-fixation","243","892470","0.0-77.0-2.35","285","5730","11","Male","true","true","true","true","""event"",""trial"",""time""
""fullscreenenter"",""5"",""17398""
","
","
","""event"",""trial"",""time""
""fullscreenenter"",""5"",""17398""
","
","","images/earth.jpg","","","","","","","","","","","","","","fixation","","","","","",""
"d3-animate-choice","244","895228","0.0-77.0-0.36","285","5730","11","Male","true","true","true","true","""event"",""trial"",""time""
""fullscreenenter"",""5"",""17398""
","
","
","""event"",""trial"",""time""
""fullscreenenter"",""5"",""17398""
","
","745.5","","49","","","3000","1","","","images/earth.jpg","images/rocket2","images/rocket1","null","images/rocket1","","1","real","null","1","","",""
"d3-animate-choice","245","898077","0.0-77.0-1.36","285","5730","11","Male","true","true","true","true","""event"",""trial"",""time""
""fullscreenenter"",""5"",""17398""
","
","
","""event"",""trial"",""time""
""fullscreenenter"",""5"",""17398""
","
","833.3000001907349","","49","","","3000","1","","","images/redplanet1.jpg","images/alien2","images/alien1","images/rocket1","images/alien1","images/t.png","2","real","true","1","common","1","2023-01-06 19:13:58.631"
"two-step-fixation","246","899093","0.0-77.0-2.36","285","5730","11","Male","true","true","true","true","""event"",""trial"",""time""
""fullscreenenter"",""5"",""17398""
","
","
","""event"",""trial"",""time""
""fullscreenenter"",""5"",""17398""
","
","","images/earth.jpg","","","","","","","","","","","","","","fixation","","","","","",""
"d3-animate-choice","247","901409","0.0-77.0-0.37","285","5730","11","Male","true","true","true","true","""event"",""trial"",""time""
""fullscreenenter"",""5"",""17398""
","
","
","""event"",""trial"",""time""
""fullscreenenter"",""5"",""17398""
","
","298.7000000476837","","49","","","3000","1","","","images/earth.jpg","images/rocket2","images/rocket1","null","images/rocket1","","1","real","null","1","","",""
