"trial_type","trial_index","time_elapsed","internal_node_id","participant_id","subject_id","age","gender","rocket_sides","red_planet_first_rocket","red_display_order","purple_display_order","interactions","blur_events","focus_events","fullscreenenter_events","fullscreenexit_events","rt","stimulus","key_press","button_pressed","success","duration","valid_pressed","rts","keys","planet_text","right_text","left_text","center_text","chosen_text","reward_text","trial_stage","practice_trial","transition_type","choice","transition","reward","timestamp"
"pavlovia","0","4","0.0-0.0","7","5617","8","Female","false","false","true","false","
","
","
","
","
","","","","","","","","","","","","","","","","","","","","","",""
"html-keyboard-response","1","1220","0.0-1.0","7","5617","8","Female","false","false","true","false","
","
","
","
","
","1215.7000000029802","Welcome! Press the space bar to begin.","32","","","","","","","","","","","","","","","","","","",""
"audio-keyboard-response","2","3947","0.0-2.0","7","5617","8","Female","false","false","true","false","
","
","
","
","
","2589","audio/beep_loop.wav","32","","","","","","","","","","","","","","","","","","",""
"audio-button-response","3","5409","0.0-3.0","7","5617","8","Female","false","false","true","false","
","
","
","
","
","NaN","audio/fish.mp3","","1","","","","","","","","","","","","","","","","","",""
"audio-button-response","4","7579","0.0-4.0","7","5617","8","Female","false","false","true","false","""event"",""trial"",""time""
""fullscreenenter"",""5"",""10427""
","
","
","""event"",""trial"",""time""
""fullscreenenter"",""5"",""10427""
","
","NaN","audio/tiger.mp3","","4","","","","","","","","","","","","","","","","","",""
"fullscreen","5","11418","0.0-5.0","7","5617","8","Female","false","false","true","false","""event"",""trial"",""time""
""fullscreenenter"",""5"",""10427""
","
","
","""event"",""trial"",""time""
""fullscreenenter"",""5"",""10427""
","
","","","","","true","","","","","","","","","","","","","","","","",""
"d3-instructions","6","15501","0.0-6.0","7","5617","8","Female","false","false","true","false","""event"",""trial"",""time""
""fullscreenenter"",""5"",""10427""
","
","
","""event"",""trial"",""time""
""fullscreenenter"",""5"",""10427""
","
","","","","","","","","","","","","","","","","","","","","","",""
"d3-instructions","7","16650","0.0-7.0","7","5617","8","Female","false","false","true","false","""event"",""trial"",""time""
""fullscreenenter"",""5"",""10427""
","
","
","""event"",""trial"",""time""
""fullscreenenter"",""5"",""10427""
","
","","","","","","","","","","","","","","","","","","","","","",""
"d3-instructions","8","18623","0.0-8.0","7","5617","8","Female","false","false","true","false","""event"",""trial"",""time""
""fullscreenenter"",""5"",""10427""
","
","
","""event"",""trial"",""time""
""fullscreenenter"",""5"",""10427""
","
","","","","","","","","","","","","","","","","","","","","","",""
"d3-instructions","9","21174","0.0-9.0","7","5617","8","Female","false","false","true","false","""event"",""trial"",""time""
""fullscreenenter"",""5"",""10427""
","
","
","""event"",""trial"",""time""
""fullscreenenter"",""5"",""10427""
","
","","","","","","","","","","","","","","","","","","","","","",""
"d3-instructions","10","23809","0.0-10.0","7","5617","8","Female","false","false","true","false","""event"",""trial"",""time""
""fullscreenenter"",""5"",""10427""
","
","
","""event"",""trial"",""time""
""fullscreenenter"",""5"",""10427""
","
","","","","","","","","","","","","","","","","","","","","","",""
"d3-animate-choice","11","27023","0.0-11.0","7","5617","8","Female","false","false","true","false","""event"",""trial"",""time""
""fullscreenenter"",""5"",""10427""
","
","
","""event"",""trial"",""time""
""fullscreenenter"",""5"",""10427""
","
","1209.800000000745","","49","","","3000","1","","","images/tutgreenplanet.jpg","images/tutalien1","images/tutalien2","null","images/tutalien2","","NA","practice","null","","","",""
"d3-animate-choice","12","30448","0.0-12.0","7","5617","8","Female","false","false","true","false","""event"",""trial"",""time""
""fullscreenenter"",""5"",""10427""
","
","
","""event"",""trial"",""time""
""fullscreenenter"",""5"",""10427""
","
","1417.699999999255","","49","","","3000","1","","","images/tutgreenplanet.jpg","images/tutalien1","images/tutalien2","null","images/tutalien2","","NA","practice","null","","","",""
"d3-animate-choice","13","33436","0.0-13.0","7","5617","8","Female","false","false","true","false","""event"",""trial"",""time""
""fullscreenenter"",""5"",""10427""
","
","
","""event"",""trial"",""time""
""fullscreenenter"",""5"",""10427""
","
","984.1999999992549","","48","","","3000","1","","","images/tutgreenplanet.jpg","images/tutalien1","images/tutalien2","null","images/tutalien1","","NA","practice","null","","","",""
"d3-animate-choice","14","36874","0.0-14.0","7","5617","8","Female","false","false","true","false","""event"",""trial"",""time""
""fullscreenenter"",""5"",""10427""
","
","
","""event"",""trial"",""time""
""fullscreenenter"",""5"",""10427""
","
","1431.800000000745","","48","","","3000","1","","","images/tutgreenplanet.jpg","images/tutalien1","images/tutalien2","null","images/tutalien1","","NA","practice","null","","","",""
"d3-instructions","15","39871","0.0-15.0","7","5617","8","Female","false","false","true","false","""event"",""trial"",""time""
""fullscreenenter"",""5"",""10427""
","
","
","""event"",""trial"",""time""
""fullscreenenter"",""5"",""10427""
","
","","","","","","","","","","","","","","","","","","","","","",""
"d3-instructions","16","41080","0.0-16.0","7","5617","8","Female","false","false","true","false","""event"",""trial"",""time""
""fullscreenenter"",""5"",""10427""
","
","
","""event"",""trial"",""time""
""fullscreenenter"",""5"",""10427""
","
","","","","","","","","","","","","","","","","","","","","","",""
"d3-instructions","17","42793","0.0-17.0","7","5617","8","Female","false","false","true","false","""event"",""trial"",""time""
""fullscreenenter"",""5"",""10427""
","
","
","""event"",""trial"",""time""
""fullscreenenter"",""5"",""10427""
","
","","","","","","","","","","","","","","","","","","","","","",""
"d3-instructions","18","43797","0.0-18.0","7","5617","8","Female","false","false","true","false","""event"",""trial"",""time""
""fullscreenenter"",""5"",""10427""
","
","
","""event"",""trial"",""time""
""fullscreenenter"",""5"",""10427""
","
","","","","","","","","","","","","","","","","","","","","","",""
"d3-instructions","19","45451","0.0-19.0","7","5617","8","Female","false","false","true","false","""event"",""trial"",""time""
""fullscreenenter"",""5"",""10427""
","
","
","""event"",""trial"",""time""
""fullscreenenter"",""5"",""10427""
","
","","","","","","","","","","","","","","","","","","","","","",""
"d3-animate-choice","20","48084","0.0-20.0","7","5617","8","Female","false","false","true","false","""event"",""trial"",""time""
""fullscreenenter"",""5"",""10427""
","
","
","""event"",""trial"",""time""
""fullscreenenter"",""5"",""10427""
","
","625.9000000022352","","49","","","3000","1","","","images/tutyellowplanet.jpg","null","images/tutalien3","null","images/tutalien3","images/t.png","NA","practice","null","","","",""
"d3-animate-choice","21","50365","0.0-21.0","7","5617","8","Female","false","false","true","false","""event"",""trial"",""time""
""fullscreenenter"",""5"",""10427""
","
","
","""event"",""trial"",""time""
""fullscreenenter"",""5"",""10427""
","
","278.9000000022352","","49","","","3000","1","2238.60000000149","49","images/tutyellowplanet.jpg","null","images/tutalien3","null","images/tutalien3","images/t.png","NA","practice","null","","","",""
"d3-animate-choice","22","53646","0.0-22.0","7","5617","8","Female","false","false","true","false","""event"",""trial"",""time""
""fullscreenenter"",""5"",""10427""
","
","
","""event"",""trial"",""time""
""fullscreenenter"",""5"",""10427""
","
","1278.4000000022352","","49","","","3000","1","","","images/tutyellowplanet.jpg","null","images/tutalien3","null","images/tutalien3","images/t.png","NA","practice","null","","","",""
"d3-animate-choice","23","56378","0.0-23.0","7","5617","8","Female","false","false","true","false","""event"",""trial"",""time""
""fullscreenenter"",""5"",""10427""
","
","
","""event"",""trial"",""time""
""fullscreenenter"",""5"",""10427""
","
","730.5999999977648","","49","","","3000","1","","","images/tutyellowplanet.jpg","null","images/tutalien3","null","images/tutalien3","images/t.png","NA","practice","null","","","",""
"d3-animate-choice","24","58829","0.0-24.0","7","5617","8","Female","false","false","true","false","""event"",""trial"",""time""
""fullscreenenter"",""5"",""10427""
","
","
","""event"",""trial"",""time""
""fullscreenenter"",""5"",""10427""
","
","445.8999999985099","","49","","","3000","1","2096.699999999255","49","images/tutyellowplanet.jpg","null","images/tutalien3","null","images/tutalien3","images/t.png","NA","practice","null","","","",""
"d3-animate-choice","25","61238","0.0-25.0","7","5617","8","Female","false","false","true","false","""event"",""trial"",""time""
""fullscreenenter"",""5"",""10427""
","
","
","""event"",""trial"",""time""
""fullscreenenter"",""5"",""10427""
","
","402.69999999925494","","49","","","3000","1","","","images/tutyellowplanet.jpg","null","images/tutalien3","null","images/tutalien3","images/nothing.png","NA","practice","null","","","",""
"d3-animate-choice","26","63717","0.0-26.0","7","5617","8","Female","false","false","true","false","""event"",""trial"",""time""
""fullscreenenter"",""5"",""10427""
","
","
","""event"",""trial"",""time""
""fullscreenenter"",""5"",""10427""
","
","477.9000000022352","","49","","","3000","1","1972.6000000014901","49","images/tutyellowplanet.jpg","null","images/tutalien3","null","images/tutalien3","images/t.png","NA","practice","null","","","",""
"d3-animate-choice","27","65993","0.0-27.0","7","5617","8","Female","false","false","true","false","""event"",""trial"",""time""
""fullscreenenter"",""5"",""10427""
","
","
","""event"",""trial"",""time""
""fullscreenenter"",""5"",""10427""
","
","273.19999999925494","","49","","","3000","1","","","images/tutyellowplanet.jpg","null","images/tutalien3","null","images/tutalien3","images/t.png","NA","practice","null","","","",""
"d3-animate-choice","28","68402","0.0-28.0","7","5617","8","Female","false","false","true","false","""event"",""trial"",""time""
""fullscreenenter"",""5"",""10427""
","
","
","""event"",""trial"",""time""
""fullscreenenter"",""5"",""10427""
","
","402.80000000074506","","49","","","3000","1","","","images/tutyellowplanet.jpg","null","images/tutalien3","null","images/tutalien3","images/nothing.png","NA","practice","null","","","",""
"d3-animate-choice","29","70701","0.0-29.0","7","5617","8","Female","false","false","true","false","""event"",""trial"",""time""
""fullscreenenter"",""5"",""10427""
","
","
","""event"",""trial"",""time""
""fullscreenenter"",""5"",""10427""
","
","296.1000000014901","","49","","","3000","1","","","images/tutyellowplanet.jpg","null","images/tutalien3","null","images/tutalien3","images/t.png","NA","practice","null","","","",""
"d3-instructions","30","73118","0.0-30.0","7","5617","8","Female","false","false","true","false","""event"",""trial"",""time""
""fullscreenenter"",""5"",""10427""
","
","
","""event"",""trial"",""time""
""fullscreenenter"",""5"",""10427""
","
","","","","","","","","","","","","","","","","","","","","","",""
"d3-instructions","31","74087","0.0-31.0","7","5617","8","Female","false","false","true","false","""event"",""trial"",""time""
""fullscreenenter"",""5"",""10427""
","
","
","""event"",""trial"",""time""
""fullscreenenter"",""5"",""10427""
","
","","","","","","","","","","","","","","","","","","","","","",""
"d3-instructions","32","75034","0.0-32.0","7","5617","8","Female","false","false","true","false","""event"",""trial"",""time""
""fullscreenenter"",""5"",""10427""
","
","
","""event"",""trial"",""time""
""fullscreenenter"",""5"",""10427""
","
","","","","","","","","","","","","","","","","","","","","","",""
"d3-instructions","33","75941","0.0-33.0","7","5617","8","Female","false","false","true","false","""event"",""trial"",""time""
""fullscreenenter"",""5"",""10427""
","
","
","""event"",""trial"",""time""
""fullscreenenter"",""5"",""10427""
","
","","","","","","","","","","","","","","","","","","","","","",""
"d3-animate-choice","34","78422","0.0-34.0","7","5617","8","Female","false","false","true","false","""event"",""trial"",""time""
""fullscreenenter"",""5"",""10427""
","
","
","""event"",""trial"",""time""
""fullscreenenter"",""5"",""10427""
","
","477.80000000074506","","49","","","3000","1","","","images/tutgreenplanet.jpg","images/tutalien1","images/tutalien2","null","images/tutalien2","images/t.png","NA","practice","null","","","",""
"d3-animate-choice","35","80999","0.0-35.0","7","5617","8","Female","false","false","true","false","""event"",""trial"",""time""
""fullscreenenter"",""5"",""10427""
","
","
","""event"",""trial"",""time""
""fullscreenenter"",""5"",""10427""
","
","572.3000000007451","","49","","","3000","1","","","images/tutgreenplanet.jpg","images/tutalien1","images/tutalien2","null","images/tutalien2","images/t.png","NA","practice","null","","","",""
"d3-animate-choice","36","85132","0.0-36.0","7","5617","8","Female","false","false","true","false","""event"",""trial"",""time""
""fullscreenenter"",""5"",""10427""
","
","
","""event"",""trial"",""time""
""fullscreenenter"",""5"",""10427""
","
","2126.099999997765","","49","","","3000","1","","","images/tutgreenplanet.jpg","images/tutalien1","images/tutalien2","null","images/tutalien2","images/t.png","NA","practice","null","","","",""
"d3-animate-choice","37","87455","0.0-37.0","7","5617","8","Female","false","false","true","false","""event"",""trial"",""time""
""fullscreenenter"",""5"",""10427""
","
","
","""event"",""trial"",""time""
""fullscreenenter"",""5"",""10427""
","
","320.80000000074506","","49","","","3000","1","","","images/tutgreenplanet.jpg","images/tutalien1","images/tutalien2","null","images/tutalien2","images/t.png","NA","practice","null","","","",""
"d3-animate-choice","38","89745","0.0-38.0","7","5617","8","Female","false","false","true","false","""event"",""trial"",""time""
""fullscreenenter"",""5"",""10427""
","
","
","""event"",""trial"",""time""
""fullscreenenter"",""5"",""10427""
","
","287.5","","49","","","3000","1","","","images/tutgreenplanet.jpg","images/tutalien1","images/tutalien2","null","images/tutalien2","images/nothing.png","NA","practice","null","","","",""
"d3-animate-choice","39","92052","0.0-39.0","7","5617","8","Female","false","false","true","false","""event"",""trial"",""time""
""fullscreenenter"",""5"",""10427""
","
","
","""event"",""trial"",""time""
""fullscreenenter"",""5"",""10427""
","
","302.3999999985099","","49","","","3000","1","","","images/tutgreenplanet.jpg","images/tutalien1","images/tutalien2","null","images/tutalien2","images/t.png","NA","practice","null","","","",""
"d3-animate-choice","40","94298","0.0-40.0","7","5617","8","Female","false","false","true","false","""event"",""trial"",""time""
""fullscreenenter"",""5"",""10427""
","
","
","""event"",""trial"",""time""
""fullscreenenter"",""5"",""10427""
","
","243.90000000223517","","49","","","3000","1","","","images/tutgreenplanet.jpg","images/tutalien1","images/tutalien2","null","images/tutalien2","images/t.png","NA","practice","null","","","",""
"d3-animate-choice","41","96598","0.0-41.0","7","5617","8","Female","false","false","true","false","""event"",""trial"",""time""
""fullscreenenter"",""5"",""10427""
","
","
","""event"",""trial"",""time""
""fullscreenenter"",""5"",""10427""
","
","294.5","","49","","","3000","1","","","images/tutgreenplanet.jpg","images/tutalien1","images/tutalien2","null","images/tutalien2","images/t.png","NA","practice","null","","","",""
"d3-animate-choice","42","98855","0.0-42.0","7","5617","8","Female","false","false","true","false","""event"",""trial"",""time""
""fullscreenenter"",""5"",""10427""
","
","
","""event"",""trial"",""time""
""fullscreenenter"",""5"",""10427""
","
","255","","49","","","3000","1","","","images/tutgreenplanet.jpg","images/tutalien1","images/tutalien2","null","images/tutalien2","images/t.png","NA","practice","null","","","",""
"d3-animate-choice","43","101143","0.0-43.0","7","5617","8","Female","false","false","true","false","""event"",""trial"",""time""
""fullscreenenter"",""5"",""10427""
","
","
","""event"",""trial"",""time""
""fullscreenenter"",""5"",""10427""
","
","280.69999999925494","","49","","","3000","1","","","images/tutgreenplanet.jpg","images/tutalien1","images/tutalien2","null","images/tutalien2","images/t.png","NA","practice","null","","","",""
"d3-instructions","44","102882","0.0-44.0","7","5617","8","Female","false","false","true","false","""event"",""trial"",""time""
""fullscreenenter"",""5"",""10427""
","
","
","""event"",""trial"",""time""
""fullscreenenter"",""5"",""10427""
","
","","","","","","","","","","","","","","","","","","","","","",""
"d3-instructions","45","103791","0.0-45.0","7","5617","8","Female","false","false","true","false","""event"",""trial"",""time""
""fullscreenenter"",""5"",""10427""
","
","
","""event"",""trial"",""time""
""fullscreenenter"",""5"",""10427""
","
","","","","","","","","","","","","","","","","","","","","","",""
"d3-instructions","46","104821","0.0-46.0","7","5617","8","Female","false","false","true","false","""event"",""trial"",""time""
""fullscreenenter"",""5"",""10427""
","
","
","""event"",""trial"",""time""
""fullscreenenter"",""5"",""10427""
","
","","","","","","","","","","","","","","","","","","","","","",""
"d3-instructions","47","105729","0.0-47.0","7","5617","8","Female","false","false","true","false","""event"",""trial"",""time""
""fullscreenenter"",""5"",""10427""
","
","
","""event"",""trial"",""time""
""fullscreenenter"",""5"",""10427""
","
","","","","","","","","","","","","","","","","","","","","","",""
"d3-instructions","48","106597","0.0-48.0","7","5617","8","Female","false","false","true","false","""event"",""trial"",""time""
""fullscreenenter"",""5"",""10427""
","
","
","""event"",""trial"",""time""
""fullscreenenter"",""5"",""10427""
","
","","","","","","","","","","","","","","","","","","","","","",""
"d3-instructions","49","107772","0.0-49.0","7","5617","8","Female","false","false","true","false","""event"",""trial"",""time""
""fullscreenenter"",""5"",""10427""
","
","
","""event"",""trial"",""time""
""fullscreenenter"",""5"",""10427""
","
","","","","","","","","","","","","","","","","","","","","","",""
"d3-instructions","50","108615","0.0-50.0","7","5617","8","Female","false","false","true","false","""event"",""trial"",""time""
""fullscreenenter"",""5"",""10427""
","
","
","""event"",""trial"",""time""
""fullscreenenter"",""5"",""10427""
","
","","","","","","","","","","","","","","","","","","","","","",""
"d3-instructions","51","109770","0.0-51.0","7","5617","8","Female","false","false","true","false","""event"",""trial"",""time""
""fullscreenenter"",""5"",""10427""
","
","
","""event"",""trial"",""time""
""fullscreenenter"",""5"",""10427""
","
","","","","","","","","","","","","","","","","","","","","","",""
"d3-instructions","52","110665","0.0-52.0","7","5617","8","Female","false","false","true","false","""event"",""trial"",""time""
""fullscreenenter"",""5"",""10427""
","
","
","""event"",""trial"",""time""
""fullscreenenter"",""5"",""10427""
","
","","","","","","","","","","","","","","","","","","","","","",""
"d3-instructions","53","111519","0.0-53.0","7","5617","8","Female","false","false","true","false","""event"",""trial"",""time""
""fullscreenenter"",""5"",""10427""
","
","
","""event"",""trial"",""time""
""fullscreenenter"",""5"",""10427""
","
","","","","","","","","","","","","","","","","","","","","","",""
"d3-instructions","54","112420","0.0-54.0","7","5617","8","Female","false","false","true","false","""event"",""trial"",""time""
""fullscreenenter"",""5"",""10427""
","
","
","""event"",""trial"",""time""
""fullscreenenter"",""5"",""10427""
","
","","","","","","","","","","","","","","","","","","","","","",""
"d3-instructions","55","113188","0.0-55.0","7","5617","8","Female","false","false","true","false","""event"",""trial"",""time""
""fullscreenenter"",""5"",""10427""
","
","
","""event"",""trial"",""time""
""fullscreenenter"",""5"",""10427""
","
","","","","","","","","","","","","","","","","","","","","","",""
"d3-instructions","56","114351","0.0-56.0","7","5617","8","Female","false","false","true","false","""event"",""trial"",""time""
""fullscreenenter"",""5"",""10427""
","
","
","""event"",""trial"",""time""
""fullscreenenter"",""5"",""10427""
","
","","","","","","","","","","","","","","","","","","","","","",""
"d3-instructions","57","115248","0.0-57.0","7","5617","8","Female","false","false","true","false","""event"",""trial"",""time""
""fullscreenenter"",""5"",""10427""
","
","
","""event"",""trial"",""time""
""fullscreenenter"",""5"",""10427""
","
","","","","","","","","","","","","","","","","","","","","","",""
"d3-instructions","58","116128","0.0-58.0","7","5617","8","Female","false","false","true","false","""event"",""trial"",""time""
""fullscreenenter"",""5"",""10427""
","
","
","""event"",""trial"",""time""
""fullscreenenter"",""5"",""10427""
","
","","","","","","","","","","","","","","","","","","","","","",""
"d3-instructions","59","116932","0.0-59.0","7","5617","8","Female","false","false","true","false","""event"",""trial"",""time""
""fullscreenenter"",""5"",""10427""
","
","
","""event"",""trial"",""time""
""fullscreenenter"",""5"",""10427""
","
","","","","","","","","","","","","","","","","","","","","","",""
"d3-instructions","60","117798","0.0-60.0","7","5617","8","Female","false","false","true","false","""event"",""trial"",""time""
""fullscreenenter"",""5"",""10427""
","
","
","""event"",""trial"",""time""
""fullscreenenter"",""5"",""10427""
","
","","","","","","","","","","","","","","","","","","","","","",""
"d3-animate-choice","61","121119","0.0-61.0-0.0","7","5617","8","Female","false","false","true","false","""event"",""trial"",""time""
""fullscreenenter"",""5"",""10427""
","
","
","""event"",""trial"",""time""
""fullscreenenter"",""5"",""10427""
","
","1317","","49","","","3000","1","","","images/earth.jpg","images/tutrocket2","images/tutrocket1","null","images/tutrocket1","","1","practice","null","1","","",""
"d3-animate-choice","62","123389","0.0-61.0-1.0","7","5617","8","Female","false","false","true","false","""event"",""trial"",""time""
""fullscreenenter"",""5"",""10427""
","
","
","""event"",""trial"",""time""
""fullscreenenter"",""5"",""10427""
","
","266.69999999925494","","49","","","3000","1","","","images/tutgreenplanet.jpg","images/tutalien2","images/tutalien1","images/tutrocket1","images/tutalien1","images/nothing.png","2","practice","false","1","rare","0","2022-12-31 21:39:17.070"
"two-step-fixation","63","124395","0.0-61.0-2.0","7","5617","8","Female","false","false","true","false","""event"",""trial"",""time""
""fullscreenenter"",""5"",""10427""
","
","
","""event"",""trial"",""time""
""fullscreenenter"",""5"",""10427""
","
","","images/earth.jpg","","","","","","","","","","","","","","fixation","","","","","",""
"d3-animate-choice","64","126918","0.0-61.0-0.1","7","5617","8","Female","false","false","true","false","""event"",""trial"",""time""
""fullscreenenter"",""5"",""10427""
","
","
","""event"",""trial"",""time""
""fullscreenenter"",""5"",""10427""
","
","519.0999999977648","","49","","","3000","1","","","images/earth.jpg","images/tutrocket2","images/tutrocket1","null","images/tutrocket1","","1","practice","null","1","","",""
"d3-animate-choice","65","129316","0.0-61.0-1.1","7","5617","8","Female","false","false","true","false","""event"",""trial"",""time""
""fullscreenenter"",""5"",""10427""
","
","
","""event"",""trial"",""time""
""fullscreenenter"",""5"",""10427""
","
","394","","49","","","3000","1","","","images/tutgreenplanet.jpg","images/tutalien2","images/tutalien1","images/tutrocket1","images/tutalien1","images/t.png","2","practice","false","1","rare","1","2022-12-31 21:39:22.997"
"two-step-fixation","66","130320","0.0-61.0-2.1","7","5617","8","Female","false","false","true","false","""event"",""trial"",""time""
""fullscreenenter"",""5"",""10427""
","
","
","""event"",""trial"",""time""
""fullscreenenter"",""5"",""10427""
","
","","images/earth.jpg","","","","","","","","","","","","","","fixation","","","","","",""
"d3-animate-choice","67","132566","0.0-61.0-0.2","7","5617","8","Female","false","false","true","false","""event"",""trial"",""time""
""fullscreenenter"",""5"",""10427""
","
","
","""event"",""trial"",""time""
""fullscreenenter"",""5"",""10427""
","
","239.40000000223517","","48","","","3000","1","","","images/earth.jpg","images/tutrocket2","images/tutrocket1","null","images/tutrocket2","","1","practice","null","2","","",""
"d3-animate-choice","68","134743","0.0-61.0-1.2","7","5617","8","Female","false","false","true","false","""event"",""trial"",""time""
""fullscreenenter"",""5"",""10427""
","
","
","""event"",""trial"",""time""
""fullscreenenter"",""5"",""10427""
","
","173.5","","48","","","3000","1","","","images/tutgreenplanet.jpg","images/tutalien2","images/tutalien1","images/tutrocket2","images/tutalien2","images/nothing.png","2","practice","true","2","common","0","2022-12-31 21:39:28.424"
"two-step-fixation","69","135746","0.0-61.0-2.2","7","5617","8","Female","false","false","true","false","""event"",""trial"",""time""
""fullscreenenter"",""5"",""10427""
","
","
","""event"",""trial"",""time""
""fullscreenenter"",""5"",""10427""
","
","","images/earth.jpg","","","","","","","","","","","","","","fixation","","","","","",""
"d3-animate-choice","70","137872","0.0-61.0-0.3","7","5617","8","Female","false","false","true","false","""event"",""trial"",""time""
""fullscreenenter"",""5"",""10427""
","
","
","""event"",""trial"",""time""
""fullscreenenter"",""5"",""10427""
","
","123.59999999776483","","49","","","3000","1","1917.0999999977648","49","images/earth.jpg","images/tutrocket2","images/tutrocket1","null","images/tutrocket1","","1","practice","null","1","","",""
"d3-animate-choice","71","140202","0.0-61.0-1.3","7","5617","8","Female","false","false","true","false","""event"",""trial"",""time""
""fullscreenenter"",""5"",""10427""
","
","
","""event"",""trial"",""time""
""fullscreenenter"",""5"",""10427""
","
","327.0999999977648","","49","","","3000","1","","","images/tutgreenplanet.jpg","images/tutalien2","images/tutalien1","images/tutrocket1","images/tutalien1","images/nothing.png","2","practice","false","1","rare","0","2022-12-31 21:39:33.883"
"two-step-fixation","72","141205","0.0-61.0-2.3","7","5617","8","Female","false","false","true","false","""event"",""trial"",""time""
""fullscreenenter"",""5"",""10427""
","
","
","""event"",""trial"",""time""
""fullscreenenter"",""5"",""10427""
","
","","images/earth.jpg","","","","","","","","","","","","","","fixation","","","","","",""
"d3-animate-choice","73","143393","0.0-61.0-0.4","7","5617","8","Female","false","false","true","false","""event"",""trial"",""time""
""fullscreenenter"",""5"",""10427""
","
","
","""event"",""trial"",""time""
""fullscreenenter"",""5"",""10427""
","
","184","","49","","","3000","1","","","images/earth.jpg","images/tutrocket2","images/tutrocket1","null","images/tutrocket1","","1","practice","null","1","","",""
"d3-animate-choice","74","147396","0.0-61.0-1.4","7","5617","8","Female","false","false","true","false","""event"",""trial"",""time""
""fullscreenenter"",""5"",""10427""
","
","
","""event"",""trial"",""time""
""fullscreenenter"",""5"",""10427""
","
","3220","","49","","","3000","0","","","images/tutyellowplanet.jpg","images/tutalien4","images/tutalien3","images/tutrocket1","","","2","practice","true","1","common","0","2022-12-31 21:39:41.077"
"two-step-fixation","75","148398","0.0-61.0-2.4","7","5617","8","Female","false","false","true","false","""event"",""trial"",""time""
""fullscreenenter"",""5"",""10427""
","
","
","""event"",""trial"",""time""
""fullscreenenter"",""5"",""10427""
","
","","images/earth.jpg","","","","","","","","","","","","","","fixation","","","","","",""
"d3-animate-choice","76","151144","0.0-61.0-0.5","7","5617","8","Female","false","false","true","false","""event"",""trial"",""time""
""fullscreenenter"",""5"",""10427""
","
","
","""event"",""trial"",""time""
""fullscreenenter"",""5"",""10427""
","
","738.3999999985099","","49","","","3000","1","","","images/earth.jpg","images/tutrocket2","images/tutrocket1","null","images/tutrocket1","","1","practice","null","1","","",""
"d3-animate-choice","77","153286","0.0-61.0-1.5","7","5617","8","Female","false","false","true","false","""event"",""trial"",""time""
""fullscreenenter"",""5"",""10427""
","
","
","""event"",""trial"",""time""
""fullscreenenter"",""5"",""10427""
","
","137.60000000149012","","48","","","3000","1","2139.400000002235","49","images/tutyellowplanet.jpg","images/tutalien4","images/tutalien3","images/tutrocket1","images/tutalien4","images/nothing.png","2","practice","true","2","common","0","2022-12-31 21:39:46.967"
"two-step-fixation","78","154291","0.0-61.0-2.5","7","5617","8","Female","false","false","true","false","""event"",""trial"",""time""
""fullscreenenter"",""5"",""10427""
","
","
","""event"",""trial"",""time""
""fullscreenenter"",""5"",""10427""
","
","","images/earth.jpg","","","","","","","","","","","","","","fixation","","","","","",""
"d3-animate-choice","79","156688","0.0-61.0-0.6","7","5617","8","Female","false","false","true","false","""event"",""trial"",""time""
""fullscreenenter"",""5"",""10427""
","
","
","""event"",""trial"",""time""
""fullscreenenter"",""5"",""10427""
","
","392.80000000074506","","49","","","3000","1","1573.800000000745","48","images/earth.jpg","images/tutrocket2","images/tutrocket1","null","images/tutrocket1","","1","practice","null","1","","",""
"d3-animate-choice","80","158980","0.0-61.0-1.6","7","5617","8","Female","false","false","true","false","""event"",""trial"",""time""
""fullscreenenter"",""5"",""10427""
","
","
","""event"",""trial"",""time""
""fullscreenenter"",""5"",""10427""
","
","288.69999999925494","","48","","","3000","1","","","images/tutyellowplanet.jpg","images/tutalien4","images/tutalien3","images/tutrocket1","images/tutalien4","images/t.png","2","practice","true","2","common","1","2022-12-31 21:39:52.661"
"two-step-fixation","81","159983","0.0-61.0-2.6","7","5617","8","Female","false","false","true","false","""event"",""trial"",""time""
""fullscreenenter"",""5"",""10427""
","
","
","""event"",""trial"",""time""
""fullscreenenter"",""5"",""10427""
","
","","images/earth.jpg","","","","","","","","","","","","","","fixation","","","","","",""
"d3-animate-choice","82","162337","0.0-61.0-0.7","7","5617","8","Female","false","false","true","false","""event"",""trial"",""time""
""fullscreenenter"",""5"",""10427""
","
","
","""event"",""trial"",""time""
""fullscreenenter"",""5"",""10427""
","
","350.80000000074506","","49","","","3000","1","","","images/earth.jpg","images/tutrocket2","images/tutrocket1","null","images/tutrocket1","","1","practice","null","1","","",""
"d3-animate-choice","83","164808","0.0-61.0-1.7","7","5617","8","Female","false","false","true","false","""event"",""trial"",""time""
""fullscreenenter"",""5"",""10427""
","
","
","""event"",""trial"",""time""
""fullscreenenter"",""5"",""10427""
","
","468","","48","","","3000","1","2243.900000002235","49","images/tutyellowplanet.jpg","images/tutalien4","images/tutalien3","images/tutrocket1","images/tutalien4","images/t.png","2","practice","true","2","common","1","2022-12-31 21:39:58.489"
"two-step-fixation","84","165811","0.0-61.0-2.7","7","5617","8","Female","false","false","true","false","""event"",""trial"",""time""
""fullscreenenter"",""5"",""10427""
","
","
","""event"",""trial"",""time""
""fullscreenenter"",""5"",""10427""
","
","","images/earth.jpg","","","","","","","","","","","","","","fixation","","","","","",""
"d3-animate-choice","85","168176","0.0-61.0-0.8","7","5617","8","Female","false","false","true","false","""event"",""trial"",""time""
""fullscreenenter"",""5"",""10427""
","
","
","""event"",""trial"",""time""
""fullscreenenter"",""5"",""10427""
","
","361.5","","49","","","3000","1","2140.39999999851","48","images/earth.jpg","images/tutrocket2","images/tutrocket1","null","images/tutrocket1","","1","practice","null","1","","",""
"d3-animate-choice","86","170607","0.0-61.0-1.8","7","5617","8","Female","false","false","true","false","""event"",""trial"",""time""
""fullscreenenter"",""5"",""10427""
","
","
","""event"",""trial"",""time""
""fullscreenenter"",""5"",""10427""
","
","424.69999999925494","","48","","","3000","1","2107.199999999255","49","images/tutgreenplanet.jpg","images/tutalien2","images/tutalien1","images/tutrocket1","images/tutalien2","images/t.png","2","practice","false","2","rare","1","2022-12-31 21:40:04.288"
"two-step-fixation","87","171613","0.0-61.0-2.8","7","5617","8","Female","false","false","true","false","""event"",""trial"",""time""
""fullscreenenter"",""5"",""10427""
","
","
","""event"",""trial"",""time""
""fullscreenenter"",""5"",""10427""
","
","","images/earth.jpg","","","","","","","","","","","","","","fixation","","","","","",""
"d3-animate-choice","88","174039","0.0-61.0-0.9","7","5617","8","Female","false","false","true","false","""event"",""trial"",""time""
""fullscreenenter"",""5"",""10427""
","
","
","""event"",""trial"",""time""
""fullscreenenter"",""5"",""10427""
","
","419.3999999985099","","49","","","3000","1","2230.60000000149","48","images/earth.jpg","images/tutrocket2","images/tutrocket1","null","images/tutrocket1","","1","practice","null","1","","",""
"d3-animate-choice","89","176385","0.0-61.0-1.9","7","5617","8","Female","false","false","true","false","""event"",""trial"",""time""
""fullscreenenter"",""5"",""10427""
","
","
","""event"",""trial"",""time""
""fullscreenenter"",""5"",""10427""
","
","339.5","","48","","","3000","1","","","images/tutyellowplanet.jpg","images/tutalien4","images/tutalien3","images/tutrocket1","images/tutalien4","images/nothing.png","2","practice","true","2","common","0","2022-12-31 21:40:10.066"
"two-step-fixation","90","177389","0.0-61.0-2.9","7","5617","8","Female","false","false","true","false","""event"",""trial"",""time""
""fullscreenenter"",""5"",""10427""
","
","
","""event"",""trial"",""time""
""fullscreenenter"",""5"",""10427""
","
","","images/earth.jpg","","","","","","","","","","","","","","fixation","","","","","",""
"d3-animate-choice","91","180739","0.0-61.0-0.10","7","5617","8","Female","false","false","true","false","""event"",""trial"",""time""
""fullscreenenter"",""5"",""10427""
","
","
","""event"",""trial"",""time""
""fullscreenenter"",""5"",""10427""
","
","1344.2000000029802","","49","","","3000","1","2945.60000000149","48","images/earth.jpg","images/tutrocket2","images/tutrocket1","null","images/tutrocket1","","1","practice","null","1","","",""
"d3-animate-choice","92","183067","0.0-61.0-1.10","7","5617","8","Female","false","false","true","false","""event"",""trial"",""time""
""fullscreenenter"",""5"",""10427""
","
","
","""event"",""trial"",""time""
""fullscreenenter"",""5"",""10427""
","
","325.5","","48","","","3000","1","","","images/tutyellowplanet.jpg","images/tutalien4","images/tutalien3","images/tutrocket1","images/tutalien4","images/t.png","2","practice","true","2","common","1","2022-12-31 21:40:16.748"
"two-step-fixation","93","184071","0.0-61.0-2.10","7","5617","8","Female","false","false","true","false","""event"",""trial"",""time""
""fullscreenenter"",""5"",""10427""
","
","
","""event"",""trial"",""time""
""fullscreenenter"",""5"",""10427""
","
","","images/earth.jpg","","","","","","","","","","","","","","fixation","","","","","",""
"d3-animate-choice","94","186608","0.0-61.0-0.11","7","5617","8","Female","false","false","true","false","""event"",""trial"",""time""
""fullscreenenter"",""5"",""10427""
","
","
","""event"",""trial"",""time""
""fullscreenenter"",""5"",""10427""
","
","530.1999999992549","","49","","","3000","1","2446.300000000745","48","images/earth.jpg","images/tutrocket2","images/tutrocket1","null","images/tutrocket1","","1","practice","null","1","","",""
"d3-animate-choice","95","189063","0.0-61.0-1.11","7","5617","8","Female","false","false","true","false","""event"",""trial"",""time""
""fullscreenenter"",""5"",""10427""
","
","
","""event"",""trial"",""time""
""fullscreenenter"",""5"",""10427""
","
","451.69999999925494","","48","","","3000","1","","","images/tutgreenplanet.jpg","images/tutalien2","images/tutalien1","images/tutrocket1","images/tutalien2","images/nothing.png","2","practice","false","2","rare","0","2022-12-31 21:40:22.744"
"two-step-fixation","96","190068","0.0-61.0-2.11","7","5617","8","Female","false","false","true","false","""event"",""trial"",""time""
""fullscreenenter"",""5"",""10427""
","
","
","""event"",""trial"",""time""
""fullscreenenter"",""5"",""10427""
","
","","images/earth.jpg","","","","","","","","","","","","","","fixation","","","","","",""
"d3-animate-choice","97","192690","0.0-61.0-0.12","7","5617","8","Female","false","false","true","false","""event"",""trial"",""time""
""fullscreenenter"",""5"",""10427""
","
","
","""event"",""trial"",""time""
""fullscreenenter"",""5"",""10427""
","
","616.7999999970198","","49","","","3000","1","","","images/earth.jpg","images/tutrocket2","images/tutrocket1","null","images/tutrocket1","","1","practice","null","1","","",""
"d3-animate-choice","98","195954","0.0-61.0-1.12","7","5617","8","Female","false","false","true","false","""event"",""trial"",""time""
""fullscreenenter"",""5"",""10427""
","
","
","""event"",""trial"",""time""
""fullscreenenter"",""5"",""10427""
","
","1259.1000000014901","","49","","","3000","1","3175.2000000029802","48","images/tutgreenplanet.jpg","images/tutalien2","images/tutalien1","images/tutrocket1","images/tutalien1","images/nothing.png","2","practice","false","1","rare","0","2022-12-31 21:40:29.635"
"two-step-fixation","99","196958","0.0-61.0-2.12","7","5617","8","Female","false","false","true","false","""event"",""trial"",""time""
""fullscreenenter"",""5"",""10427""
","
","
","""event"",""trial"",""time""
""fullscreenenter"",""5"",""10427""
","
","","images/earth.jpg","","","","","","","","","","","","","","fixation","","","","","",""
"d3-animate-choice","100","199053","0.0-61.0-0.13","7","5617","8","Female","false","false","true","false","""event"",""trial"",""time""
""fullscreenenter"",""5"",""10427""
","
","
","""event"",""trial"",""time""
""fullscreenenter"",""5"",""10427""
","
","90.39999999850988","","49","","","3000","1","","","images/earth.jpg","images/tutrocket2","images/tutrocket1","null","images/tutrocket1","","1","practice","null","1","","",""
"d3-animate-choice","101","201063","0.0-61.0-1.13","7","5617","8","Female","false","false","true","false","""event"",""trial"",""time""
""fullscreenenter"",""5"",""10427""
","
","
","""event"",""trial"",""time""
""fullscreenenter"",""5"",""10427""
","
","5.300000000745058","","48","","","3000","1","1893","49","images/tutgreenplanet.jpg","images/tutalien2","images/tutalien1","images/tutrocket1","images/tutalien2","images/nothing.png","2","practice","false","2","rare","0","2022-12-31 21:40:34.744"
"two-step-fixation","102","202067","0.0-61.0-2.13","7","5617","8","Female","false","false","true","false","""event"",""trial"",""time""
""fullscreenenter"",""5"",""10427""
","
","
","""event"",""trial"",""time""
""fullscreenenter"",""5"",""10427""
","
","","images/earth.jpg","","","","","","","","","","","","","","fixation","","","","","",""
"d3-animate-choice","103","206075","0.0-61.0-0.14","7","5617","8","Female","false","false","true","false","""event"",""trial"",""time""
""fullscreenenter"",""5"",""10427""
","
","
","""event"",""trial"",""time""
""fullscreenenter"",""5"",""10427""
","
","3691.599999997765","","49","","","3000","0","","","images/earth.jpg","images/tutrocket2","images/tutrocket1","null","","","1","practice","null","1","","",""
"d3-animate-choice","104","207082","0.0-61.0-1.14","7","5617","8","Female","false","false","true","false","""event"",""trial"",""time""
""fullscreenenter"",""5"",""10427""
","
","
","""event"",""trial"",""time""
""fullscreenenter"",""5"",""10427""
","
","657.5999999977648","","49","","","0","0","","","images/earth.jpg","images/tutrocket2","images/tutrocket1","null","","","2","practice","null","1","","0","2022-12-31 21:40:40.764"
"two-step-fixation","105","208085","0.0-61.0-2.14","7","5617","8","Female","false","false","true","false","""event"",""trial"",""time""
""fullscreenenter"",""5"",""10427""
","
","
","""event"",""trial"",""time""
""fullscreenenter"",""5"",""10427""
","
","","images/earth.jpg","","","","","","","","","","","","","","fixation","","","","","",""
"d3-animate-choice","106","210627","0.0-61.0-0.15","7","5617","8","Female","false","false","true","false","""event"",""trial"",""time""
""fullscreenenter"",""5"",""10427""
","
","
","""event"",""trial"",""time""
""fullscreenenter"",""5"",""10427""
","
","537.5","","48","","","3000","1","2274.5","49","images/earth.jpg","images/tutrocket2","images/tutrocket1","null","images/tutrocket2","","1","practice","null","2","","",""
"d3-animate-choice","107","212969","0.0-61.0-1.15","7","5617","8","Female","false","false","true","false","""event"",""trial"",""time""
""fullscreenenter"",""5"",""10427""
","
","
","""event"",""trial"",""time""
""fullscreenenter"",""5"",""10427""
","
","339.9000000022352","","49","","","3000","1","2212.400000002235","48","images/tutyellowplanet.jpg","images/tutalien4","images/tutalien3","images/tutrocket2","images/tutalien3","images/nothing.png","2","practice","false","1","rare","0","2022-12-31 21:40:46.650"
"two-step-fixation","108","213973","0.0-61.0-2.15","7","5617","8","Female","false","false","true","false","""event"",""trial"",""time""
""fullscreenenter"",""5"",""10427""
","
","
","""event"",""trial"",""time""
""fullscreenenter"",""5"",""10427""
","
","","images/earth.jpg","","","","","","","","","","","","","","fixation","","","","","",""
"d3-animate-choice","109","216394","0.0-61.0-0.16","7","5617","8","Female","false","false","true","false","""event"",""trial"",""time""
""fullscreenenter"",""5"",""10427""
","
","
","""event"",""trial"",""time""
""fullscreenenter"",""5"",""10427""
","
","417.69999999925494","","49","","","3000","1","2006.800000000745","48","images/earth.jpg","images/tutrocket2","images/tutrocket1","null","images/tutrocket1","","1","practice","null","1","","",""
"d3-animate-choice","110","218635","0.0-61.0-1.16","7","5617","8","Female","false","false","true","false","""event"",""trial"",""time""
""fullscreenenter"",""5"",""10427""
","
","
","""event"",""trial"",""time""
""fullscreenenter"",""5"",""10427""
","
","237.19999999925494","","48","","","3000","1","1621.0999999977648","49","images/tutgreenplanet.jpg","images/tutalien2","images/tutalien1","images/tutrocket1","images/tutalien2","images/t.png","2","practice","false","2","rare","1","2022-12-31 21:40:52.316"
"two-step-fixation","111","219639","0.0-61.0-2.16","7","5617","8","Female","false","false","true","false","""event"",""trial"",""time""
""fullscreenenter"",""5"",""10427""
","
","
","""event"",""trial"",""time""
""fullscreenenter"",""5"",""10427""
","
","","images/earth.jpg","","","","","","","","","","","","","","fixation","","","","","",""
"d3-animate-choice","112","222077","0.0-61.0-0.17","7","5617","8","Female","false","false","true","false","""event"",""trial"",""time""
""fullscreenenter"",""5"",""10427""
","
","
","""event"",""trial"",""time""
""fullscreenenter"",""5"",""10427""
","
","433","","48","","","3000","1","1823.3999999985099","49","images/earth.jpg","images/tutrocket2","images/tutrocket1","null","images/tutrocket2","","1","practice","null","2","","",""
"d3-animate-choice","113","224389","0.0-61.0-1.17","7","5617","8","Female","false","false","true","false","""event"",""trial"",""time""
""fullscreenenter"",""5"",""10427""
","
","
","""event"",""trial"",""time""
""fullscreenenter"",""5"",""10427""
","
","307.8999999985099","","49","","","3000","1","","","images/tutyellowplanet.jpg","images/tutalien4","images/tutalien3","images/tutrocket2","images/tutalien3","images/t.png","2","practice","false","1","rare","1","2022-12-31 21:40:58.070"
"two-step-fixation","114","225394","0.0-61.0-2.17","7","5617","8","Female","false","false","true","false","""event"",""trial"",""time""
""fullscreenenter"",""5"",""10427""
","
","
","""event"",""trial"",""time""
""fullscreenenter"",""5"",""10427""
","
","","images/earth.jpg","","","","","","","","","","","","","","fixation","","","","","",""
"d3-animate-choice","115","227812","0.0-61.0-0.18","7","5617","8","Female","false","false","true","false","""event"",""trial"",""time""
""fullscreenenter"",""5"",""10427""
","
","
","""event"",""trial"",""time""
""fullscreenenter"",""5"",""10427""
","
","414.8999999985099","","48","","","3000","1","1941.2999999970198","49","images/earth.jpg","images/tutrocket2","images/tutrocket1","null","images/tutrocket2","","1","practice","null","2","","",""
"d3-animate-choice","116","230071","0.0-61.0-1.18","7","5617","8","Female","false","false","true","false","""event"",""trial"",""time""
""fullscreenenter"",""5"",""10427""
","
","
","""event"",""trial"",""time""
""fullscreenenter"",""5"",""10427""
","
","255.10000000149012","","49","","","3000","1","","","images/tutyellowplanet.jpg","images/tutalien4","images/tutalien3","images/tutrocket2","images/tutalien3","images/t.png","2","practice","false","1","rare","1","2022-12-31 21:41:03.752"
"two-step-fixation","117","231075","0.0-61.0-2.18","7","5617","8","Female","false","false","true","false","""event"",""trial"",""time""
""fullscreenenter"",""5"",""10427""
","
","
","""event"",""trial"",""time""
""fullscreenenter"",""5"",""10427""
","
","","images/earth.jpg","","","","","","","","","","","","","","fixation","","","","","",""
"d3-animate-choice","118","233386","0.0-61.0-0.19","7","5617","8","Female","false","false","true","false","""event"",""trial"",""time""
""fullscreenenter"",""5"",""10427""
","
","
","""event"",""trial"",""time""
""fullscreenenter"",""5"",""10427""
","
","307.8999999985099","","48","","","3000","1","","","images/earth.jpg","images/tutrocket2","images/tutrocket1","null","images/tutrocket2","","1","practice","null","2","","",""
"d3-animate-choice","119","237395","0.0-61.0-1.19","7","5617","8","Female","false","false","true","false","""event"",""trial"",""time""
""fullscreenenter"",""5"",""10427""
","
","
","""event"",""trial"",""time""
""fullscreenenter"",""5"",""10427""
","
","null","","null","","","3000","0","","","images/tutgreenplanet.jpg","images/tutalien2","images/tutalien1","images/tutrocket2","","","2","practice","true","","common","0","2022-12-31 21:41:11.076"
"two-step-fixation","120","238401","0.0-61.0-2.19","7","5617","8","Female","false","false","true","false","""event"",""trial"",""time""
""fullscreenenter"",""5"",""10427""
","
","
","""event"",""trial"",""time""
""fullscreenenter"",""5"",""10427""
","
","","images/earth.jpg","","","","","","","","","","","","","","fixation","","","","","",""
"d3-instructions","121","249462","0.0-62.0","7","5617","8","Female","false","false","true","false","""event"",""trial"",""time""
""fullscreenenter"",""5"",""10427""
","
","
","""event"",""trial"",""time""
""fullscreenenter"",""5"",""10427""
","
","","","","","","","","","","","","","","","","","","","","","",""
"audio-keyboard-response","122","250554","0.0-63.0","7","5617","8","Female","false","false","true","false","""event"",""trial"",""time""
""fullscreenenter"",""5"",""10427""
","
","
","""event"",""trial"",""time""
""fullscreenenter"",""5"",""10427""
","
","1091","audio/instructions/treasure_feedback.wav","32","","","","","","","","","","","","","","","","","","",""
"d3-instructions","123","251587","0.0-64.0","7","5617","8","Female","false","false","true","false","""event"",""trial"",""time""
""fullscreenenter"",""5"",""10427""
","
","
","""event"",""trial"",""time""
""fullscreenenter"",""5"",""10427""
","
","","","","","","","","","","","","","","","","","","","","","",""
"d3-instructions","124","252627","0.0-65.0","7","5617","8","Female","false","false","true","false","""event"",""trial"",""time""
""fullscreenenter"",""5"",""10427""
","
","
","""event"",""trial"",""time""
""fullscreenenter"",""5"",""10427""
","
","","","","","","","","","","","","","","","","","","","","","",""
"d3-instructions","125","253609","0.0-66.0","7","5617","8","Female","false","false","true","false","""event"",""trial"",""time""
""fullscreenenter"",""5"",""10427""
","
","
","""event"",""trial"",""time""
""fullscreenenter"",""5"",""10427""
","
","","","","","","","","","","","","","","","","","","","","","",""
"d3-instructions","126","254604","0.0-67.0","7","5617","8","Female","false","false","true","false","""event"",""trial"",""time""
""fullscreenenter"",""5"",""10427""
","
","
","""event"",""trial"",""time""
""fullscreenenter"",""5"",""10427""
","
","","","","","","","","","","","","","","","","","","","","","",""
"d3-instructions","127","255467","0.0-68.0","7","5617","8","Female","false","false","true","false","""event"",""trial"",""time""
""fullscreenenter"",""5"",""10427""
","
","
","""event"",""trial"",""time""
""fullscreenenter"",""5"",""10427""
","
","","","","","","","","","","","","","","","","","","","","","",""
"instructions-quiz","128","257982","0.0-69.0","7","5617","8","Female","false","false","true","false","""event"",""trial"",""time""
""fullscreenenter"",""5"",""10427""
","
","
","""event"",""trial"",""time""
""fullscreenenter"",""5"",""10427""
","
","2513.900000002235","audio/quiz/Q1_Prompt.wav","","1","","","","","","","","","","","","","","","","","",""
"audio-keyboard-response","129","267151","0.0-70.0","7","5617","8","Female","false","false","true","false","""event"",""trial"",""time""
""fullscreenenter"",""5"",""10427""
","
","
","""event"",""trial"",""time""
""fullscreenenter"",""5"",""10427""
","
","null","audio/quiz/Q1_Correct.wav","null","","","","","","","","","","","","","","","","","","",""
"instructions-quiz","130","270917","0.0-71.0","7","5617","8","Female","false","false","true","false","""event"",""trial"",""time""
""fullscreenenter"",""5"",""10427""
","
","
","""event"",""trial"",""time""
""fullscreenenter"",""5"",""10427""
","
","3764.89999999851","audio/quiz/Q2_Prompt.wav","","0","","","","","","","","","","","","","","","","","",""
"audio-keyboard-response","131","283789","0.0-72.0","7","5617","8","Female","false","false","true","false","""event"",""trial"",""time""
""fullscreenenter"",""5"",""10427""
","
","
","""event"",""trial"",""time""
""fullscreenenter"",""5"",""10427""
","
","null","audio/quiz/Q2_Correct.wav","null","","","","","","","","","","","","","","","","","","",""
"instructions-quiz","132","289485","0.0-73.0","7","5617","8","Female","false","false","true","false","""event"",""trial"",""time""
""fullscreenenter"",""5"",""10427""
","
","
","""event"",""trial"",""time""
""fullscreenenter"",""5"",""10427""
","
","5695","audio/quiz/Q3_Prompt.wav","","1","","","","","","","","","","","","","","","","","",""
"audio-keyboard-response","133","295283","0.0-74.0","7","5617","8","Female","false","false","true","false","""event"",""trial"",""time""
""fullscreenenter"",""5"",""10427""
","
","
","""event"",""trial"",""time""
""fullscreenenter"",""5"",""10427""
","
","null","audio/quiz/Q3_Correct.wav","null","","","","","","","","","","","","","","","","","","",""
"d3-instructions","134","297366","0.0-75.0","7","5617","8","Female","false","false","true","false","""event"",""trial"",""time""
""fullscreenenter"",""5"",""10427""
","
","
","""event"",""trial"",""time""
""fullscreenenter"",""5"",""10427""
","
","","","","","","","","","","","","","","","","","","","","","",""
"pavlovia","135","297367","0.0-76.0","7","5617","8","Female","false","false","true","false","""event"",""trial"",""time""
""fullscreenenter"",""5"",""10427""
","
","
","""event"",""trial"",""time""
""fullscreenenter"",""5"",""10427""
","
","","","","","","","","","","","","","","","","","","","","","",""
"d3-animate-choice","136","299967","0.0-77.0-0.0","7","5617","8","Female","false","false","true","false","""event"",""trial"",""time""
""fullscreenenter"",""5"",""10427""
","
","
","""event"",""trial"",""time""
""fullscreenenter"",""5"",""10427""
","
","595.3000000007451","","49","","","3000","1","","","images/earth.jpg","images/rocket1","images/rocket2","null","images/rocket2","","1","real","null","1","","",""
"d3-animate-choice","137","302980","0.0-77.0-1.0","7","5617","8","Female","false","false","true","false","""event"",""trial"",""time""
""fullscreenenter"",""5"",""10427""
","
","
","""event"",""trial"",""time""
""fullscreenenter"",""5"",""10427""
","
","1009.3999999985099","","49","","","3000","1","","","images/redplanet1.jpg","images/alien2","images/alien1","images/rocket2","images/alien1","images/nothing.png","2","real","true","1","common","0","2022-12-31 21:42:16.661"
"two-step-fixation","138","303983","0.0-77.0-2.0","7","5617","8","Female","false","false","true","false","""event"",""trial"",""time""
""fullscreenenter"",""5"",""10427""
","
","
","""event"",""trial"",""time""
""fullscreenenter"",""5"",""10427""
","
","","images/earth.jpg","","","","","","","","","","","","","","fixation","","","","","",""
"d3-animate-choice","139","307990","0.0-77.0-0.1","7","5617","8","Female","false","false","true","false","""event"",""trial"",""time""
""fullscreenenter"",""5"",""10427""
","
","
","""event"",""trial"",""time""
""fullscreenenter"",""5"",""10427""
","
","null","","null","","","3000","0","","","images/earth.jpg","images/rocket1","images/rocket2","null","","","1","real","null","","","",""
"d3-animate-choice","140","308998","0.0-77.0-1.1","7","5617","8","Female","false","false","true","false","""event"",""trial"",""time""
""fullscreenenter"",""5"",""10427""
","
","
","""event"",""trial"",""time""
""fullscreenenter"",""5"",""10427""
","
","null","","null","","","0","0","","","images/earth.jpg","images/rocket1","images/rocket2","null","","","2","real","null","","","0","2022-12-31 21:42:22.679"
"two-step-fixation","141","310003","0.0-77.0-2.1","7","5617","8","Female","false","false","true","false","""event"",""trial"",""time""
""fullscreenenter"",""5"",""10427""
","
","
","""event"",""trial"",""time""
""fullscreenenter"",""5"",""10427""
","
","","images/earth.jpg","","","","","","","","","","","","","","fixation","","","","","",""
"d3-animate-choice","142","314008","0.0-77.0-0.2","7","5617","8","Female","false","false","true","false","""event"",""trial"",""time""
""fullscreenenter"",""5"",""10427""
","
","
","""event"",""trial"",""time""
""fullscreenenter"",""5"",""10427""
","
","null","","null","","","3000","0","","","images/earth.jpg","images/rocket1","images/rocket2","null","","","1","real","null","","","",""
"d3-animate-choice","143","315015","0.0-77.0-1.2","7","5617","8","Female","false","false","true","false","""event"",""trial"",""time""
""fullscreenenter"",""5"",""10427""
","
","
","""event"",""trial"",""time""
""fullscreenenter"",""5"",""10427""
","
","null","","null","","","0","0","","","images/earth.jpg","images/rocket1","images/rocket2","null","","","2","real","null","","","0","2022-12-31 21:42:28.696"
"two-step-fixation","144","316018","0.0-77.0-2.2","7","5617","8","Female","false","false","true","false","""event"",""trial"",""time""
""fullscreenenter"",""5"",""10427""
","
","
","""event"",""trial"",""time""
""fullscreenenter"",""5"",""10427""
","
","","images/earth.jpg","","","","","","","","","","","","","","fixation","","","","","",""
"d3-animate-choice","145","320022","0.0-77.0-0.3","7","5617","8","Female","false","false","true","false","""event"",""trial"",""time""
""fullscreenenter"",""5"",""10427""
","
","
","""event"",""trial"",""time""
""fullscreenenter"",""5"",""10427""
","
","null","","null","","","3000","0","","","images/earth.jpg","images/rocket1","images/rocket2","null","","","1","real","null","","","",""
"d3-animate-choice","146","321029","0.0-77.0-1.3","7","5617","8","Female","false","false","true","false","""event"",""trial"",""time""
""fullscreenenter"",""5"",""10427""
","
","
","""event"",""trial"",""time""
""fullscreenenter"",""5"",""10427""
","
","null","","null","","","0","0","","","images/earth.jpg","images/rocket1","images/rocket2","null","","","2","real","null","","","0","2022-12-31 21:42:34.710"
"two-step-fixation","147","322032","0.0-77.0-2.3","7","5617","8","Female","false","false","true","false","""event"",""trial"",""time""
""fullscreenenter"",""5"",""10427""
","
","
","""event"",""trial"",""time""
""fullscreenenter"",""5"",""10427""
","
","","images/earth.jpg","","","","","","","","","","","","","","fixation","","","","","",""
"d3-animate-choice","148","326035","0.0-77.0-0.4","7","5617","8","Female","false","false","true","false","""event"",""trial"",""time""
""fullscreenenter"",""5"",""10427""
","
","
","""event"",""trial"",""time""
""fullscreenenter"",""5"",""10427""
","
","null","","null","","","3000","0","","","images/earth.jpg","images/rocket1","images/rocket2","null","","","1","real","null","","","",""
"d3-animate-choice","149","327043","0.0-77.0-1.4","7","5617","8","Female","false","false","true","false","""event"",""trial"",""time""
""fullscreenenter"",""5"",""10427""
","
","
","""event"",""trial"",""time""
""fullscreenenter"",""5"",""10427""
","
","null","","null","","","0","0","","","images/earth.jpg","images/rocket1","images/rocket2","null","","","2","real","null","","","0","2022-12-31 21:42:40.724"
"two-step-fixation","150","328045","0.0-77.0-2.4","7","5617","8","Female","false","false","true","false","""event"",""trial"",""time""
""fullscreenenter"",""5"",""10427""
","
","
","""event"",""trial"",""time""
""fullscreenenter"",""5"",""10427""
","
","","images/earth.jpg","","","","","","","","","","","","","","fixation","","","","","",""
"d3-animate-choice","151","332051","0.0-77.0-0.5","7","5617","8","Female","false","false","true","false","""event"",""trial"",""time""
""fullscreenenter"",""5"",""10427""
","
","
","""event"",""trial"",""time""
""fullscreenenter"",""5"",""10427""
","
","null","","null","","","3000","0","","","images/earth.jpg","images/rocket1","images/rocket2","null","","","1","real","null","","","",""
"d3-animate-choice","152","333058","0.0-77.0-1.5","7","5617","8","Female","false","false","true","false","""event"",""trial"",""time""
""fullscreenenter"",""5"",""10427""
","
","
","""event"",""trial"",""time""
""fullscreenenter"",""5"",""10427""
","
","null","","null","","","0","0","","","images/earth.jpg","images/rocket1","images/rocket2","null","","","2","real","null","","","0","2022-12-31 21:42:46.739"
"two-step-fixation","153","334062","0.0-77.0-2.5","7","5617","8","Female","false","false","true","false","""event"",""trial"",""time""
""fullscreenenter"",""5"",""10427""
","
","
","""event"",""trial"",""time""
""fullscreenenter"",""5"",""10427""
","
","","images/earth.jpg","","","","","","","","","","","","","","fixation","","","","","",""
"d3-animate-choice","154","338072","0.0-77.0-0.6","7","5617","8","Female","false","false","true","false","""event"",""trial"",""time""
""fullscreenenter"",""5"",""10427""
","
","
","""event"",""trial"",""time""
""fullscreenenter"",""5"",""10427""
","
","null","","null","","","3000","0","","","images/earth.jpg","images/rocket1","images/rocket2","null","","","1","real","null","","","",""
"d3-animate-choice","155","339080","0.0-77.0-1.6","7","5617","8","Female","false","false","true","false","""event"",""trial"",""time""
""fullscreenenter"",""5"",""10427""
","
","
","""event"",""trial"",""time""
""fullscreenenter"",""5"",""10427""
","
","null","","null","","","0","0","","","images/earth.jpg","images/rocket1","images/rocket2","null","","","2","real","null","","","0","2022-12-31 21:42:52.761"
"two-step-fixation","156","340083","0.0-77.0-2.6","7","5617","8","Female","false","false","true","false","""event"",""trial"",""time""
""fullscreenenter"",""5"",""10427""
","
","
","""event"",""trial"",""time""
""fullscreenenter"",""5"",""10427""
","
","","images/earth.jpg","","","","","","","","","","","","","","fixation","","","","","",""
"d3-animate-choice","157","344091","0.0-77.0-0.7","7","5617","8","Female","false","false","true","false","""event"",""trial"",""time""
""fullscreenenter"",""5"",""10427""
","
","
","""event"",""trial"",""time""
""fullscreenenter"",""5"",""10427""
","
","null","","null","","","3000","0","","","images/earth.jpg","images/rocket1","images/rocket2","null","","","1","real","null","","","",""
"d3-animate-choice","158","345099","0.0-77.0-1.7","7","5617","8","Female","false","false","true","false","""event"",""trial"",""time""
""fullscreenenter"",""5"",""10427""
","
","
","""event"",""trial"",""time""
""fullscreenenter"",""5"",""10427""
","
","null","","null","","","0","0","","","images/earth.jpg","images/rocket1","images/rocket2","null","","","2","real","null","","","0","2022-12-31 21:42:58.780"
"two-step-fixation","159","346102","0.0-77.0-2.7","7","5617","8","Female","false","false","true","false","""event"",""trial"",""time""
""fullscreenenter"",""5"",""10427""
","
","
","""event"",""trial"",""time""
""fullscreenenter"",""5"",""10427""
","
","","images/earth.jpg","","","","","","","","","","","","","","fixation","","","","","",""
"d3-animate-choice","160","350105","0.0-77.0-0.8","7","5617","8","Female","false","false","true","false","""event"",""trial"",""time""
""fullscreenenter"",""5"",""10427""
","
","
","""event"",""trial"",""time""
""fullscreenenter"",""5"",""10427""
","
","null","","null","","","3000","0","","","images/earth.jpg","images/rocket1","images/rocket2","null","","","1","real","null","","","",""
"d3-animate-choice","161","351115","0.0-77.0-1.8","7","5617","8","Female","false","false","true","false","""event"",""trial"",""time""
""fullscreenenter"",""5"",""10427""
","
","
","""event"",""trial"",""time""
""fullscreenenter"",""5"",""10427""
","
","null","","null","","","0","0","","","images/earth.jpg","images/rocket1","images/rocket2","null","","","2","real","null","","","0","2022-12-31 21:43:04.796"
"two-step-fixation","162","352118","0.0-77.0-2.8","7","5617","8","Female","false","false","true","false","""event"",""trial"",""time""
""fullscreenenter"",""5"",""10427""
","
","
","""event"",""trial"",""time""
""fullscreenenter"",""5"",""10427""
","
","","images/earth.jpg","","","","","","","","","","","","","","fixation","","","","","",""
"d3-animate-choice","163","356124","0.0-77.0-0.9","7","5617","8","Female","false","false","true","false","""event"",""trial"",""time""
""fullscreenenter"",""5"",""10427""
","
","
","""event"",""trial"",""time""
""fullscreenenter"",""5"",""10427""
","
","null","","null","","","3000","0","","","images/earth.jpg","images/rocket1","images/rocket2","null","","","1","real","null","","","",""
"d3-animate-choice","164","357131","0.0-77.0-1.9","7","5617","8","Female","false","false","true","false","""event"",""trial"",""time""
""fullscreenenter"",""5"",""10427""
","
","
","""event"",""trial"",""time""
""fullscreenenter"",""5"",""10427""
","
","null","","null","","","0","0","","","images/earth.jpg","images/rocket1","images/rocket2","null","","","2","real","null","","","0","2022-12-31 21:43:10.812"
"two-step-fixation","165","358134","0.0-77.0-2.9","7","5617","8","Female","false","false","true","false","""event"",""trial"",""time""
""fullscreenenter"",""5"",""10427""
","
","
","""event"",""trial"",""time""
""fullscreenenter"",""5"",""10427""
","
","","images/earth.jpg","","","","","","","","","","","","","","fixation","","","","","",""
"d3-animate-choice","166","362139","0.0-77.0-0.10","7","5617","8","Female","false","false","true","false","""event"",""trial"",""time""
""fullscreenenter"",""5"",""10427""
","
","
","""event"",""trial"",""time""
""fullscreenenter"",""5"",""10427""
","
","null","","null","","","3000","0","","","images/earth.jpg","images/rocket1","images/rocket2","null","","","1","real","null","","","",""
"d3-animate-choice","167","363146","0.0-77.0-1.10","7","5617","8","Female","false","false","true","false","""event"",""trial"",""time""
""fullscreenenter"",""5"",""10427""
","
","
","""event"",""trial"",""time""
""fullscreenenter"",""5"",""10427""
","
","null","","null","","","0","0","","","images/earth.jpg","images/rocket1","images/rocket2","null","","","2","real","null","","","0","2022-12-31 21:43:16.827"
"two-step-fixation","168","364150","0.0-77.0-2.10","7","5617","8","Female","false","false","true","false","""event"",""trial"",""time""
""fullscreenenter"",""5"",""10427""
","
","
","""event"",""trial"",""time""
""fullscreenenter"",""5"",""10427""
","
","","images/earth.jpg","","","","","","","","","","","","","","fixation","","","","","",""
"d3-animate-choice","169","368156","0.0-77.0-0.11","7","5617","8","Female","false","false","true","false","""event"",""trial"",""time""
""fullscreenenter"",""5"",""10427""
","
","
","""event"",""trial"",""time""
""fullscreenenter"",""5"",""10427""
","
","null","","null","","","3000","0","","","images/earth.jpg","images/rocket1","images/rocket2","null","","","1","real","null","","","",""
"d3-animate-choice","170","369164","0.0-77.0-1.11","7","5617","8","Female","false","false","true","false","""event"",""trial"",""time""
""fullscreenenter"",""5"",""10427""
","
","
","""event"",""trial"",""time""
""fullscreenenter"",""5"",""10427""
","
","null","","null","","","0","0","","","images/earth.jpg","images/rocket1","images/rocket2","null","","","2","real","null","","","0","2022-12-31 21:43:22.846"
"two-step-fixation","171","370168","0.0-77.0-2.11","7","5617","8","Female","false","false","true","false","""event"",""trial"",""time""
""fullscreenenter"",""5"",""10427""
","
","
","""event"",""trial"",""time""
""fullscreenenter"",""5"",""10427""
","
","","images/earth.jpg","","","","","","","","","","","","","","fixation","","","","","",""
"d3-animate-choice","172","374172","0.0-77.0-0.12","7","5617","8","Female","false","false","true","false","""event"",""trial"",""time""
""fullscreenenter"",""5"",""10427""
","
","
","""event"",""trial"",""time""
""fullscreenenter"",""5"",""10427""
","
","null","","null","","","3000","0","","","images/earth.jpg","images/rocket1","images/rocket2","null","","","1","real","null","","","",""
"d3-animate-choice","173","375180","0.0-77.0-1.12","7","5617","8","Female","false","false","true","false","""event"",""trial"",""time""
""fullscreenenter"",""5"",""10427""
","
","
","""event"",""trial"",""time""
""fullscreenenter"",""5"",""10427""
","
","null","","null","","","0","0","","","images/earth.jpg","images/rocket1","images/rocket2","null","","","2","real","null","","","0","2022-12-31 21:43:28.861"
"two-step-fixation","174","376185","0.0-77.0-2.12","7","5617","8","Female","false","false","true","false","""event"",""trial"",""time""
""fullscreenenter"",""5"",""10427""
","
","
","""event"",""trial"",""time""
""fullscreenenter"",""5"",""10427""
","
","","images/earth.jpg","","","","","","","","","","","","","","fixation","","","","","",""
"d3-animate-choice","175","380190","0.0-77.0-0.13","7","5617","8","Female","false","false","true","false","""event"",""trial"",""time""
""fullscreenenter"",""5"",""10427""
","
","
","""event"",""trial"",""time""
""fullscreenenter"",""5"",""10427""
","
","null","","null","","","3000","0","","","images/earth.jpg","images/rocket1","images/rocket2","null","","","1","real","null","","","",""
"d3-animate-choice","176","381197","0.0-77.0-1.13","7","5617","8","Female","false","false","true","false","""event"",""trial"",""time""
""fullscreenenter"",""5"",""10427""
","
","
","""event"",""trial"",""time""
""fullscreenenter"",""5"",""10427""
","
","null","","null","","","0","0","","","images/earth.jpg","images/rocket1","images/rocket2","null","","","2","real","null","","","0","2022-12-31 21:43:34.879"
"two-step-fixation","177","382202","0.0-77.0-2.13","7","5617","8","Female","false","false","true","false","""event"",""trial"",""time""
""fullscreenenter"",""5"",""10427""
","
","
","""event"",""trial"",""time""
""fullscreenenter"",""5"",""10427""
","
","","images/earth.jpg","","","","","","","","","","","","","","fixation","","","","","",""
"d3-animate-choice","178","386208","0.0-77.0-0.14","7","5617","8","Female","false","false","true","false","""event"",""trial"",""time""
""fullscreenenter"",""5"",""10427""
","
","
","""event"",""trial"",""time""
""fullscreenenter"",""5"",""10427""
","
","null","","null","","","3000","0","","","images/earth.jpg","images/rocket1","images/rocket2","null","","","1","real","null","","","",""
"d3-animate-choice","179","387216","0.0-77.0-1.14","7","5617","8","Female","false","false","true","false","""event"",""trial"",""time""
""fullscreenenter"",""5"",""10427""
","
","
","""event"",""trial"",""time""
""fullscreenenter"",""5"",""10427""
","
","null","","null","","","0","0","","","images/earth.jpg","images/rocket1","images/rocket2","null","","","2","real","null","","","0","2022-12-31 21:43:40.897"
"two-step-fixation","180","388218","0.0-77.0-2.14","7","5617","8","Female","false","false","true","false","""event"",""trial"",""time""
""fullscreenenter"",""5"",""10427""
","
","
","""event"",""trial"",""time""
""fullscreenenter"",""5"",""10427""
","
","","images/earth.jpg","","","","","","","","","","","","","","fixation","","","","","",""
"d3-animate-choice","181","392226","0.0-77.0-0.15","7","5617","8","Female","false","false","true","false","""event"",""trial"",""time""
""fullscreenenter"",""5"",""10427""
","
","
","""event"",""trial"",""time""
""fullscreenenter"",""5"",""10427""
","
","null","","null","","","3000","0","","","images/earth.jpg","images/rocket1","images/rocket2","null","","","1","real","null","","","",""
"d3-animate-choice","182","393233","0.0-77.0-1.15","7","5617","8","Female","false","false","true","false","""event"",""trial"",""time""
""fullscreenenter"",""5"",""10427""
","
","
","""event"",""trial"",""time""
""fullscreenenter"",""5"",""10427""
","
","null","","null","","","0","0","","","images/earth.jpg","images/rocket1","images/rocket2","null","","","2","real","null","","","0","2022-12-31 21:43:46.914"
"two-step-fixation","183","394237","0.0-77.0-2.15","7","5617","8","Female","false","false","true","false","""event"",""trial"",""time""
""fullscreenenter"",""5"",""10427""
","
","
","""event"",""trial"",""time""
""fullscreenenter"",""5"",""10427""
","
","","images/earth.jpg","","","","","","","","","","","","","","fixation","","","","","",""
"d3-animate-choice","184","398240","0.0-77.0-0.16","7","5617","8","Female","false","false","true","false","""event"",""trial"",""time""
""fullscreenenter"",""5"",""10427""
","
","
","""event"",""trial"",""time""
""fullscreenenter"",""5"",""10427""
","
","null","","null","","","3000","0","","","images/earth.jpg","images/rocket1","images/rocket2","null","","","1","real","null","","","",""
"d3-animate-choice","185","399248","0.0-77.0-1.16","7","5617","8","Female","false","false","true","false","""event"",""trial"",""time""
""fullscreenenter"",""5"",""10427""
","
","
","""event"",""trial"",""time""
""fullscreenenter"",""5"",""10427""
","
","null","","null","","","0","0","","","images/earth.jpg","images/rocket1","images/rocket2","null","","","2","real","null","","","0","2022-12-31 21:43:52.929"
"two-step-fixation","186","400252","0.0-77.0-2.16","7","5617","8","Female","false","false","true","false","""event"",""trial"",""time""
""fullscreenenter"",""5"",""10427""
","
","
","""event"",""trial"",""time""
""fullscreenenter"",""5"",""10427""
","
","","images/earth.jpg","","","","","","","","","","","","","","fixation","","","","","",""
"d3-animate-choice","187","404258","0.0-77.0-0.17","7","5617","8","Female","false","false","true","false","""event"",""trial"",""time""
""fullscreenenter"",""5"",""10427""
","
","
","""event"",""trial"",""time""
""fullscreenenter"",""5"",""10427""
","
","null","","null","","","3000","0","","","images/earth.jpg","images/rocket1","images/rocket2","null","","","1","real","null","","","",""
"d3-animate-choice","188","405265","0.0-77.0-1.17","7","5617","8","Female","false","false","true","false","""event"",""trial"",""time""
""fullscreenenter"",""5"",""10427""
","
","
","""event"",""trial"",""time""
""fullscreenenter"",""5"",""10427""
","
","null","","null","","","0","0","","","images/earth.jpg","images/rocket1","images/rocket2","null","","","2","real","null","","","0","2022-12-31 21:43:58.946"
"two-step-fixation","189","406270","0.0-77.0-2.17","7","5617","8","Female","false","false","true","false","""event"",""trial"",""time""
""fullscreenenter"",""5"",""10427""
","
","
","""event"",""trial"",""time""
""fullscreenenter"",""5"",""10427""
","
","","images/earth.jpg","","","","","","","","","","","","","","fixation","","","","","",""
"d3-animate-choice","190","410276","0.0-77.0-0.18","7","5617","8","Female","false","false","true","false","""event"",""trial"",""time""
""fullscreenenter"",""5"",""10427""
","
","
","""event"",""trial"",""time""
""fullscreenenter"",""5"",""10427""
","
","null","","null","","","3000","0","","","images/earth.jpg","images/rocket1","images/rocket2","null","","","1","real","null","","","",""
"d3-animate-choice","191","411283","0.0-77.0-1.18","7","5617","8","Female","false","false","true","false","""event"",""trial"",""time""
""fullscreenenter"",""5"",""10427""
","
","
","""event"",""trial"",""time""
""fullscreenenter"",""5"",""10427""
","
","null","","null","","","0","0","","","images/earth.jpg","images/rocket1","images/rocket2","null","","","2","real","null","","","0","2022-12-31 21:44:04.964"
"two-step-fixation","192","412286","0.0-77.0-2.18","7","5617","8","Female","false","false","true","false","""event"",""trial"",""time""
""fullscreenenter"",""5"",""10427""
","
","
","""event"",""trial"",""time""
""fullscreenenter"",""5"",""10427""
","
","","images/earth.jpg","","","","","","","","","","","","","","fixation","","","","","",""
"d3-animate-choice","193","416293","0.0-77.0-0.19","7","5617","8","Female","false","false","true","false","""event"",""trial"",""time""
""fullscreenenter"",""5"",""10427""
","
","
","""event"",""trial"",""time""
""fullscreenenter"",""5"",""10427""
","
","null","","null","","","3000","0","","","images/earth.jpg","images/rocket1","images/rocket2","null","","","1","real","null","","","",""
"d3-animate-choice","194","417300","0.0-77.0-1.19","7","5617","8","Female","false","false","true","false","""event"",""trial"",""time""
""fullscreenenter"",""5"",""10427""
","
","
","""event"",""trial"",""time""
""fullscreenenter"",""5"",""10427""
","
","null","","null","","","0","0","","","images/earth.jpg","images/rocket1","images/rocket2","null","","","2","real","null","","","0","2022-12-31 21:44:10.982"
"two-step-fixation","195","418303","0.0-77.0-2.19","7","5617","8","Female","false","false","true","false","""event"",""trial"",""time""
""fullscreenenter"",""5"",""10427""
","
","
","""event"",""trial"",""time""
""fullscreenenter"",""5"",""10427""
","
","","images/earth.jpg","","","","","","","","","","","","","","fixation","","","","","",""
"d3-animate-choice","196","422309","0.0-77.0-0.20","7","5617","8","Female","false","false","true","false","""event"",""trial"",""time""
""fullscreenenter"",""5"",""10427""
","
","
","""event"",""trial"",""time""
""fullscreenenter"",""5"",""10427""
","
","null","","null","","","3000","0","","","images/earth.jpg","images/rocket1","images/rocket2","null","","","1","real","null","","","",""
"d3-animate-choice","197","423315","0.0-77.0-1.20","7","5617","8","Female","false","false","true","false","""event"",""trial"",""time""
""fullscreenenter"",""5"",""10427""
","
","
","""event"",""trial"",""time""
""fullscreenenter"",""5"",""10427""
","
","null","","null","","","0","0","","","images/earth.jpg","images/rocket1","images/rocket2","null","","","2","real","null","","","0","2022-12-31 21:44:16.996"
"two-step-fixation","198","424318","0.0-77.0-2.20","7","5617","8","Female","false","false","true","false","""event"",""trial"",""time""
""fullscreenenter"",""5"",""10427""
","
","
","""event"",""trial"",""time""
""fullscreenenter"",""5"",""10427""
","
","","images/earth.jpg","","","","","","","","","","","","","","fixation","","","","","",""
"d3-animate-choice","199","428323","0.0-77.0-0.21","7","5617","8","Female","false","false","true","false","""event"",""trial"",""time""
""fullscreenenter"",""5"",""10427""
","
","
","""event"",""trial"",""time""
""fullscreenenter"",""5"",""10427""
","
","null","","null","","","3000","0","","","images/earth.jpg","images/rocket1","images/rocket2","null","","","1","real","null","","","",""
"d3-animate-choice","200","429331","0.0-77.0-1.21","7","5617","8","Female","false","false","true","false","""event"",""trial"",""time""
""fullscreenenter"",""5"",""10427""
","
","
","""event"",""trial"",""time""
""fullscreenenter"",""5"",""10427""
","
","null","","null","","","0","0","","","images/earth.jpg","images/rocket1","images/rocket2","null","","","2","real","null","","","0","2022-12-31 21:44:23.012"
"two-step-fixation","201","430335","0.0-77.0-2.21","7","5617","8","Female","false","false","true","false","""event"",""trial"",""time""
""fullscreenenter"",""5"",""10427""
","
","
","""event"",""trial"",""time""
""fullscreenenter"",""5"",""10427""
","
","","images/earth.jpg","","","","","","","","","","","","","","fixation","","","","","",""
"d3-animate-choice","202","434338","0.0-77.0-0.22","7","5617","8","Female","false","false","true","false","""event"",""trial"",""time""
""fullscreenenter"",""5"",""10427""
","
","
","""event"",""trial"",""time""
""fullscreenenter"",""5"",""10427""
","
","null","","null","","","3000","0","","","images/earth.jpg","images/rocket1","images/rocket2","null","","","1","real","null","","","",""
"d3-animate-choice","203","435348","0.0-77.0-1.22","7","5617","8","Female","false","false","true","false","""event"",""trial"",""time""
""fullscreenenter"",""5"",""10427""
","
","
","""event"",""trial"",""time""
""fullscreenenter"",""5"",""10427""
","
","null","","null","","","0","0","","","images/earth.jpg","images/rocket1","images/rocket2","null","","","2","real","null","","","0","2022-12-31 21:44:29.029"
"two-step-fixation","204","436351","0.0-77.0-2.22","7","5617","8","Female","false","false","true","false","""event"",""trial"",""time""
""fullscreenenter"",""5"",""10427""
","
","
","""event"",""trial"",""time""
""fullscreenenter"",""5"",""10427""
","
","","images/earth.jpg","","","","","","","","","","","","","","fixation","","","","","",""
"d3-animate-choice","205","440355","0.0-77.0-0.23","7","5617","8","Female","false","false","true","false","""event"",""trial"",""time""
""fullscreenenter"",""5"",""10427""
","
","
","""event"",""trial"",""time""
""fullscreenenter"",""5"",""10427""
","
","null","","null","","","3000","0","","","images/earth.jpg","images/rocket1","images/rocket2","null","","","1","real","null","","","",""
"d3-animate-choice","206","441361","0.0-77.0-1.23","7","5617","8","Female","false","false","true","false","""event"",""trial"",""time""
""fullscreenenter"",""5"",""10427""
","
","
","""event"",""trial"",""time""
""fullscreenenter"",""5"",""10427""
","
","null","","null","","","0","0","","","images/earth.jpg","images/rocket1","images/rocket2","null","","","2","real","null","","","0","2022-12-31 21:44:35.042"
"two-step-fixation","207","442363","0.0-77.0-2.23","7","5617","8","Female","false","false","true","false","""event"",""trial"",""time""
""fullscreenenter"",""5"",""10427""
","
","
","""event"",""trial"",""time""
""fullscreenenter"",""5"",""10427""
","
","","images/earth.jpg","","","","","","","","","","","","","","fixation","","","","","",""
"d3-animate-choice","208","446369","0.0-77.0-0.24","7","5617","8","Female","false","false","true","false","""event"",""trial"",""time""
""fullscreenenter"",""5"",""10427""
","
","
","""event"",""trial"",""time""
""fullscreenenter"",""5"",""10427""
","
","null","","null","","","3000","0","","","images/earth.jpg","images/rocket1","images/rocket2","null","","","1","real","null","","","",""
"d3-animate-choice","209","447376","0.0-77.0-1.24","7","5617","8","Female","false","false","true","false","""event"",""trial"",""time""
""fullscreenenter"",""5"",""10427""
","
","
","""event"",""trial"",""time""
""fullscreenenter"",""5"",""10427""
","
","null","","null","","","0","0","","","images/earth.jpg","images/rocket1","images/rocket2","null","","","2","real","null","","","0","2022-12-31 21:44:41.057"
"two-step-fixation","210","448379","0.0-77.0-2.24","7","5617","8","Female","false","false","true","false","""event"",""trial"",""time""
""fullscreenenter"",""5"",""10427""
","
","
","""event"",""trial"",""time""
""fullscreenenter"",""5"",""10427""
","
","","images/earth.jpg","","","","","","","","","","","","","","fixation","","","","","",""
"d3-animate-choice","211","452383","0.0-77.0-0.25","7","5617","8","Female","false","false","true","false","""event"",""trial"",""time""
""fullscreenenter"",""5"",""10427""
","
","
","""event"",""trial"",""time""
""fullscreenenter"",""5"",""10427""
","
","null","","null","","","3000","0","","","images/earth.jpg","images/rocket1","images/rocket2","null","","","1","real","null","","","",""
"d3-animate-choice","212","453390","0.0-77.0-1.25","7","5617","8","Female","false","false","true","false","""event"",""trial"",""time""
""fullscreenenter"",""5"",""10427""
","
","
","""event"",""trial"",""time""
""fullscreenenter"",""5"",""10427""
","
","null","","null","","","0","0","","","images/earth.jpg","images/rocket1","images/rocket2","null","","","2","real","null","","","0","2022-12-31 21:44:47.071"
"two-step-fixation","213","454397","0.0-77.0-2.25","7","5617","8","Female","false","false","true","false","""event"",""trial"",""time""
""fullscreenenter"",""5"",""10427""
","
","
","""event"",""trial"",""time""
""fullscreenenter"",""5"",""10427""
","
","","images/earth.jpg","","","","","","","","","","","","","","fixation","","","","","",""
"d3-animate-choice","214","458407","0.0-77.0-0.26","7","5617","8","Female","false","false","true","false","""event"",""trial"",""time""
""fullscreenenter"",""5"",""10427""
","
","
","""event"",""trial"",""time""
""fullscreenenter"",""5"",""10427""
","
","null","","null","","","3000","0","","","images/earth.jpg","images/rocket1","images/rocket2","null","","","1","real","null","","","",""
"d3-animate-choice","215","459416","0.0-77.0-1.26","7","5617","8","Female","false","false","true","false","""event"",""trial"",""time""
""fullscreenenter"",""5"",""10427""
","
","
","""event"",""trial"",""time""
""fullscreenenter"",""5"",""10427""
","
","null","","null","","","0","0","","","images/earth.jpg","images/rocket1","images/rocket2","null","","","2","real","null","","","0","2022-12-31 21:44:53.097"
"two-step-fixation","216","460420","0.0-77.0-2.26","7","5617","8","Female","false","false","true","false","""event"",""trial"",""time""
""fullscreenenter"",""5"",""10427""
","
","
","""event"",""trial"",""time""
""fullscreenenter"",""5"",""10427""
","
","","images/earth.jpg","","","","","","","","","","","","","","fixation","","","","","",""
"d3-animate-choice","217","464423","0.0-77.0-0.27","7","5617","8","Female","false","false","true","false","""event"",""trial"",""time""
""fullscreenenter"",""5"",""10427""
","
","
","""event"",""trial"",""time""
""fullscreenenter"",""5"",""10427""
","
","null","","null","","","3000","0","","","images/earth.jpg","images/rocket1","images/rocket2","null","","","1","real","null","","","",""
"d3-animate-choice","218","465430","0.0-77.0-1.27","7","5617","8","Female","false","false","true","false","""event"",""trial"",""time""
""fullscreenenter"",""5"",""10427""
","
","
","""event"",""trial"",""time""
""fullscreenenter"",""5"",""10427""
","
","null","","null","","","0","0","","","images/earth.jpg","images/rocket1","images/rocket2","null","","","2","real","null","","","0","2022-12-31 21:44:59.111"
"two-step-fixation","219","466433","0.0-77.0-2.27","7","5617","8","Female","false","false","true","false","""event"",""trial"",""time""
""fullscreenenter"",""5"",""10427""
","
","
","""event"",""trial"",""time""
""fullscreenenter"",""5"",""10427""
","
","","images/earth.jpg","","","","","","","","","","","","","","fixation","","","","","",""
"d3-animate-choice","220","470437","0.0-77.0-0.28","7","5617","8","Female","false","false","true","false","""event"",""trial"",""time""
""fullscreenenter"",""5"",""10427""
","
","
","""event"",""trial"",""time""
""fullscreenenter"",""5"",""10427""
","
","null","","null","","","3000","0","","","images/earth.jpg","images/rocket1","images/rocket2","null","","","1","real","null","","","",""
"d3-animate-choice","221","471444","0.0-77.0-1.28","7","5617","8","Female","false","false","true","false","""event"",""trial"",""time""
""fullscreenenter"",""5"",""10427""
","
","
","""event"",""trial"",""time""
""fullscreenenter"",""5"",""10427""
","
","null","","null","","","0","0","","","images/earth.jpg","images/rocket1","images/rocket2","null","","","2","real","null","","","0","2022-12-31 21:45:05.125"
"two-step-fixation","222","472447","0.0-77.0-2.28","7","5617","8","Female","false","false","true","false","""event"",""trial"",""time""
""fullscreenenter"",""5"",""10427""
","
","
","""event"",""trial"",""time""
""fullscreenenter"",""5"",""10427""
","
","","images/earth.jpg","","","","","","","","","","","","","","fixation","","","","","",""
"d3-animate-choice","223","476451","0.0-77.0-0.29","7","5617","8","Female","false","false","true","false","""event"",""trial"",""time""
""fullscreenenter"",""5"",""10427""
","
","
","""event"",""trial"",""time""
""fullscreenenter"",""5"",""10427""
","
","null","","null","","","3000","0","","","images/earth.jpg","images/rocket1","images/rocket2","null","","","1","real","null","","","",""
"d3-animate-choice","224","477458","0.0-77.0-1.29","7","5617","8","Female","false","false","true","false","""event"",""trial"",""time""
""fullscreenenter"",""5"",""10427""
","
","
","""event"",""trial"",""time""
""fullscreenenter"",""5"",""10427""
","
","null","","null","","","0","0","","","images/earth.jpg","images/rocket1","images/rocket2","null","","","2","real","null","","","0","2022-12-31 21:45:11.139"
"two-step-fixation","225","478462","0.0-77.0-2.29","7","5617","8","Female","false","false","true","false","""event"",""trial"",""time""
""fullscreenenter"",""5"",""10427""
","
","
","""event"",""trial"",""time""
""fullscreenenter"",""5"",""10427""
","
","","images/earth.jpg","","","","","","","","","","","","","","fixation","","","","","",""
"d3-animate-choice","226","482467","0.0-77.0-0.30","7","5617","8","Female","false","false","true","false","""event"",""trial"",""time""
""fullscreenenter"",""5"",""10427""
","
","
","""event"",""trial"",""time""
""fullscreenenter"",""5"",""10427""
","
","null","","null","","","3000","0","","","images/earth.jpg","images/rocket1","images/rocket2","null","","","1","real","null","","","",""
"d3-animate-choice","227","483473","0.0-77.0-1.30","7","5617","8","Female","false","false","true","false","""event"",""trial"",""time""
""fullscreenenter"",""5"",""10427""
","
","
","""event"",""trial"",""time""
""fullscreenenter"",""5"",""10427""
","
","null","","null","","","0","0","","","images/earth.jpg","images/rocket1","images/rocket2","null","","","2","real","null","","","0","2022-12-31 21:45:17.154"
"two-step-fixation","228","484480","0.0-77.0-2.30","7","5617","8","Female","false","false","true","false","""event"",""trial"",""time""
""fullscreenenter"",""5"",""10427""
","
","
","""event"",""trial"",""time""
""fullscreenenter"",""5"",""10427""
","
","","images/earth.jpg","","","","","","","","","","","","","","fixation","","","","","",""
"d3-animate-choice","229","488486","0.0-77.0-0.31","7","5617","8","Female","false","false","true","false","""event"",""trial"",""time""
""fullscreenenter"",""5"",""10427""
","
","
","""event"",""trial"",""time""
""fullscreenenter"",""5"",""10427""
","
","null","","null","","","3000","0","","","images/earth.jpg","images/rocket1","images/rocket2","null","","","1","real","null","","","",""
"d3-animate-choice","230","489495","0.0-77.0-1.31","7","5617","8","Female","false","false","true","false","""event"",""trial"",""time""
""fullscreenenter"",""5"",""10427""
","
","
","""event"",""trial"",""time""
""fullscreenenter"",""5"",""10427""
","
","null","","null","","","0","0","","","images/earth.jpg","images/rocket1","images/rocket2","null","","","2","real","null","","","0","2022-12-31 21:45:23.176"
"two-step-fixation","231","490500","0.0-77.0-2.31","7","5617","8","Female","false","false","true","false","""event"",""trial"",""time""
""fullscreenenter"",""5"",""10427""
","
","
","""event"",""trial"",""time""
""fullscreenenter"",""5"",""10427""
","
","","images/earth.jpg","","","","","","","","","","","","","","fixation","","","","","",""
"d3-animate-choice","232","494503","0.0-77.0-0.32","7","5617","8","Female","false","false","true","false","""event"",""trial"",""time""
""fullscreenenter"",""5"",""10427""
","
","
","""event"",""trial"",""time""
""fullscreenenter"",""5"",""10427""
","
","null","","null","","","3000","0","","","images/earth.jpg","images/rocket1","images/rocket2","null","","","1","real","null","","","",""
"d3-animate-choice","233","495511","0.0-77.0-1.32","7","5617","8","Female","false","false","true","false","""event"",""trial"",""time""
""fullscreenenter"",""5"",""10427""
","
","
","""event"",""trial"",""time""
""fullscreenenter"",""5"",""10427""
","
","null","","null","","","0","0","","","images/earth.jpg","images/rocket1","images/rocket2","null","","","2","real","null","","","0","2022-12-31 21:45:29.192"
"two-step-fixation","234","496516","0.0-77.0-2.32","7","5617","8","Female","false","false","true","false","""event"",""trial"",""time""
""fullscreenenter"",""5"",""10427""
","
","
","""event"",""trial"",""time""
""fullscreenenter"",""5"",""10427""
","
","","images/earth.jpg","","","","","","","","","","","","","","fixation","","","","","",""
"d3-animate-choice","235","500524","0.0-77.0-0.33","7","5617","8","Female","false","false","true","false","""event"",""trial"",""time""
""fullscreenenter"",""5"",""10427""
","
","
","""event"",""trial"",""time""
""fullscreenenter"",""5"",""10427""
","
","null","","null","","","3000","0","","","images/earth.jpg","images/rocket1","images/rocket2","null","","","1","real","null","","","",""
"d3-animate-choice","236","501532","0.0-77.0-1.33","7","5617","8","Female","false","false","true","false","""event"",""trial"",""time""
""fullscreenenter"",""5"",""10427""
","
","
","""event"",""trial"",""time""
""fullscreenenter"",""5"",""10427""
","
","null","","null","","","0","0","","","images/earth.jpg","images/rocket1","images/rocket2","null","","","2","real","null","","","0","2022-12-31 21:45:35.213"
"two-step-fixation","237","502535","0.0-77.0-2.33","7","5617","8","Female","false","false","true","false","""event"",""trial"",""time""
""fullscreenenter"",""5"",""10427""
","
","
","""event"",""trial"",""time""
""fullscreenenter"",""5"",""10427""
","
","","images/earth.jpg","","","","","","","","","","","","","","fixation","","","","","",""
"d3-animate-choice","238","506541","0.0-77.0-0.34","7","5617","8","Female","false","false","true","false","""event"",""trial"",""time""
""fullscreenenter"",""5"",""10427""
","
","
","""event"",""trial"",""time""
""fullscreenenter"",""5"",""10427""
","
","null","","null","","","3000","0","","","images/earth.jpg","images/rocket1","images/rocket2","null","","","1","real","null","","","",""
"d3-animate-choice","239","507548","0.0-77.0-1.34","7","5617","8","Female","false","false","true","false","""event"",""trial"",""time""
""fullscreenenter"",""5"",""10427""
","
","
","""event"",""trial"",""time""
""fullscreenenter"",""5"",""10427""
","
","null","","null","","","0","0","","","images/earth.jpg","images/rocket1","images/rocket2","null","","","2","real","null","","","0","2022-12-31 21:45:41.229"
"two-step-fixation","240","508551","0.0-77.0-2.34","7","5617","8","Female","false","false","true","false","""event"",""trial"",""time""
""fullscreenenter"",""5"",""10427""
","
","
","""event"",""trial"",""time""
""fullscreenenter"",""5"",""10427""
","
","","images/earth.jpg","","","","","","","","","","","","","","fixation","","","","","",""
"d3-animate-choice","241","512555","0.0-77.0-0.35","7","5617","8","Female","false","false","true","false","""event"",""trial"",""time""
""fullscreenenter"",""5"",""10427""
","
","
","""event"",""trial"",""time""
""fullscreenenter"",""5"",""10427""
","
","3024.89999999851","","49","","","3000","0","","","images/earth.jpg","images/rocket1","images/rocket2","null","","","1","real","null","1","","",""
"d3-animate-choice","242","513564","0.0-77.0-1.35","7","5617","8","Female","false","false","true","false","""event"",""trial"",""time""
""fullscreenenter"",""5"",""10427""
","
","
","""event"",""trial"",""time""
""fullscreenenter"",""5"",""10427""
","
","null","","null","","","0","0","","","images/earth.jpg","images/rocket1","images/rocket2","null","","","2","real","null","","","0","2022-12-31 21:45:47.245"
"two-step-fixation","243","514567","0.0-77.0-2.35","7","5617","8","Female","false","false","true","false","""event"",""trial"",""time""
""fullscreenenter"",""5"",""10427""
","
","
","""event"",""trial"",""time""
""fullscreenenter"",""5"",""10427""
","
","","images/earth.jpg","","","","","","","","","","","","","","fixation","","","","","",""
"d3-animate-choice","244","516866","0.0-77.0-0.36","7","5617","8","Female","false","false","true","false","""event"",""trial"",""time""
""fullscreenenter"",""5"",""10427""
","
","
","""event"",""trial"",""time""
""fullscreenenter"",""5"",""10427""
","
","294.6000000014901","","49","","","3000","1","","","images/earth.jpg","images/rocket1","images/rocket2","null","images/rocket2","","1","real","null","1","","",""
"d3-animate-choice","245","519146","0.0-77.0-1.36","7","5617","8","Female","false","false","true","false","""event"",""trial"",""time""
""fullscreenenter"",""5"",""10427""
","
","
","""event"",""trial"",""time""
""fullscreenenter"",""5"",""10427""
","
","274.3999999985099","","49","","","3000","1","1940","49","images/purpleplanet.jpg","images/alien4","images/alien3","images/rocket2","images/alien3","images/nothing.png","2","real","false","1","rare","0","2022-12-31 21:45:52.827"
"two-step-fixation","246","520150","0.0-77.0-2.36","7","5617","8","Female","false","false","true","false","""event"",""trial"",""time""
""fullscreenenter"",""5"",""10427""
","
","
","""event"",""trial"",""time""
""fullscreenenter"",""5"",""10427""
","
","","images/earth.jpg","","","","","","","","","","","","","","fixation","","","","","",""
"d3-animate-choice","247","522449","0.0-77.0-0.37","7","5617","8","Female","false","false","true","false","""event"",""trial"",""time""
""fullscreenenter"",""5"",""10427""
","
","
","""event"",""trial"",""time""
""fullscreenenter"",""5"",""10427""
","
","292.80000000074506","","49","","","3000","1","","","images/earth.jpg","images/rocket1","images/rocket2","null","images/rocket2","","1","real","null","1","","",""
"d3-animate-choice","248","524639","0.0-77.0-1.37","7","5617","8","Female","false","false","true","false","""event"",""trial"",""time""
""fullscreenenter"",""5"",""10427""
","
","
","""event"",""trial"",""time""
""fullscreenenter"",""5"",""10427""
","
","185.40000000223517","","49","","","3000","1","2095.7000000029802","49","images/redplanet1.jpg","images/alien2","images/alien1","images/rocket2","images/alien1","images/t.png","2","real","true","1","common","1","2022-12-31 21:45:58.320"
"two-step-fixation","249","525643","0.0-77.0-2.37","7","5617","8","Female","false","false","true","false","""event"",""trial"",""time""
""fullscreenenter"",""5"",""10427""
","
","
","""event"",""trial"",""time""
""fullscreenenter"",""5"",""10427""
","
","","images/earth.jpg","","","","","","","","","","","","","","fixation","","","","","",""
"d3-animate-choice","250","527652","0.0-77.0-0.38","7","5617","8","Female","false","false","true","false","""event"",""trial"",""time""
""fullscreenenter"",""5"",""10427""
","
","
","""event"",""trial"",""time""
""fullscreenenter"",""5"",""10427""
","
","5.100000001490116","","49","","","3000","1","","","images/earth.jpg","images/rocket1","images/rocket2","null","images/rocket2","","1","real","null","1","","",""
"d3-animate-choice","251","529846","0.0-77.0-1.38","7","5617","8","Female","false","false","true","false","""event"",""trial"",""time""
""fullscreenenter"",""5"",""10427""
","
","
","""event"",""trial"",""time""
""fullscreenenter"",""5"",""10427""
","
","190.69999999925494","","49","","","3000","1","","","images/redplanet1.jpg","images/alien2","images/alien1","images/rocket2","images/alien1","images/nothing.png","2","real","true","1","common","0","2022-12-31 21:46:03.527"
"two-step-fixation","252","530850","0.0-77.0-2.38","7","5617","8","Female","false","false","true","false","""event"",""trial"",""time""
""fullscreenenter"",""5"",""10427""
","
","
","""event"",""trial"",""time""
""fullscreenenter"",""5"",""10427""
","
","","images/earth.jpg","","","","","","","","","","","","","","fixation","","","","","",""
"d3-animate-choice","253","533766","0.0-77.0-0.39","7","5617","8","Female","false","false","true","false","""event"",""trial"",""time""
""fullscreenenter"",""5"",""10427""
","
","
","""event"",""trial"",""time""
""fullscreenenter"",""5"",""10427""
","
","911.5","","49","","","3000","1","","","images/earth.jpg","images/rocket1","images/rocket2","null","images/rocket2","","1","real","null","1","","",""
"d3-animate-choice","254","536514","0.0-77.0-1.39","7","5617","8","Female","false","false","true","false","""event"",""trial"",""time""
