"trial_type","trial_index","time_elapsed","internal_node_id","participant_id","subject_id","age","gender","rocket_sides","red_planet_first_rocket","red_display_order","purple_display_order","interactions","blur_events","focus_events","fullscreenenter_events","fullscreenexit_events","rt","stimulus","key_press","button_pressed","success","duration","valid_pressed","rts","keys","planet_text","right_text","left_text","center_text","chosen_text","reward_text","trial_stage","practice_trial","transition_type","choice","transition","reward","timestamp"
"pavlovia","0","69","0.0-0.0","3535","6465","12","Female","false","false","true","true","""event"",""trial"",""time""
""blur"",""0"",""0""
""focus"",""1"",""181177""
","""event"",""trial"",""time""
""blur"",""0"",""0""
","""event"",""trial"",""time""
""focus"",""1"",""181177""
","
","
","","","","","","","","","","","","","","","","","","","","","",""
"html-keyboard-response","1","183054","0.0-1.0","3535","6465","12","Female","false","false","true","true","""event"",""trial"",""time""
""blur"",""0"",""0""
""focus"",""1"",""181177""
","""event"",""trial"",""time""
""blur"",""0"",""0""
","""event"",""trial"",""time""
""focus"",""1"",""181177""
","
","
","182961.80000001192","Welcome! Press the space bar to begin.","32","","","","","","","","","","","","","","","","","","",""
"audio-keyboard-response","2","186493","0.0-2.0","3535","6465","12","Female","false","false","true","true","""event"",""trial"",""time""
""blur"",""0"",""0""
""focus"",""1"",""181177""
","""event"",""trial"",""time""
""blur"",""0"",""0""
","""event"",""trial"",""time""
""focus"",""1"",""181177""
","
","
","2920","audio/beep_loop.wav","32","","","","","","","","","","","","","","","","","","",""
"audio-button-response","3","190939","0.0-3.0","3535","6465","12","Female","false","false","true","true","""event"",""trial"",""time""
""blur"",""0"",""0""
""focus"",""1"",""181177""
","""event"",""trial"",""time""
""blur"",""0"",""0""
","""event"",""trial"",""time""
""focus"",""1"",""181177""
","
","
","NaN","audio/fish.mp3","","1","","","","","","","","","","","","","","","","","",""
"audio-button-response","4","193831","0.0-4.0","3535","6465","12","Female","false","false","true","true","""event"",""trial"",""time""
""blur"",""0"",""0""
""focus"",""1"",""181177""
""fullscreenenter"",""5"",""198285""
","""event"",""trial"",""time""
""blur"",""0"",""0""
","""event"",""trial"",""time""
""focus"",""1"",""181177""
","""event"",""trial"",""time""
""fullscreenenter"",""5"",""198285""
","
","NaN","audio/tiger.mp3","","4","","","","","","","","","","","","","","","","","",""
"fullscreen","5","199225","0.0-5.0","3535","6465","12","Female","false","false","true","true","""event"",""trial"",""time""
""blur"",""0"",""0""
""focus"",""1"",""181177""
""fullscreenenter"",""5"",""198285""
","""event"",""trial"",""time""
""blur"",""0"",""0""
","""event"",""trial"",""time""
""focus"",""1"",""181177""
","""event"",""trial"",""time""
""fullscreenenter"",""5"",""198285""
","
","","","","","true","","","","","","","","","","","","","","","","",""
"d3-instructions","6","211836","0.0-6.0","3535","6465","12","Female","false","false","true","true","""event"",""trial"",""time""
""blur"",""0"",""0""
""focus"",""1"",""181177""
""fullscreenenter"",""5"",""198285""
","""event"",""trial"",""time""
""blur"",""0"",""0""
","""event"",""trial"",""time""
""focus"",""1"",""181177""
","""event"",""trial"",""time""
""fullscreenenter"",""5"",""198285""
","
","","","","","","","","","","","","","","","","","","","","","",""
"d3-instructions","7","221707","0.0-7.0","3535","6465","12","Female","false","false","true","true","""event"",""trial"",""time""
""blur"",""0"",""0""
""focus"",""1"",""181177""
""fullscreenenter"",""5"",""198285""
","""event"",""trial"",""time""
""blur"",""0"",""0""
","""event"",""trial"",""time""
""focus"",""1"",""181177""
","""event"",""trial"",""time""
""fullscreenenter"",""5"",""198285""
","
","","","","","","","","","","","","","","","","","","","","","",""
"d3-instructions","8","229328","0.0-8.0","3535","6465","12","Female","false","false","true","true","""event"",""trial"",""time""
""blur"",""0"",""0""
""focus"",""1"",""181177""
""fullscreenenter"",""5"",""198285""
","""event"",""trial"",""time""
""blur"",""0"",""0""
","""event"",""trial"",""time""
""focus"",""1"",""181177""
","""event"",""trial"",""time""
""fullscreenenter"",""5"",""198285""
","
","","","","","","","","","","","","","","","","","","","","","",""
"d3-instructions","9","239904","0.0-9.0","3535","6465","12","Female","false","false","true","true","""event"",""trial"",""time""
""blur"",""0"",""0""
""focus"",""1"",""181177""
""fullscreenenter"",""5"",""198285""
","""event"",""trial"",""time""
""blur"",""0"",""0""
","""event"",""trial"",""time""
""focus"",""1"",""181177""
","""event"",""trial"",""time""
""fullscreenenter"",""5"",""198285""
","
","","","","","","","","","","","","","","","","","","","","","",""
"d3-instructions","10","254291","0.0-10.0","3535","6465","12","Female","false","false","true","true","""event"",""trial"",""time""
""blur"",""0"",""0""
""focus"",""1"",""181177""
""fullscreenenter"",""5"",""198285""
","""event"",""trial"",""time""
""blur"",""0"",""0""
","""event"",""trial"",""time""
""focus"",""1"",""181177""
","""event"",""trial"",""time""
""fullscreenenter"",""5"",""198285""
","
","","","","","","","","","","","","","","","","","","","","","",""
"d3-animate-choice","11","257347","0.0-11.0","3535","6465","12","Female","false","false","true","true","""event"",""trial"",""time""
""blur"",""0"",""0""
""focus"",""1"",""181177""
""fullscreenenter"",""5"",""198285""
","""event"",""trial"",""time""
""blur"",""0"",""0""
","""event"",""trial"",""time""
""focus"",""1"",""181177""
","""event"",""trial"",""time""
""fullscreenenter"",""5"",""198285""
","
","1013.6000000238419","","49","","","3000","1","","","images/tutgreenplanet.jpg","images/tutalien1","images/tutalien2","null","images/tutalien2","","NA","practice","null","","","",""
"d3-animate-choice","12","259891","0.0-12.0","3535","6465","12","Female","false","false","true","true","""event"",""trial"",""time""
""blur"",""0"",""0""
""focus"",""1"",""181177""
""fullscreenenter"",""5"",""198285""
","""event"",""trial"",""time""
""blur"",""0"",""0""
","""event"",""trial"",""time""
""focus"",""1"",""181177""
","""event"",""trial"",""time""
""fullscreenenter"",""5"",""198285""
","
","534.8999999761581","","48","","","3000","1","","","images/tutgreenplanet.jpg","images/tutalien1","images/tutalien2","null","images/tutalien1","","NA","practice","null","","","",""
"d3-animate-choice","13","262411","0.0-13.0","3535","6465","12","Female","false","false","true","true","""event"",""trial"",""time""
""blur"",""0"",""0""
""focus"",""1"",""181177""
""fullscreenenter"",""5"",""198285""
","""event"",""trial"",""time""
""blur"",""0"",""0""
","""event"",""trial"",""time""
""focus"",""1"",""181177""
","""event"",""trial"",""time""
""fullscreenenter"",""5"",""198285""
","
","497.60000002384186","","49","","","3000","1","","","images/tutgreenplanet.jpg","images/tutalien1","images/tutalien2","null","images/tutalien2","","NA","practice","null","","","",""
"d3-animate-choice","14","264741","0.0-14.0","3535","6465","12","Female","false","false","true","true","""event"",""trial"",""time""
""blur"",""0"",""0""
""focus"",""1"",""181177""
""fullscreenenter"",""5"",""198285""
","""event"",""trial"",""time""
""blur"",""0"",""0""
","""event"",""trial"",""time""
""focus"",""1"",""181177""
","""event"",""trial"",""time""
""fullscreenenter"",""5"",""198285""
","
","315.5","","48","","","3000","1","","","images/tutgreenplanet.jpg","images/tutalien1","images/tutalien2","null","images/tutalien1","","NA","practice","null","","","",""
"d3-instructions","15","273063","0.0-15.0","3535","6465","12","Female","false","false","true","true","""event"",""trial"",""time""
""blur"",""0"",""0""
""focus"",""1"",""181177""
""fullscreenenter"",""5"",""198285""
","""event"",""trial"",""time""
""blur"",""0"",""0""
","""event"",""trial"",""time""
""focus"",""1"",""181177""
","""event"",""trial"",""time""
""fullscreenenter"",""5"",""198285""
","
","","","","","","","","","","","","","","","","","","","","","",""
"d3-instructions","16","282303","0.0-16.0","3535","6465","12","Female","false","false","true","true","""event"",""trial"",""time""
""blur"",""0"",""0""
""focus"",""1"",""181177""
""fullscreenenter"",""5"",""198285""
","""event"",""trial"",""time""
""blur"",""0"",""0""
","""event"",""trial"",""time""
""focus"",""1"",""181177""
","""event"",""trial"",""time""
""fullscreenenter"",""5"",""198285""
","
","","","","","","","","","","","","","","","","","","","","","",""
"d3-instructions","17","291331","0.0-17.0","3535","6465","12","Female","false","false","true","true","""event"",""trial"",""time""
""blur"",""0"",""0""
""focus"",""1"",""181177""
""fullscreenenter"",""5"",""198285""
","""event"",""trial"",""time""
""blur"",""0"",""0""
","""event"",""trial"",""time""
""focus"",""1"",""181177""
","""event"",""trial"",""time""
""fullscreenenter"",""5"",""198285""
","
","","","","","","","","","","","","","","","","","","","","","",""
"d3-instructions","18","304157","0.0-18.0","3535","6465","12","Female","false","false","true","true","""event"",""trial"",""time""
""blur"",""0"",""0""
""focus"",""1"",""181177""
""fullscreenenter"",""5"",""198285""
","""event"",""trial"",""time""
""blur"",""0"",""0""
","""event"",""trial"",""time""
""focus"",""1"",""181177""
","""event"",""trial"",""time""
""fullscreenenter"",""5"",""198285""
","
","","","","","","","","","","","","","","","","","","","","","",""
"d3-instructions","19","310783","0.0-19.0","3535","6465","12","Female","false","false","true","true","""event"",""trial"",""time""
""blur"",""0"",""0""
""focus"",""1"",""181177""
""fullscreenenter"",""5"",""198285""
","""event"",""trial"",""time""
""blur"",""0"",""0""
","""event"",""trial"",""time""
""focus"",""1"",""181177""
","""event"",""trial"",""time""
""fullscreenenter"",""5"",""198285""
","
","","","","","","","","","","","","","","","","","","","","","",""
"d3-animate-choice","20","313763","0.0-20.0","3535","6465","12","Female","false","false","true","true","""event"",""trial"",""time""
""blur"",""0"",""0""
""focus"",""1"",""181177""
""fullscreenenter"",""5"",""198285""
","""event"",""trial"",""time""
""blur"",""0"",""0""
","""event"",""trial"",""time""
""focus"",""1"",""181177""
","""event"",""trial"",""time""
""fullscreenenter"",""5"",""198285""
","
","957.3000000119209","","49","","","3000","1","2565.300000011921","49","images/tutyellowplanet.jpg","null","images/tutalien3","null","images/tutalien3","images/nothing.png","NA","practice","null","","","",""
"d3-animate-choice","21","316282","0.0-21.0","3535","6465","12","Female","false","false","true","true","""event"",""trial"",""time""
""blur"",""0"",""0""
""focus"",""1"",""181177""
""fullscreenenter"",""5"",""198285""
","""event"",""trial"",""time""
""blur"",""0"",""0""
","""event"",""trial"",""time""
""focus"",""1"",""181177""
","""event"",""trial"",""time""
""fullscreenenter"",""5"",""198285""
","
","505.60000002384186","","49","","","3000","1","","","images/tutyellowplanet.jpg","null","images/tutalien3","null","images/tutalien3","images/t.png","NA","practice","null","","","",""
"d3-animate-choice","22","318682","0.0-22.0","3535","6465","12","Female","false","false","true","true","""event"",""trial"",""time""
""blur"",""0"",""0""
""focus"",""1"",""181177""
""fullscreenenter"",""5"",""198285""
","""event"",""trial"",""time""
""blur"",""0"",""0""
","""event"",""trial"",""time""
""focus"",""1"",""181177""
","""event"",""trial"",""time""
""fullscreenenter"",""5"",""198285""
","
","375.80000001192093","","49","","","3000","1","","","images/tutyellowplanet.jpg","null","images/tutalien3","null","images/tutalien3","images/t.png","NA","practice","null","","","",""
"d3-animate-choice","23","321052","0.0-23.0","3535","6465","12","Female","false","false","true","true","""event"",""trial"",""time""
""blur"",""0"",""0""
""focus"",""1"",""181177""
""fullscreenenter"",""5"",""198285""
","""event"",""trial"",""time""
""blur"",""0"",""0""
","""event"",""trial"",""time""
""focus"",""1"",""181177""
","""event"",""trial"",""time""
""fullscreenenter"",""5"",""198285""
","
","349.5","","49","","","3000","1","","","images/tutyellowplanet.jpg","null","images/tutalien3","null","images/tutalien3","images/nothing.png","NA","practice","null","","","",""
"d3-animate-choice","24","323542","0.0-24.0","3535","6465","12","Female","false","false","true","true","""event"",""trial"",""time""
""blur"",""0"",""0""
""focus"",""1"",""181177""
""fullscreenenter"",""5"",""198285""
","""event"",""trial"",""time""
""blur"",""0"",""0""
","""event"",""trial"",""time""
""focus"",""1"",""181177""
","""event"",""trial"",""time""
""fullscreenenter"",""5"",""198285""
","
","485.4000000357628","","49","","","3000","1","","","images/tutyellowplanet.jpg","null","images/tutalien3","null","images/tutalien3","images/t.png","NA","practice","null","","","",""
"d3-animate-choice","25","325908","0.0-25.0","3535","6465","12","Female","false","false","true","true","""event"",""trial"",""time""
""blur"",""0"",""0""
""focus"",""1"",""181177""
""fullscreenenter"",""5"",""198285""
","""event"",""trial"",""time""
""blur"",""0"",""0""
","""event"",""trial"",""time""
""focus"",""1"",""181177""
","""event"",""trial"",""time""
""fullscreenenter"",""5"",""198285""
","
","359.7000000476837","","49","","","3000","1","","","images/tutyellowplanet.jpg","null","images/tutalien3","null","images/tutalien3","images/nothing.png","NA","practice","null","","","",""
"d3-animate-choice","26","328422","0.0-26.0","3535","6465","12","Female","false","false","true","true","""event"",""trial"",""time""
""blur"",""0"",""0""
""focus"",""1"",""181177""
""fullscreenenter"",""5"",""198285""
","""event"",""trial"",""time""
""blur"",""0"",""0""
","""event"",""trial"",""time""
""focus"",""1"",""181177""
","""event"",""trial"",""time""
""fullscreenenter"",""5"",""198285""
","
","510.30000001192093","","49","","","3000","1","","","images/tutyellowplanet.jpg","null","images/tutalien3","null","images/tutalien3","images/t.png","NA","practice","null","","","",""
"d3-animate-choice","27","331052","0.0-27.0","3535","6465","12","Female","false","false","true","true","""event"",""trial"",""time""
""blur"",""0"",""0""
""focus"",""1"",""181177""
""fullscreenenter"",""5"",""198285""
","""event"",""trial"",""time""
""blur"",""0"",""0""
","""event"",""trial"",""time""
""focus"",""1"",""181177""
","""event"",""trial"",""time""
""fullscreenenter"",""5"",""198285""
","
","610.8000000119209","","49","","","3000","1","","","images/tutyellowplanet.jpg","null","images/tutalien3","null","images/tutalien3","images/nothing.png","NA","practice","null","","","",""
"d3-animate-choice","28","333917","0.0-28.0","3535","6465","12","Female","false","false","true","true","""event"",""trial"",""time""
""blur"",""0"",""0""
""focus"",""1"",""181177""
""fullscreenenter"",""5"",""198285""
","""event"",""trial"",""time""
""blur"",""0"",""0""
","""event"",""trial"",""time""
""focus"",""1"",""181177""
","""event"",""trial"",""time""
""fullscreenenter"",""5"",""198285""
","
","855","","49","","","3000","1","","","images/tutyellowplanet.jpg","null","images/tutalien3","null","images/tutalien3","images/nothing.png","NA","practice","null","","","",""
"d3-animate-choice","29","337012","0.0-29.0","3535","6465","12","Female","false","false","true","true","""event"",""trial"",""time""
""blur"",""0"",""0""
""focus"",""1"",""181177""
""fullscreenenter"",""5"",""198285""
","""event"",""trial"",""time""
""blur"",""0"",""0""
","""event"",""trial"",""time""
""focus"",""1"",""181177""
","""event"",""trial"",""time""
""fullscreenenter"",""5"",""198285""
","
","1083.7000000476837","","49","","","3000","1","","","images/tutyellowplanet.jpg","null","images/tutalien3","null","images/tutalien3","images/t.png","NA","practice","null","","","",""
"d3-instructions","30","345124","0.0-30.0","3535","6465","12","Female","false","false","true","true","""event"",""trial"",""time""
""blur"",""0"",""0""
""focus"",""1"",""181177""
""fullscreenenter"",""5"",""198285""
","""event"",""trial"",""time""
""blur"",""0"",""0""
","""event"",""trial"",""time""
""focus"",""1"",""181177""
","""event"",""trial"",""time""
""fullscreenenter"",""5"",""198285""
","
","","","","","","","","","","","","","","","","","","","","","",""
"d3-instructions","31","353195","0.0-31.0","3535","6465","12","Female","false","false","true","true","""event"",""trial"",""time""
""blur"",""0"",""0""
""focus"",""1"",""181177""
""fullscreenenter"",""5"",""198285""
","""event"",""trial"",""time""
""blur"",""0"",""0""
","""event"",""trial"",""time""
""focus"",""1"",""181177""
","""event"",""trial"",""time""
""fullscreenenter"",""5"",""198285""
","
","","","","","","","","","","","","","","","","","","","","","",""
"d3-instructions","32","358201","0.0-32.0","3535","6465","12","Female","false","false","true","true","""event"",""trial"",""time""
""blur"",""0"",""0""
""focus"",""1"",""181177""
""fullscreenenter"",""5"",""198285""
","""event"",""trial"",""time""
""blur"",""0"",""0""
","""event"",""trial"",""time""
""focus"",""1"",""181177""
","""event"",""trial"",""time""
""fullscreenenter"",""5"",""198285""
","
","","","","","","","","","","","","","","","","","","","","","",""
"d3-instructions","33","361648","0.0-33.0","3535","6465","12","Female","false","false","true","true","""event"",""trial"",""time""
""blur"",""0"",""0""
""focus"",""1"",""181177""
""fullscreenenter"",""5"",""198285""
","""event"",""trial"",""time""
""blur"",""0"",""0""
","""event"",""trial"",""time""
""focus"",""1"",""181177""
","""event"",""trial"",""time""
""fullscreenenter"",""5"",""198285""
","
","","","","","","","","","","","","","","","","","","","","","",""
"d3-animate-choice","34","364678","0.0-34.0","3535","6465","12","Female","false","false","true","true","""event"",""trial"",""time""
""blur"",""0"",""0""
""focus"",""1"",""181177""
""fullscreenenter"",""5"",""198285""
","""event"",""trial"",""time""
""blur"",""0"",""0""
","""event"",""trial"",""time""
""focus"",""1"",""181177""
","""event"",""trial"",""time""
""fullscreenenter"",""5"",""198285""
","
","1020.3000000119209","","49","","","3000","1","","","images/tutgreenplanet.jpg","images/tutalien1","images/tutalien2","null","images/tutalien2","images/t.png","NA","practice","null","","","",""
"d3-animate-choice","35","367170","0.0-35.0","3535","6465","12","Female","false","false","true","true","""event"",""trial"",""time""
""blur"",""0"",""0""
""focus"",""1"",""181177""
""fullscreenenter"",""5"",""198285""
","""event"",""trial"",""time""
""blur"",""0"",""0""
","""event"",""trial"",""time""
""focus"",""1"",""181177""
","""event"",""trial"",""time""
""fullscreenenter"",""5"",""198285""
","
","484.60000002384186","","49","","","3000","1","","","images/tutgreenplanet.jpg","images/tutalien1","images/tutalien2","null","images/tutalien2","images/t.png","NA","practice","null","","","",""
"d3-animate-choice","36","369781","0.0-36.0","3535","6465","12","Female","false","false","true","true","""event"",""trial"",""time""
""blur"",""0"",""0""
""focus"",""1"",""181177""
""fullscreenenter"",""5"",""198285""
","""event"",""trial"",""time""
""blur"",""0"",""0""
","""event"",""trial"",""time""
""focus"",""1"",""181177""
","""event"",""trial"",""time""
""fullscreenenter"",""5"",""198285""
","
","592.2000000476837","","48","","","3000","1","","","images/tutgreenplanet.jpg","images/tutalien1","images/tutalien2","null","images/tutalien1","images/nothing.png","NA","practice","null","","","",""
"d3-animate-choice","37","372151","0.0-37.0","3535","6465","12","Female","false","false","true","true","""event"",""trial"",""time""
""blur"",""0"",""0""
""focus"",""1"",""181177""
""fullscreenenter"",""5"",""198285""
","""event"",""trial"",""time""
""blur"",""0"",""0""
","""event"",""trial"",""time""
""focus"",""1"",""181177""
","""event"",""trial"",""time""
""fullscreenenter"",""5"",""198285""
","
","360.69999998807907","","48","","","3000","1","","","images/tutgreenplanet.jpg","images/tutalien1","images/tutalien2","null","images/tutalien1","images/t.png","NA","practice","null","","","",""
"d3-animate-choice","38","374541","0.0-38.0","3535","6465","12","Female","false","false","true","true","""event"",""trial"",""time""
""blur"",""0"",""0""
""focus"",""1"",""181177""
""fullscreenenter"",""5"",""198285""
","""event"",""trial"",""time""
""blur"",""0"",""0""
","""event"",""trial"",""time""
""focus"",""1"",""181177""
","""event"",""trial"",""time""
""fullscreenenter"",""5"",""198285""
","
","375.89999997615814","","49","","","3000","1","","","images/tutgreenplanet.jpg","images/tutalien1","images/tutalien2","null","images/tutalien2","images/t.png","NA","practice","null","","","",""
"d3-animate-choice","39","376813","0.0-39.0","3535","6465","12","Female","false","false","true","true","""event"",""trial"",""time""
""blur"",""0"",""0""
""focus"",""1"",""181177""
""fullscreenenter"",""5"",""198285""
","""event"",""trial"",""time""
""blur"",""0"",""0""
","""event"",""trial"",""time""
""focus"",""1"",""181177""
","""event"",""trial"",""time""
""fullscreenenter"",""5"",""198285""
","
","261.10000002384186","","49","","","3000","1","","","images/tutgreenplanet.jpg","images/tutalien1","images/tutalien2","null","images/tutalien2","images/nothing.png","NA","practice","null","","","",""
"d3-animate-choice","40","379412","0.0-40.0","3535","6465","12","Female","false","false","true","true","""event"",""trial"",""time""
""blur"",""0"",""0""
""focus"",""1"",""181177""
""fullscreenenter"",""5"",""198285""
","""event"",""trial"",""time""
""blur"",""0"",""0""
","""event"",""trial"",""time""
""focus"",""1"",""181177""
","""event"",""trial"",""time""
""fullscreenenter"",""5"",""198285""
","
","583.5","","49","","","3000","1","","","images/tutgreenplanet.jpg","images/tutalien1","images/tutalien2","null","images/tutalien2","images/t.png","NA","practice","null","","","",""
"d3-animate-choice","41","381981","0.0-41.0","3535","6465","12","Female","false","false","true","true","""event"",""trial"",""time""
""blur"",""0"",""0""
""focus"",""1"",""181177""
""fullscreenenter"",""5"",""198285""
","""event"",""trial"",""time""
""blur"",""0"",""0""
","""event"",""trial"",""time""
""focus"",""1"",""181177""
","""event"",""trial"",""time""
""fullscreenenter"",""5"",""198285""
","
","560.8000000119209","","48","","","3000","1","2549.300000011921","49","images/tutgreenplanet.jpg","images/tutalien1","images/tutalien2","null","images/tutalien1","images/nothing.png","NA","practice","null","","","",""
"d3-animate-choice","42","385082","0.0-42.0","3535","6465","12","Female","false","false","true","true","""event"",""trial"",""time""
""blur"",""0"",""0""
""focus"",""1"",""181177""
""fullscreenenter"",""5"",""198285""
","""event"",""trial"",""time""
""blur"",""0"",""0""
","""event"",""trial"",""time""
""focus"",""1"",""181177""
","""event"",""trial"",""time""
""fullscreenenter"",""5"",""198285""
","
","1082.2000000476837","","49","","","3000","1","","","images/tutgreenplanet.jpg","images/tutalien1","images/tutalien2","null","images/tutalien2","images/t.png","NA","practice","null","","","",""
"d3-animate-choice","43","387531","0.0-43.0","3535","6465","12","Female","false","false","true","true","""event"",""trial"",""time""
""blur"",""0"",""0""
""focus"",""1"",""181177""
""fullscreenenter"",""5"",""198285""
","""event"",""trial"",""time""
""blur"",""0"",""0""
","""event"",""trial"",""time""
""focus"",""1"",""181177""
","""event"",""trial"",""time""
""fullscreenenter"",""5"",""198285""
","
","438.30000001192093","","48","","","3000","1","","","images/tutgreenplanet.jpg","images/tutalien1","images/tutalien2","null","images/tutalien1","images/nothing.png","NA","practice","null","","","",""
"d3-instructions","44","428228","0.0-44.0","3535","6465","12","Female","false","false","true","true","""event"",""trial"",""time""
""blur"",""0"",""0""
""focus"",""1"",""181177""
""fullscreenenter"",""5"",""198285""
","""event"",""trial"",""time""
""blur"",""0"",""0""
","""event"",""trial"",""time""
""focus"",""1"",""181177""
","""event"",""trial"",""time""
""fullscreenenter"",""5"",""198285""
","
","","","","","","","","","","","","","","","","","","","","","",""
"d3-instructions","45","430332","0.0-45.0","3535","6465","12","Female","false","false","true","true","""event"",""trial"",""time""
""blur"",""0"",""0""
""focus"",""1"",""181177""
""fullscreenenter"",""5"",""198285""
","""event"",""trial"",""time""
""blur"",""0"",""0""
","""event"",""trial"",""time""
""focus"",""1"",""181177""
","""event"",""trial"",""time""
""fullscreenenter"",""5"",""198285""
","
","","","","","","","","","","","","","","","","","","","","","",""
"d3-instructions","46","433033","0.0-46.0","3535","6465","12","Female","false","false","true","true","""event"",""trial"",""time""
""blur"",""0"",""0""
""focus"",""1"",""181177""
""fullscreenenter"",""5"",""198285""
","""event"",""trial"",""time""
""blur"",""0"",""0""
","""event"",""trial"",""time""
""focus"",""1"",""181177""
","""event"",""trial"",""time""
""fullscreenenter"",""5"",""198285""
","
","","","","","","","","","","","","","","","","","","","","","",""
"d3-instructions","47","437265","0.0-47.0","3535","6465","12","Female","false","false","true","true","""event"",""trial"",""time""
""blur"",""0"",""0""
""focus"",""1"",""181177""
""fullscreenenter"",""5"",""198285""
","""event"",""trial"",""time""
""blur"",""0"",""0""
","""event"",""trial"",""time""
""focus"",""1"",""181177""
","""event"",""trial"",""time""
""fullscreenenter"",""5"",""198285""
","
","","","","","","","","","","","","","","","","","","","","","",""
"d3-instructions","48","439802","0.0-48.0","3535","6465","12","Female","false","false","true","true","""event"",""trial"",""time""
""blur"",""0"",""0""
""focus"",""1"",""181177""
""fullscreenenter"",""5"",""198285""
","""event"",""trial"",""time""
""blur"",""0"",""0""
","""event"",""trial"",""time""
""focus"",""1"",""181177""
","""event"",""trial"",""time""
""fullscreenenter"",""5"",""198285""
","
","","","","","","","","","","","","","","","","","","","","","",""
"d3-instructions","49","441755","0.0-49.0","3535","6465","12","Female","false","false","true","true","""event"",""trial"",""time""
""blur"",""0"",""0""
""focus"",""1"",""181177""
""fullscreenenter"",""5"",""198285""
","""event"",""trial"",""time""
""blur"",""0"",""0""
","""event"",""trial"",""time""
""focus"",""1"",""181177""
","""event"",""trial"",""time""
""fullscreenenter"",""5"",""198285""
","
","","","","","","","","","","","","","","","","","","","","","",""
"d3-instructions","50","443559","0.0-50.0","3535","6465","12","Female","false","false","true","true","""event"",""trial"",""time""
""blur"",""0"",""0""
""focus"",""1"",""181177""
""fullscreenenter"",""5"",""198285""
","""event"",""trial"",""time""
""blur"",""0"",""0""
","""event"",""trial"",""time""
""focus"",""1"",""181177""
","""event"",""trial"",""time""
""fullscreenenter"",""5"",""198285""
","
","","","","","","","","","","","","","","","","","","","","","",""
"d3-instructions","51","445262","0.0-51.0","3535","6465","12","Female","false","false","true","true","""event"",""trial"",""time""
""blur"",""0"",""0""
""focus"",""1"",""181177""
""fullscreenenter"",""5"",""198285""
","""event"",""trial"",""time""
""blur"",""0"",""0""
","""event"",""trial"",""time""
""focus"",""1"",""181177""
","""event"",""trial"",""time""
""fullscreenenter"",""5"",""198285""
","
","","","","","","","","","","","","","","","","","","","","","",""
"d3-instructions","52","448990","0.0-52.0","3535","6465","12","Female","false","false","true","true","""event"",""trial"",""time""
""blur"",""0"",""0""
""focus"",""1"",""181177""
""fullscreenenter"",""5"",""198285""
","""event"",""trial"",""time""
""blur"",""0"",""0""
","""event"",""trial"",""time""
""focus"",""1"",""181177""
","""event"",""trial"",""time""
""fullscreenenter"",""5"",""198285""
","
","","","","","","","","","","","","","","","","","","","","","",""
"d3-instructions","53","451239","0.0-53.0","3535","6465","12","Female","false","false","true","true","""event"",""trial"",""time""
""blur"",""0"",""0""
""focus"",""1"",""181177""
""fullscreenenter"",""5"",""198285""
","""event"",""trial"",""time""
""blur"",""0"",""0""
","""event"",""trial"",""time""
""focus"",""1"",""181177""
","""event"",""trial"",""time""
""fullscreenenter"",""5"",""198285""
","
","","","","","","","","","","","","","","","","","","","","","",""
"d3-instructions","54","453018","0.0-54.0","3535","6465","12","Female","false","false","true","true","""event"",""trial"",""time""
""blur"",""0"",""0""
""focus"",""1"",""181177""
""fullscreenenter"",""5"",""198285""
","""event"",""trial"",""time""
""blur"",""0"",""0""
","""event"",""trial"",""time""
""focus"",""1"",""181177""
","""event"",""trial"",""time""
""fullscreenenter"",""5"",""198285""
","
","","","","","","","","","","","","","","","","","","","","","",""
"d3-instructions","55","456381","0.0-55.0","3535","6465","12","Female","false","false","true","true","""event"",""trial"",""time""
""blur"",""0"",""0""
""focus"",""1"",""181177""
""fullscreenenter"",""5"",""198285""
","""event"",""trial"",""time""
""blur"",""0"",""0""
","""event"",""trial"",""time""
""focus"",""1"",""181177""
","""event"",""trial"",""time""
""fullscreenenter"",""5"",""198285""
","
","","","","","","","","","","","","","","","","","","","","","",""
"d3-instructions","56","458609","0.0-56.0","3535","6465","12","Female","false","false","true","true","""event"",""trial"",""time""
""blur"",""0"",""0""
""focus"",""1"",""181177""
""fullscreenenter"",""5"",""198285""
","""event"",""trial"",""time""
""blur"",""0"",""0""
","""event"",""trial"",""time""
""focus"",""1"",""181177""
","""event"",""trial"",""time""
""fullscreenenter"",""5"",""198285""
","
","","","","","","","","","","","","","","","","","","","","","",""
"d3-instructions","57","461926","0.0-57.0","3535","6465","12","Female","false","false","true","true","""event"",""trial"",""time""
""blur"",""0"",""0""
""focus"",""1"",""181177""
""fullscreenenter"",""5"",""198285""
","""event"",""trial"",""time""
""blur"",""0"",""0""
","""event"",""trial"",""time""
""focus"",""1"",""181177""
","""event"",""trial"",""time""
""fullscreenenter"",""5"",""198285""
","
","","","","","","","","","","","","","","","","","","","","","",""
"d3-instructions","58","464346","0.0-58.0","3535","6465","12","Female","false","false","true","true","""event"",""trial"",""time""
""blur"",""0"",""0""
""focus"",""1"",""181177""
""fullscreenenter"",""5"",""198285""
","""event"",""trial"",""time""
""blur"",""0"",""0""
","""event"",""trial"",""time""
""focus"",""1"",""181177""
","""event"",""trial"",""time""
""fullscreenenter"",""5"",""198285""
","
","","","","","","","","","","","","","","","","","","","","","",""
"d3-instructions","59","465794","0.0-59.0","3535","6465","12","Female","false","false","true","true","""event"",""trial"",""time""
""blur"",""0"",""0""
""focus"",""1"",""181177""
""fullscreenenter"",""5"",""198285""
","""event"",""trial"",""time""
""blur"",""0"",""0""
","""event"",""trial"",""time""
""focus"",""1"",""181177""
","""event"",""trial"",""time""
""fullscreenenter"",""5"",""198285""
","
","","","","","","","","","","","","","","","","","","","","","",""
"d3-instructions","60","468040","0.0-60.0","3535","6465","12","Female","false","false","true","true","""event"",""trial"",""time""
""blur"",""0"",""0""
""focus"",""1"",""181177""
""fullscreenenter"",""5"",""198285""
","""event"",""trial"",""time""
""blur"",""0"",""0""
","""event"",""trial"",""time""
""focus"",""1"",""181177""
","""event"",""trial"",""time""
""fullscreenenter"",""5"",""198285""
","
","","","","","","","","","","","","","","","","","","","","","",""
"d3-animate-choice","61","471542","0.0-61.0-0.0","3535","6465","12","Female","false","false","true","true","""event"",""trial"",""time""
""blur"",""0"",""0""
""focus"",""1"",""181177""
""fullscreenenter"",""5"",""198285""
","""event"",""trial"",""time""
""blur"",""0"",""0""
","""event"",""trial"",""time""
""focus"",""1"",""181177""
","""event"",""trial"",""time""
""fullscreenenter"",""5"",""198285""
","
","1490.6000000238419","","49","","","3000","1","","","images/earth.jpg","images/tutrocket1","images/tutrocket2","null","images/tutrocket2","","1","practice","null","1","","",""
"d3-animate-choice","62","474881","0.0-61.0-1.0","3535","6465","12","Female","false","false","true","true","""event"",""trial"",""time""
""blur"",""0"",""0""
""focus"",""1"",""181177""
""fullscreenenter"",""5"",""198285""
","""event"",""trial"",""time""
""blur"",""0"",""0""
","""event"",""trial"",""time""
""focus"",""1"",""181177""
","""event"",""trial"",""time""
""fullscreenenter"",""5"",""198285""
","
","1327.2999999523163","","49","","","3000","1","","","images/tutgreenplanet.jpg","images/tutalien2","images/tutalien1","images/tutrocket2","images/tutalien1","images/t.png","2","practice","true","1","common","1","2023-02-25 00:24:20.701"
"two-step-fixation","63","475922","0.0-61.0-2.0","3535","6465","12","Female","false","false","true","true","""event"",""trial"",""time""
""blur"",""0"",""0""
""focus"",""1"",""181177""
""fullscreenenter"",""5"",""198285""
","""event"",""trial"",""time""
""blur"",""0"",""0""
","""event"",""trial"",""time""
""focus"",""1"",""181177""
","""event"",""trial"",""time""
""fullscreenenter"",""5"",""198285""
","
","","images/earth.jpg","","","","","","","","","","","","","","fixation","","","","","",""
"d3-animate-choice","64","478433","0.0-61.0-0.1","3535","6465","12","Female","false","false","true","true","""event"",""trial"",""time""
""blur"",""0"",""0""
""focus"",""1"",""181177""
""fullscreenenter"",""5"",""198285""
","""event"",""trial"",""time""
""blur"",""0"",""0""
","""event"",""trial"",""time""
""focus"",""1"",""181177""
","""event"",""trial"",""time""
""fullscreenenter"",""5"",""198285""
","
","494.80000001192093","","49","","","3000","1","","","images/earth.jpg","images/tutrocket1","images/tutrocket2","null","images/tutrocket2","","1","practice","null","1","","",""
"d3-animate-choice","65","481012","0.0-61.0-1.1","3535","6465","12","Female","false","false","true","true","""event"",""trial"",""time""
""blur"",""0"",""0""
""focus"",""1"",""181177""
""fullscreenenter"",""5"",""198285""
","""event"",""trial"",""time""
""blur"",""0"",""0""
","""event"",""trial"",""time""
""focus"",""1"",""181177""
","""event"",""trial"",""time""
""fullscreenenter"",""5"",""198285""
","
","564.0999999642372","","49","","","3000","1","","","images/tutgreenplanet.jpg","images/tutalien2","images/tutalien1","images/tutrocket2","images/tutalien1","images/nothing.png","2","practice","true","1","common","0","2023-02-25 00:24:26.833"
"two-step-fixation","66","482032","0.0-61.0-2.1","3535","6465","12","Female","false","false","true","true","""event"",""trial"",""time""
""blur"",""0"",""0""
""focus"",""1"",""181177""
""fullscreenenter"",""5"",""198285""
","""event"",""trial"",""time""
""blur"",""0"",""0""
","""event"",""trial"",""time""
""focus"",""1"",""181177""
","""event"",""trial"",""time""
""fullscreenenter"",""5"",""198285""
","
","","images/earth.jpg","","","","","","","","","","","","","","fixation","","","","","",""
"d3-animate-choice","67","484428","0.0-61.0-0.2","3535","6465","12","Female","false","false","true","true","""event"",""trial"",""time""
""blur"",""0"",""0""
""focus"",""1"",""181177""
""fullscreenenter"",""5"",""198285""
","""event"",""trial"",""time""
""blur"",""0"",""0""
","""event"",""trial"",""time""
""focus"",""1"",""181177""
","""event"",""trial"",""time""
""fullscreenenter"",""5"",""198285""
","
","376.80000001192093","","48","","","3000","1","","","images/earth.jpg","images/tutrocket1","images/tutrocket2","null","images/tutrocket1","","1","practice","null","2","","",""
"d3-animate-choice","68","487097","0.0-61.0-1.2","3535","6465","12","Female","false","false","true","true","""event"",""trial"",""time""
""blur"",""0"",""0""
""focus"",""1"",""181177""
""fullscreenenter"",""5"",""198285""
","""event"",""trial"",""time""
""blur"",""0"",""0""
","""event"",""trial"",""time""
""focus"",""1"",""181177""
","""event"",""trial"",""time""
""fullscreenenter"",""5"",""198285""
","
","657.7999999523163","","48","","","3000","1","","","images/tutyellowplanet.jpg","images/tutalien4","images/tutalien3","images/tutrocket1","images/tutalien4","images/t.png","2","practice","true","2","common","1","2023-02-25 00:24:32.918"
"two-step-fixation","69","488108","0.0-61.0-2.2","3535","6465","12","Female","false","false","true","true","""event"",""trial"",""time""
""blur"",""0"",""0""
""focus"",""1"",""181177""
""fullscreenenter"",""5"",""198285""
","""event"",""trial"",""time""
""blur"",""0"",""0""
","""event"",""trial"",""time""
""focus"",""1"",""181177""
","""event"",""trial"",""time""
""fullscreenenter"",""5"",""198285""
","
","","images/earth.jpg","","","","","","","","","","","","","","fixation","","","","","",""
"d3-animate-choice","70","490456","0.0-61.0-0.3","3535","6465","12","Female","false","false","true","true","""event"",""trial"",""time""
""blur"",""0"",""0""
""focus"",""1"",""181177""
""fullscreenenter"",""5"",""198285""
","""event"",""trial"",""time""
""blur"",""0"",""0""
","""event"",""trial"",""time""
""focus"",""1"",""181177""
","""event"",""trial"",""time""
""fullscreenenter"",""5"",""198285""
","
","343.5999999642372","","48","","","3000","1","","","images/earth.jpg","images/tutrocket1","images/tutrocket2","null","images/tutrocket1","","1","practice","null","2","","",""
"d3-animate-choice","71","493077","0.0-61.0-1.3","3535","6465","12","Female","false","false","true","true","""event"",""trial"",""time""
""blur"",""0"",""0""
""focus"",""1"",""181177""
""fullscreenenter"",""5"",""198285""
","""event"",""trial"",""time""
""blur"",""0"",""0""
","""event"",""trial"",""time""
""focus"",""1"",""181177""
","""event"",""trial"",""time""
""fullscreenenter"",""5"",""198285""
","
","611.1999999880791","","48","","","3000","1","","","images/tutyellowplanet.jpg","images/tutalien4","images/tutalien3","images/tutrocket1","images/tutalien4","images/nothing.png","2","practice","true","2","common","0","2023-02-25 00:24:38.898"
"two-step-fixation","72","494099","0.0-61.0-2.3","3535","6465","12","Female","false","false","true","true","""event"",""trial"",""time""
""blur"",""0"",""0""
""focus"",""1"",""181177""
""fullscreenenter"",""5"",""198285""
","""event"",""trial"",""time""
""blur"",""0"",""0""
","""event"",""trial"",""time""
""focus"",""1"",""181177""
","""event"",""trial"",""time""
""fullscreenenter"",""5"",""198285""
","
","","images/earth.jpg","","","","","","","","","","","","","","fixation","","","","","",""
"d3-animate-choice","73","496158","0.0-61.0-0.4","3535","6465","12","Female","false","false","true","true","""event"",""trial"",""time""
""blur"",""0"",""0""
""focus"",""1"",""181177""
""fullscreenenter"",""5"",""198285""
","""event"",""trial"",""time""
""blur"",""0"",""0""
","""event"",""trial"",""time""
""focus"",""1"",""181177""
","""event"",""trial"",""time""
""fullscreenenter"",""5"",""198285""
","
","54.19999998807907","","49","","","3000","1","","","images/earth.jpg","images/tutrocket1","images/tutrocket2","null","images/tutrocket2","","1","practice","null","1","","",""
"d3-animate-choice","74","498578","0.0-61.0-1.4","3535","6465","12","Female","false","false","true","true","""event"",""trial"",""time""
""blur"",""0"",""0""
""focus"",""1"",""181177""
""fullscreenenter"",""5"",""198285""
","""event"",""trial"",""time""
""blur"",""0"",""0""
","""event"",""trial"",""time""
""focus"",""1"",""181177""
","""event"",""trial"",""time""
""fullscreenenter"",""5"",""198285""
","
","408.89999997615814","","49","","","3000","1","","","images/tutyellowplanet.jpg","images/tutalien4","images/tutalien3","images/tutrocket2","images/tutalien3","images/nothing.png","2","practice","false","1","rare","0","2023-02-25 00:24:44.398"
"two-step-fixation","75","499584","0.0-61.0-2.4","3535","6465","12","Female","false","false","true","true","""event"",""trial"",""time""
""blur"",""0"",""0""
""focus"",""1"",""181177""
""fullscreenenter"",""5"",""198285""
","""event"",""trial"",""time""
""blur"",""0"",""0""
","""event"",""trial"",""time""
""focus"",""1"",""181177""
","""event"",""trial"",""time""
""fullscreenenter"",""5"",""198285""
","
","","images/earth.jpg","","","","","","","","","","","","","","fixation","","","","","",""
"d3-animate-choice","76","501943","0.0-61.0-0.5","3535","6465","12","Female","false","false","true","true","""event"",""trial"",""time""
""blur"",""0"",""0""
""focus"",""1"",""181177""
""fullscreenenter"",""5"",""198285""
","""event"",""trial"",""time""
""blur"",""0"",""0""
","""event"",""trial"",""time""
""focus"",""1"",""181177""
","""event"",""trial"",""time""
""fullscreenenter"",""5"",""198285""
","
","350.30000001192093","","49","","","3000","1","","","images/earth.jpg","images/tutrocket1","images/tutrocket2","null","images/tutrocket2","","1","practice","null","1","","",""
"d3-animate-choice","77","504667","0.0-61.0-1.5","3535","6465","12","Female","false","false","true","true","""event"",""trial"",""time""
""blur"",""0"",""0""
""focus"",""1"",""181177""
""fullscreenenter"",""5"",""198285""
","""event"",""trial"",""time""
""blur"",""0"",""0""
","""event"",""trial"",""time""
""focus"",""1"",""181177""
","""event"",""trial"",""time""
""fullscreenenter"",""5"",""198285""
","
","716.8999999761581","","49","","","3000","1","","","images/tutgreenplanet.jpg","images/tutalien2","images/tutalien1","images/tutrocket2","images/tutalien1","images/nothing.png","2","practice","true","1","common","0","2023-02-25 00:24:50.487"
"two-step-fixation","78","505675","0.0-61.0-2.5","3535","6465","12","Female","false","false","true","true","""event"",""trial"",""time""
""blur"",""0"",""0""
""focus"",""1"",""181177""
""fullscreenenter"",""5"",""198285""
","""event"",""trial"",""time""
""blur"",""0"",""0""
","""event"",""trial"",""time""
""focus"",""1"",""181177""
","""event"",""trial"",""time""
""fullscreenenter"",""5"",""198285""
","
","","images/earth.jpg","","","","","","","","","","","","","","fixation","","","","","",""
"d3-animate-choice","79","507987","0.0-61.0-0.6","3535","6465","12","Female","false","false","true","true","""event"",""trial"",""time""
""blur"",""0"",""0""
""focus"",""1"",""181177""
""fullscreenenter"",""5"",""198285""
","""event"",""trial"",""time""
""blur"",""0"",""0""
","""event"",""trial"",""time""
""focus"",""1"",""181177""
","""event"",""trial"",""time""
""fullscreenenter"",""5"",""198285""
","
","300.69999998807907","","48","","","3000","1","","","images/earth.jpg","images/tutrocket1","images/tutrocket2","null","images/tutrocket1","","1","practice","null","2","","",""
"d3-animate-choice","80","510844","0.0-61.0-1.6","3535","6465","12","Female","false","false","true","true","""event"",""trial"",""time""
""blur"",""0"",""0""
""focus"",""1"",""181177""
""fullscreenenter"",""5"",""198285""
","""event"",""trial"",""time""
""blur"",""0"",""0""
","""event"",""trial"",""time""
""focus"",""1"",""181177""
","""event"",""trial"",""time""
""fullscreenenter"",""5"",""198285""
","
","848.9000000357628","","49","","","3000","1","","","images/tutyellowplanet.jpg","images/tutalien4","images/tutalien3","images/tutrocket1","images/tutalien3","images/nothing.png","2","practice","true","1","common","0","2023-02-25 00:24:56.664"
"two-step-fixation","81","511853","0.0-61.0-2.6","3535","6465","12","Female","false","false","true","true","""event"",""trial"",""time""
""blur"",""0"",""0""
""focus"",""1"",""181177""
""fullscreenenter"",""5"",""198285""
","""event"",""trial"",""time""
""blur"",""0"",""0""
","""event"",""trial"",""time""
""focus"",""1"",""181177""
","""event"",""trial"",""time""
""fullscreenenter"",""5"",""198285""
","
","","images/earth.jpg","","","","","","","","","","","","","","fixation","","","","","",""
"d3-animate-choice","82","514611","0.0-61.0-0.7","3535","6465","12","Female","false","false","true","true","""event"",""trial"",""time""
""blur"",""0"",""0""
""focus"",""1"",""181177""
""fullscreenenter"",""5"",""198285""
","""event"",""trial"",""time""
""blur"",""0"",""0""
","""event"",""trial"",""time""
""focus"",""1"",""181177""
","""event"",""trial"",""time""
""fullscreenenter"",""5"",""198285""
","
","752.3000000119209","","49","","","3000","1","1463,1954.1000000238419,2369.900000035763","48,49,48","images/earth.jpg","images/tutrocket1","images/tutrocket2","null","images/tutrocket2","","1","practice","null","1","","",""
"d3-animate-choice","83","516632","0.0-61.0-1.7","3535","6465","12","Female","false","false","true","true","""event"",""trial"",""time""
""blur"",""0"",""0""
""focus"",""1"",""181177""
""fullscreenenter"",""5"",""198285""
","""event"",""trial"",""time""
""blur"",""0"",""0""
","""event"",""trial"",""time""
""focus"",""1"",""181177""
","""event"",""trial"",""time""
""fullscreenenter"",""5"",""198285""
","
","11.400000035762787","","49","","","3000","1","373.30000001192093,687.9000000357628,1003.3000000119209,1355.1000000238419,1705.699999988079","48,49,48,49,48","images/tutgreenplanet.jpg","images/tutalien2","images/tutalien1","images/tutrocket2","images/tutalien1","images/nothing.png","2","practice","true","1","common","0","2023-02-25 00:25:02.452"
"two-step-fixation","84","517636","0.0-61.0-2.7","3535","6465","12","Female","false","false","true","true","""event"",""trial"",""time""
""blur"",""0"",""0""
""focus"",""1"",""181177""
""fullscreenenter"",""5"",""198285""
","""event"",""trial"",""time""
""blur"",""0"",""0""
","""event"",""trial"",""time""
""focus"",""1"",""181177""
","""event"",""trial"",""time""
""fullscreenenter"",""5"",""198285""
","
","","images/earth.jpg","","","","","","","","","","","","","","fixation","","","","","",""
"d3-animate-choice","85","519885","0.0-61.0-0.8","3535","6465","12","Female","false","false","true","true","""event"",""trial"",""time""
""blur"",""0"",""0""
""focus"",""1"",""181177""
""fullscreenenter"",""5"",""198285""
","""event"",""trial"",""time""
""blur"",""0"",""0""
","""event"",""trial"",""time""
""focus"",""1"",""181177""
","""event"",""trial"",""time""
""fullscreenenter"",""5"",""198285""
","
","240.19999998807907","","49","","","3000","1","535.3999999761581,779.8999999761581,1026.199999988079,1256.2999999523163,1503.199999988079,1732.5,1963.199999988079,2163.899999976158","48,49,48,49,48,49,48,49","images/earth.jpg","images/tutrocket1","images/tutrocket2","null","images/tutrocket2","","1","practice","null","1","","",""
"d3-animate-choice","86","522002","0.0-61.0-1.8","3535","6465","12","Female","false","false","true","true","""event"",""trial"",""time""
""blur"",""0"",""0""
""focus"",""1"",""181177""
""fullscreenenter"",""5"",""198285""
","""event"",""trial"",""time""
""blur"",""0"",""0""
","""event"",""trial"",""time""
""focus"",""1"",""181177""
","""event"",""trial"",""time""
""fullscreenenter"",""5"",""198285""
","
","112.29999995231628","","48","","","3000","1","314,534.2999999523163,728.8999999761581,954.1999999880791,1145.5,1385.5999999642372,1636.5999999642372,1812,1996.199999988079","49,48,49,48,49,48,49,48,49","images/tutgreenplanet.jpg","images/tutalien2","images/tutalien1","images/tutrocket2","images/tutalien2","images/nothing.png","2","practice","true","2","common","0","2023-02-25 00:25:07.822"
"two-step-fixation","87","523009","0.0-61.0-2.8","3535","6465","12","Female","false","false","true","true","""event"",""trial"",""time""
""blur"",""0"",""0""
""focus"",""1"",""181177""
""fullscreenenter"",""5"",""198285""
","""event"",""trial"",""time""
""blur"",""0"",""0""
","""event"",""trial"",""time""
""focus"",""1"",""181177""
","""event"",""trial"",""time""
""fullscreenenter"",""5"",""198285""
","
","","images/earth.jpg","","","","","","","","","","","","","","fixation","","","","","",""
"d3-animate-choice","88","525079","0.0-61.0-0.9","3535","6465","12","Female","false","false","true","true","""event"",""trial"",""time""
""blur"",""0"",""0""
""focus"",""1"",""181177""
""fullscreenenter"",""5"",""198285""
","""event"",""trial"",""time""
""blur"",""0"",""0""
","""event"",""trial"",""time""
""focus"",""1"",""181177""
","""event"",""trial"",""time""
""fullscreenenter"",""5"",""198285""
","
","65.10000002384186","","49","","","3000","1","281.2000000476837,452.10000002384186,652.4000000357628,827.7000000476837,1042.1000000238419,1218.300000011921,1438.9000000357628,1647.800000011921,1874.4000000357628,2050","48,49,48,49,48,49,48,49,48,49","images/earth.jpg","images/tutrocket1","images/tutrocket2","null","images/tutrocket2","","1","practice","null","1","","",""
"d3-animate-choice","89","527271","0.0-61.0-1.9","3535","6465","12","Female","false","false","true","true","""event"",""trial"",""time""
""blur"",""0"",""0""
""focus"",""1"",""181177""
""fullscreenenter"",""5"",""198285""
","""event"",""trial"",""time""
""blur"",""0"",""0""
","""event"",""trial"",""time""
""focus"",""1"",""181177""
","""event"",""trial"",""time""
""fullscreenenter"",""5"",""198285""
","
","184.80000001192093","","48","","","3000","1","371.10000002384186,620.7000000476837,826.3000000119209,1072.6000000238419,1236.9000000357628,1473.300000011921,1653.5,1874.4000000357628,2060.400000035763","49,48,49,48,49,48,49,48,49","images/tutyellowplanet.jpg","images/tutalien4","images/tutalien3","images/tutrocket2","images/tutalien4","images/nothing.png","2","practice","false","2","rare","0","2023-02-25 00:25:13.091"
"two-step-fixation","90","528275","0.0-61.0-2.9","3535","6465","12","Female","false","false","true","true","""event"",""trial"",""time""
""blur"",""0"",""0""
""focus"",""1"",""181177""
""fullscreenenter"",""5"",""198285""
","""event"",""trial"",""time""
""blur"",""0"",""0""
","""event"",""trial"",""time""
""focus"",""1"",""181177""
","""event"",""trial"",""time""
""fullscreenenter"",""5"",""198285""
","
","","images/earth.jpg","","","","","","","","","","","","","","fixation","","","","","",""
"d3-animate-choice","91","530303","0.0-61.0-0.10","3535","6465","12","Female","false","false","true","true","""event"",""trial"",""time""
""blur"",""0"",""0""
""focus"",""1"",""181177""
""fullscreenenter"",""5"",""198285""
","""event"",""trial"",""time""
""blur"",""0"",""0""
","""event"",""trial"",""time""
""focus"",""1"",""181177""
","""event"",""trial"",""time""
""fullscreenenter"",""5"",""198285""
","
","20.30000001192093","","48","","","3000","1","244.39999997615814,475,665.3999999761581,872.6999999880791,1091.300000011921,1292.5,1513.1000000238419,1562.199999988079,1844.1000000238419,1875","49,48,49,48,49,48,49,48,48,49","images/earth.jpg","images/tutrocket1","images/tutrocket2","null","images/tutrocket1","","1","practice","null","2","","",""
"d3-animate-choice","92","532593","0.0-61.0-1.10","3535","6465","12","Female","false","false","true","true","""event"",""trial"",""time""
""blur"",""0"",""0""
""focus"",""1"",""181177""
""fullscreenenter"",""5"",""198285""
","""event"",""trial"",""time""
""blur"",""0"",""0""
","""event"",""trial"",""time""
""focus"",""1"",""181177""
","""event"",""trial"",""time""
""fullscreenenter"",""5"",""198285""
","
","281.10000002384186","","49","","","3000","1","522.8000000119209,746.8999999761581,988.5,1264.1000000238419,1443.699999988079,1553.5,1876.300000011921,1965.5,2190.300000011921","48,49,48,49,48,49,48,49,48","images/tutyellowplanet.jpg","images/tutalien4","images/tutalien3","images/tutrocket1","images/tutalien3","images/t.png","2","practice","true","1","common","1","2023-02-25 00:25:18.413"
"two-step-fixation","93","533602","0.0-61.0-2.10","3535","6465","12","Female","false","false","true","true","""event"",""trial"",""time""
""blur"",""0"",""0""
""focus"",""1"",""181177""
""fullscreenenter"",""5"",""198285""
","""event"",""trial"",""time""
""blur"",""0"",""0""
","""event"",""trial"",""time""
""focus"",""1"",""181177""
","""event"",""trial"",""time""
""fullscreenenter"",""5"",""198285""
","
","","images/earth.jpg","","","","","","","","","","","","","","fixation","","","","","",""
"d3-animate-choice","94","535813","0.0-61.0-0.11","3535","6465","12","Female","false","false","true","true","""event"",""trial"",""time""
""blur"",""0"",""0""
""focus"",""1"",""181177""
""fullscreenenter"",""5"",""198285""
","""event"",""trial"",""time""
""blur"",""0"",""0""
","""event"",""trial"",""time""
""focus"",""1"",""181177""
","""event"",""trial"",""time""
""fullscreenenter"",""5"",""198285""
","
","203.5","","48","","","3000","1","319.69999998807907,515,739.1999999880791,1005.8000000119209,1216.300000011921,1501.699999988079,1646.800000011921,1856.3999999761581,2012.8999999761581,2198.199999988079","49,48,49,48,49,48,49,48,49,48","images/earth.jpg","images/tutrocket1","images/tutrocket2","null","images/tutrocket1","","1","practice","null","2","","",""
"d3-animate-choice","95","538078","0.0-61.0-1.11","3535","6465","12","Female","false","false","true","true","""event"",""trial"",""time""
""blur"",""0"",""0""
""focus"",""1"",""181177""
""fullscreenenter"",""5"",""198285""
","""event"",""trial"",""time""
""blur"",""0"",""0""
","""event"",""trial"",""time""
""focus"",""1"",""181177""
","""event"",""trial"",""time""
""fullscreenenter"",""5"",""198285""
","
","257.5999999642372","","49","","","3000","1","548.7999999523163,818.5999999642372,974.2999999523163,1138.699999988079,1590.199999988079,1850.8999999761581,1996.699999988079,2106.399999976158","48,49,48,49,48,49,48,49","images/tutgreenplanet.jpg","images/tutalien2","images/tutalien1","images/tutrocket1","images/tutalien1","images/nothing.png","2","practice","false","1","rare","0","2023-02-25 00:25:23.898"
"two-step-fixation","96","539087","0.0-61.0-2.11","3535","6465","12","Female","false","false","true","true","""event"",""trial"",""time""
""blur"",""0"",""0""
""focus"",""1"",""181177""
""fullscreenenter"",""5"",""198285""
","""event"",""trial"",""time""
""blur"",""0"",""0""
","""event"",""trial"",""time""
""focus"",""1"",""181177""
","""event"",""trial"",""time""
""fullscreenenter"",""5"",""198285""
","
","","images/earth.jpg","","","","","","","","","","","","","","fixation","","","","","",""
"d3-animate-choice","97","541264","0.0-61.0-0.12","3535","6465","12","Female","false","false","true","true","""event"",""trial"",""time""
""blur"",""0"",""0""
""focus"",""1"",""181177""
""fullscreenenter"",""5"",""198285""
","""event"",""trial"",""time""
""blur"",""0"",""0""
","""event"",""trial"",""time""
""focus"",""1"",""181177""
","""event"",""trial"",""time""
""fullscreenenter"",""5"",""198285""
","
","169.69999998807907","","48","","","3000","1","319.10000002384186,649.8000000119209,821.3000000119209,996.3999999761581,1165.8999999761581,1363,1717.699999988079,1922.6000000238419,2093.199999988079","49,48,49,48,49,48,49,48,49","images/earth.jpg","images/tutrocket1","images/tutrocket2","null","images/tutrocket1","","1","practice","null","2","","",""
"d3-animate-choice","98","543647","0.0-61.0-1.12","3535","6465","12","Female","false","false","true","true","""event"",""trial"",""time""
""blur"",""0"",""0""
""focus"",""1"",""181177""
""fullscreenenter"",""5"",""198285""
","""event"",""trial"",""time""
""blur"",""0"",""0""
","""event"",""trial"",""time""
""focus"",""1"",""181177""
","""event"",""trial"",""time""
""fullscreenenter"",""5"",""198285""
","
","372.5999999642372","","49","","","3000","1","618,879.6999999880791,1020.6999999880791,1334.3999999761581,1591.3999999761581,1835.2999999523163,2106","49,48,49,49,49,49,49","images/tutgreenplanet.jpg","images/tutalien2","images/tutalien1","images/tutrocket1","images/tutalien1","images/nothing.png","2","practice","false","1","rare","0","2023-02-25 00:25:29.467"
"two-step-fixation","99","544659","0.0-61.0-2.12","3535","6465","12","Female","false","false","true","true","""event"",""trial"",""time""
""blur"",""0"",""0""
""focus"",""1"",""181177""
""fullscreenenter"",""5"",""198285""
","""event"",""trial"",""time""
""blur"",""0"",""0""
","""event"",""trial"",""time""
""focus"",""1"",""181177""
","""event"",""trial"",""time""
""fullscreenenter"",""5"",""198285""
","
","","images/earth.jpg","","","","","","","","","","","","","","fixation","","","","","",""
"d3-animate-choice","100","546824","0.0-61.0-0.13","3535","6465","12","Female","false","false","true","true","""event"",""trial"",""time""
""blur"",""0"",""0""
""focus"",""1"",""181177""
""fullscreenenter"",""5"",""198285""
","""event"",""trial"",""time""
""blur"",""0"",""0""
","""event"",""trial"",""time""
""focus"",""1"",""181177""
","""event"",""trial"",""time""
""fullscreenenter"",""5"",""198285""
","
","157.39999997615814","","49","","","3000","1","459,719.5,950,1109.2999999523163,1414.699999988079,1567,1866.7999999523163,2017.2999999523163","49,49,48,49,48,49,48,49","images/earth.jpg","images/tutrocket1","images/tutrocket2","null","images/tutrocket2","","1","practice","null","1","","",""
"d3-animate-choice","101","548953","0.0-61.0-1.13","3535","6465","12","Female","false","false","true","true","""event"",""trial"",""time""
""blur"",""0"",""0""
""focus"",""1"",""181177""
""fullscreenenter"",""5"",""198285""
","""event"",""trial"",""time""
""blur"",""0"",""0""
","""event"",""trial"",""time""
""focus"",""1"",""181177""
","""event"",""trial"",""time""
""fullscreenenter"",""5"",""198285""
","
","116.30000001192093","","48","","","3000","1","327.60000002384186,521.2000000476837,691.7000000476837,1138.4000000357628,1544.2000000476837,1918.9000000357628","49,48,49,48,49,48","images/tutgreenplanet.jpg","images/tutalien2","images/tutalien1","images/tutrocket2","images/tutalien2","images/t.png","2","practice","true","2","common","1","2023-02-25 00:25:34.773"
"two-step-fixation","102","549962","0.0-61.0-2.13","3535","6465","12","Female","false","false","true","true","""event"",""trial"",""time""
""blur"",""0"",""0""
""focus"",""1"",""181177""
""fullscreenenter"",""5"",""198285""
","""event"",""trial"",""time""
""blur"",""0"",""0""
","""event"",""trial"",""time""
""focus"",""1"",""181177""
","""event"",""trial"",""time""
""fullscreenenter"",""5"",""198285""
","
","","images/earth.jpg","","","","","","","","","","","","","","fixation","","","","","",""
"d3-animate-choice","103","552205","0.0-61.0-0.14","3535","6465","12","Female","false","false","true","true","""event"",""trial"",""time""
""blur"",""0"",""0""
""focus"",""1"",""181177""
""fullscreenenter"",""5"",""198285""
","""event"",""trial"",""time""
""blur"",""0"",""0""
","""event"",""trial"",""time""
""focus"",""1"",""181177""
","""event"",""trial"",""time""
""fullscreenenter"",""5"",""198285""
","
","235.69999998807907","","48","","","3000","1","426.5,732.1999999880791,947.5,1193.8999999761581,1307.199999988079,1562.699999988079,1909.6000000238419,2175.100000023842","49,48,49,48,49,48,49,48","images/earth.jpg","images/tutrocket1","images/tutrocket2","null","images/tutrocket1","","1","practice","null","2","","",""
"d3-animate-choice","104","554300","0.0-61.0-1.14","3535","6465","12","Female","false","false","true","true","""event"",""trial"",""time""
""blur"",""0"",""0""
""focus"",""1"",""181177""
""fullscreenenter"",""5"",""198285""
","""event"",""trial"",""time""
""blur"",""0"",""0""
","""event"",""trial"",""time""
""focus"",""1"",""181177""
","""event"",""trial"",""time""
""fullscreenenter"",""5"",""198285""
","
","85.80000001192093","","49","","","3000","1","246.20000004768372,537.8000000119209,808.4000000357628,1078.2000000476837,1193.4000000357628,1374.4000000357628,1694.7000000476837,1790.5,1965.800000011921,2080","48,49,48,49,48,49,48,49,48,49","images/tutgreenplanet.jpg","images/tutalien2","images/tutalien1","images/tutrocket1","images/tutalien1","images/t.png","2","practice","false","1","rare","1","2023-02-25 00:25:40.121"
"two-step-fixation","105","555307","0.0-61.0-2.14","3535","6465","12","Female","false","false","true","true","""event"",""trial"",""time""
""blur"",""0"",""0""
""focus"",""1"",""181177""
""fullscreenenter"",""5"",""198285""
","""event"",""trial"",""time""
""blur"",""0"",""0""
","""event"",""trial"",""time""
""focus"",""1"",""181177""
","""event"",""trial"",""time""
""fullscreenenter"",""5"",""198285""
","
","","images/earth.jpg","","","","","","","","","","","","","","fixation","","","","","",""
"d3-animate-choice","106","557347","0.0-61.0-0.15","3535","6465","12","Female","false","false","true","true","""event"",""trial"",""time""
""blur"",""0"",""0""
""focus"",""1"",""181177""
""fullscreenenter"",""5"",""198285""
","""event"",""trial"",""time""
""blur"",""0"",""0""
","""event"",""trial"",""time""
""focus"",""1"",""181177""
","""event"",""trial"",""time""
""fullscreenenter"",""5"",""198285""
","
","35.30000001192093","","49","","","3000","1","158.4000000357628,346.80000001192093,727.6999999880791,806.6999999880791,1073.4000000357628,1289,1578.300000011921,1684.1000000238419,1855","48,49,48,49,48,49,48,49,48","images/earth.jpg","images/tutrocket1","images/tutrocket2","null","images/tutrocket2","","1","practice","null","1","","",""
"d3-animate-choice","107","559461","0.0-61.0-1.15","3535","6465","12","Female","false","false","true","true","""event"",""trial"",""time""
""blur"",""0"",""0""
""focus"",""1"",""181177""
""fullscreenenter"",""5"",""198285""
","""event"",""trial"",""time""
""blur"",""0"",""0""
","""event"",""trial"",""time""
""focus"",""1"",""181177""
","""event"",""trial"",""time""
""fullscreenenter"",""5"",""198285""
","
","109.79999995231628","","49","","","3000","1","245.39999997615814,437.2999999523163,815.2999999523163,1092,1322.5999999642372,1547,1672.0999999642372,1929.199999988079,2079.5","48,49,49,48,49,48,49,48,49","images/tutgreenplanet.jpg","images/tutalien2","images/tutalien1","images/tutrocket2","images/tutalien1","images/nothing.png","2","practice","true","1","common","0","2023-02-25 00:25:45.281"
"two-step-fixation","108","560465","0.0-61.0-2.15","3535","6465","12","Female","false","false","true","true","""event"",""trial"",""time""
""blur"",""0"",""0""
""focus"",""1"",""181177""
""fullscreenenter"",""5"",""198285""
","""event"",""trial"",""time""
""blur"",""0"",""0""
","""event"",""trial"",""time""
""focus"",""1"",""181177""
","""event"",""trial"",""time""
""fullscreenenter"",""5"",""198285""
","
","","images/earth.jpg","","","","","","","","","","","","","","fixation","","","","","",""
"d3-animate-choice","109","562565","0.0-61.0-0.16","3535","6465","12","Female","false","false","true","true","""event"",""trial"",""time""
""blur"",""0"",""0""
""focus"",""1"",""181177""
""fullscreenenter"",""5"",""198285""
","""event"",""trial"",""time""
""blur"",""0"",""0""
","""event"",""trial"",""time""
""focus"",""1"",""181177""
","""event"",""trial"",""time""
""fullscreenenter"",""5"",""198285""
","
","93.5","","48","","","3000","1","164.5,353.19999998807907,518.6999999880791,685.1000000238419,976,1221,1516.9000000357628,1647.1000000238419,1812.800000011921,2087.400000035763","49,48,49,48,49,48,49,48,49,48","images/earth.jpg","images/tutrocket1","images/tutrocket2","null","images/tutrocket1","","1","practice","null","2","","",""
"d3-animate-choice","110","564808","0.0-61.0-1.16","3535","6465","12","Female","false","false","true","true","""event"",""trial"",""time""
""blur"",""0"",""0""
""focus"",""1"",""181177""
""fullscreenenter"",""5"",""198285""
","""event"",""trial"",""time""
""blur"",""0"",""0""
","""event"",""trial"",""time""
""focus"",""1"",""181177""
","""event"",""trial"",""time""
""fullscreenenter"",""5"",""198285""
","
","236.30000001192093","","49","","","3000","1","382.60000002384186,498.10000002384186,679.1999999880791,827.6000000238419,1133.199999988079,1395.1000000238419,1651.1000000238419,1744.4000000357628,1971,2161.400000035763","48,49,48,49,48,49,48,49,48,49","images/tutgreenplanet.jpg","images/tutalien2","images/tutalien1","images/tutrocket1","images/tutalien1","images/t.png","2","practice","false","1","rare","1","2023-02-25 00:25:50.628"
"two-step-fixation","111","565820","0.0-61.0-2.16","3535","6465","12","Female","false","false","true","true","""event"",""trial"",""time""
""blur"",""0"",""0""
""focus"",""1"",""181177""
""fullscreenenter"",""5"",""198285""
","""event"",""trial"",""time""
""blur"",""0"",""0""
","""event"",""trial"",""time""
""focus"",""1"",""181177""
","""event"",""trial"",""time""
""fullscreenenter"",""5"",""198285""
","
","","images/earth.jpg","","","","","","","","","","","","","","fixation","","","","","",""
"d3-animate-choice","112","567980","0.0-61.0-0.17","3535","6465","12","Female","false","false","true","true","""event"",""trial"",""time""
""blur"",""0"",""0""
""focus"",""1"",""181177""
""fullscreenenter"",""5"",""198285""
","""event"",""trial"",""time""
""blur"",""0"",""0""
","""event"",""trial"",""time""
""focus"",""1"",""181177""
","""event"",""trial"",""time""
""fullscreenenter"",""5"",""198285""
","
","149.30000001192093","","49","","","3000","1","580,871.5,1136.2000000476837,1377.300000011921,1582.2000000476837,1837.6000000238419,1992.9000000357628","49,48,49,48,49,48,49","images/earth.jpg","images/tutrocket1","images/tutrocket2","null","images/tutrocket2","","1","practice","null","1","","",""
"d3-animate-choice","113","570027","0.0-61.0-1.17","3535","6465","12","Female","false","false","true","true","""event"",""trial"",""time""
""blur"",""0"",""0""
""focus"",""1"",""181177""
""fullscreenenter"",""5"",""198285""
","""event"",""trial"",""time""
""blur"",""0"",""0""
","""event"",""trial"",""time""
""focus"",""1"",""181177""
","""event"",""trial"",""time""
""fullscreenenter"",""5"",""198285""
","
","43.39999997615814","","48","","","3000","1","333.69999998807907,504.69999998807907,669.5999999642372,965.3000000119209,1125.5999999642372,1301.0999999642372,1581.5,1741.800000011921,2027.300000011921","49,48,49,48,49,48,49,48,49","images/tutgreenplanet.jpg","images/tutalien2","images/tutalien1","images/tutrocket2","images/tutalien2","images/nothing.png","2","practice","true","2","common","0","2023-02-25 00:25:55.847"
"two-step-fixation","114","571033","0.0-61.0-2.17","3535","6465","12","Female","false","false","true","true","""event"",""trial"",""time""
""blur"",""0"",""0""
""focus"",""1"",""181177""
""fullscreenenter"",""5"",""198285""
","""event"",""trial"",""time""
""blur"",""0"",""0""
","""event"",""trial"",""time""
""focus"",""1"",""181177""
","""event"",""trial"",""time""
""fullscreenenter"",""5"",""198285""
","
","","images/earth.jpg","","","","","","","","","","","","","","fixation","","","","","",""
"d3-animate-choice","115","573116","0.0-61.0-0.18","3535","6465","12","Female","false","false","true","true","""event"",""trial"",""time""
""blur"",""0"",""0""
""focus"",""1"",""181177""
""fullscreenenter"",""5"",""198285""
","""event"",""trial"",""time""
""blur"",""0"",""0""
","""event"",""trial"",""time""
""focus"",""1"",""181177""
","""event"",""trial"",""time""
""fullscreenenter"",""5"",""198285""
","
","76.29999995231628","","48","","","3000","1","362.19999998807907,511.39999997615814,651.5,1017.1999999880791,1127.199999988079,1424.0999999642372,1524.199999988079,1808.8999999761581","49,48,49,48,49,48,49,48","images/earth.jpg","images/tutrocket1","images/tutrocket2","null","images/tutrocket1","","1","practice","null","2","","",""
"d3-animate-choice","116","575187","0.0-61.0-1.18","3535","6465","12","Female","false","false","true","true","""event"",""trial"",""time""
""blur"",""0"",""0""
""focus"",""1"",""181177""
""fullscreenenter"",""5"",""198285""
","""event"",""trial"",""time""
""blur"",""0"",""0""
","""event"",""trial"",""time""
""focus"",""1"",""181177""
","""event"",""trial"",""time""
""fullscreenenter"",""5"",""198285""
","
","62.39999997615814","","49","","","3000","1","397,668.3999999761581,953.3000000119209,1234.5999999642372,1520.0999999642372,1736.199999988079,2026.199999988079","48,49,48,49,48,49,48","images/tutyellowplanet.jpg","images/tutalien4","images/tutalien3","images/tutrocket1","images/tutalien3","images/nothing.png","2","practice","true","1","common","0","2023-02-25 00:26:01.007"
"two-step-fixation","117","576192","0.0-61.0-2.18","3535","6465","12","Female","false","false","true","true","""event"",""trial"",""time""
""blur"",""0"",""0""
""focus"",""1"",""181177""
""fullscreenenter"",""5"",""198285""
","""event"",""trial"",""time""
""blur"",""0"",""0""
","""event"",""trial"",""time""
""focus"",""1"",""181177""
","""event"",""trial"",""time""
""fullscreenenter"",""5"",""198285""
","
","","images/earth.jpg","","","","","","","","","","","","","","fixation","","","","","",""
"d3-animate-choice","118","578394","0.0-61.0-0.19","3535","6465","12","Female","false","false","true","true","""event"",""trial"",""time""
""blur"",""0"",""0""
""focus"",""1"",""181177""
""fullscreenenter"",""5"",""198285""
","""event"",""trial"",""time""
""blur"",""0"",""0""
","""event"",""trial"",""time""
""focus"",""1"",""181177""
","""event"",""trial"",""time""
""fullscreenenter"",""5"",""198285""
","
","198","","49","","","3000","1","463.89999997615814,695,969.1999999880791,1211,1476.5999999642372,1701.3999999761581,1951.2999999523163","48,49,48,49,48,49,48","images/earth.jpg","images/tutrocket1","images/tutrocket2","null","images/tutrocket2","","1","practice","null","1","","",""
"d3-animate-choice","119","580474","0.0-61.0-1.19","3535","6465","12","Female","false","false","true","true","""event"",""trial"",""time""
""blur"",""0"",""0""
""focus"",""1"",""181177""
""fullscreenenter"",""5"",""198285""
","""event"",""trial"",""time""
""blur"",""0"",""0""
","""event"",""trial"",""time""
""focus"",""1"",""181177""
","""event"",""trial"",""time""
""fullscreenenter"",""5"",""198285""
","
","68.89999997615814","","49","","","3000","1","330.5999999642372,606,877.5,1152.199999988079,1412,1673.0999999642372,1913.3999999761581","49,48,49,48,49,48,49","images/tutgreenplanet.jpg","images/tutalien2","images/tutalien1","images/tutrocket2","images/tutalien1","images/t.png","2","practice","true","1","common","1","2023-02-25 00:26:06.294"
"two-step-fixation","120","581483","0.0-61.0-2.19","3535","6465","12","Female","false","false","true","true","""event"",""trial"",""time""
""blur"",""0"",""0""
""focus"",""1"",""181177""
""fullscreenenter"",""5"",""198285""
","""event"",""trial"",""time""
""blur"",""0"",""0""
","""event"",""trial"",""time""
""focus"",""1"",""181177""
","""event"",""trial"",""time""
""fullscreenenter"",""5"",""198285""
","
","","images/earth.jpg","","","","","","","","","","","","","","fixation","","","","","",""
"d3-instructions","121","586348","0.0-62.0","3535","6465","12","Female","false","false","true","true","""event"",""trial"",""time""
""blur"",""0"",""0""
""focus"",""1"",""181177""
""fullscreenenter"",""5"",""198285""
","""event"",""trial"",""time""
""blur"",""0"",""0""
","""event"",""trial"",""time""
""focus"",""1"",""181177""
","""event"",""trial"",""time""
""fullscreenenter"",""5"",""198285""
","
","","","","","","","","","","","","","","","","","","","","","",""
"audio-keyboard-response","122","592291","0.0-63.0","3535","6465","12","Female","false","false","true","true","""event"",""trial"",""time""
""blur"",""0"",""0""
""focus"",""1"",""181177""
""fullscreenenter"",""5"",""198285""
","""event"",""trial"",""time""
""blur"",""0"",""0""
","""event"",""trial"",""time""
""focus"",""1"",""181177""
","""event"",""trial"",""time""
""fullscreenenter"",""5"",""198285""
","
","5941","audio/instructions/treasure_feedback.wav","32","","","","","","","","","","","","","","","","","","",""
"d3-instructions","123","595282","0.0-64.0","3535","6465","12","Female","false","false","true","true","""event"",""trial"",""time""
""blur"",""0"",""0""
""focus"",""1"",""181177""
""fullscreenenter"",""5"",""198285""
","""event"",""trial"",""time""
""blur"",""0"",""0""
","""event"",""trial"",""time""
""focus"",""1"",""181177""
","""event"",""trial"",""time""
""fullscreenenter"",""5"",""198285""
","
","","","","","","","","","","","","","","","","","","","","","",""
"d3-instructions","124","600181","0.0-65.0","3535","6465","12","Female","false","false","true","true","""event"",""trial"",""time""
""blur"",""0"",""0""
""focus"",""1"",""181177""
""fullscreenenter"",""5"",""198285""
","""event"",""trial"",""time""
""blur"",""0"",""0""
","""event"",""trial"",""time""
""focus"",""1"",""181177""
","""event"",""trial"",""time""
""fullscreenenter"",""5"",""198285""
","
","","","","","","","","","","","","","","","","","","","","","",""
"d3-instructions","125","603088","0.0-66.0","3535","6465","12","Female","false","false","true","true","""event"",""trial"",""time""
""blur"",""0"",""0""
""focus"",""1"",""181177""
""fullscreenenter"",""5"",""198285""
","""event"",""trial"",""time""
""blur"",""0"",""0""
","""event"",""trial"",""time""
""focus"",""1"",""181177""
","""event"",""trial"",""time""
""fullscreenenter"",""5"",""198285""
","
","","","","","","","","","","","","","","","","","","","","","",""
"d3-instructions","126","605682","0.0-67.0","3535","6465","12","Female","false","false","true","true","""event"",""trial"",""time""
""blur"",""0"",""0""
""focus"",""1"",""181177""
""fullscreenenter"",""5"",""198285""
","""event"",""trial"",""time""
""blur"",""0"",""0""
","""event"",""trial"",""time""
""focus"",""1"",""181177""
","""event"",""trial"",""time""
""fullscreenenter"",""5"",""198285""
","
","","","","","","","","","","","","","","","","","","","","","",""
"d3-instructions","127","607135","0.0-68.0","3535","6465","12","Female","false","false","true","true","""event"",""trial"",""time""
""blur"",""0"",""0""
""focus"",""1"",""181177""
""fullscreenenter"",""5"",""198285""
","""event"",""trial"",""time""
""blur"",""0"",""0""
","""event"",""trial"",""time""
""focus"",""1"",""181177""
","""event"",""trial"",""time""
""fullscreenenter"",""5"",""198285""
","
","","","","","","","","","","","","","","","","","","","","","",""
"instructions-quiz","128","611122","0.0-69.0","3535","6465","12","Female","false","false","true","true","""event"",""trial"",""time""
""blur"",""0"",""0""
""focus"",""1"",""181177""
""fullscreenenter"",""5"",""198285""
","""event"",""trial"",""time""
""blur"",""0"",""0""
","""event"",""trial"",""time""
""focus"",""1"",""181177""
","""event"",""trial"",""time""
""fullscreenenter"",""5"",""198285""
","
","3981.5","audio/quiz/Q1_Prompt.wav","","1","","","","","","","","","","","","","","","","","",""
"audio-keyboard-response","129","611909","0.0-70.0","3535","6465","12","Female","false","false","true","true","""event"",""trial"",""time""
""blur"",""0"",""0""
""focus"",""1"",""181177""
""fullscreenenter"",""5"",""198285""
","""event"",""trial"",""time""
""blur"",""0"",""0""
","""event"",""trial"",""time""
""focus"",""1"",""181177""
","""event"",""trial"",""time""
""fullscreenenter"",""5"",""198285""
","
","779","audio/quiz/Q1_Correct.wav","32","","","","","","","","","","","","","","","","","","",""
"instructions-quiz","130","616991","0.0-71.0","3535","6465","12","Female","false","false","true","true","""event"",""trial"",""time""
""blur"",""0"",""0""
""focus"",""1"",""181177""
""fullscreenenter"",""5"",""198285""
","""event"",""trial"",""time""
""blur"",""0"",""0""
","""event"",""trial"",""time""
""focus"",""1"",""181177""
","""event"",""trial"",""time""
""fullscreenenter"",""5"",""198285""
","
","5080.699999988079","audio/quiz/Q2_Prompt.wav","","0","","","","","","","","","","","","","","","","","",""
"audio-keyboard-response","131","617766","0.0-72.0","3535","6465","12","Female","false","false","true","true","""event"",""trial"",""time""
""blur"",""0"",""0""
""focus"",""1"",""181177""
""fullscreenenter"",""5"",""198285""
","""event"",""trial"",""time""
""blur"",""0"",""0""
","""event"",""trial"",""time""
""focus"",""1"",""181177""
","""event"",""trial"",""time""
""fullscreenenter"",""5"",""198285""
","
","771","audio/quiz/Q2_Correct.wav","32","","","","","","","","","","","","","","","","","","",""
"instructions-quiz","132","620952","0.0-73.0","3535","6465","12","Female","false","false","true","true","""event"",""trial"",""time""
""blur"",""0"",""0""
""focus"",""1"",""181177""
""fullscreenenter"",""5"",""198285""
","""event"",""trial"",""time""
""blur"",""0"",""0""
","""event"",""trial"",""time""
""focus"",""1"",""181177""
","""event"",""trial"",""time""
""fullscreenenter"",""5"",""198285""
","
","3184.400000035763","audio/quiz/Q3_Prompt.wav","","1","","","","","","","","","","","","","","","","","",""
"audio-keyboard-response","133","622981","0.0-74.0","3535","6465","12","Female","false","false","true","true","""event"",""trial"",""time""
""blur"",""0"",""0""
""focus"",""1"",""181177""
""fullscreenenter"",""5"",""198285""
","""event"",""trial"",""time""
""blur"",""0"",""0""
","""event"",""trial"",""time""
""focus"",""1"",""181177""
","""event"",""trial"",""time""
""fullscreenenter"",""5"",""198285""
","
","2029","audio/quiz/Q3_Correct.wav","32","","","","","","","","","","","","","","","","","","",""
"d3-instructions","134","667515","0.0-75.0","3535","6465","12","Female","false","false","true","true","""event"",""trial"",""time""
""blur"",""0"",""0""
""focus"",""1"",""181177""
""fullscreenenter"",""5"",""198285""
","""event"",""trial"",""time""
""blur"",""0"",""0""
","""event"",""trial"",""time""
""focus"",""1"",""181177""
","""event"",""trial"",""time""
""fullscreenenter"",""5"",""198285""
","
","","","","","","","","","","","","","","","","","","","","","",""
"pavlovia","135","667521","0.0-76.0","3535","6465","12","Female","false","false","true","true","""event"",""trial"",""time""
""blur"",""0"",""0""
""focus"",""1"",""181177""
""fullscreenenter"",""5"",""198285""
","""event"",""trial"",""time""
""blur"",""0"",""0""
","""event"",""trial"",""time""
""focus"",""1"",""181177""
","""event"",""trial"",""time""
""fullscreenenter"",""5"",""198285""
","
","","","","","","","","","","","","","","","","","","","","","",""
"d3-animate-choice","136","670402","0.0-77.0-0.0","3535","6465","12","Female","false","false","true","true","""event"",""trial"",""time""
""blur"",""0"",""0""
""focus"",""1"",""181177""
""fullscreenenter"",""5"",""198285""
","""event"",""trial"",""time""
""blur"",""0"",""0""
","""event"",""trial"",""time""
""focus"",""1"",""181177""
","""event"",""trial"",""time""
""fullscreenenter"",""5"",""198285""
","
","871.7000000476837","","49","","","3000","1","","","images/earth.jpg","images/rocket1","images/rocket2","null","images/rocket2","","1","real","null","1","","",""
"d3-animate-choice","137","672816","0.0-77.0-1.0","3535","6465","12","Female","false","false","true","true","""event"",""trial"",""time""
""blur"",""0"",""0""
""focus"",""1"",""181177""
""fullscreenenter"",""5"",""198285""
","""event"",""trial"",""time""
""blur"",""0"",""0""
","""event"",""trial"",""time""
""focus"",""1"",""181177""
","""event"",""trial"",""time""
""fullscreenenter"",""5"",""198285""
","
","401.69999998807907","","49","","","3000","1","","","images/purpleplanet.jpg","images/alien4","images/alien3","images/rocket2","images/alien3","images/t.png","2","real","false","1","rare","1","2023-02-25 00:27:38.636"
"two-step-fixation","138","673823","0.0-77.0-2.0","3535","6465","12","Female","false","false","true","true","""event"",""trial"",""time""
""blur"",""0"",""0""
""focus"",""1"",""181177""
""fullscreenenter"",""5"",""198285""
","""event"",""trial"",""time""
""blur"",""0"",""0""
","""event"",""trial"",""time""
""focus"",""1"",""181177""
","""event"",""trial"",""time""
""fullscreenenter"",""5"",""198285""
","
","","images/earth.jpg","","","","","","","","","","","","","","fixation","","","","","",""
"d3-animate-choice","139","676321","0.0-77.0-0.1","3535","6465","12","Female","false","false","true","true","""event"",""trial"",""time""
""blur"",""0"",""0""
""focus"",""1"",""181177""
""fullscreenenter"",""5"",""198285""
","""event"",""trial"",""time""
""blur"",""0"",""0""
","""event"",""trial"",""time""
""focus"",""1"",""181177""
","""event"",""trial"",""time""
""fullscreenenter"",""5"",""198285""
","
","491.5999999642372","","49","","","3000","1","","","images/earth.jpg","images/rocket1","images/rocket2","null","images/rocket2","","1","real","null","1","","",""
"d3-animate-choice","140","678670","0.0-77.0-1.1","3535","6465","12","Female","false","false","true","true","""event"",""trial"",""time""
""blur"",""0"",""0""
""focus"",""1"",""181177""
""fullscreenenter"",""5"",""198285""
","""event"",""trial"",""time""
""blur"",""0"",""0""
","""event"",""trial"",""time""
""focus"",""1"",""181177""
","""event"",""trial"",""time""
""fullscreenenter"",""5"",""198285""
","
","338.69999998807907","","49","","","3000","1","","","images/redplanet1.jpg","images/alien2","images/alien1","images/rocket2","images/alien1","images/nothing.png","2","real","true","1","common","0","2023-02-25 00:27:44.490"
"two-step-fixation","141","679675","0.0-77.0-2.1","3535","6465","12","Female","false","false","true","true","""event"",""trial"",""time""
""blur"",""0"",""0""
""focus"",""1"",""181177""
""fullscreenenter"",""5"",""198285""
","""event"",""trial"",""time""
""blur"",""0"",""0""
","""event"",""trial"",""time""
""focus"",""1"",""181177""
","""event"",""trial"",""time""
""fullscreenenter"",""5"",""198285""
","
","","images/earth.jpg","","","","","","","","","","","","","","fixation","","","","","",""
"d3-animate-choice","142","682083","0.0-77.0-0.2","3535","6465","12","Female","false","false","true","true","""event"",""trial"",""time""
""blur"",""0"",""0""
""focus"",""1"",""181177""
""fullscreenenter"",""5"",""198285""
","""event"",""trial"",""time""
""blur"",""0"",""0""
","""event"",""trial"",""time""
""focus"",""1"",""181177""
","""event"",""trial"",""time""
""fullscreenenter"",""5"",""198285""
","
","396.30000001192093","","48","","","3000","1","","","images/earth.jpg","images/rocket1","images/rocket2","null","images/rocket1","","1","real","null","2","","",""
"d3-animate-choice","143","684647","0.0-77.0-1.2","3535","6465","12","Female","false","false","true","true","""event"",""trial"",""time""
""blur"",""0"",""0""
""focus"",""1"",""181177""
""fullscreenenter"",""5"",""198285""
","""event"",""trial"",""time""
""blur"",""0"",""0""
","""event"",""trial"",""time""
""focus"",""1"",""181177""
","""event"",""trial"",""time""
""fullscreenenter"",""5"",""198285""
","
","557.3999999761581","","49","","","3000","1","","","images/purpleplanet.jpg","images/alien4","images/alien3","images/rocket1","images/alien3","images/t.png","2","real","true","1","common","1","2023-02-25 00:27:50.467"
"two-step-fixation","144","685655","0.0-77.0-2.2","3535","6465","12","Female","false","false","true","true","""event"",""trial"",""time""
""blur"",""0"",""0""
""focus"",""1"",""181177""
""fullscreenenter"",""5"",""198285""
","""event"",""trial"",""time""
""blur"",""0"",""0""
","""event"",""trial"",""time""
""focus"",""1"",""181177""
","""event"",""trial"",""time""
""fullscreenenter"",""5"",""198285""
","
","","images/earth.jpg","","","","","","","","","","","","","","fixation","","","","","",""
"d3-animate-choice","145","688019","0.0-77.0-0.3","3535","6465","12","Female","false","false","true","true","""event"",""trial"",""time""
""blur"",""0"",""0""
""focus"",""1"",""181177""
""fullscreenenter"",""5"",""198285""
","""event"",""trial"",""time""
""blur"",""0"",""0""
","""event"",""trial"",""time""
""focus"",""1"",""181177""
","""event"",""trial"",""time""
""fullscreenenter"",""5"",""198285""
","
","358.30000001192093","","48","","","3000","1","","","images/earth.jpg","images/rocket1","images/rocket2","null","images/rocket1","","1","real","null","2","","",""
"d3-animate-choice","146","690730","0.0-77.0-1.3","3535","6465","12","Female","false","false","true","true","""event"",""trial"",""time""
""blur"",""0"",""0""
""focus"",""1"",""181177""
""fullscreenenter"",""5"",""198285""
","""event"",""trial"",""time""
""blur"",""0"",""0""
","""event"",""trial"",""time""
""focus"",""1"",""181177""
","""event"",""trial"",""time""
""fullscreenenter"",""5"",""198285""
","
","703.3000000119209","","49","","","3000","1","","","images/purpleplanet.jpg","images/alien4","images/alien3","images/rocket1","images/alien3","images/t.png","2","real","true","1","common","1","2023-02-25 00:27:56.550"
"two-step-fixation","147","691750","0.0-77.0-2.3","3535","6465","12","Female","false","false","true","true","""event"",""trial"",""time""
""blur"",""0"",""0""
""focus"",""1"",""181177""
""fullscreenenter"",""5"",""198285""
","""event"",""trial"",""time""
""blur"",""0"",""0""
","""event"",""trial"",""time""
""focus"",""1"",""181177""
","""event"",""trial"",""time""
""fullscreenenter"",""5"",""198285""
","
","","images/earth.jpg","","","","","","","","","","","","","","fixation","","","","","",""
"d3-animate-choice","148","694056","0.0-77.0-0.4","3535","6465","12","Female","false","false","true","true","""event"",""trial"",""time""
""blur"",""0"",""0""
""focus"",""1"",""181177""
""fullscreenenter"",""5"",""198285""
","""event"",""trial"",""time""
""blur"",""0"",""0""
","""event"",""trial"",""time""
""focus"",""1"",""181177""
","""event"",""trial"",""time""
""fullscreenenter"",""5"",""198285""
","
","295.89999997615814","","49","","","3000","1","","","images/earth.jpg","images/rocket1","images/rocket2","null","images/rocket2","","1","real","null","1","","",""
"d3-animate-choice","149","696599","0.0-77.0-1.4","3535","6465","12","Female","false","false","true","true","""event"",""trial"",""time""
""blur"",""0"",""0""
""focus"",""1"",""181177""
""fullscreenenter"",""5"",""198285""
","""event"",""trial"",""time""
""blur"",""0"",""0""
","""event"",""trial"",""time""
""focus"",""1"",""181177""
","""event"",""trial"",""time""
""fullscreenenter"",""5"",""198285""
","
","537.8000000119209","","49","","","3000","1","","","images/redplanet1.jpg","images/alien2","images/alien1","images/rocket2","images/alien1","images/t.png","2","real","true","1","common","1","2023-02-25 00:28:02.419"
"two-step-fixation","150","697608","0.0-77.0-2.4","3535","6465","12","Female","false","false","true","true","""event"",""trial"",""time""
""blur"",""0"",""0""
""focus"",""1"",""181177""
""fullscreenenter"",""5"",""198285""
","""event"",""trial"",""time""
""blur"",""0"",""0""
","""event"",""trial"",""time""
""focus"",""1"",""181177""
","""event"",""trial"",""time""
""fullscreenenter"",""5"",""198285""
","
","","images/earth.jpg","","","","","","","","","","","","","","fixation","","","","","",""
"d3-animate-choice","151","699962","0.0-77.0-0.5","3535","6465","12","Female","false","false","true","true","""event"",""trial"",""time""
""blur"",""0"",""0""
""focus"",""1"",""181177""
""fullscreenenter"",""5"",""198285""
","""event"",""trial"",""time""
""blur"",""0"",""0""
","""event"",""trial"",""time""
""focus"",""1"",""181177""
","""event"",""trial"",""time""
""fullscreenenter"",""5"",""198285""
","
","347.5999999642372","","49","","","3000","1","","","images/earth.jpg","images/rocket1","images/rocket2","null","images/rocket2","","1","real","null","1","","",""
"d3-animate-choice","152","702480","0.0-77.0-1.5","3535","6465","12","Female","false","false","true","true","""event"",""trial"",""time""
""blur"",""0"",""0""
""focus"",""1"",""181177""
""fullscreenenter"",""5"",""198285""
","""event"",""trial"",""time""
""blur"",""0"",""0""
","""event"",""trial"",""time""
""focus"",""1"",""181177""
","""event"",""trial"",""time""
""fullscreenenter"",""5"",""198285""
","
","513.7000000476837","","49","","","3000","1","","","images/redplanet1.jpg","images/alien2","images/alien1","images/rocket2","images/alien1","images/nothing.png","2","real","true","1","common","0","2023-02-25 00:28:08.300"
"two-step-fixation","153","703488","0.0-77.0-2.5","3535","6465","12","Female","false","false","true","true","""event"",""trial"",""time""
""blur"",""0"",""0""
""focus"",""1"",""181177""
""fullscreenenter"",""5"",""198285""
","""event"",""trial"",""time""
""blur"",""0"",""0""
","""event"",""trial"",""time""
""focus"",""1"",""181177""
","""event"",""trial"",""time""
""fullscreenenter"",""5"",""198285""
","
","","images/earth.jpg","","","","","","","","","","","","","","fixation","","","","","",""
"d3-animate-choice","154","705997","0.0-77.0-0.6","3535","6465","12","Female","false","false","true","true","""event"",""trial"",""time""
""blur"",""0"",""0""
""focus"",""1"",""181177""
""fullscreenenter"",""5"",""198285""
","""event"",""trial"",""time""
""blur"",""0"",""0""
","""event"",""trial"",""time""
""focus"",""1"",""181177""
","""event"",""trial"",""time""
""fullscreenenter"",""5"",""198285""
","
","501.4000000357628","","48","","","3000","1","","","images/earth.jpg","images/rocket1","images/rocket2","null","images/rocket1","","1","real","null","2","","",""
"d3-animate-choice","155","708560","0.0-77.0-1.6","3535","6465","12","Female","false","false","true","true","""event"",""trial"",""time""
""blur"",""0"",""0""
""focus"",""1"",""181177""
""fullscreenenter"",""5"",""198285""
","""event"",""trial"",""time""
""blur"",""0"",""0""
","""event"",""trial"",""time""
""focus"",""1"",""181177""
","""event"",""trial"",""time""
""fullscreenenter"",""5"",""198285""
","
","556.6999999880791","","49","","","3000","1","","","images/purpleplanet.jpg","images/alien4","images/alien3","images/rocket1","images/alien3","images/t.png","2","real","true","1","common","1","2023-02-25 00:28:14.380"
"two-step-fixation","156","709566","0.0-77.0-2.6","3535","6465","12","Female","false","false","true","true","""event"",""trial"",""time""
""blur"",""0"",""0""
""focus"",""1"",""181177""
""fullscreenenter"",""5"",""198285""
","""event"",""trial"",""time""
""blur"",""0"",""0""
","""event"",""trial"",""time""
""focus"",""1"",""181177""
","""event"",""trial"",""time""
""fullscreenenter"",""5"",""198285""
","
","","images/earth.jpg","","","","","","","","","","","","","","fixation","","","","","",""
"d3-animate-choice","157","711984","0.0-77.0-0.7","3535","6465","12","Female","false","false","true","true","""event"",""trial"",""time""
""blur"",""0"",""0""
""focus"",""1"",""181177""
""fullscreenenter"",""5"",""198285""
","""event"",""trial"",""time""
""blur"",""0"",""0""
","""event"",""trial"",""time""
""focus"",""1"",""181177""
","""event"",""trial"",""time""
""fullscreenenter"",""5"",""198285""
","
","413.89999997615814","","49","","","3000","1","","","images/earth.jpg","images/rocket1","images/rocket2","null","images/rocket2","","1","real","null","1","","",""
"d3-animate-choice","158","714470","0.0-77.0-1.7","3535","6465","12","Female","false","false","true","true","""event"",""trial"",""time""
""blur"",""0"",""0""
""focus"",""1"",""181177""
""fullscreenenter"",""5"",""198285""
","""event"",""trial"",""time""
""blur"",""0"",""0""
","""event"",""trial"",""time""
""focus"",""1"",""181177""
","""event"",""trial"",""time""
""fullscreenenter"",""5"",""198285""
","
","476.60000002384186","","48","","","3000","1","","","images/purpleplanet.jpg","images/alien4","images/alien3","images/rocket2","images/alien4","images/t.png","2","real","false","2","rare","1","2023-02-25 00:28:20.290"
"two-step-fixation","159","715477","0.0-77.0-2.7","3535","6465","12","Female","false","false","true","true","""event"",""trial"",""time""
""blur"",""0"",""0""
""focus"",""1"",""181177""
""fullscreenenter"",""5"",""198285""
","""event"",""trial"",""time""
""blur"",""0"",""0""
","""event"",""trial"",""time""
""focus"",""1"",""181177""
","""event"",""trial"",""time""
""fullscreenenter"",""5"",""198285""
","
","","images/earth.jpg","","","","","","","","","","","","","","fixation","","","","","",""
"d3-animate-choice","160","718624","0.0-77.0-0.8","3535","6465","12","Female","false","false","true","true","""event"",""trial"",""time""
""blur"",""0"",""0""
""focus"",""1"",""181177""
""fullscreenenter"",""5"",""198285""
","""event"",""trial"",""time""
""blur"",""0"",""0""
","""event"",""trial"",""time""
""focus"",""1"",""181177""
","""event"",""trial"",""time""
""fullscreenenter"",""5"",""198285""
","
","1142.6000000238419","","48","","","3000","1","","","images/earth.jpg","images/rocket1","images/rocket2","null","images/rocket1","","1","real","null","2","","",""
"d3-animate-choice","161","721505","0.0-77.0-1.8","3535","6465","12","Female","false","false","true","true","""event"",""trial"",""time""
""blur"",""0"",""0""
""focus"",""1"",""181177""
""fullscreenenter"",""5"",""198285""
","""event"",""trial"",""time""
""blur"",""0"",""0""
","""event"",""trial"",""time""
""focus"",""1"",""181177""
","""event"",""trial"",""time""
""fullscreenenter"",""5"",""198285""
","
","875.0999999642372","","49","","","3000","1","","","images/purpleplanet.jpg","images/alien4","images/alien3","images/rocket1","images/alien3","images/t.png","2","real","true","1","common","1","2023-02-25 00:28:27.325"
"two-step-fixation","162","722510","0.0-77.0-2.8","3535","6465","12","Female","false","false","true","true","""event"",""trial"",""time""
""blur"",""0"",""0""
""focus"",""1"",""181177""
""fullscreenenter"",""5"",""198285""
","""event"",""trial"",""time""
""blur"",""0"",""0""
","""event"",""trial"",""time""
""focus"",""1"",""181177""
","""event"",""trial"",""time""
""fullscreenenter"",""5"",""198285""
","
","","images/earth.jpg","","","","","","","","","","","","","","fixation","","","","","",""
"d3-animate-choice","163","725230","0.0-77.0-0.9","3535","6465","12","Female","false","false","true","true","""event"",""trial"",""time""
""blur"",""0"",""0""
""focus"",""1"",""181177""
""fullscreenenter"",""5"",""198285""
","""event"",""trial"",""time""
""blur"",""0"",""0""
","""event"",""trial"",""time""
""focus"",""1"",""181177""
","""event"",""trial"",""time""
""fullscreenenter"",""5"",""198285""
","
","701.5999999642372","","48","","","3000","1","1908.8999999761581","57","images/earth.jpg","images/rocket1","images/rocket2","null","images/rocket1","","1","real","null","2","","",""
"d3-animate-choice","164","727703","0.0-77.0-1.9","3535","6465","12","Female","false","false","true","true","""event"",""trial"",""time""
""blur"",""0"",""0""
""focus"",""1"",""181177""
""fullscreenenter"",""5"",""198285""
","""event"",""trial"",""time""
""blur"",""0"",""0""
","""event"",""trial"",""time""
""focus"",""1"",""181177""
","""event"",""trial"",""time""
""fullscreenenter"",""5"",""198285""
","
","462.5","","48","","","3000","1","","","images/redplanet1.jpg","images/alien2","images/alien1","images/rocket1","images/alien2","images/t.png","2","real","false","2","rare","1","2023-02-25 00:28:33.523"
"two-step-fixation","165","728715","0.0-77.0-2.9","3535","6465","12","Female","false","false","true","true","""event"",""trial"",""time""
""blur"",""0"",""0""
""focus"",""1"",""181177""
""fullscreenenter"",""5"",""198285""
","""event"",""trial"",""time""
""blur"",""0"",""0""
","""event"",""trial"",""time""
""focus"",""1"",""181177""
","""event"",""trial"",""time""
""fullscreenenter"",""5"",""198285""
","
","","images/earth.jpg","","","","","","","","","","","","","","fixation","","","","","",""
"d3-animate-choice","166","730952","0.0-77.0-0.10","3535","6465","12","Female","false","false","true","true","""event"",""trial"",""time""
""blur"",""0"",""0""
""focus"",""1"",""181177""
""fullscreenenter"",""5"",""198285""
","""event"",""trial"",""time""
""blur"",""0"",""0""
","""event"",""trial"",""time""
""focus"",""1"",""181177""
","""event"",""trial"",""time""
""fullscreenenter"",""5"",""198285""
","
","234","","49","","","3000","1","604.4000000357628,1075.6000000238419,1512.4000000357628,1933.1000000238419","49,49,49,49","images/earth.jpg","images/rocket1","images/rocket2","null","images/rocket2","","1","real","null","1","","",""
"d3-animate-choice","167","732983","0.0-77.0-1.10","3535","6465","12","Female","false","false","true","true","""event"",""trial"",""time""
""blur"",""0"",""0""
""focus"",""1"",""181177""
""fullscreenenter"",""5"",""198285""
","""event"",""trial"",""time""
""blur"",""0"",""0""
","""event"",""trial"",""time""
""focus"",""1"",""181177""
","""event"",""trial"",""time""
""fullscreenenter"",""5"",""198285""
","
","25.30000001192093","","49","","","3000","1","405.80000001192093,846.6999999880791,1283.3999999761581,1640.300000011921,1939.800000011921","49,49,49,49,49","images/redplanet1.jpg","images/alien2","images/alien1","images/rocket2","images/alien1","images/nothing.png","2","real","true","1","common","0","2023-02-25 00:28:38.804"
"two-step-fixation","168","733990","0.0-77.0-2.10","3535","6465","12","Female","false","false","true","true","""event"",""trial"",""time""
""blur"",""0"",""0""
""focus"",""1"",""181177""
""fullscreenenter"",""5"",""198285""
","""event"",""trial"",""time""
""blur"",""0"",""0""
","""event"",""trial"",""time""
""focus"",""1"",""181177""
","""event"",""trial"",""time""
""fullscreenenter"",""5"",""198285""
","
","","images/earth.jpg","","","","","","","","","","","","","","fixation","","","","","",""
"d3-animate-choice","169","736094","0.0-77.0-0.11","3535","6465","12","Female","false","false","true","true","""event"",""trial"",""time""
""blur"",""0"",""0""
""focus"",""1"",""181177""
""fullscreenenter"",""5"",""198285""
","""event"",""trial"",""time""
""blur"",""0"",""0""
","""event"",""trial"",""time""
""focus"",""1"",""181177""
","""event"",""trial"",""time""
""fullscreenenter"",""5"",""198285""
","
","97.5","","49","","","3000","1","624.5,985.4000000357628,1837.2000000476837","49,49,49","images/earth.jpg","images/rocket1","images/rocket2","null","images/rocket2","","1","real","null","1","","",""
"d3-animate-choice","170","738222","0.0-77.0-1.11","3535","6465","12","Female","false","false","true","true","""event"",""trial"",""time""
""blur"",""0"",""0""
""focus"",""1"",""181177""
""fullscreenenter"",""5"",""198285""
","""event"",""trial"",""time""
""blur"",""0"",""0""
","""event"",""trial"",""time""
""focus"",""1"",""181177""
","""event"",""trial"",""time""
""fullscreenenter"",""5"",""198285""
","
