"trial_type","trial_index","time_elapsed","internal_node_id","participant_id","subject_id","age","gender","rocket_sides","red_planet_first_rocket","red_display_order","purple_display_order","interactions","blur_events","focus_events","fullscreenenter_events","fullscreenexit_events","rt","stimulus","key_press","button_pressed","success","duration","valid_pressed","rts","keys","planet_text","right_text","left_text","center_text","chosen_text","reward_text","trial_stage","practice_trial","transition_type","choice","transition","reward","timestamp"
"pavlovia","0","5","0.0-0.0","3197","4979","20","Male","false","true","true","true","""event"",""trial"",""time""
""focus"",""0"",""0""
""blur"",""0"",""0""
""focus"",""0"",""0""
""blur"",""0"",""0""
""focus"",""1"",""1780""
","""event"",""trial"",""time""
""blur"",""0"",""0""
""blur"",""0"",""0""
","""event"",""trial"",""time""
""focus"",""0"",""0""
""focus"",""0"",""0""
""focus"",""1"",""1780""
","
","
","","","","","","","","","","","","","","","","","","","","","",""
"html-keyboard-response","1","3839","0.0-1.0","3197","4979","20","Male","false","true","true","true","""event"",""trial"",""time""
""focus"",""0"",""0""
""blur"",""0"",""0""
""focus"",""0"",""0""
""blur"",""0"",""0""
""focus"",""1"",""1780""
","""event"",""trial"",""time""
""blur"",""0"",""0""
""blur"",""0"",""0""
","""event"",""trial"",""time""
""focus"",""0"",""0""
""focus"",""0"",""0""
""focus"",""1"",""1780""
","
","
","3834","Welcome! Press the space bar to begin.","32","","","","","","","","","","","","","","","","","","",""
"audio-keyboard-response","2","5633","0.0-2.0","3197","4979","20","Male","false","true","true","true","""event"",""trial"",""time""
""focus"",""0"",""0""
""blur"",""0"",""0""
""focus"",""0"",""0""
""blur"",""0"",""0""
""focus"",""1"",""1780""
""blur"",""3"",""10944""
""focus"",""3"",""10945""
","""event"",""trial"",""time""
""blur"",""0"",""0""
""blur"",""0"",""0""
""blur"",""3"",""10944""
","""event"",""trial"",""time""
""focus"",""0"",""0""
""focus"",""0"",""0""
""focus"",""1"",""1780""
""focus"",""3"",""10945""
","
","
","1800","audio/beep_loop.wav","32","","","","","","","","","","","","","","","","","","",""
"audio-button-response","3","12853","0.0-3.0","3197","4979","20","Male","false","true","true","true","""event"",""trial"",""time""
""focus"",""0"",""0""
""blur"",""0"",""0""
""focus"",""0"",""0""
""blur"",""0"",""0""
""focus"",""1"",""1780""
""blur"",""3"",""10944""
""focus"",""3"",""10945""
","""event"",""trial"",""time""
""blur"",""0"",""0""
""blur"",""0"",""0""
""blur"",""3"",""10944""
","""event"",""trial"",""time""
""focus"",""0"",""0""
""focus"",""0"",""0""
""focus"",""1"",""1780""
""focus"",""3"",""10945""
","
","
","NaN","audio/fish.mp3","","1","","","","","","","","","","","","","","","","","",""
"audio-button-response","4","15518","0.0-4.0","3197","4979","20","Male","false","true","true","true","""event"",""trial"",""time""
""focus"",""0"",""0""
""blur"",""0"",""0""
""focus"",""0"",""0""
""blur"",""0"",""0""
""focus"",""1"",""1780""
""blur"",""3"",""10944""
""focus"",""3"",""10945""
""fullscreenenter"",""5"",""20005""
","""event"",""trial"",""time""
""blur"",""0"",""0""
""blur"",""0"",""0""
""blur"",""3"",""10944""
","""event"",""trial"",""time""
""focus"",""0"",""0""
""focus"",""0"",""0""
""focus"",""1"",""1780""
""focus"",""3"",""10945""
","""event"",""trial"",""time""
""fullscreenenter"",""5"",""20005""
","
","NaN","audio/tiger.mp3","","4","","","","","","","","","","","","","","","","","",""
"fullscreen","5","20989","0.0-5.0","3197","4979","20","Male","false","true","true","true","""event"",""trial"",""time""
""focus"",""0"",""0""
""blur"",""0"",""0""
""focus"",""0"",""0""
""blur"",""0"",""0""
""focus"",""1"",""1780""
""blur"",""3"",""10944""
""focus"",""3"",""10945""
""fullscreenenter"",""5"",""20005""
""fullscreenexit"",""6"",""27833""
""blur"",""6"",""32446""
""focus"",""6"",""38674""
""blur"",""6"",""40457""
""focus"",""6"",""43589""
","""event"",""trial"",""time""
""blur"",""0"",""0""
""blur"",""0"",""0""
""blur"",""3"",""10944""
""blur"",""6"",""32446""
""blur"",""6"",""40457""
","""event"",""trial"",""time""
""focus"",""0"",""0""
""focus"",""0"",""0""
""focus"",""1"",""1780""
""focus"",""3"",""10945""
""focus"",""6"",""38674""
""focus"",""6"",""43589""
","""event"",""trial"",""time""
""fullscreenenter"",""5"",""20005""
","""event"",""trial"",""time""
""fullscreenexit"",""6"",""27833""
","","","","","true","","","","","","","","","","","","","","","","",""
"d3-instructions","6","46146","0.0-6.0","3197","4979","20","Male","false","true","true","true","""event"",""trial"",""time""
""focus"",""0"",""0""
""blur"",""0"",""0""
""focus"",""0"",""0""
""blur"",""0"",""0""
""focus"",""1"",""1780""
""blur"",""3"",""10944""
""focus"",""3"",""10945""
""fullscreenenter"",""5"",""20005""
""fullscreenexit"",""6"",""27833""
""blur"",""6"",""32446""
""focus"",""6"",""38674""
""blur"",""6"",""40457""
""focus"",""6"",""43589""
""blur"",""7"",""48481""
""focus"",""7"",""69729""
""blur"",""7"",""73136""
""focus"",""7"",""73873""
""blur"",""7"",""74831""
""focus"",""7"",""94527""
""blur"",""7"",""96380""
""focus"",""7"",""118789""
","""event"",""trial"",""time""
""blur"",""0"",""0""
""blur"",""0"",""0""
""blur"",""3"",""10944""
""blur"",""6"",""32446""
""blur"",""6"",""40457""
""blur"",""7"",""48481""
""blur"",""7"",""73136""
""blur"",""7"",""74831""
""blur"",""7"",""96380""
","""event"",""trial"",""time""
""focus"",""0"",""0""
""focus"",""0"",""0""
""focus"",""1"",""1780""
""focus"",""3"",""10945""
""focus"",""6"",""38674""
""focus"",""6"",""43589""
""focus"",""7"",""69729""
""focus"",""7"",""73873""
""focus"",""7"",""94527""
""focus"",""7"",""118789""
","""event"",""trial"",""time""
""fullscreenenter"",""5"",""20005""
","""event"",""trial"",""time""
""fullscreenexit"",""6"",""27833""
","","","","","","","","","","","","","","","","","","","","","",""
"d3-instructions","7","119811","0.0-7.0","3197","4979","20","Male","false","true","true","true","""event"",""trial"",""time""
""focus"",""0"",""0""
""blur"",""0"",""0""
""focus"",""0"",""0""
""blur"",""0"",""0""
""focus"",""1"",""1780""
""blur"",""3"",""10944""
""focus"",""3"",""10945""
""fullscreenenter"",""5"",""20005""
""fullscreenexit"",""6"",""27833""
""blur"",""6"",""32446""
""focus"",""6"",""38674""
""blur"",""6"",""40457""
""focus"",""6"",""43589""
""blur"",""7"",""48481""
""focus"",""7"",""69729""
""blur"",""7"",""73136""
""focus"",""7"",""73873""
""blur"",""7"",""74831""
""focus"",""7"",""94527""
""blur"",""7"",""96380""
""focus"",""7"",""118789""
","""event"",""trial"",""time""
""blur"",""0"",""0""
""blur"",""0"",""0""
""blur"",""3"",""10944""
""blur"",""6"",""32446""
""blur"",""6"",""40457""
""blur"",""7"",""48481""
""blur"",""7"",""73136""
""blur"",""7"",""74831""
""blur"",""7"",""96380""
","""event"",""trial"",""time""
""focus"",""0"",""0""
""focus"",""0"",""0""
""focus"",""1"",""1780""
""focus"",""3"",""10945""
""focus"",""6"",""38674""
""focus"",""6"",""43589""
""focus"",""7"",""69729""
""focus"",""7"",""73873""
""focus"",""7"",""94527""
""focus"",""7"",""118789""
","""event"",""trial"",""time""
""fullscreenenter"",""5"",""20005""
","""event"",""trial"",""time""
""fullscreenexit"",""6"",""27833""
","","","","","","","","","","","","","","","","","","","","","",""
"d3-instructions","8","128573","0.0-8.0","3197","4979","20","Male","false","true","true","true","""event"",""trial"",""time""
""focus"",""0"",""0""
""blur"",""0"",""0""
""focus"",""0"",""0""
""blur"",""0"",""0""
""focus"",""1"",""1780""
""blur"",""3"",""10944""
""focus"",""3"",""10945""
""fullscreenenter"",""5"",""20005""
""fullscreenexit"",""6"",""27833""
""blur"",""6"",""32446""
""focus"",""6"",""38674""
""blur"",""6"",""40457""
""focus"",""6"",""43589""
""blur"",""7"",""48481""
""focus"",""7"",""69729""
""blur"",""7"",""73136""
""focus"",""7"",""73873""
""blur"",""7"",""74831""
""focus"",""7"",""94527""
""blur"",""7"",""96380""
""focus"",""7"",""118789""
","""event"",""trial"",""time""
""blur"",""0"",""0""
""blur"",""0"",""0""
""blur"",""3"",""10944""
""blur"",""6"",""32446""
""blur"",""6"",""40457""
""blur"",""7"",""48481""
""blur"",""7"",""73136""
""blur"",""7"",""74831""
""blur"",""7"",""96380""
","""event"",""trial"",""time""
""focus"",""0"",""0""
""focus"",""0"",""0""
""focus"",""1"",""1780""
""focus"",""3"",""10945""
""focus"",""6"",""38674""
""focus"",""6"",""43589""
""focus"",""7"",""69729""
""focus"",""7"",""73873""
""focus"",""7"",""94527""
""focus"",""7"",""118789""
","""event"",""trial"",""time""
""fullscreenenter"",""5"",""20005""
","""event"",""trial"",""time""
""fullscreenexit"",""6"",""27833""
","","","","","","","","","","","","","","","","","","","","","",""
"d3-instructions","9","129406","0.0-9.0","3197","4979","20","Male","false","true","true","true","""event"",""trial"",""time""
""focus"",""0"",""0""
""blur"",""0"",""0""
""focus"",""0"",""0""
""blur"",""0"",""0""
""focus"",""1"",""1780""
""blur"",""3"",""10944""
""focus"",""3"",""10945""
""fullscreenenter"",""5"",""20005""
""fullscreenexit"",""6"",""27833""
""blur"",""6"",""32446""
""focus"",""6"",""38674""
""blur"",""6"",""40457""
""focus"",""6"",""43589""
""blur"",""7"",""48481""
""focus"",""7"",""69729""
""blur"",""7"",""73136""
""focus"",""7"",""73873""
""blur"",""7"",""74831""
""focus"",""7"",""94527""
""blur"",""7"",""96380""
""focus"",""7"",""118789""
","""event"",""trial"",""time""
""blur"",""0"",""0""
""blur"",""0"",""0""
""blur"",""3"",""10944""
""blur"",""6"",""32446""
""blur"",""6"",""40457""
""blur"",""7"",""48481""
""blur"",""7"",""73136""
""blur"",""7"",""74831""
""blur"",""7"",""96380""
","""event"",""trial"",""time""
""focus"",""0"",""0""
""focus"",""0"",""0""
""focus"",""1"",""1780""
""focus"",""3"",""10945""
""focus"",""6"",""38674""
""focus"",""6"",""43589""
""focus"",""7"",""69729""
""focus"",""7"",""73873""
""focus"",""7"",""94527""
""focus"",""7"",""118789""
","""event"",""trial"",""time""
""fullscreenenter"",""5"",""20005""
","""event"",""trial"",""time""
""fullscreenexit"",""6"",""27833""
","","","","","","","","","","","","","","","","","","","","","",""
"d3-instructions","10","131134","0.0-10.0","3197","4979","20","Male","false","true","true","true","""event"",""trial"",""time""
""focus"",""0"",""0""
""blur"",""0"",""0""
""focus"",""0"",""0""
""blur"",""0"",""0""
""focus"",""1"",""1780""
""blur"",""3"",""10944""
""focus"",""3"",""10945""
""fullscreenenter"",""5"",""20005""
""fullscreenexit"",""6"",""27833""
""blur"",""6"",""32446""
""focus"",""6"",""38674""
""blur"",""6"",""40457""
""focus"",""6"",""43589""
""blur"",""7"",""48481""
""focus"",""7"",""69729""
""blur"",""7"",""73136""
""focus"",""7"",""73873""
""blur"",""7"",""74831""
""focus"",""7"",""94527""
""blur"",""7"",""96380""
""focus"",""7"",""118789""
","""event"",""trial"",""time""
""blur"",""0"",""0""
""blur"",""0"",""0""
""blur"",""3"",""10944""
""blur"",""6"",""32446""
""blur"",""6"",""40457""
""blur"",""7"",""48481""
""blur"",""7"",""73136""
""blur"",""7"",""74831""
""blur"",""7"",""96380""
","""event"",""trial"",""time""
""focus"",""0"",""0""
""focus"",""0"",""0""
""focus"",""1"",""1780""
""focus"",""3"",""10945""
""focus"",""6"",""38674""
""focus"",""6"",""43589""
""focus"",""7"",""69729""
""focus"",""7"",""73873""
""focus"",""7"",""94527""
""focus"",""7"",""118789""
","""event"",""trial"",""time""
""fullscreenenter"",""5"",""20005""
","""event"",""trial"",""time""
""fullscreenexit"",""6"",""27833""
","","","","","","","","","","","","","","","","","","","","","",""
"d3-animate-choice","11","138860","0.0-11.0","3197","4979","20","Male","false","true","true","true","""event"",""trial"",""time""
""focus"",""0"",""0""
""blur"",""0"",""0""
""focus"",""0"",""0""
""blur"",""0"",""0""
""focus"",""1"",""1780""
""blur"",""3"",""10944""
""focus"",""3"",""10945""
""fullscreenenter"",""5"",""20005""
""fullscreenexit"",""6"",""27833""
""blur"",""6"",""32446""
""focus"",""6"",""38674""
""blur"",""6"",""40457""
""focus"",""6"",""43589""
""blur"",""7"",""48481""
""focus"",""7"",""69729""
""blur"",""7"",""73136""
""focus"",""7"",""73873""
""blur"",""7"",""74831""
""focus"",""7"",""94527""
""blur"",""7"",""96380""
""focus"",""7"",""118789""
","""event"",""trial"",""time""
""blur"",""0"",""0""
""blur"",""0"",""0""
""blur"",""3"",""10944""
""blur"",""6"",""32446""
""blur"",""6"",""40457""
""blur"",""7"",""48481""
""blur"",""7"",""73136""
""blur"",""7"",""74831""
""blur"",""7"",""96380""
","""event"",""trial"",""time""
""focus"",""0"",""0""
""focus"",""0"",""0""
""focus"",""1"",""1780""
""focus"",""3"",""10945""
""focus"",""6"",""38674""
""focus"",""6"",""43589""
""focus"",""7"",""69729""
""focus"",""7"",""73873""
""focus"",""7"",""94527""
""focus"",""7"",""118789""
","""event"",""trial"",""time""
""fullscreenenter"",""5"",""20005""
","""event"",""trial"",""time""
""fullscreenexit"",""6"",""27833""
","4101.79999999702","","32","","","3000","1","5565.79999999702,5701.20000000298,7571.5999999940395","50,49,50","images/tutgreenplanet.jpg","images/tutalien1","images/tutalien2","null","images/tutalien2","","NA","practice","null","","","",""
"d3-animate-choice","12","143728","0.0-12.0","3197","4979","20","Male","false","true","true","true","""event"",""trial"",""time""
""focus"",""0"",""0""
""blur"",""0"",""0""
""focus"",""0"",""0""
""blur"",""0"",""0""
""focus"",""1"",""1780""
""blur"",""3"",""10944""
""focus"",""3"",""10945""
""fullscreenenter"",""5"",""20005""
""fullscreenexit"",""6"",""27833""
""blur"",""6"",""32446""
""focus"",""6"",""38674""
""blur"",""6"",""40457""
""focus"",""6"",""43589""
""blur"",""7"",""48481""
""focus"",""7"",""69729""
""blur"",""7"",""73136""
""focus"",""7"",""73873""
""blur"",""7"",""74831""
""focus"",""7"",""94527""
""blur"",""7"",""96380""
""focus"",""7"",""118789""
","""event"",""trial"",""time""
""blur"",""0"",""0""
""blur"",""0"",""0""
""blur"",""3"",""10944""
""blur"",""6"",""32446""
""blur"",""6"",""40457""
""blur"",""7"",""48481""
""blur"",""7"",""73136""
""blur"",""7"",""74831""
""blur"",""7"",""96380""
","""event"",""trial"",""time""
""focus"",""0"",""0""
""focus"",""0"",""0""
""focus"",""1"",""1780""
""focus"",""3"",""10945""
""focus"",""6"",""38674""
""focus"",""6"",""43589""
""focus"",""7"",""69729""
""focus"",""7"",""73873""
""focus"",""7"",""94527""
""focus"",""7"",""118789""
","""event"",""trial"",""time""
""fullscreenenter"",""5"",""20005""
","""event"",""trial"",""time""
""fullscreenexit"",""6"",""27833""
","285.20000000298023","","50","","","3000","1","774.6000000089407,1248.1000000089407,2590.5,2851.9000000059605","50,50,50,48","images/tutgreenplanet.jpg","images/tutalien1","images/tutalien2","null","images/tutalien1","","NA","practice","null","","","",""
"d3-animate-choice","13","146197","0.0-13.0","3197","4979","20","Male","false","true","true","true","""event"",""trial"",""time""
""focus"",""0"",""0""
""blur"",""0"",""0""
""focus"",""0"",""0""
""blur"",""0"",""0""
""focus"",""1"",""1780""
""blur"",""3"",""10944""
""focus"",""3"",""10945""
""fullscreenenter"",""5"",""20005""
""fullscreenexit"",""6"",""27833""
""blur"",""6"",""32446""
""focus"",""6"",""38674""
""blur"",""6"",""40457""
""focus"",""6"",""43589""
""blur"",""7"",""48481""
""focus"",""7"",""69729""
""blur"",""7"",""73136""
""focus"",""7"",""73873""
""blur"",""7"",""74831""
""focus"",""7"",""94527""
""blur"",""7"",""96380""
""focus"",""7"",""118789""
","""event"",""trial"",""time""
""blur"",""0"",""0""
""blur"",""0"",""0""
""blur"",""3"",""10944""
""blur"",""6"",""32446""
""blur"",""6"",""40457""
""blur"",""7"",""48481""
""blur"",""7"",""73136""
""blur"",""7"",""74831""
""blur"",""7"",""96380""
","""event"",""trial"",""time""
""focus"",""0"",""0""
""focus"",""0"",""0""
""focus"",""1"",""1780""
""focus"",""3"",""10945""
""focus"",""6"",""38674""
""focus"",""6"",""43589""
""focus"",""7"",""69729""
""focus"",""7"",""73873""
""focus"",""7"",""94527""
""focus"",""7"",""118789""
","""event"",""trial"",""time""
""fullscreenenter"",""5"",""20005""
","""event"",""trial"",""time""
""fullscreenexit"",""6"",""27833""
","455","","48","","","3000","1","","","images/tutgreenplanet.jpg","images/tutalien1","images/tutalien2","null","images/tutalien1","","NA","practice","null","","","",""
"d3-animate-choice","14","148498","0.0-14.0","3197","4979","20","Male","false","true","true","true","""event"",""trial"",""time""
""focus"",""0"",""0""
""blur"",""0"",""0""
""focus"",""0"",""0""
""blur"",""0"",""0""
""focus"",""1"",""1780""
""blur"",""3"",""10944""
""focus"",""3"",""10945""
""fullscreenenter"",""5"",""20005""
""fullscreenexit"",""6"",""27833""
""blur"",""6"",""32446""
""focus"",""6"",""38674""
""blur"",""6"",""40457""
""focus"",""6"",""43589""
""blur"",""7"",""48481""
""focus"",""7"",""69729""
""blur"",""7"",""73136""
""focus"",""7"",""73873""
""blur"",""7"",""74831""
""focus"",""7"",""94527""
""blur"",""7"",""96380""
""focus"",""7"",""118789""
","""event"",""trial"",""time""
""blur"",""0"",""0""
""blur"",""0"",""0""
""blur"",""3"",""10944""
""blur"",""6"",""32446""
""blur"",""6"",""40457""
""blur"",""7"",""48481""
""blur"",""7"",""73136""
""blur"",""7"",""74831""
""blur"",""7"",""96380""
","""event"",""trial"",""time""
""focus"",""0"",""0""
""focus"",""0"",""0""
""focus"",""1"",""1780""
""focus"",""3"",""10945""
""focus"",""6"",""38674""
""focus"",""6"",""43589""
""focus"",""7"",""69729""
""focus"",""7"",""73873""
""focus"",""7"",""94527""
""focus"",""7"",""118789""
","""event"",""trial"",""time""
""fullscreenenter"",""5"",""20005""
","""event"",""trial"",""time""
""fullscreenexit"",""6"",""27833""
","285.8999999910593","","49","","","3000","1","1818.8999999910593,2198.7999999970198","48,48","images/tutgreenplanet.jpg","images/tutalien1","images/tutalien2","null","images/tutalien2","","NA","practice","null","","","",""
"d3-instructions","15","151192","0.0-15.0","3197","4979","20","Male","false","true","true","true","""event"",""trial"",""time""
""focus"",""0"",""0""
""blur"",""0"",""0""
""focus"",""0"",""0""
""blur"",""0"",""0""
""focus"",""1"",""1780""
""blur"",""3"",""10944""
""focus"",""3"",""10945""
""fullscreenenter"",""5"",""20005""
""fullscreenexit"",""6"",""27833""
""blur"",""6"",""32446""
""focus"",""6"",""38674""
""blur"",""6"",""40457""
""focus"",""6"",""43589""
""blur"",""7"",""48481""
""focus"",""7"",""69729""
""blur"",""7"",""73136""
""focus"",""7"",""73873""
""blur"",""7"",""74831""
""focus"",""7"",""94527""
""blur"",""7"",""96380""
""focus"",""7"",""118789""
","""event"",""trial"",""time""
""blur"",""0"",""0""
""blur"",""0"",""0""
""blur"",""3"",""10944""
""blur"",""6"",""32446""
""blur"",""6"",""40457""
""blur"",""7"",""48481""
""blur"",""7"",""73136""
""blur"",""7"",""74831""
""blur"",""7"",""96380""
","""event"",""trial"",""time""
""focus"",""0"",""0""
""focus"",""0"",""0""
""focus"",""1"",""1780""
""focus"",""3"",""10945""
""focus"",""6"",""38674""
""focus"",""6"",""43589""
""focus"",""7"",""69729""
""focus"",""7"",""73873""
""focus"",""7"",""94527""
""focus"",""7"",""118789""
","""event"",""trial"",""time""
""fullscreenenter"",""5"",""20005""
","""event"",""trial"",""time""
""fullscreenexit"",""6"",""27833""
","","","","","","","","","","","","","","","","","","","","","",""
"d3-instructions","16","153780","0.0-16.0","3197","4979","20","Male","false","true","true","true","""event"",""trial"",""time""
""focus"",""0"",""0""
""blur"",""0"",""0""
""focus"",""0"",""0""
""blur"",""0"",""0""
""focus"",""1"",""1780""
""blur"",""3"",""10944""
""focus"",""3"",""10945""
""fullscreenenter"",""5"",""20005""
""fullscreenexit"",""6"",""27833""
""blur"",""6"",""32446""
""focus"",""6"",""38674""
""blur"",""6"",""40457""
""focus"",""6"",""43589""
""blur"",""7"",""48481""
""focus"",""7"",""69729""
""blur"",""7"",""73136""
""focus"",""7"",""73873""
""blur"",""7"",""74831""
""focus"",""7"",""94527""
""blur"",""7"",""96380""
""focus"",""7"",""118789""
","""event"",""trial"",""time""
""blur"",""0"",""0""
""blur"",""0"",""0""
""blur"",""3"",""10944""
""blur"",""6"",""32446""
""blur"",""6"",""40457""
""blur"",""7"",""48481""
""blur"",""7"",""73136""
""blur"",""7"",""74831""
""blur"",""7"",""96380""
","""event"",""trial"",""time""
""focus"",""0"",""0""
""focus"",""0"",""0""
""focus"",""1"",""1780""
""focus"",""3"",""10945""
""focus"",""6"",""38674""
""focus"",""6"",""43589""
""focus"",""7"",""69729""
""focus"",""7"",""73873""
""focus"",""7"",""94527""
""focus"",""7"",""118789""
","""event"",""trial"",""time""
""fullscreenenter"",""5"",""20005""
","""event"",""trial"",""time""
""fullscreenexit"",""6"",""27833""
","","","","","","","","","","","","","","","","","","","","","",""
"d3-instructions","17","156230","0.0-17.0","3197","4979","20","Male","false","true","true","true","""event"",""trial"",""time""
""focus"",""0"",""0""
""blur"",""0"",""0""
""focus"",""0"",""0""
""blur"",""0"",""0""
""focus"",""1"",""1780""
""blur"",""3"",""10944""
""focus"",""3"",""10945""
""fullscreenenter"",""5"",""20005""
""fullscreenexit"",""6"",""27833""
""blur"",""6"",""32446""
""focus"",""6"",""38674""
""blur"",""6"",""40457""
""focus"",""6"",""43589""
""blur"",""7"",""48481""
""focus"",""7"",""69729""
""blur"",""7"",""73136""
""focus"",""7"",""73873""
""blur"",""7"",""74831""
""focus"",""7"",""94527""
""blur"",""7"",""96380""
""focus"",""7"",""118789""
","""event"",""trial"",""time""
""blur"",""0"",""0""
""blur"",""0"",""0""
""blur"",""3"",""10944""
""blur"",""6"",""32446""
""blur"",""6"",""40457""
""blur"",""7"",""48481""
""blur"",""7"",""73136""
""blur"",""7"",""74831""
""blur"",""7"",""96380""
","""event"",""trial"",""time""
""focus"",""0"",""0""
""focus"",""0"",""0""
""focus"",""1"",""1780""
""focus"",""3"",""10945""
""focus"",""6"",""38674""
""focus"",""6"",""43589""
""focus"",""7"",""69729""
""focus"",""7"",""73873""
""focus"",""7"",""94527""
""focus"",""7"",""118789""
","""event"",""trial"",""time""
""fullscreenenter"",""5"",""20005""
","""event"",""trial"",""time""
""fullscreenexit"",""6"",""27833""
","","","","","","","","","","","","","","","","","","","","","",""
"d3-instructions","18","159470","0.0-18.0","3197","4979","20","Male","false","true","true","true","""event"",""trial"",""time""
""focus"",""0"",""0""
""blur"",""0"",""0""
""focus"",""0"",""0""
""blur"",""0"",""0""
""focus"",""1"",""1780""
""blur"",""3"",""10944""
""focus"",""3"",""10945""
""fullscreenenter"",""5"",""20005""
""fullscreenexit"",""6"",""27833""
""blur"",""6"",""32446""
""focus"",""6"",""38674""
""blur"",""6"",""40457""
""focus"",""6"",""43589""
""blur"",""7"",""48481""
""focus"",""7"",""69729""
""blur"",""7"",""73136""
""focus"",""7"",""73873""
""blur"",""7"",""74831""
""focus"",""7"",""94527""
""blur"",""7"",""96380""
""focus"",""7"",""118789""
","""event"",""trial"",""time""
""blur"",""0"",""0""
""blur"",""0"",""0""
""blur"",""3"",""10944""
""blur"",""6"",""32446""
""blur"",""6"",""40457""
""blur"",""7"",""48481""
""blur"",""7"",""73136""
""blur"",""7"",""74831""
""blur"",""7"",""96380""
","""event"",""trial"",""time""
""focus"",""0"",""0""
""focus"",""0"",""0""
""focus"",""1"",""1780""
""focus"",""3"",""10945""
""focus"",""6"",""38674""
""focus"",""6"",""43589""
""focus"",""7"",""69729""
""focus"",""7"",""73873""
""focus"",""7"",""94527""
""focus"",""7"",""118789""
","""event"",""trial"",""time""
""fullscreenenter"",""5"",""20005""
","""event"",""trial"",""time""
""fullscreenexit"",""6"",""27833""
","","","","","","","","","","","","","","","","","","","","","",""
"d3-instructions","19","162238","0.0-19.0","3197","4979","20","Male","false","true","true","true","""event"",""trial"",""time""
""focus"",""0"",""0""
""blur"",""0"",""0""
""focus"",""0"",""0""
""blur"",""0"",""0""
""focus"",""1"",""1780""
""blur"",""3"",""10944""
""focus"",""3"",""10945""
""fullscreenenter"",""5"",""20005""
""fullscreenexit"",""6"",""27833""
""blur"",""6"",""32446""
""focus"",""6"",""38674""
""blur"",""6"",""40457""
""focus"",""6"",""43589""
""blur"",""7"",""48481""
""focus"",""7"",""69729""
""blur"",""7"",""73136""
""focus"",""7"",""73873""
""blur"",""7"",""74831""
""focus"",""7"",""94527""
""blur"",""7"",""96380""
""focus"",""7"",""118789""
","""event"",""trial"",""time""
""blur"",""0"",""0""
""blur"",""0"",""0""
""blur"",""3"",""10944""
""blur"",""6"",""32446""
""blur"",""6"",""40457""
""blur"",""7"",""48481""
""blur"",""7"",""73136""
""blur"",""7"",""74831""
""blur"",""7"",""96380""
","""event"",""trial"",""time""
""focus"",""0"",""0""
""focus"",""0"",""0""
""focus"",""1"",""1780""
""focus"",""3"",""10945""
""focus"",""6"",""38674""
""focus"",""6"",""43589""
""focus"",""7"",""69729""
""focus"",""7"",""73873""
""focus"",""7"",""94527""
""focus"",""7"",""118789""
","""event"",""trial"",""time""
""fullscreenenter"",""5"",""20005""
","""event"",""trial"",""time""
""fullscreenexit"",""6"",""27833""
","","","","","","","","","","","","","","","","","","","","","",""
"d3-animate-choice","20","169933","0.0-20.0","3197","4979","20","Male","false","true","true","true","""event"",""trial"",""time""
""focus"",""0"",""0""
""blur"",""0"",""0""
""focus"",""0"",""0""
""blur"",""0"",""0""
""focus"",""1"",""1780""
""blur"",""3"",""10944""
""focus"",""3"",""10945""
""fullscreenenter"",""5"",""20005""
""fullscreenexit"",""6"",""27833""
""blur"",""6"",""32446""
""focus"",""6"",""38674""
""blur"",""6"",""40457""
""focus"",""6"",""43589""
""blur"",""7"",""48481""
""focus"",""7"",""69729""
""blur"",""7"",""73136""
""focus"",""7"",""73873""
""blur"",""7"",""74831""
""focus"",""7"",""94527""
""blur"",""7"",""96380""
""focus"",""7"",""118789""
","""event"",""trial"",""time""
""blur"",""0"",""0""
""blur"",""0"",""0""
""blur"",""3"",""10944""
""blur"",""6"",""32446""
""blur"",""6"",""40457""
""blur"",""7"",""48481""
""blur"",""7"",""73136""
""blur"",""7"",""74831""
""blur"",""7"",""96380""
","""event"",""trial"",""time""
""focus"",""0"",""0""
""focus"",""0"",""0""
""focus"",""1"",""1780""
""focus"",""3"",""10945""
""focus"",""6"",""38674""
""focus"",""6"",""43589""
""focus"",""7"",""69729""
""focus"",""7"",""73873""
""focus"",""7"",""94527""
""focus"",""7"",""118789""
","""event"",""trial"",""time""
""fullscreenenter"",""5"",""20005""
","""event"",""trial"",""time""
""fullscreenexit"",""6"",""27833""
","4909.5","","32","","","3000","1","5687.70000000298","49","images/tutyellowplanet.jpg","null","images/tutalien3","null","images/tutalien3","images/t.png","NA","practice","null","","","",""
"d3-animate-choice","21","172573","0.0-21.0","3197","4979","20","Male","false","true","true","true","""event"",""trial"",""time""
""focus"",""0"",""0""
""blur"",""0"",""0""
""focus"",""0"",""0""
""blur"",""0"",""0""
""focus"",""1"",""1780""
""blur"",""3"",""10944""
""focus"",""3"",""10945""
""fullscreenenter"",""5"",""20005""
""fullscreenexit"",""6"",""27833""
""blur"",""6"",""32446""
""focus"",""6"",""38674""
""blur"",""6"",""40457""
""focus"",""6"",""43589""
""blur"",""7"",""48481""
""focus"",""7"",""69729""
""blur"",""7"",""73136""
""focus"",""7"",""73873""
""blur"",""7"",""74831""
""focus"",""7"",""94527""
""blur"",""7"",""96380""
""focus"",""7"",""118789""
","""event"",""trial"",""time""
""blur"",""0"",""0""
""blur"",""0"",""0""
""blur"",""3"",""10944""
""blur"",""6"",""32446""
""blur"",""6"",""40457""
""blur"",""7"",""48481""
""blur"",""7"",""73136""
""blur"",""7"",""74831""
""blur"",""7"",""96380""
","""event"",""trial"",""time""
""focus"",""0"",""0""
""focus"",""0"",""0""
""focus"",""1"",""1780""
""focus"",""3"",""10945""
""focus"",""6"",""38674""
""focus"",""6"",""43589""
""focus"",""7"",""69729""
""focus"",""7"",""73873""
""focus"",""7"",""94527""
""focus"",""7"",""118789""
","""event"",""trial"",""time""
""fullscreenenter"",""5"",""20005""
","""event"",""trial"",""time""
""fullscreenexit"",""6"",""27833""
","502.30000001192093","","32","","","3000","1","631,2003.1000000089407,2313.2000000029802,2558","49,49,49,49","images/tutyellowplanet.jpg","null","images/tutalien3","null","images/tutalien3","images/t.png","NA","practice","null","","","",""
"d3-animate-choice","22","174727","0.0-22.0","3197","4979","20","Male","false","true","true","true","""event"",""trial"",""time""
""focus"",""0"",""0""
""blur"",""0"",""0""
""focus"",""0"",""0""
""blur"",""0"",""0""
""focus"",""1"",""1780""
""blur"",""3"",""10944""
""focus"",""3"",""10945""
""fullscreenenter"",""5"",""20005""
""fullscreenexit"",""6"",""27833""
""blur"",""6"",""32446""
""focus"",""6"",""38674""
""blur"",""6"",""40457""
""focus"",""6"",""43589""
""blur"",""7"",""48481""
""focus"",""7"",""69729""
""blur"",""7"",""73136""
""focus"",""7"",""73873""
""blur"",""7"",""74831""
""focus"",""7"",""94527""
""blur"",""7"",""96380""
""focus"",""7"",""118789""
","""event"",""trial"",""time""
""blur"",""0"",""0""
""blur"",""0"",""0""
""blur"",""3"",""10944""
""blur"",""6"",""32446""
""blur"",""6"",""40457""
""blur"",""7"",""48481""
""blur"",""7"",""73136""
""blur"",""7"",""74831""
""blur"",""7"",""96380""
","""event"",""trial"",""time""
""focus"",""0"",""0""
""focus"",""0"",""0""
""focus"",""1"",""1780""
""focus"",""3"",""10945""
""focus"",""6"",""38674""
""focus"",""6"",""43589""
""focus"",""7"",""69729""
""focus"",""7"",""73873""
""focus"",""7"",""94527""
""focus"",""7"",""118789""
","""event"",""trial"",""time""
""fullscreenenter"",""5"",""20005""
","""event"",""trial"",""time""
""fullscreenexit"",""6"",""27833""
","143.8999999910593","","49","","","3000","1","319.29999999701977,574,1040.8999999910593,1720.7999999970198","49,49,49,49","images/tutyellowplanet.jpg","null","images/tutalien3","null","images/tutalien3","images/t.png","NA","practice","null","","","",""
"d3-animate-choice","23","176990","0.0-23.0","3197","4979","20","Male","false","true","true","true","""event"",""trial"",""time""
""focus"",""0"",""0""
""blur"",""0"",""0""
""focus"",""0"",""0""
""blur"",""0"",""0""
""focus"",""1"",""1780""
""blur"",""3"",""10944""
""focus"",""3"",""10945""
""fullscreenenter"",""5"",""20005""
""fullscreenexit"",""6"",""27833""
""blur"",""6"",""32446""
""focus"",""6"",""38674""
""blur"",""6"",""40457""
""focus"",""6"",""43589""
""blur"",""7"",""48481""
""focus"",""7"",""69729""
""blur"",""7"",""73136""
""focus"",""7"",""73873""
""blur"",""7"",""74831""
""focus"",""7"",""94527""
""blur"",""7"",""96380""
""focus"",""7"",""118789""
","""event"",""trial"",""time""
""blur"",""0"",""0""
""blur"",""0"",""0""
""blur"",""3"",""10944""
""blur"",""6"",""32446""
""blur"",""6"",""40457""
""blur"",""7"",""48481""
""blur"",""7"",""73136""
""blur"",""7"",""74831""
""blur"",""7"",""96380""
","""event"",""trial"",""time""
""focus"",""0"",""0""
""focus"",""0"",""0""
""focus"",""1"",""1780""
""focus"",""3"",""10945""
""focus"",""6"",""38674""
""focus"",""6"",""43589""
""focus"",""7"",""69729""
""focus"",""7"",""73873""
""focus"",""7"",""94527""
""focus"",""7"",""118789""
","""event"",""trial"",""time""
""fullscreenenter"",""5"",""20005""
","""event"",""trial"",""time""
""fullscreenexit"",""6"",""27833""
","253.80000001192093","","49","","","3000","1","832.6000000089407,1473.6000000089407,1803.2000000029802,2231.9000000059605","49,49,49,49","images/tutyellowplanet.jpg","null","images/tutalien3","null","images/tutalien3","images/t.png","NA","practice","null","","","",""
"d3-animate-choice","24","179591","0.0-24.0","3197","4979","20","Male","false","true","true","true","""event"",""trial"",""time""
""focus"",""0"",""0""
""blur"",""0"",""0""
""focus"",""0"",""0""
""blur"",""0"",""0""
""focus"",""1"",""1780""
""blur"",""3"",""10944""
""focus"",""3"",""10945""
""fullscreenenter"",""5"",""20005""
""fullscreenexit"",""6"",""27833""
""blur"",""6"",""32446""
""focus"",""6"",""38674""
""blur"",""6"",""40457""
""focus"",""6"",""43589""
""blur"",""7"",""48481""
""focus"",""7"",""69729""
""blur"",""7"",""73136""
""focus"",""7"",""73873""
""blur"",""7"",""74831""
""focus"",""7"",""94527""
""blur"",""7"",""96380""
""focus"",""7"",""118789""
","""event"",""trial"",""time""
""blur"",""0"",""0""
""blur"",""0"",""0""
""blur"",""3"",""10944""
""blur"",""6"",""32446""
""blur"",""6"",""40457""
""blur"",""7"",""48481""
""blur"",""7"",""73136""
""blur"",""7"",""74831""
""blur"",""7"",""96380""
","""event"",""trial"",""time""
""focus"",""0"",""0""
""focus"",""0"",""0""
""focus"",""1"",""1780""
""focus"",""3"",""10945""
""focus"",""6"",""38674""
""focus"",""6"",""43589""
""focus"",""7"",""69729""
""focus"",""7"",""73873""
""focus"",""7"",""94527""
""focus"",""7"",""118789""
","""event"",""trial"",""time""
""fullscreenenter"",""5"",""20005""
","""event"",""trial"",""time""
""fullscreenexit"",""6"",""27833""
","585.2999999970198","","49","","","3000","1","866.0999999940395,1410.5999999940395,2022.7999999970198,2313.7999999970198","49,49,49,49","images/tutyellowplanet.jpg","null","images/tutalien3","null","images/tutalien3","images/t.png","NA","practice","null","","","",""
"d3-animate-choice","25","181619","0.0-25.0","3197","4979","20","Male","false","true","true","true","""event"",""trial"",""time""
""focus"",""0"",""0""
""blur"",""0"",""0""
""focus"",""0"",""0""
""blur"",""0"",""0""
""focus"",""1"",""1780""
""blur"",""3"",""10944""
""focus"",""3"",""10945""
""fullscreenenter"",""5"",""20005""
""fullscreenexit"",""6"",""27833""
""blur"",""6"",""32446""
""focus"",""6"",""38674""
""blur"",""6"",""40457""
""focus"",""6"",""43589""
""blur"",""7"",""48481""
""focus"",""7"",""69729""
""blur"",""7"",""73136""
""focus"",""7"",""73873""
""blur"",""7"",""74831""
""focus"",""7"",""94527""
""blur"",""7"",""96380""
""focus"",""7"",""118789""
","""event"",""trial"",""time""
""blur"",""0"",""0""
""blur"",""0"",""0""
""blur"",""3"",""10944""
""blur"",""6"",""32446""
""blur"",""6"",""40457""
""blur"",""7"",""48481""
""blur"",""7"",""73136""
""blur"",""7"",""74831""
""blur"",""7"",""96380""
","""event"",""trial"",""time""
""focus"",""0"",""0""
""focus"",""0"",""0""
""focus"",""1"",""1780""
""focus"",""3"",""10945""
""focus"",""6"",""38674""
""focus"",""6"",""43589""
""focus"",""7"",""69729""
""focus"",""7"",""73873""
""focus"",""7"",""94527""
""focus"",""7"",""118789""
","""event"",""trial"",""time""
""fullscreenenter"",""5"",""20005""
","""event"",""trial"",""time""
""fullscreenexit"",""6"",""27833""
","9","","49","","","3000","1","297,591.7999999970198,946.5,1313.3999999910593,1593.3999999910593,1955.5999999940395","49,49,49,49,49,49","images/tutyellowplanet.jpg","null","images/tutalien3","null","images/tutalien3","images/t.png","NA","practice","null","","","",""
"d3-animate-choice","26","183908","0.0-26.0","3197","4979","20","Male","false","true","true","true","""event"",""trial"",""time""
""focus"",""0"",""0""
""blur"",""0"",""0""
""focus"",""0"",""0""
""blur"",""0"",""0""
""focus"",""1"",""1780""
""blur"",""3"",""10944""
""focus"",""3"",""10945""
""fullscreenenter"",""5"",""20005""
""fullscreenexit"",""6"",""27833""
""blur"",""6"",""32446""
""focus"",""6"",""38674""
""blur"",""6"",""40457""
""focus"",""6"",""43589""
""blur"",""7"",""48481""
""focus"",""7"",""69729""
""blur"",""7"",""73136""
""focus"",""7"",""73873""
""blur"",""7"",""74831""
""focus"",""7"",""94527""
""blur"",""7"",""96380""
""focus"",""7"",""118789""
","""event"",""trial"",""time""
""blur"",""0"",""0""
""blur"",""0"",""0""
""blur"",""3"",""10944""
""blur"",""6"",""32446""
""blur"",""6"",""40457""
""blur"",""7"",""48481""
""blur"",""7"",""73136""
""blur"",""7"",""74831""
""blur"",""7"",""96380""
","""event"",""trial"",""time""
""focus"",""0"",""0""
""focus"",""0"",""0""
""focus"",""1"",""1780""
""focus"",""3"",""10945""
""focus"",""6"",""38674""
""focus"",""6"",""43589""
""focus"",""7"",""69729""
""focus"",""7"",""73873""
""focus"",""7"",""94527""
""focus"",""7"",""118789""
","""event"",""trial"",""time""
""fullscreenenter"",""5"",""20005""
","""event"",""trial"",""time""
""fullscreenexit"",""6"",""27833""
","272.70000000298023","","49","","","3000","1","702,1166.3999999910593,1401.5999999940395,1705.8999999910593,2023.8999999910593","49,49,49,49,49","images/tutyellowplanet.jpg","null","images/tutalien3","null","images/tutalien3","images/nothing.png","NA","practice","null","","","",""
"d3-animate-choice","27","186209","0.0-27.0","3197","4979","20","Male","false","true","true","true","""event"",""trial"",""time""
""focus"",""0"",""0""
""blur"",""0"",""0""
""focus"",""0"",""0""
""blur"",""0"",""0""
""focus"",""1"",""1780""
""blur"",""3"",""10944""
""focus"",""3"",""10945""
""fullscreenenter"",""5"",""20005""
""fullscreenexit"",""6"",""27833""
""blur"",""6"",""32446""
""focus"",""6"",""38674""
""blur"",""6"",""40457""
""focus"",""6"",""43589""
""blur"",""7"",""48481""
""focus"",""7"",""69729""
""blur"",""7"",""73136""
""focus"",""7"",""73873""
""blur"",""7"",""74831""
""focus"",""7"",""94527""
""blur"",""7"",""96380""
""focus"",""7"",""118789""
","""event"",""trial"",""time""
""blur"",""0"",""0""
""blur"",""0"",""0""
""blur"",""3"",""10944""
""blur"",""6"",""32446""
""blur"",""6"",""40457""
""blur"",""7"",""48481""
""blur"",""7"",""73136""
""blur"",""7"",""74831""
""blur"",""7"",""96380""
","""event"",""trial"",""time""
""focus"",""0"",""0""
""focus"",""0"",""0""
""focus"",""1"",""1780""
""focus"",""3"",""10945""
""focus"",""6"",""38674""
""focus"",""6"",""43589""
""focus"",""7"",""69729""
""focus"",""7"",""73873""
""focus"",""7"",""94527""
""focus"",""7"",""118789""
","""event"",""trial"",""time""
""fullscreenenter"",""5"",""20005""
","""event"",""trial"",""time""
""fullscreenexit"",""6"",""27833""
","281.69999998807907","","49","","","3000","1","466.69999998807907,741,1019.2999999970198,1412.7999999970198,1759.699999988079","49,49,49,49,49","images/tutyellowplanet.jpg","null","images/tutalien3","null","images/tutalien3","images/t.png","NA","practice","null","","","",""
"d3-animate-choice","28","188322","0.0-28.0","3197","4979","20","Male","false","true","true","true","""event"",""trial"",""time""
""focus"",""0"",""0""
""blur"",""0"",""0""
""focus"",""0"",""0""
""blur"",""0"",""0""
""focus"",""1"",""1780""
""blur"",""3"",""10944""
""focus"",""3"",""10945""
""fullscreenenter"",""5"",""20005""
""fullscreenexit"",""6"",""27833""
""blur"",""6"",""32446""
""focus"",""6"",""38674""
""blur"",""6"",""40457""
""focus"",""6"",""43589""
""blur"",""7"",""48481""
""focus"",""7"",""69729""
""blur"",""7"",""73136""
""focus"",""7"",""73873""
""blur"",""7"",""74831""
""focus"",""7"",""94527""
""blur"",""7"",""96380""
""focus"",""7"",""118789""
","""event"",""trial"",""time""
""blur"",""0"",""0""
""blur"",""0"",""0""
""blur"",""3"",""10944""
""blur"",""6"",""32446""
""blur"",""6"",""40457""
""blur"",""7"",""48481""
""blur"",""7"",""73136""
""blur"",""7"",""74831""
""blur"",""7"",""96380""
","""event"",""trial"",""time""
""focus"",""0"",""0""
""focus"",""0"",""0""
""focus"",""1"",""1780""
""focus"",""3"",""10945""
""focus"",""6"",""38674""
""focus"",""6"",""43589""
""focus"",""7"",""69729""
""focus"",""7"",""73873""
""focus"",""7"",""94527""
""focus"",""7"",""118789""
","""event"",""trial"",""time""
""fullscreenenter"",""5"",""20005""
","""event"",""trial"",""time""
""fullscreenexit"",""6"",""27833""
","110.8999999910593","","49","","","3000","1","435,712.2000000029802,955.7000000029802,1351.8999999910593,1649.5,1992.5","49,49,49,49,49,49","images/tutyellowplanet.jpg","null","images/tutalien3","null","images/tutalien3","images/t.png","NA","practice","null","","","",""
"d3-animate-choice","29","190503","0.0-29.0","3197","4979","20","Male","false","true","true","true","""event"",""trial"",""time""
""focus"",""0"",""0""
""blur"",""0"",""0""
""focus"",""0"",""0""
""blur"",""0"",""0""
""focus"",""1"",""1780""
""blur"",""3"",""10944""
""focus"",""3"",""10945""
""fullscreenenter"",""5"",""20005""
""fullscreenexit"",""6"",""27833""
""blur"",""6"",""32446""
""focus"",""6"",""38674""
""blur"",""6"",""40457""
""focus"",""6"",""43589""
""blur"",""7"",""48481""
""focus"",""7"",""69729""
""blur"",""7"",""73136""
""focus"",""7"",""73873""
""blur"",""7"",""74831""
""focus"",""7"",""94527""
""blur"",""7"",""96380""
""focus"",""7"",""118789""
","""event"",""trial"",""time""
""blur"",""0"",""0""
""blur"",""0"",""0""
""blur"",""3"",""10944""
""blur"",""6"",""32446""
""blur"",""6"",""40457""
""blur"",""7"",""48481""
""blur"",""7"",""73136""
""blur"",""7"",""74831""
""blur"",""7"",""96380""
","""event"",""trial"",""time""
""focus"",""0"",""0""
""focus"",""0"",""0""
""focus"",""1"",""1780""
""focus"",""3"",""10945""
""focus"",""6"",""38674""
""focus"",""6"",""43589""
""focus"",""7"",""69729""
""focus"",""7"",""73873""
""focus"",""7"",""94527""
""focus"",""7"",""118789""
","""event"",""trial"",""time""
""fullscreenenter"",""5"",""20005""
","""event"",""trial"",""time""
""fullscreenexit"",""6"",""27833""
","168.40000000596046","","49","","","3000","1","492.09999999403954,1120.9000000059605,1472.2999999970198,1776.5999999940395,2019.5","49,49,49,49,49","images/tutyellowplanet.jpg","null","images/tutalien3","null","images/tutalien3","images/t.png","NA","practice","null","","","",""
"d3-instructions","30","192794","0.0-30.0","3197","4979","20","Male","false","true","true","true","""event"",""trial"",""time""
""focus"",""0"",""0""
""blur"",""0"",""0""
""focus"",""0"",""0""
""blur"",""0"",""0""
""focus"",""1"",""1780""
""blur"",""3"",""10944""
""focus"",""3"",""10945""
""fullscreenenter"",""5"",""20005""
""fullscreenexit"",""6"",""27833""
""blur"",""6"",""32446""
""focus"",""6"",""38674""
""blur"",""6"",""40457""
""focus"",""6"",""43589""
""blur"",""7"",""48481""
""focus"",""7"",""69729""
""blur"",""7"",""73136""
""focus"",""7"",""73873""
""blur"",""7"",""74831""
""focus"",""7"",""94527""
""blur"",""7"",""96380""
""focus"",""7"",""118789""
","""event"",""trial"",""time""
""blur"",""0"",""0""
""blur"",""0"",""0""
""blur"",""3"",""10944""
""blur"",""6"",""32446""
""blur"",""6"",""40457""
""blur"",""7"",""48481""
""blur"",""7"",""73136""
""blur"",""7"",""74831""
""blur"",""7"",""96380""
","""event"",""trial"",""time""
""focus"",""0"",""0""
""focus"",""0"",""0""
""focus"",""1"",""1780""
""focus"",""3"",""10945""
""focus"",""6"",""38674""
""focus"",""6"",""43589""
""focus"",""7"",""69729""
""focus"",""7"",""73873""
""focus"",""7"",""94527""
""focus"",""7"",""118789""
","""event"",""trial"",""time""
""fullscreenenter"",""5"",""20005""
","""event"",""trial"",""time""
""fullscreenexit"",""6"",""27833""
","","","","","","","","","","","","","","","","","","","","","",""
"d3-instructions","31","194355","0.0-31.0","3197","4979","20","Male","false","true","true","true","""event"",""trial"",""time""
""focus"",""0"",""0""
""blur"",""0"",""0""
""focus"",""0"",""0""
""blur"",""0"",""0""
""focus"",""1"",""1780""
""blur"",""3"",""10944""
""focus"",""3"",""10945""
""fullscreenenter"",""5"",""20005""
""fullscreenexit"",""6"",""27833""
""blur"",""6"",""32446""
""focus"",""6"",""38674""
""blur"",""6"",""40457""
""focus"",""6"",""43589""
""blur"",""7"",""48481""
""focus"",""7"",""69729""
""blur"",""7"",""73136""
""focus"",""7"",""73873""
""blur"",""7"",""74831""
""focus"",""7"",""94527""
""blur"",""7"",""96380""
""focus"",""7"",""118789""
","""event"",""trial"",""time""
""blur"",""0"",""0""
""blur"",""0"",""0""
""blur"",""3"",""10944""
""blur"",""6"",""32446""
""blur"",""6"",""40457""
""blur"",""7"",""48481""
""blur"",""7"",""73136""
""blur"",""7"",""74831""
""blur"",""7"",""96380""
","""event"",""trial"",""time""
""focus"",""0"",""0""
""focus"",""0"",""0""
""focus"",""1"",""1780""
""focus"",""3"",""10945""
""focus"",""6"",""38674""
""focus"",""6"",""43589""
""focus"",""7"",""69729""
""focus"",""7"",""73873""
""focus"",""7"",""94527""
""focus"",""7"",""118789""
","""event"",""trial"",""time""
""fullscreenenter"",""5"",""20005""
","""event"",""trial"",""time""
""fullscreenexit"",""6"",""27833""
","","","","","","","","","","","","","","","","","","","","","",""
"d3-instructions","32","195911","0.0-32.0","3197","4979","20","Male","false","true","true","true","""event"",""trial"",""time""
""focus"",""0"",""0""
""blur"",""0"",""0""
""focus"",""0"",""0""
""blur"",""0"",""0""
""focus"",""1"",""1780""
""blur"",""3"",""10944""
""focus"",""3"",""10945""
""fullscreenenter"",""5"",""20005""
""fullscreenexit"",""6"",""27833""
""blur"",""6"",""32446""
""focus"",""6"",""38674""
""blur"",""6"",""40457""
""focus"",""6"",""43589""
""blur"",""7"",""48481""
""focus"",""7"",""69729""
""blur"",""7"",""73136""
""focus"",""7"",""73873""
""blur"",""7"",""74831""
""focus"",""7"",""94527""
""blur"",""7"",""96380""
""focus"",""7"",""118789""
","""event"",""trial"",""time""
""blur"",""0"",""0""
""blur"",""0"",""0""
""blur"",""3"",""10944""
""blur"",""6"",""32446""
""blur"",""6"",""40457""
""blur"",""7"",""48481""
""blur"",""7"",""73136""
""blur"",""7"",""74831""
""blur"",""7"",""96380""
","""event"",""trial"",""time""
""focus"",""0"",""0""
""focus"",""0"",""0""
""focus"",""1"",""1780""
""focus"",""3"",""10945""
""focus"",""6"",""38674""
""focus"",""6"",""43589""
""focus"",""7"",""69729""
""focus"",""7"",""73873""
""focus"",""7"",""94527""
""focus"",""7"",""118789""
","""event"",""trial"",""time""
""fullscreenenter"",""5"",""20005""
","""event"",""trial"",""time""
""fullscreenexit"",""6"",""27833""
","","","","","","","","","","","","","","","","","","","","","",""
"d3-instructions","33","196980","0.0-33.0","3197","4979","20","Male","false","true","true","true","""event"",""trial"",""time""
""focus"",""0"",""0""
""blur"",""0"",""0""
""focus"",""0"",""0""
""blur"",""0"",""0""
""focus"",""1"",""1780""
""blur"",""3"",""10944""
""focus"",""3"",""10945""
""fullscreenenter"",""5"",""20005""
""fullscreenexit"",""6"",""27833""
""blur"",""6"",""32446""
""focus"",""6"",""38674""
""blur"",""6"",""40457""
""focus"",""6"",""43589""
""blur"",""7"",""48481""
""focus"",""7"",""69729""
""blur"",""7"",""73136""
""focus"",""7"",""73873""
""blur"",""7"",""74831""
""focus"",""7"",""94527""
""blur"",""7"",""96380""
""focus"",""7"",""118789""
","""event"",""trial"",""time""
""blur"",""0"",""0""
""blur"",""0"",""0""
""blur"",""3"",""10944""
""blur"",""6"",""32446""
""blur"",""6"",""40457""
""blur"",""7"",""48481""
""blur"",""7"",""73136""
""blur"",""7"",""74831""
""blur"",""7"",""96380""
","""event"",""trial"",""time""
""focus"",""0"",""0""
""focus"",""0"",""0""
""focus"",""1"",""1780""
""focus"",""3"",""10945""
""focus"",""6"",""38674""
""focus"",""6"",""43589""
""focus"",""7"",""69729""
""focus"",""7"",""73873""
""focus"",""7"",""94527""
""focus"",""7"",""118789""
","""event"",""trial"",""time""
""fullscreenenter"",""5"",""20005""
","""event"",""trial"",""time""
""fullscreenexit"",""6"",""27833""
","","","","","","","","","","","","","","","","","","","","","",""
"d3-animate-choice","34","200714","0.0-34.0","3197","4979","20","Male","false","true","true","true","""event"",""trial"",""time""
""focus"",""0"",""0""
""blur"",""0"",""0""
""focus"",""0"",""0""
""blur"",""0"",""0""
""focus"",""1"",""1780""
""blur"",""3"",""10944""
""focus"",""3"",""10945""
""fullscreenenter"",""5"",""20005""
""fullscreenexit"",""6"",""27833""
""blur"",""6"",""32446""
""focus"",""6"",""38674""
""blur"",""6"",""40457""
""focus"",""6"",""43589""
""blur"",""7"",""48481""
""focus"",""7"",""69729""
""blur"",""7"",""73136""
""focus"",""7"",""73873""
""blur"",""7"",""74831""
""focus"",""7"",""94527""
""blur"",""7"",""96380""
""focus"",""7"",""118789""
","""event"",""trial"",""time""
""blur"",""0"",""0""
""blur"",""0"",""0""
""blur"",""3"",""10944""
""blur"",""6"",""32446""
""blur"",""6"",""40457""
""blur"",""7"",""48481""
""blur"",""7"",""73136""
""blur"",""7"",""74831""
""blur"",""7"",""96380""
","""event"",""trial"",""time""
""focus"",""0"",""0""
""focus"",""0"",""0""
""focus"",""1"",""1780""
""focus"",""3"",""10945""
""focus"",""6"",""38674""
""focus"",""6"",""43589""
""focus"",""7"",""69729""
""focus"",""7"",""73873""
""focus"",""7"",""94527""
""focus"",""7"",""118789""
","""event"",""trial"",""time""
""fullscreenenter"",""5"",""20005""
","""event"",""trial"",""time""
""fullscreenexit"",""6"",""27833""
","522.6999999880791","","50","","","3000","1","1731.199999988079","48","images/tutgreenplanet.jpg","images/tutalien1","images/tutalien2","null","images/tutalien1","images/nothing.png","NA","practice","null","","","",""
"d3-animate-choice","35","202894","0.0-35.0","3197","4979","20","Male","false","true","true","true","""event"",""trial"",""time""
""focus"",""0"",""0""
""blur"",""0"",""0""
""focus"",""0"",""0""
""blur"",""0"",""0""
""focus"",""1"",""1780""
""blur"",""3"",""10944""
""focus"",""3"",""10945""
""fullscreenenter"",""5"",""20005""
""fullscreenexit"",""6"",""27833""
""blur"",""6"",""32446""
""focus"",""6"",""38674""
""blur"",""6"",""40457""
""focus"",""6"",""43589""
""blur"",""7"",""48481""
""focus"",""7"",""69729""
""blur"",""7"",""73136""
""focus"",""7"",""73873""
""blur"",""7"",""74831""
""focus"",""7"",""94527""
""blur"",""7"",""96380""
""focus"",""7"",""118789""
","""event"",""trial"",""time""
""blur"",""0"",""0""
""blur"",""0"",""0""
""blur"",""3"",""10944""
""blur"",""6"",""32446""
""blur"",""6"",""40457""
""blur"",""7"",""48481""
""blur"",""7"",""73136""
""blur"",""7"",""74831""
""blur"",""7"",""96380""
","""event"",""trial"",""time""
""focus"",""0"",""0""
""focus"",""0"",""0""
""focus"",""1"",""1780""
""focus"",""3"",""10945""
""focus"",""6"",""38674""
""focus"",""6"",""43589""
""focus"",""7"",""69729""
""focus"",""7"",""73873""
""focus"",""7"",""94527""
""focus"",""7"",""118789""
","""event"",""trial"",""time""
""fullscreenenter"",""5"",""20005""
","""event"",""trial"",""time""
""fullscreenexit"",""6"",""27833""
","173.3999999910593","","49","","","3000","1","1667.2999999970198","48","images/tutgreenplanet.jpg","images/tutalien1","images/tutalien2","null","images/tutalien2","images/t.png","NA","practice","null","","","",""
"d3-animate-choice","36","204960","0.0-36.0","3197","4979","20","Male","false","true","true","true","""event"",""trial"",""time""
""focus"",""0"",""0""
""blur"",""0"",""0""
""focus"",""0"",""0""
""blur"",""0"",""0""
""focus"",""1"",""1780""
""blur"",""3"",""10944""
""focus"",""3"",""10945""
""fullscreenenter"",""5"",""20005""
""fullscreenexit"",""6"",""27833""
""blur"",""6"",""32446""
""focus"",""6"",""38674""
""blur"",""6"",""40457""
""focus"",""6"",""43589""
""blur"",""7"",""48481""
""focus"",""7"",""69729""
""blur"",""7"",""73136""
""focus"",""7"",""73873""
""blur"",""7"",""74831""
""focus"",""7"",""94527""
""blur"",""7"",""96380""
""focus"",""7"",""118789""
","""event"",""trial"",""time""
""blur"",""0"",""0""
""blur"",""0"",""0""
""blur"",""3"",""10944""
""blur"",""6"",""32446""
""blur"",""6"",""40457""
""blur"",""7"",""48481""
""blur"",""7"",""73136""
""blur"",""7"",""74831""
""blur"",""7"",""96380""
","""event"",""trial"",""time""
""focus"",""0"",""0""
""focus"",""0"",""0""
""focus"",""1"",""1780""
""focus"",""3"",""10945""
""focus"",""6"",""38674""
""focus"",""6"",""43589""
""focus"",""7"",""69729""
""focus"",""7"",""73873""
""focus"",""7"",""94527""
""focus"",""7"",""118789""
","""event"",""trial"",""time""
""fullscreenenter"",""5"",""20005""
","""event"",""trial"",""time""
""fullscreenexit"",""6"",""27833""
","46.79999999701977","","49","","","3000","1","1457.2000000029802,1780.5","48,49","images/tutgreenplanet.jpg","images/tutalien1","images/tutalien2","null","images/tutalien2","images/t.png","NA","practice","null","","","",""
"d3-animate-choice","37","207084","0.0-37.0","3197","4979","20","Male","false","true","true","true","""event"",""trial"",""time""
""focus"",""0"",""0""
""blur"",""0"",""0""
""focus"",""0"",""0""
""blur"",""0"",""0""
""focus"",""1"",""1780""
""blur"",""3"",""10944""
""focus"",""3"",""10945""
""fullscreenenter"",""5"",""20005""
""fullscreenexit"",""6"",""27833""
""blur"",""6"",""32446""
""focus"",""6"",""38674""
""blur"",""6"",""40457""
""focus"",""6"",""43589""
""blur"",""7"",""48481""
""focus"",""7"",""69729""
""blur"",""7"",""73136""
""focus"",""7"",""73873""
""blur"",""7"",""74831""
""focus"",""7"",""94527""
""blur"",""7"",""96380""
""focus"",""7"",""118789""
","""event"",""trial"",""time""
""blur"",""0"",""0""
""blur"",""0"",""0""
""blur"",""3"",""10944""
""blur"",""6"",""32446""
""blur"",""6"",""40457""
""blur"",""7"",""48481""
""blur"",""7"",""73136""
""blur"",""7"",""74831""
""blur"",""7"",""96380""
","""event"",""trial"",""time""
""focus"",""0"",""0""
""focus"",""0"",""0""
""focus"",""1"",""1780""
""focus"",""3"",""10945""
""focus"",""6"",""38674""
""focus"",""6"",""43589""
""focus"",""7"",""69729""
""focus"",""7"",""73873""
""focus"",""7"",""94527""
""focus"",""7"",""118789""
","""event"",""trial"",""time""
""fullscreenenter"",""5"",""20005""
","""event"",""trial"",""time""
""fullscreenexit"",""6"",""27833""
","113.5","","49","","","3000","1","385.80000001192093,660.5,982.4000000059605,1425.300000011921,2110.9000000059605","49,49,49,49,49","images/tutgreenplanet.jpg","images/tutalien1","images/tutalien2","null","images/tutalien2","images/t.png","NA","practice","null","","","",""
"d3-animate-choice","38","209386","0.0-38.0","3197","4979","20","Male","false","true","true","true","""event"",""trial"",""time""
""focus"",""0"",""0""
""blur"",""0"",""0""
""focus"",""0"",""0""
""blur"",""0"",""0""
""focus"",""1"",""1780""
""blur"",""3"",""10944""
""focus"",""3"",""10945""
""fullscreenenter"",""5"",""20005""
""fullscreenexit"",""6"",""27833""
""blur"",""6"",""32446""
""focus"",""6"",""38674""
""blur"",""6"",""40457""
""focus"",""6"",""43589""
""blur"",""7"",""48481""
""focus"",""7"",""69729""
""blur"",""7"",""73136""
""focus"",""7"",""73873""
""blur"",""7"",""74831""
""focus"",""7"",""94527""
""blur"",""7"",""96380""
""focus"",""7"",""118789""
","""event"",""trial"",""time""
""blur"",""0"",""0""
""blur"",""0"",""0""
""blur"",""3"",""10944""
""blur"",""6"",""32446""
""blur"",""6"",""40457""
""blur"",""7"",""48481""
""blur"",""7"",""73136""
""blur"",""7"",""74831""
""blur"",""7"",""96380""
","""event"",""trial"",""time""
""focus"",""0"",""0""
""focus"",""0"",""0""
""focus"",""1"",""1780""
""focus"",""3"",""10945""
""focus"",""6"",""38674""
""focus"",""6"",""43589""
""focus"",""7"",""69729""
""focus"",""7"",""73873""
""focus"",""7"",""94527""
""focus"",""7"",""118789""
","""event"",""trial"",""time""
""fullscreenenter"",""5"",""20005""
","""event"",""trial"",""time""
""fullscreenexit"",""6"",""27833""
","281.80000001192093","","49","","","3000","1","578.5,1166,1360.4000000059605,1633.6000000089407,1884.4000000059605,2156.9000000059605","49,49,49,49,49,49","images/tutgreenplanet.jpg","images/tutalien1","images/tutalien2","null","images/tutalien2","images/t.png","NA","practice","null","","","",""
"d3-animate-choice","39","211541","0.0-39.0","3197","4979","20","Male","false","true","true","true","""event"",""trial"",""time""
""focus"",""0"",""0""
""blur"",""0"",""0""
""focus"",""0"",""0""
""blur"",""0"",""0""
""focus"",""1"",""1780""
""blur"",""3"",""10944""
""focus"",""3"",""10945""
""fullscreenenter"",""5"",""20005""
""fullscreenexit"",""6"",""27833""
""blur"",""6"",""32446""
""focus"",""6"",""38674""
""blur"",""6"",""40457""
""focus"",""6"",""43589""
""blur"",""7"",""48481""
""focus"",""7"",""69729""
""blur"",""7"",""73136""
""focus"",""7"",""73873""
""blur"",""7"",""74831""
""focus"",""7"",""94527""
""blur"",""7"",""96380""
""focus"",""7"",""118789""
","""event"",""trial"",""time""
""blur"",""0"",""0""
""blur"",""0"",""0""
""blur"",""3"",""10944""
""blur"",""6"",""32446""
""blur"",""6"",""40457""
""blur"",""7"",""48481""
""blur"",""7"",""73136""
""blur"",""7"",""74831""
""blur"",""7"",""96380""
","""event"",""trial"",""time""
""focus"",""0"",""0""
""focus"",""0"",""0""
""focus"",""1"",""1780""
""focus"",""3"",""10945""
""focus"",""6"",""38674""
""focus"",""6"",""43589""
""focus"",""7"",""69729""
""focus"",""7"",""73873""
""focus"",""7"",""94527""
""focus"",""7"",""118789""
","""event"",""trial"",""time""
""fullscreenenter"",""5"",""20005""
","""event"",""trial"",""time""
""fullscreenexit"",""6"",""27833""
","137.79999999701977","","49","","","3000","1","531.7000000029802,869.7999999970198,1124.5,1431.5999999940395,1698.9000000059605,1989.5","49,49,49,49,49,49","images/tutgreenplanet.jpg","images/tutalien1","images/tutalien2","null","images/tutalien2","images/t.png","NA","practice","null","","","",""
"d3-animate-choice","40","213629","0.0-40.0","3197","4979","20","Male","false","true","true","true","""event"",""trial"",""time""
""focus"",""0"",""0""
""blur"",""0"",""0""
""focus"",""0"",""0""
""blur"",""0"",""0""
""focus"",""1"",""1780""
""blur"",""3"",""10944""
""focus"",""3"",""10945""
""fullscreenenter"",""5"",""20005""
""fullscreenexit"",""6"",""27833""
""blur"",""6"",""32446""
""focus"",""6"",""38674""
""blur"",""6"",""40457""
""focus"",""6"",""43589""
""blur"",""7"",""48481""
""focus"",""7"",""69729""
""blur"",""7"",""73136""
""focus"",""7"",""73873""
""blur"",""7"",""74831""
""focus"",""7"",""94527""
""blur"",""7"",""96380""
""focus"",""7"",""118789""
","""event"",""trial"",""time""
""blur"",""0"",""0""
""blur"",""0"",""0""
""blur"",""3"",""10944""
""blur"",""6"",""32446""
""blur"",""6"",""40457""
""blur"",""7"",""48481""
""blur"",""7"",""73136""
""blur"",""7"",""74831""
""blur"",""7"",""96380""
","""event"",""trial"",""time""
""focus"",""0"",""0""
""focus"",""0"",""0""
""focus"",""1"",""1780""
""focus"",""3"",""10945""
""focus"",""6"",""38674""
""focus"",""6"",""43589""
""focus"",""7"",""69729""
""focus"",""7"",""73873""
""focus"",""7"",""94527""
""focus"",""7"",""118789""
","""event"",""trial"",""time""
""fullscreenenter"",""5"",""20005""
","""event"",""trial"",""time""
""fullscreenexit"",""6"",""27833""
","83.1000000089407","","49","","","3000","1","353,648.9000000059605,953.2000000029802,1215,1455.4000000059605,1739.2000000029802,2011.1000000089407","49,49,49,49,49,49,49","images/tutgreenplanet.jpg","images/tutalien1","images/tutalien2","null","images/tutalien2","images/t.png","NA","practice","null","","","",""
"d3-animate-choice","41","215808","0.0-41.0","3197","4979","20","Male","false","true","true","true","""event"",""trial"",""time""
""focus"",""0"",""0""
""blur"",""0"",""0""
""focus"",""0"",""0""
""blur"",""0"",""0""
""focus"",""1"",""1780""
""blur"",""3"",""10944""
""focus"",""3"",""10945""
""fullscreenenter"",""5"",""20005""
""fullscreenexit"",""6"",""27833""
""blur"",""6"",""32446""
""focus"",""6"",""38674""
""blur"",""6"",""40457""
""focus"",""6"",""43589""
""blur"",""7"",""48481""
""focus"",""7"",""69729""
""blur"",""7"",""73136""
""focus"",""7"",""73873""
""blur"",""7"",""74831""
""focus"",""7"",""94527""
""blur"",""7"",""96380""
""focus"",""7"",""118789""
","""event"",""trial"",""time""
""blur"",""0"",""0""
""blur"",""0"",""0""
""blur"",""3"",""10944""
""blur"",""6"",""32446""
""blur"",""6"",""40457""
""blur"",""7"",""48481""
""blur"",""7"",""73136""
""blur"",""7"",""74831""
""blur"",""7"",""96380""
","""event"",""trial"",""time""
""focus"",""0"",""0""
""focus"",""0"",""0""
""focus"",""1"",""1780""
""focus"",""3"",""10945""
""focus"",""6"",""38674""
""focus"",""6"",""43589""
""focus"",""7"",""69729""
""focus"",""7"",""73873""
""focus"",""7"",""94527""
""focus"",""7"",""118789""
","""event"",""trial"",""time""
""fullscreenenter"",""5"",""20005""
","""event"",""trial"",""time""
""fullscreenexit"",""6"",""27833""
","164.8999999910593","","49","","","3000","1","415.29999999701977,678.3999999910593,984.5,1227,1505,1801.699999988079,2079.5","49,49,49,49,49,49,49","images/tutgreenplanet.jpg","images/tutalien1","images/tutalien2","null","images/tutalien2","images/t.png","NA","practice","null","","","",""
"d3-animate-choice","42","217944","0.0-42.0","3197","4979","20","Male","false","true","true","true","""event"",""trial"",""time""
""focus"",""0"",""0""
""blur"",""0"",""0""
""focus"",""0"",""0""
""blur"",""0"",""0""
""focus"",""1"",""1780""
""blur"",""3"",""10944""
""focus"",""3"",""10945""
""fullscreenenter"",""5"",""20005""
""fullscreenexit"",""6"",""27833""
""blur"",""6"",""32446""
""focus"",""6"",""38674""
""blur"",""6"",""40457""
""focus"",""6"",""43589""
""blur"",""7"",""48481""
""focus"",""7"",""69729""
""blur"",""7"",""73136""
""focus"",""7"",""73873""
""blur"",""7"",""74831""
""focus"",""7"",""94527""
""blur"",""7"",""96380""
""focus"",""7"",""118789""
","""event"",""trial"",""time""
""blur"",""0"",""0""
""blur"",""0"",""0""
""blur"",""3"",""10944""
""blur"",""6"",""32446""
""blur"",""6"",""40457""
""blur"",""7"",""48481""
""blur"",""7"",""73136""
""blur"",""7"",""74831""
""blur"",""7"",""96380""
","""event"",""trial"",""time""
""focus"",""0"",""0""
""focus"",""0"",""0""
""focus"",""1"",""1780""
""focus"",""3"",""10945""
""focus"",""6"",""38674""
""focus"",""6"",""43589""
""focus"",""7"",""69729""
""focus"",""7"",""73873""
""focus"",""7"",""94527""
""focus"",""7"",""118789""
","""event"",""trial"",""time""
""fullscreenenter"",""5"",""20005""
","""event"",""trial"",""time""
""fullscreenexit"",""6"",""27833""
","126.3999999910593","","49","","","3000","1","634.5999999940395,996.3999999910593,1222.7000000029802,2109.5","49,49,49,49","images/tutgreenplanet.jpg","images/tutalien1","images/tutalien2","null","images/tutalien2","images/t.png","NA","practice","null","","","",""
"d3-animate-choice","43","220529","0.0-43.0","3197","4979","20","Male","false","true","true","true","""event"",""trial"",""time""
""focus"",""0"",""0""
""blur"",""0"",""0""
""focus"",""0"",""0""
""blur"",""0"",""0""
""focus"",""1"",""1780""
""blur"",""3"",""10944""
""focus"",""3"",""10945""
""fullscreenenter"",""5"",""20005""
""fullscreenexit"",""6"",""27833""
""blur"",""6"",""32446""
""focus"",""6"",""38674""
""blur"",""6"",""40457""
""focus"",""6"",""43589""
""blur"",""7"",""48481""
""focus"",""7"",""69729""
""blur"",""7"",""73136""
""focus"",""7"",""73873""
""blur"",""7"",""74831""
""focus"",""7"",""94527""
""blur"",""7"",""96380""
""focus"",""7"",""118789""
","""event"",""trial"",""time""
""blur"",""0"",""0""
""blur"",""0"",""0""
""blur"",""3"",""10944""
""blur"",""6"",""32446""
""blur"",""6"",""40457""
""blur"",""7"",""48481""
""blur"",""7"",""73136""
""blur"",""7"",""74831""
""blur"",""7"",""96380""
","""event"",""trial"",""time""
""focus"",""0"",""0""
""focus"",""0"",""0""
""focus"",""1"",""1780""
""focus"",""3"",""10945""
""focus"",""6"",""38674""
""focus"",""6"",""43589""
""focus"",""7"",""69729""
""focus"",""7"",""73873""
""focus"",""7"",""94527""
""focus"",""7"",""118789""
","""event"",""trial"",""time""
""fullscreenenter"",""5"",""20005""
","""event"",""trial"",""time""
""fullscreenexit"",""6"",""27833""
","570.9000000059605","","49","","","3000","1","1077.300000011921,1814.6000000089407,2570.2000000029802","49,49,49","images/tutgreenplanet.jpg","images/tutalien1","images/tutalien2","null","images/tutalien2","images/t.png","NA","practice","null","","","",""
"d3-instructions","44","227119","0.0-44.0","3197","4979","20","Male","false","true","true","true","""event"",""trial"",""time""
""focus"",""0"",""0""
""blur"",""0"",""0""
""focus"",""0"",""0""
""blur"",""0"",""0""
""focus"",""1"",""1780""
""blur"",""3"",""10944""
""focus"",""3"",""10945""
""fullscreenenter"",""5"",""20005""
""fullscreenexit"",""6"",""27833""
""blur"",""6"",""32446""
""focus"",""6"",""38674""
""blur"",""6"",""40457""
""focus"",""6"",""43589""
""blur"",""7"",""48481""
""focus"",""7"",""69729""
""blur"",""7"",""73136""
""focus"",""7"",""73873""
""blur"",""7"",""74831""
""focus"",""7"",""94527""
""blur"",""7"",""96380""
""focus"",""7"",""118789""
","""event"",""trial"",""time""
""blur"",""0"",""0""
""blur"",""0"",""0""
""blur"",""3"",""10944""
""blur"",""6"",""32446""
""blur"",""6"",""40457""
""blur"",""7"",""48481""
""blur"",""7"",""73136""
""blur"",""7"",""74831""
""blur"",""7"",""96380""
","""event"",""trial"",""time""
""focus"",""0"",""0""
""focus"",""0"",""0""
""focus"",""1"",""1780""
""focus"",""3"",""10945""
""focus"",""6"",""38674""
""focus"",""6"",""43589""
""focus"",""7"",""69729""
""focus"",""7"",""73873""
""focus"",""7"",""94527""
""focus"",""7"",""118789""
","""event"",""trial"",""time""
""fullscreenenter"",""5"",""20005""
","""event"",""trial"",""time""
""fullscreenexit"",""6"",""27833""
","","","","","","","","","","","","","","","","","","","","","",""
"d3-instructions","45","229240","0.0-45.0","3197","4979","20","Male","false","true","true","true","""event"",""trial"",""time""
""focus"",""0"",""0""
""blur"",""0"",""0""
""focus"",""0"",""0""
""blur"",""0"",""0""
""focus"",""1"",""1780""
""blur"",""3"",""10944""
""focus"",""3"",""10945""
""fullscreenenter"",""5"",""20005""
""fullscreenexit"",""6"",""27833""
""blur"",""6"",""32446""
""focus"",""6"",""38674""
""blur"",""6"",""40457""
""focus"",""6"",""43589""
""blur"",""7"",""48481""
""focus"",""7"",""69729""
""blur"",""7"",""73136""
""focus"",""7"",""73873""
""blur"",""7"",""74831""
""focus"",""7"",""94527""
""blur"",""7"",""96380""
""focus"",""7"",""118789""
","""event"",""trial"",""time""
""blur"",""0"",""0""
""blur"",""0"",""0""
""blur"",""3"",""10944""
""blur"",""6"",""32446""
""blur"",""6"",""40457""
""blur"",""7"",""48481""
""blur"",""7"",""73136""
""blur"",""7"",""74831""
""blur"",""7"",""96380""
","""event"",""trial"",""time""
""focus"",""0"",""0""
""focus"",""0"",""0""
""focus"",""1"",""1780""
""focus"",""3"",""10945""
""focus"",""6"",""38674""
""focus"",""6"",""43589""
""focus"",""7"",""69729""
""focus"",""7"",""73873""
""focus"",""7"",""94527""
""focus"",""7"",""118789""
","""event"",""trial"",""time""
""fullscreenenter"",""5"",""20005""
","""event"",""trial"",""time""
""fullscreenexit"",""6"",""27833""
","","","","","","","","","","","","","","","","","","","","","",""
"d3-instructions","46","229748","0.0-46.0","3197","4979","20","Male","false","true","true","true","""event"",""trial"",""time""
""focus"",""0"",""0""
""blur"",""0"",""0""
""focus"",""0"",""0""
""blur"",""0"",""0""
""focus"",""1"",""1780""
""blur"",""3"",""10944""
""focus"",""3"",""10945""
""fullscreenenter"",""5"",""20005""
""fullscreenexit"",""6"",""27833""
""blur"",""6"",""32446""
""focus"",""6"",""38674""
""blur"",""6"",""40457""
""focus"",""6"",""43589""
""blur"",""7"",""48481""
""focus"",""7"",""69729""
""blur"",""7"",""73136""
""focus"",""7"",""73873""
""blur"",""7"",""74831""
""focus"",""7"",""94527""
""blur"",""7"",""96380""
""focus"",""7"",""118789""
","""event"",""trial"",""time""
""blur"",""0"",""0""
""blur"",""0"",""0""
""blur"",""3"",""10944""
""blur"",""6"",""32446""
""blur"",""6"",""40457""
""blur"",""7"",""48481""
""blur"",""7"",""73136""
""blur"",""7"",""74831""
""blur"",""7"",""96380""
","""event"",""trial"",""time""
""focus"",""0"",""0""
""focus"",""0"",""0""
""focus"",""1"",""1780""
""focus"",""3"",""10945""
""focus"",""6"",""38674""
""focus"",""6"",""43589""
""focus"",""7"",""69729""
""focus"",""7"",""73873""
""focus"",""7"",""94527""
""focus"",""7"",""118789""
","""event"",""trial"",""time""
""fullscreenenter"",""5"",""20005""
","""event"",""trial"",""time""
""fullscreenexit"",""6"",""27833""
","","","","","","","","","","","","","","","","","","","","","",""
"d3-instructions","47","231420","0.0-47.0","3197","4979","20","Male","false","true","true","true","""event"",""trial"",""time""
""focus"",""0"",""0""
""blur"",""0"",""0""
""focus"",""0"",""0""
""blur"",""0"",""0""
""focus"",""1"",""1780""
""blur"",""3"",""10944""
""focus"",""3"",""10945""
""fullscreenenter"",""5"",""20005""
""fullscreenexit"",""6"",""27833""
""blur"",""6"",""32446""
""focus"",""6"",""38674""
""blur"",""6"",""40457""
""focus"",""6"",""43589""
""blur"",""7"",""48481""
""focus"",""7"",""69729""
""blur"",""7"",""73136""
""focus"",""7"",""73873""
""blur"",""7"",""74831""
""focus"",""7"",""94527""
""blur"",""7"",""96380""
""focus"",""7"",""118789""
","""event"",""trial"",""time""
""blur"",""0"",""0""
""blur"",""0"",""0""
""blur"",""3"",""10944""
""blur"",""6"",""32446""
""blur"",""6"",""40457""
""blur"",""7"",""48481""
""blur"",""7"",""73136""
""blur"",""7"",""74831""
""blur"",""7"",""96380""
","""event"",""trial"",""time""
""focus"",""0"",""0""
""focus"",""0"",""0""
""focus"",""1"",""1780""
""focus"",""3"",""10945""
""focus"",""6"",""38674""
""focus"",""6"",""43589""
""focus"",""7"",""69729""
""focus"",""7"",""73873""
""focus"",""7"",""94527""
""focus"",""7"",""118789""
","""event"",""trial"",""time""
""fullscreenenter"",""5"",""20005""
","""event"",""trial"",""time""
""fullscreenexit"",""6"",""27833""
","","","","","","","","","","","","","","","","","","","","","",""
"d3-instructions","48","231865","0.0-48.0","3197","4979","20","Male","false","true","true","true","""event"",""trial"",""time""
""focus"",""0"",""0""
""blur"",""0"",""0""
""focus"",""0"",""0""
""blur"",""0"",""0""
""focus"",""1"",""1780""
""blur"",""3"",""10944""
""focus"",""3"",""10945""
""fullscreenenter"",""5"",""20005""
""fullscreenexit"",""6"",""27833""
""blur"",""6"",""32446""
""focus"",""6"",""38674""
""blur"",""6"",""40457""
""focus"",""6"",""43589""
""blur"",""7"",""48481""
""focus"",""7"",""69729""
""blur"",""7"",""73136""
""focus"",""7"",""73873""
""blur"",""7"",""74831""
""focus"",""7"",""94527""
""blur"",""7"",""96380""
""focus"",""7"",""118789""
","""event"",""trial"",""time""
""blur"",""0"",""0""
""blur"",""0"",""0""
""blur"",""3"",""10944""
""blur"",""6"",""32446""
""blur"",""6"",""40457""
""blur"",""7"",""48481""
""blur"",""7"",""73136""
""blur"",""7"",""74831""
""blur"",""7"",""96380""
","""event"",""trial"",""time""
""focus"",""0"",""0""
""focus"",""0"",""0""
""focus"",""1"",""1780""
""focus"",""3"",""10945""
""focus"",""6"",""38674""
""focus"",""6"",""43589""
""focus"",""7"",""69729""
""focus"",""7"",""73873""
""focus"",""7"",""94527""
""focus"",""7"",""118789""
","""event"",""trial"",""time""
""fullscreenenter"",""5"",""20005""
","""event"",""trial"",""time""
""fullscreenexit"",""6"",""27833""
","","","","","","","","","","","","","","","","","","","","","",""
"d3-instructions","49","232383","0.0-49.0","3197","4979","20","Male","false","true","true","true","""event"",""trial"",""time""
""focus"",""0"",""0""
""blur"",""0"",""0""
""focus"",""0"",""0""
""blur"",""0"",""0""
""focus"",""1"",""1780""
""blur"",""3"",""10944""
""focus"",""3"",""10945""
""fullscreenenter"",""5"",""20005""
""fullscreenexit"",""6"",""27833""
""blur"",""6"",""32446""
""focus"",""6"",""38674""
""blur"",""6"",""40457""
""focus"",""6"",""43589""
""blur"",""7"",""48481""
""focus"",""7"",""69729""
""blur"",""7"",""73136""
""focus"",""7"",""73873""
""blur"",""7"",""74831""
""focus"",""7"",""94527""
""blur"",""7"",""96380""
""focus"",""7"",""118789""
","""event"",""trial"",""time""
""blur"",""0"",""0""
""blur"",""0"",""0""
""blur"",""3"",""10944""
""blur"",""6"",""32446""
""blur"",""6"",""40457""
""blur"",""7"",""48481""
""blur"",""7"",""73136""
""blur"",""7"",""74831""
""blur"",""7"",""96380""
","""event"",""trial"",""time""
""focus"",""0"",""0""
""focus"",""0"",""0""
""focus"",""1"",""1780""
""focus"",""3"",""10945""
""focus"",""6"",""38674""
""focus"",""6"",""43589""
""focus"",""7"",""69729""
""focus"",""7"",""73873""
""focus"",""7"",""94527""
""focus"",""7"",""118789""
","""event"",""trial"",""time""
""fullscreenenter"",""5"",""20005""
","""event"",""trial"",""time""
""fullscreenexit"",""6"",""27833""
","","","","","","","","","","","","","","","","","","","","","",""
"d3-instructions","50","232947","0.0-50.0","3197","4979","20","Male","false","true","true","true","""event"",""trial"",""time""
""focus"",""0"",""0""
""blur"",""0"",""0""
""focus"",""0"",""0""
""blur"",""0"",""0""
""focus"",""1"",""1780""
""blur"",""3"",""10944""
""focus"",""3"",""10945""
""fullscreenenter"",""5"",""20005""
""fullscreenexit"",""6"",""27833""
""blur"",""6"",""32446""
""focus"",""6"",""38674""
""blur"",""6"",""40457""
""focus"",""6"",""43589""
""blur"",""7"",""48481""
""focus"",""7"",""69729""
""blur"",""7"",""73136""
""focus"",""7"",""73873""
""blur"",""7"",""74831""
""focus"",""7"",""94527""
""blur"",""7"",""96380""
""focus"",""7"",""118789""
","""event"",""trial"",""time""
""blur"",""0"",""0""
""blur"",""0"",""0""
""blur"",""3"",""10944""
""blur"",""6"",""32446""
""blur"",""6"",""40457""
""blur"",""7"",""48481""
""blur"",""7"",""73136""
""blur"",""7"",""74831""
""blur"",""7"",""96380""
","""event"",""trial"",""time""
""focus"",""0"",""0""
""focus"",""0"",""0""
""focus"",""1"",""1780""
""focus"",""3"",""10945""
""focus"",""6"",""38674""
""focus"",""6"",""43589""
""focus"",""7"",""69729""
""focus"",""7"",""73873""
""focus"",""7"",""94527""
""focus"",""7"",""118789""
","""event"",""trial"",""time""
""fullscreenenter"",""5"",""20005""
","""event"",""trial"",""time""
""fullscreenexit"",""6"",""27833""
","","","","","","","","","","","","","","","","","","","","","",""
"d3-instructions","51","233745","0.0-51.0","3197","4979","20","Male","false","true","true","true","""event"",""trial"",""time""
""focus"",""0"",""0""
""blur"",""0"",""0""
""focus"",""0"",""0""
""blur"",""0"",""0""
""focus"",""1"",""1780""
""blur"",""3"",""10944""
""focus"",""3"",""10945""
""fullscreenenter"",""5"",""20005""
""fullscreenexit"",""6"",""27833""
""blur"",""6"",""32446""
""focus"",""6"",""38674""
""blur"",""6"",""40457""
""focus"",""6"",""43589""
""blur"",""7"",""48481""
""focus"",""7"",""69729""
""blur"",""7"",""73136""
""focus"",""7"",""73873""
""blur"",""7"",""74831""
""focus"",""7"",""94527""
""blur"",""7"",""96380""
""focus"",""7"",""118789""
","""event"",""trial"",""time""
""blur"",""0"",""0""
""blur"",""0"",""0""
""blur"",""3"",""10944""
""blur"",""6"",""32446""
""blur"",""6"",""40457""
""blur"",""7"",""48481""
""blur"",""7"",""73136""
""blur"",""7"",""74831""
""blur"",""7"",""96380""
","""event"",""trial"",""time""
""focus"",""0"",""0""
""focus"",""0"",""0""
""focus"",""1"",""1780""
""focus"",""3"",""10945""
""focus"",""6"",""38674""
""focus"",""6"",""43589""
""focus"",""7"",""69729""
""focus"",""7"",""73873""
""focus"",""7"",""94527""
""focus"",""7"",""118789""
","""event"",""trial"",""time""
""fullscreenenter"",""5"",""20005""
","""event"",""trial"",""time""
""fullscreenexit"",""6"",""27833""
","","","","","","","","","","","","","","","","","","","","","",""
"d3-instructions","52","234124","0.0-52.0","3197","4979","20","Male","false","true","true","true","""event"",""trial"",""time""
""focus"",""0"",""0""
""blur"",""0"",""0""
""focus"",""0"",""0""
""blur"",""0"",""0""
""focus"",""1"",""1780""
""blur"",""3"",""10944""
""focus"",""3"",""10945""
""fullscreenenter"",""5"",""20005""
""fullscreenexit"",""6"",""27833""
""blur"",""6"",""32446""
""focus"",""6"",""38674""
""blur"",""6"",""40457""
""focus"",""6"",""43589""
""blur"",""7"",""48481""
""focus"",""7"",""69729""
""blur"",""7"",""73136""
""focus"",""7"",""73873""
""blur"",""7"",""74831""
""focus"",""7"",""94527""
""blur"",""7"",""96380""
""focus"",""7"",""118789""
","""event"",""trial"",""time""
""blur"",""0"",""0""
""blur"",""0"",""0""
""blur"",""3"",""10944""
""blur"",""6"",""32446""
""blur"",""6"",""40457""
""blur"",""7"",""48481""
""blur"",""7"",""73136""
""blur"",""7"",""74831""
""blur"",""7"",""96380""
","""event"",""trial"",""time""
""focus"",""0"",""0""
""focus"",""0"",""0""
""focus"",""1"",""1780""
""focus"",""3"",""10945""
""focus"",""6"",""38674""
""focus"",""6"",""43589""
""focus"",""7"",""69729""
""focus"",""7"",""73873""
""focus"",""7"",""94527""
""focus"",""7"",""118789""
","""event"",""trial"",""time""
""fullscreenenter"",""5"",""20005""
","""event"",""trial"",""time""
""fullscreenexit"",""6"",""27833""
","","","","","","","","","","","","","","","","","","","","","",""
"d3-instructions","53","235444","0.0-53.0","3197","4979","20","Male","false","true","true","true","""event"",""trial"",""time""
""focus"",""0"",""0""
""blur"",""0"",""0""
""focus"",""0"",""0""
""blur"",""0"",""0""
""focus"",""1"",""1780""
""blur"",""3"",""10944""
""focus"",""3"",""10945""
""fullscreenenter"",""5"",""20005""
""fullscreenexit"",""6"",""27833""
""blur"",""6"",""32446""
""focus"",""6"",""38674""
""blur"",""6"",""40457""
""focus"",""6"",""43589""
""blur"",""7"",""48481""
""focus"",""7"",""69729""
""blur"",""7"",""73136""
""focus"",""7"",""73873""
""blur"",""7"",""74831""
""focus"",""7"",""94527""
""blur"",""7"",""96380""
""focus"",""7"",""118789""
","""event"",""trial"",""time""
""blur"",""0"",""0""
""blur"",""0"",""0""
""blur"",""3"",""10944""
""blur"",""6"",""32446""
""blur"",""6"",""40457""
""blur"",""7"",""48481""
""blur"",""7"",""73136""
""blur"",""7"",""74831""
""blur"",""7"",""96380""
","""event"",""trial"",""time""
""focus"",""0"",""0""
""focus"",""0"",""0""
""focus"",""1"",""1780""
""focus"",""3"",""10945""
""focus"",""6"",""38674""
""focus"",""6"",""43589""
""focus"",""7"",""69729""
""focus"",""7"",""73873""
""focus"",""7"",""94527""
""focus"",""7"",""118789""
","""event"",""trial"",""time""
""fullscreenenter"",""5"",""20005""
","""event"",""trial"",""time""
""fullscreenexit"",""6"",""27833""
","","","","","","","","","","","","","","","","","","","","","",""
"d3-instructions","54","235913","0.0-54.0","3197","4979","20","Male","false","true","true","true","""event"",""trial"",""time""
""focus"",""0"",""0""
""blur"",""0"",""0""
""focus"",""0"",""0""
""blur"",""0"",""0""
""focus"",""1"",""1780""
""blur"",""3"",""10944""
""focus"",""3"",""10945""
""fullscreenenter"",""5"",""20005""
""fullscreenexit"",""6"",""27833""
""blur"",""6"",""32446""
""focus"",""6"",""38674""
""blur"",""6"",""40457""
""focus"",""6"",""43589""
""blur"",""7"",""48481""
""focus"",""7"",""69729""
""blur"",""7"",""73136""
""focus"",""7"",""73873""
""blur"",""7"",""74831""
""focus"",""7"",""94527""
""blur"",""7"",""96380""
""focus"",""7"",""118789""
","""event"",""trial"",""time""
""blur"",""0"",""0""
""blur"",""0"",""0""
""blur"",""3"",""10944""
""blur"",""6"",""32446""
""blur"",""6"",""40457""
""blur"",""7"",""48481""
""blur"",""7"",""73136""
""blur"",""7"",""74831""
""blur"",""7"",""96380""
","""event"",""trial"",""time""
""focus"",""0"",""0""
""focus"",""0"",""0""
""focus"",""1"",""1780""
""focus"",""3"",""10945""
""focus"",""6"",""38674""
""focus"",""6"",""43589""
""focus"",""7"",""69729""
""focus"",""7"",""73873""
""focus"",""7"",""94527""
""focus"",""7"",""118789""
","""event"",""trial"",""time""
""fullscreenenter"",""5"",""20005""
","""event"",""trial"",""time""
""fullscreenexit"",""6"",""27833""
","","","","","","","","","","","","","","","","","","","","","",""
"d3-instructions","55","236439","0.0-55.0","3197","4979","20","Male","false","true","true","true","""event"",""trial"",""time""
""focus"",""0"",""0""
""blur"",""0"",""0""
""focus"",""0"",""0""
""blur"",""0"",""0""
""focus"",""1"",""1780""
""blur"",""3"",""10944""
""focus"",""3"",""10945""
""fullscreenenter"",""5"",""20005""
""fullscreenexit"",""6"",""27833""
""blur"",""6"",""32446""
""focus"",""6"",""38674""
""blur"",""6"",""40457""
""focus"",""6"",""43589""
""blur"",""7"",""48481""
""focus"",""7"",""69729""
""blur"",""7"",""73136""
""focus"",""7"",""73873""
""blur"",""7"",""74831""
""focus"",""7"",""94527""
""blur"",""7"",""96380""
""focus"",""7"",""118789""
","""event"",""trial"",""time""
""blur"",""0"",""0""
""blur"",""0"",""0""
""blur"",""3"",""10944""
""blur"",""6"",""32446""
""blur"",""6"",""40457""
""blur"",""7"",""48481""
""blur"",""7"",""73136""
""blur"",""7"",""74831""
""blur"",""7"",""96380""
","""event"",""trial"",""time""
""focus"",""0"",""0""
""focus"",""0"",""0""
""focus"",""1"",""1780""
""focus"",""3"",""10945""
""focus"",""6"",""38674""
""focus"",""6"",""43589""
""focus"",""7"",""69729""
""focus"",""7"",""73873""
""focus"",""7"",""94527""
""focus"",""7"",""118789""
","""event"",""trial"",""time""
""fullscreenenter"",""5"",""20005""
","""event"",""trial"",""time""
""fullscreenexit"",""6"",""27833""
","","","","","","","","","","","","","","","","","","","","","",""
"d3-instructions","56","237276","0.0-56.0","3197","4979","20","Male","false","true","true","true","""event"",""trial"",""time""
""focus"",""0"",""0""
""blur"",""0"",""0""
""focus"",""0"",""0""
""blur"",""0"",""0""
""focus"",""1"",""1780""
""blur"",""3"",""10944""
""focus"",""3"",""10945""
""fullscreenenter"",""5"",""20005""
""fullscreenexit"",""6"",""27833""
""blur"",""6"",""32446""
""focus"",""6"",""38674""
""blur"",""6"",""40457""
""focus"",""6"",""43589""
""blur"",""7"",""48481""
""focus"",""7"",""69729""
""blur"",""7"",""73136""
""focus"",""7"",""73873""
""blur"",""7"",""74831""
""focus"",""7"",""94527""
""blur"",""7"",""96380""
""focus"",""7"",""118789""
","""event"",""trial"",""time""
""blur"",""0"",""0""
""blur"",""0"",""0""
""blur"",""3"",""10944""
""blur"",""6"",""32446""
""blur"",""6"",""40457""
""blur"",""7"",""48481""
""blur"",""7"",""73136""
""blur"",""7"",""74831""
""blur"",""7"",""96380""
","""event"",""trial"",""time""
""focus"",""0"",""0""
""focus"",""0"",""0""
""focus"",""1"",""1780""
""focus"",""3"",""10945""
""focus"",""6"",""38674""
""focus"",""6"",""43589""
""focus"",""7"",""69729""
""focus"",""7"",""73873""
""focus"",""7"",""94527""
""focus"",""7"",""118789""
","""event"",""trial"",""time""
""fullscreenenter"",""5"",""20005""
","""event"",""trial"",""time""
""fullscreenexit"",""6"",""27833""
","","","","","","","","","","","","","","","","","","","","","",""
"d3-instructions","57","237824","0.0-57.0","3197","4979","20","Male","false","true","true","true","""event"",""trial"",""time""
""focus"",""0"",""0""
""blur"",""0"",""0""
""focus"",""0"",""0""
""blur"",""0"",""0""
""focus"",""1"",""1780""
""blur"",""3"",""10944""
""focus"",""3"",""10945""
""fullscreenenter"",""5"",""20005""
""fullscreenexit"",""6"",""27833""
""blur"",""6"",""32446""
""focus"",""6"",""38674""
""blur"",""6"",""40457""
""focus"",""6"",""43589""
""blur"",""7"",""48481""
""focus"",""7"",""69729""
""blur"",""7"",""73136""
""focus"",""7"",""73873""
""blur"",""7"",""74831""
""focus"",""7"",""94527""
""blur"",""7"",""96380""
""focus"",""7"",""118789""
","""event"",""trial"",""time""
""blur"",""0"",""0""
""blur"",""0"",""0""
""blur"",""3"",""10944""
""blur"",""6"",""32446""
""blur"",""6"",""40457""
""blur"",""7"",""48481""
""blur"",""7"",""73136""
""blur"",""7"",""74831""
""blur"",""7"",""96380""
","""event"",""trial"",""time""
""focus"",""0"",""0""
""focus"",""0"",""0""
""focus"",""1"",""1780""
""focus"",""3"",""10945""
""focus"",""6"",""38674""
""focus"",""6"",""43589""
""focus"",""7"",""69729""
""focus"",""7"",""73873""
""focus"",""7"",""94527""
""focus"",""7"",""118789""
","""event"",""trial"",""time""
""fullscreenenter"",""5"",""20005""
","""event"",""trial"",""time""
""fullscreenexit"",""6"",""27833""
","","","","","","","","","","","","","","","","","","","","","",""
"d3-instructions","58","238368","0.0-58.0","3197","4979","20","Male","false","true","true","true","""event"",""trial"",""time""
""focus"",""0"",""0""
""blur"",""0"",""0""
""focus"",""0"",""0""
""blur"",""0"",""0""
""focus"",""1"",""1780""
""blur"",""3"",""10944""
""focus"",""3"",""10945""
""fullscreenenter"",""5"",""20005""
""fullscreenexit"",""6"",""27833""
""blur"",""6"",""32446""
""focus"",""6"",""38674""
""blur"",""6"",""40457""
""focus"",""6"",""43589""
""blur"",""7"",""48481""
""focus"",""7"",""69729""
""blur"",""7"",""73136""
""focus"",""7"",""73873""
""blur"",""7"",""74831""
""focus"",""7"",""94527""
""blur"",""7"",""96380""
""focus"",""7"",""118789""
","""event"",""trial"",""time""
""blur"",""0"",""0""
""blur"",""0"",""0""
""blur"",""3"",""10944""
""blur"",""6"",""32446""
""blur"",""6"",""40457""
""blur"",""7"",""48481""
""blur"",""7"",""73136""
""blur"",""7"",""74831""
""blur"",""7"",""96380""
","""event"",""trial"",""time""
""focus"",""0"",""0""
""focus"",""0"",""0""
""focus"",""1"",""1780""
""focus"",""3"",""10945""
""focus"",""6"",""38674""
""focus"",""6"",""43589""
""focus"",""7"",""69729""
""focus"",""7"",""73873""
""focus"",""7"",""94527""
""focus"",""7"",""118789""
","""event"",""trial"",""time""
""fullscreenenter"",""5"",""20005""
","""event"",""trial"",""time""
""fullscreenexit"",""6"",""27833""
","","","","","","","","","","","","","","","","","","","","","",""
"d3-instructions","59","239644","0.0-59.0","3197","4979","20","Male","false","true","true","true","""event"",""trial"",""time""
""focus"",""0"",""0""
""blur"",""0"",""0""
""focus"",""0"",""0""
""blur"",""0"",""0""
""focus"",""1"",""1780""
""blur"",""3"",""10944""
""focus"",""3"",""10945""
""fullscreenenter"",""5"",""20005""
""fullscreenexit"",""6"",""27833""
""blur"",""6"",""32446""
""focus"",""6"",""38674""
""blur"",""6"",""40457""
""focus"",""6"",""43589""
""blur"",""7"",""48481""
""focus"",""7"",""69729""
""blur"",""7"",""73136""
""focus"",""7"",""73873""
""blur"",""7"",""74831""
""focus"",""7"",""94527""
""blur"",""7"",""96380""
""focus"",""7"",""118789""
","""event"",""trial"",""time""
""blur"",""0"",""0""
""blur"",""0"",""0""
""blur"",""3"",""10944""
""blur"",""6"",""32446""
""blur"",""6"",""40457""
""blur"",""7"",""48481""
""blur"",""7"",""73136""
""blur"",""7"",""74831""
""blur"",""7"",""96380""
","""event"",""trial"",""time""
""focus"",""0"",""0""
""focus"",""0"",""0""
""focus"",""1"",""1780""
""focus"",""3"",""10945""
""focus"",""6"",""38674""
""focus"",""6"",""43589""
""focus"",""7"",""69729""
""focus"",""7"",""73873""
""focus"",""7"",""94527""
""focus"",""7"",""118789""
","""event"",""trial"",""time""
""fullscreenenter"",""5"",""20005""
","""event"",""trial"",""time""
""fullscreenexit"",""6"",""27833""
","","","","","","","","","","","","","","","","","","","","","",""
"d3-instructions","60","240070","0.0-60.0","3197","4979","20","Male","false","true","true","true","""event"",""trial"",""time""
""focus"",""0"",""0""
""blur"",""0"",""0""
""focus"",""0"",""0""
""blur"",""0"",""0""
""focus"",""1"",""1780""
""blur"",""3"",""10944""
""focus"",""3"",""10945""
""fullscreenenter"",""5"",""20005""
""fullscreenexit"",""6"",""27833""
""blur"",""6"",""32446""
""focus"",""6"",""38674""
""blur"",""6"",""40457""
""focus"",""6"",""43589""
""blur"",""7"",""48481""
""focus"",""7"",""69729""
""blur"",""7"",""73136""
""focus"",""7"",""73873""
""blur"",""7"",""74831""
""focus"",""7"",""94527""
""blur"",""7"",""96380""
""focus"",""7"",""118789""
","""event"",""trial"",""time""
""blur"",""0"",""0""
""blur"",""0"",""0""
""blur"",""3"",""10944""
""blur"",""6"",""32446""
""blur"",""6"",""40457""
""blur"",""7"",""48481""
""blur"",""7"",""73136""
""blur"",""7"",""74831""
""blur"",""7"",""96380""
","""event"",""trial"",""time""
""focus"",""0"",""0""
""focus"",""0"",""0""
""focus"",""1"",""1780""
""focus"",""3"",""10945""
""focus"",""6"",""38674""
""focus"",""6"",""43589""
""focus"",""7"",""69729""
""focus"",""7"",""73873""
""focus"",""7"",""94527""
""focus"",""7"",""118789""
","""event"",""trial"",""time""
""fullscreenenter"",""5"",""20005""
","""event"",""trial"",""time""
""fullscreenexit"",""6"",""27833""
","","","","","","","","","","","","","","","","","","","","","",""
"d3-animate-choice","61","244030","0.0-61.0-0.0","3197","4979","20","Male","false","true","true","true","""event"",""trial"",""time""
""focus"",""0"",""0""
""blur"",""0"",""0""
""focus"",""0"",""0""
""blur"",""0"",""0""
""focus"",""1"",""1780""
""blur"",""3"",""10944""
""focus"",""3"",""10945""
""fullscreenenter"",""5"",""20005""
""fullscreenexit"",""6"",""27833""
""blur"",""6"",""32446""
""focus"",""6"",""38674""
""blur"",""6"",""40457""
""focus"",""6"",""43589""
""blur"",""7"",""48481""
""focus"",""7"",""69729""
""blur"",""7"",""73136""
""focus"",""7"",""73873""
""blur"",""7"",""74831""
""focus"",""7"",""94527""
""blur"",""7"",""96380""
""focus"",""7"",""118789""
","""event"",""trial"",""time""
""blur"",""0"",""0""
""blur"",""0"",""0""
""blur"",""3"",""10944""
""blur"",""6"",""32446""
""blur"",""6"",""40457""
""blur"",""7"",""48481""
""blur"",""7"",""73136""
""blur"",""7"",""74831""
""blur"",""7"",""96380""
","""event"",""trial"",""time""
""focus"",""0"",""0""
""focus"",""0"",""0""
""focus"",""1"",""1780""
""focus"",""3"",""10945""
""focus"",""6"",""38674""
""focus"",""6"",""43589""
""focus"",""7"",""69729""
""focus"",""7"",""73873""
""focus"",""7"",""94527""
""focus"",""7"",""118789""
","""event"",""trial"",""time""
""fullscreenenter"",""5"",""20005""
","""event"",""trial"",""time""
""fullscreenexit"",""6"",""27833""
","1719.0999999940395","","50","","","3000","1","1955.5999999940395,2164.0999999940395","49,48","images/earth.jpg","images/tutrocket1","images/tutrocket2","null","images/tutrocket2","","1","practice","null","","","",""
"d3-animate-choice","62","246492","0.0-61.0-1.0","3197","4979","20","Male","false","true","true","true","""event"",""trial"",""time""
""focus"",""0"",""0""
""blur"",""0"",""0""
""focus"",""0"",""0""
""blur"",""0"",""0""
""focus"",""1"",""1780""
""blur"",""3"",""10944""
""focus"",""3"",""10945""
""fullscreenenter"",""5"",""20005""
""fullscreenexit"",""6"",""27833""
""blur"",""6"",""32446""
""focus"",""6"",""38674""
""blur"",""6"",""40457""
""focus"",""6"",""43589""
""blur"",""7"",""48481""
""focus"",""7"",""69729""
""blur"",""7"",""73136""
""focus"",""7"",""73873""
""blur"",""7"",""74831""
""focus"",""7"",""94527""
""blur"",""7"",""96380""
""focus"",""7"",""118789""
","""event"",""trial"",""time""
""blur"",""0"",""0""
""blur"",""0"",""0""
""blur"",""3"",""10944""
""blur"",""6"",""32446""
""blur"",""6"",""40457""
""blur"",""7"",""48481""
""blur"",""7"",""73136""
""blur"",""7"",""74831""
""blur"",""7"",""96380""
","""event"",""trial"",""time""
""focus"",""0"",""0""
""focus"",""0"",""0""
""focus"",""1"",""1780""
""focus"",""3"",""10945""
""focus"",""6"",""38674""
""focus"",""6"",""43589""
""focus"",""7"",""69729""
""focus"",""7"",""73873""
""focus"",""7"",""94527""
""focus"",""7"",""118789""
","""event"",""trial"",""time""
""fullscreenenter"",""5"",""20005""
","""event"",""trial"",""time""
""fullscreenexit"",""6"",""27833""
","447","","48","","","3000","1","","","images/tutyellowplanet.jpg","images/tutalien4","images/tutalien3","images/tutrocket2","images/tutalien4","images/t.png","2","practice","true","2","common","1","2022-12-05 21:22:28.282"
"two-step-fixation","63","247503","0.0-61.0-2.0","3197","4979","20","Male","false","true","true","true","""event"",""trial"",""time""
""focus"",""0"",""0""
""blur"",""0"",""0""
""focus"",""0"",""0""
""blur"",""0"",""0""
""focus"",""1"",""1780""
""blur"",""3"",""10944""
""focus"",""3"",""10945""
""fullscreenenter"",""5"",""20005""
""fullscreenexit"",""6"",""27833""
""blur"",""6"",""32446""
""focus"",""6"",""38674""
""blur"",""6"",""40457""
""focus"",""6"",""43589""
""blur"",""7"",""48481""
""focus"",""7"",""69729""
""blur"",""7"",""73136""
""focus"",""7"",""73873""
""blur"",""7"",""74831""
""focus"",""7"",""94527""
""blur"",""7"",""96380""
""focus"",""7"",""118789""
","""event"",""trial"",""time""
""blur"",""0"",""0""
""blur"",""0"",""0""
""blur"",""3"",""10944""
""blur"",""6"",""32446""
""blur"",""6"",""40457""
""blur"",""7"",""48481""
""blur"",""7"",""73136""
""blur"",""7"",""74831""
""blur"",""7"",""96380""
","""event"",""trial"",""time""
""focus"",""0"",""0""
""focus"",""0"",""0""
""focus"",""1"",""1780""
""focus"",""3"",""10945""
""focus"",""6"",""38674""
""focus"",""6"",""43589""
""focus"",""7"",""69729""
""focus"",""7"",""73873""
""focus"",""7"",""94527""
""focus"",""7"",""118789""
","""event"",""trial"",""time""
""fullscreenenter"",""5"",""20005""
","""event"",""trial"",""time""
""fullscreenexit"",""6"",""27833""
","","images/earth.jpg","","","","","","","","","","","","","","fixation","","","","","",""
"d3-animate-choice","64","249882","0.0-61.0-0.1","3197","4979","20","Male","false","true","true","true","""event"",""trial"",""time""
""focus"",""0"",""0""
""blur"",""0"",""0""
""focus"",""0"",""0""
""blur"",""0"",""0""
""focus"",""1"",""1780""
""blur"",""3"",""10944""
""focus"",""3"",""10945""
""fullscreenenter"",""5"",""20005""
""fullscreenexit"",""6"",""27833""
""blur"",""6"",""32446""
""focus"",""6"",""38674""
""blur"",""6"",""40457""
""focus"",""6"",""43589""
""blur"",""7"",""48481""
""focus"",""7"",""69729""
""blur"",""7"",""73136""
""focus"",""7"",""73873""
""blur"",""7"",""74831""
""focus"",""7"",""94527""
""blur"",""7"",""96380""
""focus"",""7"",""118789""
","""event"",""trial"",""time""
""blur"",""0"",""0""
""blur"",""0"",""0""
""blur"",""3"",""10944""
""blur"",""6"",""32446""
""blur"",""6"",""40457""
""blur"",""7"",""48481""
""blur"",""7"",""73136""
""blur"",""7"",""74831""
""blur"",""7"",""96380""
","""event"",""trial"",""time""
""focus"",""0"",""0""
""focus"",""0"",""0""
""focus"",""1"",""1780""
""focus"",""3"",""10945""
""focus"",""6"",""38674""
""focus"",""6"",""43589""
""focus"",""7"",""69729""
""focus"",""7"",""73873""
""focus"",""7"",""94527""
""focus"",""7"",""118789""
","""event"",""trial"",""time""
""fullscreenenter"",""5"",""20005""
","""event"",""trial"",""time""
""fullscreenexit"",""6"",""27833""
","358.69999998807907","","49","","","3000","1","1755.5,2042.699999988079,2331.8999999910593","48,48,48","images/earth.jpg","images/tutrocket1","images/tutrocket2","null","images/tutrocket2","","1","practice","null","1","","",""
"d3-animate-choice","65","252123","0.0-61.0-1.1","3197","4979","20","Male","false","true","true","true","""event"",""trial"",""time""
""focus"",""0"",""0""
""blur"",""0"",""0""
""focus"",""0"",""0""
""blur"",""0"",""0""
""focus"",""1"",""1780""
""blur"",""3"",""10944""
""focus"",""3"",""10945""
""fullscreenenter"",""5"",""20005""
""fullscreenexit"",""6"",""27833""
""blur"",""6"",""32446""
""focus"",""6"",""38674""
""blur"",""6"",""40457""
""focus"",""6"",""43589""
""blur"",""7"",""48481""
""focus"",""7"",""69729""
""blur"",""7"",""73136""
""focus"",""7"",""73873""
""blur"",""7"",""74831""
""focus"",""7"",""94527""
""blur"",""7"",""96380""
""focus"",""7"",""118789""
","""event"",""trial"",""time""
""blur"",""0"",""0""
""blur"",""0"",""0""
""blur"",""3"",""10944""
""blur"",""6"",""32446""
""blur"",""6"",""40457""
""blur"",""7"",""48481""
""blur"",""7"",""73136""
""blur"",""7"",""74831""
""blur"",""7"",""96380""
","""event"",""trial"",""time""
""focus"",""0"",""0""
""focus"",""0"",""0""
""focus"",""1"",""1780""
""focus"",""3"",""10945""
""focus"",""6"",""38674""
""focus"",""6"",""43589""
""focus"",""7"",""69729""
""focus"",""7"",""73873""
""focus"",""7"",""94527""
""focus"",""7"",""118789""
","""event"",""trial"",""time""
""fullscreenenter"",""5"",""20005""
","""event"",""trial"",""time""
""fullscreenexit"",""6"",""27833""
","228","","48","","","3000","1","1508.2000000029802,2155.2000000029802","48,49","images/tutyellowplanet.jpg","images/tutalien4","images/tutalien3","images/tutrocket2","images/tutalien4","images/t.png","2","practice","true","2","common","1","2022-12-05 21:22:33.912"
"two-step-fixation","66","253136","0.0-61.0-2.1","3197","4979","20","Male","false","true","true","true","""event"",""trial"",""time""
""focus"",""0"",""0""
""blur"",""0"",""0""
""focus"",""0"",""0""
""blur"",""0"",""0""
""focus"",""1"",""1780""
""blur"",""3"",""10944""
""focus"",""3"",""10945""
""fullscreenenter"",""5"",""20005""
""fullscreenexit"",""6"",""27833""
""blur"",""6"",""32446""
""focus"",""6"",""38674""
""blur"",""6"",""40457""
""focus"",""6"",""43589""
""blur"",""7"",""48481""
""focus"",""7"",""69729""
""blur"",""7"",""73136""
""focus"",""7"",""73873""
""blur"",""7"",""74831""
""focus"",""7"",""94527""
""blur"",""7"",""96380""
""focus"",""7"",""118789""
","""event"",""trial"",""time""
""blur"",""0"",""0""
""blur"",""0"",""0""
""blur"",""3"",""10944""
""blur"",""6"",""32446""
""blur"",""6"",""40457""
""blur"",""7"",""48481""
""blur"",""7"",""73136""
""blur"",""7"",""74831""
""blur"",""7"",""96380""
","""event"",""trial"",""time""
""focus"",""0"",""0""
""focus"",""0"",""0""
""focus"",""1"",""1780""
""focus"",""3"",""10945""
""focus"",""6"",""38674""
""focus"",""6"",""43589""
""focus"",""7"",""69729""
""focus"",""7"",""73873""
""focus"",""7"",""94527""
""focus"",""7"",""118789""
","""event"",""trial"",""time""
""fullscreenenter"",""5"",""20005""
","""event"",""trial"",""time""
""fullscreenexit"",""6"",""27833""
","","images/earth.jpg","","","","","","","","","","","","","","fixation","","","","","",""
"d3-animate-choice","67","255541","0.0-61.0-0.2","3197","4979","20","Male","false","true","true","true","""event"",""trial"",""time""
""focus"",""0"",""0""
""blur"",""0"",""0""
""focus"",""0"",""0""
""blur"",""0"",""0""
""focus"",""1"",""1780""
""blur"",""3"",""10944""
""focus"",""3"",""10945""
""fullscreenenter"",""5"",""20005""
""fullscreenexit"",""6"",""27833""
""blur"",""6"",""32446""
""focus"",""6"",""38674""
""blur"",""6"",""40457""
""focus"",""6"",""43589""
""blur"",""7"",""48481""
""focus"",""7"",""69729""
""blur"",""7"",""73136""
""focus"",""7"",""73873""
""blur"",""7"",""74831""
""focus"",""7"",""94527""
""blur"",""7"",""96380""
""focus"",""7"",""118789""
","""event"",""trial"",""time""
""blur"",""0"",""0""
""blur"",""0"",""0""
""blur"",""3"",""10944""
""blur"",""6"",""32446""
""blur"",""6"",""40457""
""blur"",""7"",""48481""
""blur"",""7"",""73136""
""blur"",""7"",""74831""
""blur"",""7"",""96380""
","""event"",""trial"",""time""
""focus"",""0"",""0""
""focus"",""0"",""0""
""focus"",""1"",""1780""
""focus"",""3"",""10945""
""focus"",""6"",""38674""
""focus"",""6"",""43589""
""focus"",""7"",""69729""
""focus"",""7"",""73873""
""focus"",""7"",""94527""
""focus"",""7"",""118789""
","""event"",""trial"",""time""
""fullscreenenter"",""5"",""20005""
","""event"",""trial"",""time""
""fullscreenexit"",""6"",""27833""
