"trial_type","trial_index","time_elapsed","internal_node_id","participant_id","subject_id","age","gender","rocket_sides","red_planet_first_rocket","red_display_order","purple_display_order","interactions","blur_events","focus_events","fullscreenenter_events","fullscreenexit_events","rt","stimulus","key_press","button_pressed","success","duration","valid_pressed","rts","keys","planet_text","right_text","left_text","center_text","chosen_text","reward_text","trial_stage","practice_trial","transition_type","choice","transition","reward","timestamp"
"pavlovia","0","9","0.0-0.0","716","807","12","Female","true","false","false","true","
","
","
","
","
","","","","","","","","","","","","","","","","","","","","","",""
"html-keyboard-response","1","9841","0.0-1.0","716","807","12","Female","true","false","false","true","
","
","
","
","
","9831","Welcome! Press the space bar to begin.","32","","","","","","","","","","","","","","","","","","",""
"audio-keyboard-response","2","18460","0.0-2.0","716","807","12","Female","true","false","false","true","
","
","
","
","
","8626","audio/beep_loop.wav","32","","","","","","","","","","","","","","","","","","",""
"audio-button-response","3","21839","0.0-3.0","716","807","12","Female","true","false","false","true","
","
","
","
","
","NaN","audio/fish.mp3","","1","","","","","","","","","","","","","","","","","",""
"audio-button-response","4","24517","0.0-4.0","716","807","12","Female","true","false","false","true","""event"",""trial"",""time""
""fullscreenenter"",""5"",""28375""
","
","
","""event"",""trial"",""time""
""fullscreenenter"",""5"",""28375""
","
","NaN","audio/tiger.mp3","","4","","","","","","","","","","","","","","","","","",""
"fullscreen","5","29118","0.0-5.0","716","807","12","Female","true","false","false","true","""event"",""trial"",""time""
""fullscreenenter"",""5"",""28375""
","
","
","""event"",""trial"",""time""
""fullscreenenter"",""5"",""28375""
","
","","","","","true","","","","","","","","","","","","","","","","",""
"d3-instructions","6","42859","0.0-6.0","716","807","12","Female","true","false","false","true","""event"",""trial"",""time""
""fullscreenenter"",""5"",""28375""
","
","
","""event"",""trial"",""time""
""fullscreenenter"",""5"",""28375""
","
","","","","","","","","","","","","","","","","","","","","","",""
"d3-instructions","7","50188","0.0-7.0","716","807","12","Female","true","false","false","true","""event"",""trial"",""time""
""fullscreenenter"",""5"",""28375""
","
","
","""event"",""trial"",""time""
""fullscreenenter"",""5"",""28375""
","
","","","","","","","","","","","","","","","","","","","","","",""
"d3-instructions","8","58050","0.0-8.0","716","807","12","Female","true","false","false","true","""event"",""trial"",""time""
""fullscreenenter"",""5"",""28375""
","
","
","""event"",""trial"",""time""
""fullscreenenter"",""5"",""28375""
","
","","","","","","","","","","","","","","","","","","","","","",""
"d3-instructions","9","70139","0.0-9.0","716","807","12","Female","true","false","false","true","""event"",""trial"",""time""
""fullscreenenter"",""5"",""28375""
","
","
","""event"",""trial"",""time""
""fullscreenenter"",""5"",""28375""
","
","","","","","","","","","","","","","","","","","","","","","",""
"d3-instructions","10","89990","0.0-10.0","716","807","12","Female","true","false","false","true","""event"",""trial"",""time""
""fullscreenenter"",""5"",""28375""
","
","
","""event"",""trial"",""time""
""fullscreenenter"",""5"",""28375""
","
","","","","","","","","","","","","","","","","","","","","","",""
"d3-animate-choice","11","93517","0.0-11.0","716","807","12","Female","true","false","false","true","""event"",""trial"",""time""
""fullscreenenter"",""5"",""28375""
","
","
","""event"",""trial"",""time""
""fullscreenenter"",""5"",""28375""
","
","1520","","49","","","3000","1","","","images/tutgreenplanet.jpg","images/tutalien1","images/tutalien2","null","images/tutalien2","","NA","practice","null","","","",""
"d3-animate-choice","12","96510","0.0-12.0","716","807","12","Female","true","false","false","true","""event"",""trial"",""time""
""fullscreenenter"",""5"",""28375""
","
","
","""event"",""trial"",""time""
""fullscreenenter"",""5"",""28375""
","
","989","","48","","","3000","1","","","images/tutgreenplanet.jpg","images/tutalien1","images/tutalien2","null","images/tutalien1","","NA","practice","null","","","",""
"d3-animate-choice","13","99428","0.0-13.0","716","807","12","Female","true","false","false","true","""event"",""trial"",""time""
""fullscreenenter"",""5"",""28375""
","
","
","""event"",""trial"",""time""
""fullscreenenter"",""5"",""28375""
","
","911","","49","","","3000","1","","","images/tutgreenplanet.jpg","images/tutalien1","images/tutalien2","null","images/tutalien2","","NA","practice","null","","","",""
"d3-animate-choice","14","101972","0.0-14.0","716","807","12","Female","true","false","false","true","""event"",""trial"",""time""
""fullscreenenter"",""5"",""28375""
","
","
","""event"",""trial"",""time""
""fullscreenenter"",""5"",""28375""
","
","539","","49","","","3000","1","","","images/tutgreenplanet.jpg","images/tutalien1","images/tutalien2","null","images/tutalien2","","NA","practice","null","","","",""
"d3-instructions","15","112149","0.0-15.0","716","807","12","Female","true","false","false","true","""event"",""trial"",""time""
""fullscreenenter"",""5"",""28375""
","
","
","""event"",""trial"",""time""
""fullscreenenter"",""5"",""28375""
","
","","","","","","","","","","","","","","","","","","","","","",""
"d3-instructions","16","119175","0.0-16.0","716","807","12","Female","true","false","false","true","""event"",""trial"",""time""
""fullscreenenter"",""5"",""28375""
","
","
","""event"",""trial"",""time""
""fullscreenenter"",""5"",""28375""
","
","","","","","","","","","","","","","","","","","","","","","",""
"d3-instructions","17","127731","0.0-17.0","716","807","12","Female","true","false","false","true","""event"",""trial"",""time""
""fullscreenenter"",""5"",""28375""
","
","
","""event"",""trial"",""time""
""fullscreenenter"",""5"",""28375""
","
","","","","","","","","","","","","","","","","","","","","","",""
"d3-instructions","18","141810","0.0-18.0","716","807","12","Female","true","false","false","true","""event"",""trial"",""time""
""fullscreenenter"",""5"",""28375""
","
","
","""event"",""trial"",""time""
""fullscreenenter"",""5"",""28375""
","
","","","","","","","","","","","","","","","","","","","","","",""
"d3-instructions","19","156405","0.0-19.0","716","807","12","Female","true","false","false","true","""event"",""trial"",""time""
""fullscreenenter"",""5"",""28375""
","
","
","""event"",""trial"",""time""
""fullscreenenter"",""5"",""28375""
","
","","","","","","","","","","","","","","","","","","","","","",""
"d3-animate-choice","20","159018","0.0-20.0","716","807","12","Female","true","false","false","true","""event"",""trial"",""time""
""fullscreenenter"",""5"",""28375""
","
","
","""event"",""trial"",""time""
""fullscreenenter"",""5"",""28375""
","
","607","","49","","","3000","1","2387","49","images/tutyellowplanet.jpg","null","images/tutalien3","null","images/tutalien3","images/t.png","NA","practice","null","","","",""
"d3-animate-choice","21","161478","0.0-21.0","716","807","12","Female","true","false","false","true","""event"",""trial"",""time""
""fullscreenenter"",""5"",""28375""
","
","
","""event"",""trial"",""time""
""fullscreenenter"",""5"",""28375""
","
","455","","49","","","3000","1","","","images/tutyellowplanet.jpg","null","images/tutalien3","null","images/tutalien3","images/t.png","NA","practice","null","","","",""
"d3-animate-choice","22","163541","0.0-22.0","716","807","12","Female","true","false","false","true","""event"",""trial"",""time""
""fullscreenenter"",""5"",""28375""
","
","
","""event"",""trial"",""time""
""fullscreenenter"",""5"",""28375""
","
","55","","49","","","3000","1","","","images/tutyellowplanet.jpg","null","images/tutalien3","null","images/tutalien3","images/t.png","NA","practice","null","","","",""
"d3-animate-choice","23","166043","0.0-23.0","716","807","12","Female","true","false","false","true","""event"",""trial"",""time""
""fullscreenenter"",""5"",""28375""
","
","
","""event"",""trial"",""time""
""fullscreenenter"",""5"",""28375""
","
","497","","49","","","3000","1","","","images/tutyellowplanet.jpg","null","images/tutalien3","null","images/tutalien3","images/t.png","NA","practice","null","","","",""
"d3-animate-choice","24","168458","0.0-24.0","716","807","12","Female","true","false","false","true","""event"",""trial"",""time""
""fullscreenenter"",""5"",""28375""
","
","
","""event"",""trial"",""time""
""fullscreenenter"",""5"",""28375""
","
","409","","49","","","3000","1","","","images/tutyellowplanet.jpg","null","images/tutalien3","null","images/tutalien3","images/t.png","NA","practice","null","","","",""
"d3-animate-choice","25","171149","0.0-25.0","716","807","12","Female","true","false","false","true","""event"",""trial"",""time""
""fullscreenenter"",""5"",""28375""
","
","
","""event"",""trial"",""time""
""fullscreenenter"",""5"",""28375""
","
","683","","49","","","3000","1","2494","49","images/tutyellowplanet.jpg","null","images/tutalien3","null","images/tutalien3","images/t.png","NA","practice","null","","","",""
"d3-animate-choice","26","173508","0.0-26.0","716","807","12","Female","true","false","false","true","""event"",""trial"",""time""
""fullscreenenter"",""5"",""28375""
","
","
","""event"",""trial"",""time""
""fullscreenenter"",""5"",""28375""
","
","351","","49","","","3000","1","","","images/tutyellowplanet.jpg","null","images/tutalien3","null","images/tutalien3","images/t.png","NA","practice","null","","","",""
"d3-animate-choice","27","175928","0.0-27.0","716","807","12","Female","true","false","false","true","""event"",""trial"",""time""
""fullscreenenter"",""5"",""28375""
","
","
","""event"",""trial"",""time""
""fullscreenenter"",""5"",""28375""
","
","412","","49","","","3000","1","","","images/tutyellowplanet.jpg","null","images/tutalien3","null","images/tutalien3","images/nothing.png","NA","practice","null","","","",""
"d3-animate-choice","28","178416","0.0-28.0","716","807","12","Female","true","false","false","true","""event"",""trial"",""time""
""fullscreenenter"",""5"",""28375""
","
","
","""event"",""trial"",""time""
""fullscreenenter"",""5"",""28375""
","
","479","","49","","","3000","1","","","images/tutyellowplanet.jpg","null","images/tutalien3","null","images/tutalien3","images/t.png","NA","practice","null","","","",""
"d3-animate-choice","29","180955","0.0-29.0","716","807","12","Female","true","false","false","true","""event"",""trial"",""time""
""fullscreenenter"",""5"",""28375""
","
","
","""event"",""trial"",""time""
""fullscreenenter"",""5"",""28375""
","
","532","","49","","","3000","1","","","images/tutyellowplanet.jpg","null","images/tutalien3","null","images/tutalien3","images/t.png","NA","practice","null","","","",""
"d3-instructions","30","188952","0.0-30.0","716","807","12","Female","true","false","false","true","""event"",""trial"",""time""
""fullscreenenter"",""5"",""28375""
","
","
","""event"",""trial"",""time""
""fullscreenenter"",""5"",""28375""
","
","","","","","","","","","","","","","","","","","","","","","",""
"d3-instructions","31","199687","0.0-31.0","716","807","12","Female","true","false","false","true","""event"",""trial"",""time""
""fullscreenenter"",""5"",""28375""
","
","
","""event"",""trial"",""time""
""fullscreenenter"",""5"",""28375""
","
","","","","","","","","","","","","","","","","","","","","","",""
"d3-instructions","32","208071","0.0-32.0","716","807","12","Female","true","false","false","true","""event"",""trial"",""time""
""fullscreenenter"",""5"",""28375""
","
","
","""event"",""trial"",""time""
""fullscreenenter"",""5"",""28375""
","
","","","","","","","","","","","","","","","","","","","","","",""
"d3-instructions","33","217141","0.0-33.0","716","807","12","Female","true","false","false","true","""event"",""trial"",""time""
""fullscreenenter"",""5"",""28375""
","
","
","""event"",""trial"",""time""
""fullscreenenter"",""5"",""28375""
","
","","","","","","","","","","","","","","","","","","","","","",""
"d3-animate-choice","34","222178","0.0-34.0","716","807","12","Female","true","false","false","true","""event"",""trial"",""time""
""fullscreenenter"",""5"",""28375""
","
","
","""event"",""trial"",""time""
""fullscreenenter"",""5"",""28375""
","
","3030","","49","","","3000","1","","","images/tutgreenplanet.jpg","images/tutalien1","images/tutalien2","null","images/tutalien2","images/nothing.png","NA","practice","null","","","",""
"d3-animate-choice","35","224821","0.0-35.0","716","807","12","Female","true","false","false","true","""event"",""trial"",""time""
""fullscreenenter"",""5"",""28375""
","
","
","""event"",""trial"",""time""
""fullscreenenter"",""5"",""28375""
","
","635","","48","","","3000","1","","","images/tutgreenplanet.jpg","images/tutalien1","images/tutalien2","null","images/tutalien1","images/nothing.png","NA","practice","null","","","",""
"d3-animate-choice","36","227251","0.0-36.0","716","807","12","Female","true","false","false","true","""event"",""trial"",""time""
""fullscreenenter"",""5"",""28375""
","
","
","""event"",""trial"",""time""
""fullscreenenter"",""5"",""28375""
","
","425","","49","","","3000","1","","","images/tutgreenplanet.jpg","images/tutalien1","images/tutalien2","null","images/tutalien2","images/t.png","NA","practice","null","","","",""
"d3-animate-choice","37","229651","0.0-37.0","716","807","12","Female","true","false","false","true","""event"",""trial"",""time""
""fullscreenenter"",""5"",""28375""
","
","
","""event"",""trial"",""time""
""fullscreenenter"",""5"",""28375""
","
","392","","49","","","3000","1","","","images/tutgreenplanet.jpg","images/tutalien1","images/tutalien2","null","images/tutalien2","images/t.png","NA","practice","null","","","",""
"d3-animate-choice","38","231988","0.0-38.0","716","807","12","Female","true","false","false","true","""event"",""trial"",""time""
""fullscreenenter"",""5"",""28375""
","
","
","""event"",""trial"",""time""
""fullscreenenter"",""5"",""28375""
","
","329","","49","","","3000","1","","","images/tutgreenplanet.jpg","images/tutalien1","images/tutalien2","null","images/tutalien2","images/t.png","NA","practice","null","","","",""
"d3-animate-choice","39","234283","0.0-39.0","716","807","12","Female","true","false","false","true","""event"",""trial"",""time""
""fullscreenenter"",""5"",""28375""
","
","
","""event"",""trial"",""time""
""fullscreenenter"",""5"",""28375""
","
","286","","49","","","3000","1","","","images/tutgreenplanet.jpg","images/tutalien1","images/tutalien2","null","images/tutalien2","images/t.png","NA","practice","null","","","",""
"d3-animate-choice","40","236628","0.0-40.0","716","807","12","Female","true","false","false","true","""event"",""trial"",""time""
""fullscreenenter"",""5"",""28375""
","
","
","""event"",""trial"",""time""
""fullscreenenter"",""5"",""28375""
","
","340","","49","","","3000","1","","","images/tutgreenplanet.jpg","images/tutalien1","images/tutalien2","null","images/tutalien2","images/t.png","NA","practice","null","","","",""
"d3-animate-choice","41","239023","0.0-41.0","716","807","12","Female","true","false","false","true","""event"",""trial"",""time""
""fullscreenenter"",""5"",""28375""
","
","
","""event"",""trial"",""time""
""fullscreenenter"",""5"",""28375""
","
","389","","49","","","3000","1","","","images/tutgreenplanet.jpg","images/tutalien1","images/tutalien2","null","images/tutalien2","images/t.png","NA","practice","null","","","",""
"d3-animate-choice","42","241363","0.0-42.0","716","807","12","Female","true","false","false","true","""event"",""trial"",""time""
""fullscreenenter"",""5"",""28375""
","
","
","""event"",""trial"",""time""
""fullscreenenter"",""5"",""28375""
","
","336","","49","","","3000","1","","","images/tutgreenplanet.jpg","images/tutalien1","images/tutalien2","null","images/tutalien2","images/t.png","NA","practice","null","","","",""
"d3-animate-choice","43","243722","0.0-43.0","716","807","12","Female","true","false","false","true","""event"",""trial"",""time""
""fullscreenenter"",""5"",""28375""
","
","
","""event"",""trial"",""time""
""fullscreenenter"",""5"",""28375""
","
","349","","49","","","3000","1","","","images/tutgreenplanet.jpg","images/tutalien1","images/tutalien2","null","images/tutalien2","images/t.png","NA","practice","null","","","",""
"d3-instructions","44","259078","0.0-44.0","716","807","12","Female","true","false","false","true","""event"",""trial"",""time""
""fullscreenenter"",""5"",""28375""
","
","
","""event"",""trial"",""time""
""fullscreenenter"",""5"",""28375""
","
","","","","","","","","","","","","","","","","","","","","","",""
"d3-instructions","45","265437","0.0-45.0","716","807","12","Female","true","false","false","true","""event"",""trial"",""time""
""fullscreenenter"",""5"",""28375""
","
","
","""event"",""trial"",""time""
""fullscreenenter"",""5"",""28375""
","
","","","","","","","","","","","","","","","","","","","","","",""
"d3-instructions","46","271095","0.0-46.0","716","807","12","Female","true","false","false","true","""event"",""trial"",""time""
""fullscreenenter"",""5"",""28375""
","
","
","""event"",""trial"",""time""
""fullscreenenter"",""5"",""28375""
","
","","","","","","","","","","","","","","","","","","","","","",""
"d3-instructions","47","289410","0.0-47.0","716","807","12","Female","true","false","false","true","""event"",""trial"",""time""
""fullscreenenter"",""5"",""28375""
","
","
","""event"",""trial"",""time""
""fullscreenenter"",""5"",""28375""
","
","","","","","","","","","","","","","","","","","","","","","",""
"d3-instructions","48","296140","0.0-48.0","716","807","12","Female","true","false","false","true","""event"",""trial"",""time""
""fullscreenenter"",""5"",""28375""
","
","
","""event"",""trial"",""time""
""fullscreenenter"",""5"",""28375""
","
","","","","","","","","","","","","","","","","","","","","","",""
"d3-instructions","49","307562","0.0-49.0","716","807","12","Female","true","false","false","true","""event"",""trial"",""time""
""fullscreenenter"",""5"",""28375""
","
","
","""event"",""trial"",""time""
""fullscreenenter"",""5"",""28375""
","
","","","","","","","","","","","","","","","","","","","","","",""
"d3-instructions","50","317120","0.0-50.0","716","807","12","Female","true","false","false","true","""event"",""trial"",""time""
""fullscreenenter"",""5"",""28375""
","
","
","""event"",""trial"",""time""
""fullscreenenter"",""5"",""28375""
","
","","","","","","","","","","","","","","","","","","","","","",""
"d3-instructions","51","319906","0.0-51.0","716","807","12","Female","true","false","false","true","""event"",""trial"",""time""
""fullscreenenter"",""5"",""28375""
","
","
","""event"",""trial"",""time""
""fullscreenenter"",""5"",""28375""
","
","","","","","","","","","","","","","","","","","","","","","",""
"d3-instructions","52","322100","0.0-52.0","716","807","12","Female","true","false","false","true","""event"",""trial"",""time""
""fullscreenenter"",""5"",""28375""
","
","
","""event"",""trial"",""time""
""fullscreenenter"",""5"",""28375""
","
","","","","","","","","","","","","","","","","","","","","","",""
"d3-instructions","53","336498","0.0-53.0","716","807","12","Female","true","false","false","true","""event"",""trial"",""time""
""fullscreenenter"",""5"",""28375""
","
","
","""event"",""trial"",""time""
""fullscreenenter"",""5"",""28375""
","
","","","","","","","","","","","","","","","","","","","","","",""
"d3-instructions","54","349340","0.0-54.0","716","807","12","Female","true","false","false","true","""event"",""trial"",""time""
""fullscreenenter"",""5"",""28375""
","
","
","""event"",""trial"",""time""
""fullscreenenter"",""5"",""28375""
","
","","","","","","","","","","","","","","","","","","","","","",""
"d3-instructions","55","359136","0.0-55.0","716","807","12","Female","true","false","false","true","""event"",""trial"",""time""
""fullscreenenter"",""5"",""28375""
","
","
","""event"",""trial"",""time""
""fullscreenenter"",""5"",""28375""
","
","","","","","","","","","","","","","","","","","","","","","",""
"d3-instructions","56","367491","0.0-56.0","716","807","12","Female","true","false","false","true","""event"",""trial"",""time""
""fullscreenenter"",""5"",""28375""
","
","
","""event"",""trial"",""time""
""fullscreenenter"",""5"",""28375""
","
","","","","","","","","","","","","","","","","","","","","","",""
"d3-instructions","57","378359","0.0-57.0","716","807","12","Female","true","false","false","true","""event"",""trial"",""time""
""fullscreenenter"",""5"",""28375""
","
","
","""event"",""trial"",""time""
""fullscreenenter"",""5"",""28375""
","
","","","","","","","","","","","","","","","","","","","","","",""
"d3-instructions","58","388668","0.0-58.0","716","807","12","Female","true","false","false","true","""event"",""trial"",""time""
""fullscreenenter"",""5"",""28375""
","
","
","""event"",""trial"",""time""
""fullscreenenter"",""5"",""28375""
","
","","","","","","","","","","","","","","","","","","","","","",""
"d3-instructions","59","393101","0.0-59.0","716","807","12","Female","true","false","false","true","""event"",""trial"",""time""
""fullscreenenter"",""5"",""28375""
","
","
","""event"",""trial"",""time""
""fullscreenenter"",""5"",""28375""
","
","","","","","","","","","","","","","","","","","","","","","",""
"d3-instructions","60","399911","0.0-60.0","716","807","12","Female","true","false","false","true","""event"",""trial"",""time""
""fullscreenenter"",""5"",""28375""
","
","
","""event"",""trial"",""time""
""fullscreenenter"",""5"",""28375""
","
","","","","","","","","","","","","","","","","","","","","","",""
"d3-animate-choice","61","402979","0.0-61.0-0.0","716","807","12","Female","true","false","false","true","""event"",""trial"",""time""
""fullscreenenter"",""5"",""28375""
","
","
","""event"",""trial"",""time""
""fullscreenenter"",""5"",""28375""
","
","1058","","49","","","3000","1","","","images/earth.jpg","images/tutrocket1","images/tutrocket2","null","images/tutrocket2","","1","practice","null","1","","",""
"d3-animate-choice","62","405806","0.0-61.0-1.0","716","807","12","Female","true","false","false","true","""event"",""trial"",""time""
""fullscreenenter"",""5"",""28375""
","
","
","""event"",""trial"",""time""
""fullscreenenter"",""5"",""28375""
","
","820","","49","","","3000","1","","","images/tutgreenplanet.jpg","images/tutalien2","images/tutalien1","images/tutrocket2","images/tutalien1","images/nothing.png","2","practice","true","1","common","0","2022-02-14 23:02:48.304"
"two-step-fixation","63","406811","0.0-61.0-2.0","716","807","12","Female","true","false","false","true","""event"",""trial"",""time""
""fullscreenenter"",""5"",""28375""
","
","
","""event"",""trial"",""time""
""fullscreenenter"",""5"",""28375""
","
","","images/earth.jpg","","","","","","","","","","","","","","fixation","","","","","",""
"d3-animate-choice","64","409501","0.0-61.0-0.1","716","807","12","Female","true","false","false","true","""event"",""trial"",""time""
""fullscreenenter"",""5"",""28375""
","
","
","""event"",""trial"",""time""
""fullscreenenter"",""5"",""28375""
","
","680","","49","","","3000","1","","","images/earth.jpg","images/tutrocket1","images/tutrocket2","null","images/tutrocket2","","1","practice","null","1","","",""
"d3-animate-choice","65","412329","0.0-61.0-1.1","716","807","12","Female","true","false","false","true","""event"",""trial"",""time""
""fullscreenenter"",""5"",""28375""
","
","
","""event"",""trial"",""time""
""fullscreenenter"",""5"",""28375""
","
","820","","48","","","3000","1","","","images/tutgreenplanet.jpg","images/tutalien2","images/tutalien1","images/tutrocket2","images/tutalien2","images/nothing.png","2","practice","true","2","common","0","2022-02-14 23:02:54.827"
"two-step-fixation","66","413336","0.0-61.0-2.1","716","807","12","Female","true","false","false","true","""event"",""trial"",""time""
""fullscreenenter"",""5"",""28375""
","
","
","""event"",""trial"",""time""
""fullscreenenter"",""5"",""28375""
","
","","images/earth.jpg","","","","","","","","","","","","","","fixation","","","","","",""
"d3-animate-choice","67","415827","0.0-61.0-0.2","716","807","12","Female","true","false","false","true","""event"",""trial"",""time""
""fullscreenenter"",""5"",""28375""
","
","
","""event"",""trial"",""time""
""fullscreenenter"",""5"",""28375""
","
","486","","48","","","3000","1","","","images/earth.jpg","images/tutrocket1","images/tutrocket2","null","images/tutrocket1","","1","practice","null","2","","",""
"d3-animate-choice","68","419083","0.0-61.0-1.2","716","807","12","Female","true","false","false","true","""event"",""trial"",""time""
""fullscreenenter"",""5"",""28375""
","
","
","""event"",""trial"",""time""
""fullscreenenter"",""5"",""28375""
","
","1247","","49","","","3000","1","","","images/tutyellowplanet.jpg","images/tutalien4","images/tutalien3","images/tutrocket1","images/tutalien3","images/nothing.png","2","practice","true","1","common","0","2022-02-14 23:03:01.581"
"two-step-fixation","69","420089","0.0-61.0-2.2","716","807","12","Female","true","false","false","true","""event"",""trial"",""time""
""fullscreenenter"",""5"",""28375""
","
","
","""event"",""trial"",""time""
""fullscreenenter"",""5"",""28375""
","
","","images/earth.jpg","","","","","","","","","","","","","","fixation","","","","","",""
"d3-animate-choice","70","422421","0.0-61.0-0.3","716","807","12","Female","true","false","false","true","""event"",""trial"",""time""
""fullscreenenter"",""5"",""28375""
","
","
","""event"",""trial"",""time""
""fullscreenenter"",""5"",""28375""
","
","323","","48","","","3000","1","","","images/earth.jpg","images/tutrocket1","images/tutrocket2","null","images/tutrocket1","","1","practice","null","2","","",""
"d3-animate-choice","71","424939","0.0-61.0-1.3","716","807","12","Female","true","false","false","true","""event"",""trial"",""time""
""fullscreenenter"",""5"",""28375""
","
","
","""event"",""trial"",""time""
""fullscreenenter"",""5"",""28375""
","
","513","","48","","","3000","1","","","images/tutyellowplanet.jpg","images/tutalien4","images/tutalien3","images/tutrocket1","images/tutalien4","images/t.png","2","practice","true","2","common","1","2022-02-14 23:03:07.437"
"two-step-fixation","72","425945","0.0-61.0-2.3","716","807","12","Female","true","false","false","true","""event"",""trial"",""time""
""fullscreenenter"",""5"",""28375""
","
","
","""event"",""trial"",""time""
""fullscreenenter"",""5"",""28375""
","
","","images/earth.jpg","","","","","","","","","","","","","","fixation","","","","","",""
"d3-animate-choice","73","428521","0.0-61.0-0.4","716","807","12","Female","true","false","false","true","""event"",""trial"",""time""
""fullscreenenter"",""5"",""28375""
","
","
","""event"",""trial"",""time""
""fullscreenenter"",""5"",""28375""
","
","572","","49","","","3000","1","","","images/earth.jpg","images/tutrocket1","images/tutrocket2","null","images/tutrocket2","","1","practice","null","1","","",""
"d3-animate-choice","74","430996","0.0-61.0-1.4","716","807","12","Female","true","false","false","true","""event"",""trial"",""time""
""fullscreenenter"",""5"",""28375""
","
","
","""event"",""trial"",""time""
""fullscreenenter"",""5"",""28375""
","
","468","","49","","","3000","1","","","images/tutgreenplanet.jpg","images/tutalien2","images/tutalien1","images/tutrocket2","images/tutalien1","images/nothing.png","2","practice","true","1","common","0","2022-02-14 23:03:13.494"
"two-step-fixation","75","432002","0.0-61.0-2.4","716","807","12","Female","true","false","false","true","""event"",""trial"",""time""
""fullscreenenter"",""5"",""28375""
","
","
","""event"",""trial"",""time""
""fullscreenenter"",""5"",""28375""
","
","","images/earth.jpg","","","","","","","","","","","","","","fixation","","","","","",""
"d3-animate-choice","76","434020","0.0-61.0-0.5","716","807","12","Female","true","false","false","true","""event"",""trial"",""time""
""fullscreenenter"",""5"",""28375""
","
","
","""event"",""trial"",""time""
""fullscreenenter"",""5"",""28375""
","
","9","","49","","","3000","1","","","images/earth.jpg","images/tutrocket1","images/tutrocket2","null","images/tutrocket2","","1","practice","null","1","","",""
"d3-animate-choice","77","436707","0.0-61.0-1.5","716","807","12","Female","true","false","false","true","""event"",""trial"",""time""
""fullscreenenter"",""5"",""28375""
","
","
","""event"",""trial"",""time""
""fullscreenenter"",""5"",""28375""
","
","681","","48","","","3000","1","","","images/tutgreenplanet.jpg","images/tutalien2","images/tutalien1","images/tutrocket2","images/tutalien2","images/t.png","2","practice","true","2","common","1","2022-02-14 23:03:19.205"
"two-step-fixation","78","437714","0.0-61.0-2.5","716","807","12","Female","true","false","false","true","""event"",""trial"",""time""
""fullscreenenter"",""5"",""28375""
","
","
","""event"",""trial"",""time""
""fullscreenenter"",""5"",""28375""
","
","","images/earth.jpg","","","","","","","","","","","","","","fixation","","","","","",""
"d3-animate-choice","79","440505","0.0-61.0-0.6","716","807","12","Female","true","false","false","true","""event"",""trial"",""time""
""fullscreenenter"",""5"",""28375""
","
","
","""event"",""trial"",""time""
""fullscreenenter"",""5"",""28375""
","
","787","","48","","","3000","1","","","images/earth.jpg","images/tutrocket1","images/tutrocket2","null","images/tutrocket1","","1","practice","null","2","","",""
"d3-animate-choice","80","443082","0.0-61.0-1.6","716","807","12","Female","true","false","false","true","""event"",""trial"",""time""
""fullscreenenter"",""5"",""28375""
","
","
","""event"",""trial"",""time""
""fullscreenenter"",""5"",""28375""
","
","571","","48","","","3000","1","","","images/tutyellowplanet.jpg","images/tutalien4","images/tutalien3","images/tutrocket1","images/tutalien4","images/nothing.png","2","practice","true","2","common","0","2022-02-14 23:03:25.580"
"two-step-fixation","81","444088","0.0-61.0-2.6","716","807","12","Female","true","false","false","true","""event"",""trial"",""time""
""fullscreenenter"",""5"",""28375""
","
","
","""event"",""trial"",""time""
""fullscreenenter"",""5"",""28375""
","
","","images/earth.jpg","","","","","","","","","","","","","","fixation","","","","","",""
"d3-animate-choice","82","446612","0.0-61.0-0.7","716","807","12","Female","true","false","false","true","""event"",""trial"",""time""
""fullscreenenter"",""5"",""28375""
","
","
","""event"",""trial"",""time""
""fullscreenenter"",""5"",""28375""
","
","521","","49","","","3000","1","","","images/earth.jpg","images/tutrocket1","images/tutrocket2","null","images/tutrocket2","","1","practice","null","1","","",""
"d3-animate-choice","83","449046","0.0-61.0-1.7","716","807","12","Female","true","false","false","true","""event"",""trial"",""time""
""fullscreenenter"",""5"",""28375""
","
","
","""event"",""trial"",""time""
""fullscreenenter"",""5"",""28375""
","
","428","","48","","","3000","1","","","images/tutgreenplanet.jpg","images/tutalien2","images/tutalien1","images/tutrocket2","images/tutalien2","images/nothing.png","2","practice","true","2","common","0","2022-02-14 23:03:31.544"
"two-step-fixation","84","450047","0.0-61.0-2.7","716","807","12","Female","true","false","false","true","""event"",""trial"",""time""
""fullscreenenter"",""5"",""28375""
","
","
","""event"",""trial"",""time""
""fullscreenenter"",""5"",""28375""
","
","","images/earth.jpg","","","","","","","","","","","","","","fixation","","","","","",""
"d3-animate-choice","85","452429","0.0-61.0-0.8","716","807","12","Female","true","false","false","true","""event"",""trial"",""time""
""fullscreenenter"",""5"",""28375""
","
","
","""event"",""trial"",""time""
""fullscreenenter"",""5"",""28375""
","
","378","","48","","","3000","1","","","images/earth.jpg","images/tutrocket1","images/tutrocket2","null","images/tutrocket1","","1","practice","null","2","","",""
"d3-animate-choice","86","455005","0.0-61.0-1.8","716","807","12","Female","true","false","false","true","""event"",""trial"",""time""
""fullscreenenter"",""5"",""28375""
","
","
","""event"",""trial"",""time""
""fullscreenenter"",""5"",""28375""
","
","569","","49","","","3000","1","1099","49","images/tutgreenplanet.jpg","images/tutalien2","images/tutalien1","images/tutrocket1","images/tutalien1","images/nothing.png","2","practice","false","1","rare","0","2022-02-14 23:03:37.503"
"two-step-fixation","87","456007","0.0-61.0-2.8","716","807","12","Female","true","false","false","true","""event"",""trial"",""time""
""fullscreenenter"",""5"",""28375""
","
","
","""event"",""trial"",""time""
""fullscreenenter"",""5"",""28375""
","
","","images/earth.jpg","","","","","","","","","","","","","","fixation","","","","","",""
"d3-animate-choice","88","458595","0.0-61.0-0.9","716","807","12","Female","true","false","false","true","""event"",""trial"",""time""
""fullscreenenter"",""5"",""28375""
","
","
","""event"",""trial"",""time""
""fullscreenenter"",""5"",""28375""
","
","581","","49","","","3000","1","","","images/earth.jpg","images/tutrocket1","images/tutrocket2","null","images/tutrocket2","","1","practice","null","1","","",""
"d3-animate-choice","89","461192","0.0-61.0-1.9","716","807","12","Female","true","false","false","true","""event"",""trial"",""time""
""fullscreenenter"",""5"",""28375""
","
","
","""event"",""trial"",""time""
""fullscreenenter"",""5"",""28375""
","
","589","","48","","","3000","1","","","images/tutgreenplanet.jpg","images/tutalien2","images/tutalien1","images/tutrocket2","images/tutalien2","images/nothing.png","2","practice","true","2","common","0","2022-02-14 23:03:43.690"
"two-step-fixation","90","462198","0.0-61.0-2.9","716","807","12","Female","true","false","false","true","""event"",""trial"",""time""
""fullscreenenter"",""5"",""28375""
","
","
","""event"",""trial"",""time""
""fullscreenenter"",""5"",""28375""
","
","","images/earth.jpg","","","","","","","","","","","","","","fixation","","","","","",""
"d3-animate-choice","91","464515","0.0-61.0-0.10","716","807","12","Female","true","false","false","true","""event"",""trial"",""time""
""fullscreenenter"",""5"",""28375""
","
","
","""event"",""trial"",""time""
""fullscreenenter"",""5"",""28375""
","
","309","","48","","","3000","1","","","images/earth.jpg","images/tutrocket1","images/tutrocket2","null","images/tutrocket1","","1","practice","null","2","","",""
"d3-animate-choice","92","467528","0.0-61.0-1.10","716","807","12","Female","true","false","false","true","""event"",""trial"",""time""
""fullscreenenter"",""5"",""28375""
","
","
","""event"",""trial"",""time""
""fullscreenenter"",""5"",""28375""
","
","1008","","49","","","3000","1","","","images/tutyellowplanet.jpg","images/tutalien4","images/tutalien3","images/tutrocket1","images/tutalien3","images/nothing.png","2","practice","true","1","common","0","2022-02-14 23:03:50.027"
"two-step-fixation","93","468531","0.0-61.0-2.10","716","807","12","Female","true","false","false","true","""event"",""trial"",""time""
""fullscreenenter"",""5"",""28375""
","
","
","""event"",""trial"",""time""
""fullscreenenter"",""5"",""28375""
","
","","images/earth.jpg","","","","","","","","","","","","","","fixation","","","","","",""
"d3-animate-choice","94","470854","0.0-61.0-0.11","716","807","12","Female","true","false","false","true","""event"",""trial"",""time""
""fullscreenenter"",""5"",""28375""
","
","
","""event"",""trial"",""time""
""fullscreenenter"",""5"",""28375""
","
","314","","48","","","3000","1","","","images/earth.jpg","images/tutrocket1","images/tutrocket2","null","images/tutrocket1","","1","practice","null","2","","",""
"d3-animate-choice","95","473270","0.0-61.0-1.11","716","807","12","Female","true","false","false","true","""event"",""trial"",""time""
""fullscreenenter"",""5"",""28375""
","
","
","""event"",""trial"",""time""
""fullscreenenter"",""5"",""28375""
","
","413","","48","","","3000","1","","","images/tutyellowplanet.jpg","images/tutalien4","images/tutalien3","images/tutrocket1","images/tutalien4","images/t.png","2","practice","true","2","common","1","2022-02-14 23:03:55.768"
"two-step-fixation","96","474277","0.0-61.0-2.11","716","807","12","Female","true","false","false","true","""event"",""trial"",""time""
""fullscreenenter"",""5"",""28375""
","
","
","""event"",""trial"",""time""
""fullscreenenter"",""5"",""28375""
","
","","images/earth.jpg","","","","","","","","","","","","","","fixation","","","","","",""
"d3-animate-choice","97","476638","0.0-61.0-0.12","716","807","12","Female","true","false","false","true","""event"",""trial"",""time""
""fullscreenenter"",""5"",""28375""
","
","
","""event"",""trial"",""time""
""fullscreenenter"",""5"",""28375""
","
","352","","48","","","3000","1","","","images/earth.jpg","images/tutrocket1","images/tutrocket2","null","images/tutrocket1","","1","practice","null","2","","",""
"d3-animate-choice","98","479154","0.0-61.0-1.12","716","807","12","Female","true","false","false","true","""event"",""trial"",""time""
""fullscreenenter"",""5"",""28375""
","
","
","""event"",""trial"",""time""
""fullscreenenter"",""5"",""28375""
","
","508","","48","","","3000","1","","","images/tutyellowplanet.jpg","images/tutalien4","images/tutalien3","images/tutrocket1","images/tutalien4","images/nothing.png","2","practice","true","2","common","0","2022-02-14 23:04:01.652"
"two-step-fixation","99","480161","0.0-61.0-2.12","716","807","12","Female","true","false","false","true","""event"",""trial"",""time""
""fullscreenenter"",""5"",""28375""
","
","
","""event"",""trial"",""time""
""fullscreenenter"",""5"",""28375""
","
","","images/earth.jpg","","","","","","","","","","","","","","fixation","","","","","",""
"d3-animate-choice","100","482646","0.0-61.0-0.13","716","807","12","Female","true","false","false","true","""event"",""trial"",""time""
""fullscreenenter"",""5"",""28375""
","
","
","""event"",""trial"",""time""
""fullscreenenter"",""5"",""28375""
","
","477","","49","","","3000","1","","","images/earth.jpg","images/tutrocket1","images/tutrocket2","null","images/tutrocket2","","1","practice","null","1","","",""
"d3-animate-choice","101","485086","0.0-61.0-1.13","716","807","12","Female","true","false","false","true","""event"",""trial"",""time""
""fullscreenenter"",""5"",""28375""
","
","
","""event"",""trial"",""time""
""fullscreenenter"",""5"",""28375""
","
","438","","49","","","3000","1","","","images/tutgreenplanet.jpg","images/tutalien2","images/tutalien1","images/tutrocket2","images/tutalien1","images/t.png","2","practice","true","1","common","1","2022-02-14 23:04:07.585"
"two-step-fixation","102","486091","0.0-61.0-2.13","716","807","12","Female","true","false","false","true","""event"",""trial"",""time""
""fullscreenenter"",""5"",""28375""
","
","
","""event"",""trial"",""time""
""fullscreenenter"",""5"",""28375""
","
","","images/earth.jpg","","","","","","","","","","","","","","fixation","","","","","",""
"d3-animate-choice","103","488479","0.0-61.0-0.14","716","807","12","Female","true","false","false","true","""event"",""trial"",""time""
""fullscreenenter"",""5"",""28375""
","
","
","""event"",""trial"",""time""
""fullscreenenter"",""5"",""28375""
","
","382","","49","","","3000","1","","","images/earth.jpg","images/tutrocket1","images/tutrocket2","null","images/tutrocket2","","1","practice","null","1","","",""
"d3-animate-choice","104","491203","0.0-61.0-1.14","716","807","12","Female","true","false","false","true","""event"",""trial"",""time""
""fullscreenenter"",""5"",""28375""
","
","
","""event"",""trial"",""time""
""fullscreenenter"",""5"",""28375""
","
","717","","48","","","3000","1","","","images/tutyellowplanet.jpg","images/tutalien4","images/tutalien3","images/tutrocket2","images/tutalien4","images/nothing.png","2","practice","false","2","rare","0","2022-02-14 23:04:13.701"
"two-step-fixation","105","492210","0.0-61.0-2.14","716","807","12","Female","true","false","false","true","""event"",""trial"",""time""
""fullscreenenter"",""5"",""28375""
","
","
","""event"",""trial"",""time""
""fullscreenenter"",""5"",""28375""
","
","","images/earth.jpg","","","","","","","","","","","","","","fixation","","","","","",""
"d3-animate-choice","106","494989","0.0-61.0-0.15","716","807","12","Female","true","false","false","true","""event"",""trial"",""time""
""fullscreenenter"",""5"",""28375""
","
","
","""event"",""trial"",""time""
""fullscreenenter"",""5"",""28375""
","
","770","","48","","","3000","1","","","images/earth.jpg","images/tutrocket1","images/tutrocket2","null","images/tutrocket1","","1","practice","null","2","","",""
"d3-animate-choice","107","499002","0.0-61.0-1.15","716","807","12","Female","true","false","false","true","""event"",""trial"",""time""
""fullscreenenter"",""5"",""28375""
","
","
","""event"",""trial"",""time""
""fullscreenenter"",""5"",""28375""
","
","2039","","48","","","3000","1","","","images/tutyellowplanet.jpg","images/tutalien4","images/tutalien3","images/tutrocket1","images/tutalien4","images/t.png","2","practice","true","2","common","1","2022-02-14 23:04:21.500"
"two-step-fixation","108","500005","0.0-61.0-2.15","716","807","12","Female","true","false","false","true","""event"",""trial"",""time""
""fullscreenenter"",""5"",""28375""
","
","
","""event"",""trial"",""time""
""fullscreenenter"",""5"",""28375""
","
","","images/earth.jpg","","","","","","","","","","","","","","fixation","","","","","",""
"d3-animate-choice","109","502704","0.0-61.0-0.16","716","807","12","Female","true","false","false","true","""event"",""trial"",""time""
""fullscreenenter"",""5"",""28375""
","
","
","""event"",""trial"",""time""
""fullscreenenter"",""5"",""28375""
","
","693","","49","","","3000","1","","","images/earth.jpg","images/tutrocket1","images/tutrocket2","null","images/tutrocket2","","1","practice","null","1","","",""
"d3-animate-choice","110","506711","0.0-61.0-1.16","716","807","12","Female","true","false","false","true","""event"",""trial"",""time""
""fullscreenenter"",""5"",""28375""
","
","
","""event"",""trial"",""time""
""fullscreenenter"",""5"",""28375""
","
","2759","","49","","","3000","1","","","images/tutgreenplanet.jpg","images/tutalien2","images/tutalien1","images/tutrocket2","images/tutalien1","","2","practice","true","1","common","0","2022-02-14 23:04:29.209"
"two-step-fixation","111","507713","0.0-61.0-2.16","716","807","12","Female","true","false","false","true","""event"",""trial"",""time""
""fullscreenenter"",""5"",""28375""
","
","
","""event"",""trial"",""time""
""fullscreenenter"",""5"",""28375""
","
","","images/earth.jpg","","","","","","","","","","","","","","fixation","","","","","",""
"d3-animate-choice","112","510380","0.0-61.0-0.17","716","807","12","Female","true","false","false","true","""event"",""trial"",""time""
""fullscreenenter"",""5"",""28375""
","
","
","""event"",""trial"",""time""
""fullscreenenter"",""5"",""28375""
","
","659","","49","","","3000","1","","","images/earth.jpg","images/tutrocket1","images/tutrocket2","null","images/tutrocket2","","1","practice","null","1","","",""
"d3-animate-choice","113","513169","0.0-61.0-1.17","716","807","12","Female","true","false","false","true","""event"",""trial"",""time""
""fullscreenenter"",""5"",""28375""
","
","
","""event"",""trial"",""time""
""fullscreenenter"",""5"",""28375""
","
","780","","49","","","3000","1","","","images/tutgreenplanet.jpg","images/tutalien2","images/tutalien1","images/tutrocket2","images/tutalien1","images/nothing.png","2","practice","true","1","common","0","2022-02-14 23:04:35.667"
"two-step-fixation","114","514175","0.0-61.0-2.17","716","807","12","Female","true","false","false","true","""event"",""trial"",""time""
""fullscreenenter"",""5"",""28375""
","
","
","""event"",""trial"",""time""
""fullscreenenter"",""5"",""28375""
","
","","images/earth.jpg","","","","","","","","","","","","","","fixation","","","","","",""
"d3-animate-choice","115","516448","0.0-61.0-0.18","716","807","12","Female","true","false","false","true","""event"",""trial"",""time""
""fullscreenenter"",""5"",""28375""
","
","
","""event"",""trial"",""time""
""fullscreenenter"",""5"",""28375""
","
","268","","48","","","3000","1","","","images/earth.jpg","images/tutrocket1","images/tutrocket2","null","images/tutrocket1","","1","practice","null","2","","",""
"d3-animate-choice","116","518934","0.0-61.0-1.18","716","807","12","Female","true","false","false","true","""event"",""trial"",""time""
""fullscreenenter"",""5"",""28375""
","
","
","""event"",""trial"",""time""
""fullscreenenter"",""5"",""28375""
","
","480","","48","","","3000","1","","","images/tutyellowplanet.jpg","images/tutalien4","images/tutalien3","images/tutrocket1","images/tutalien4","images/t.png","2","practice","true","2","common","1","2022-02-14 23:04:41.432"
"two-step-fixation","117","519936","0.0-61.0-2.18","716","807","12","Female","true","false","false","true","""event"",""trial"",""time""
""fullscreenenter"",""5"",""28375""
","
","
","""event"",""trial"",""time""
""fullscreenenter"",""5"",""28375""
","
","","images/earth.jpg","","","","","","","","","","","","","","fixation","","","","","",""
"d3-animate-choice","118","522352","0.0-61.0-0.19","716","807","12","Female","true","false","false","true","""event"",""trial"",""time""
""fullscreenenter"",""5"",""28375""
","
","
","""event"",""trial"",""time""
""fullscreenenter"",""5"",""28375""
","
","413","","48","","","3000","1","","","images/earth.jpg","images/tutrocket1","images/tutrocket2","null","images/tutrocket1","","1","practice","null","2","","",""
"d3-animate-choice","119","525141","0.0-61.0-1.19","716","807","12","Female","true","false","false","true","""event"",""trial"",""time""
""fullscreenenter"",""5"",""28375""
","
","
","""event"",""trial"",""time""
""fullscreenenter"",""5"",""28375""
","
","784","","48","","","3000","1","","","images/tutgreenplanet.jpg","images/tutalien2","images/tutalien1","images/tutrocket1","images/tutalien2","images/t.png","2","practice","false","2","rare","1","2022-02-14 23:04:47.639"
"two-step-fixation","120","526144","0.0-61.0-2.19","716","807","12","Female","true","false","false","true","""event"",""trial"",""time""
""fullscreenenter"",""5"",""28375""
","
","
","""event"",""trial"",""time""
""fullscreenenter"",""5"",""28375""
","
","","images/earth.jpg","","","","","","","","","","","","","","fixation","","","","","",""
"d3-instructions","121","533172","0.0-62.0","716","807","12","Female","true","false","false","true","""event"",""trial"",""time""
""fullscreenenter"",""5"",""28375""
","
","
","""event"",""trial"",""time""
""fullscreenenter"",""5"",""28375""
","
","","","","","","","","","","","","","","","","","","","","","",""
"audio-keyboard-response","122","541934","0.0-63.0","716","807","12","Female","true","false","false","true","""event"",""trial"",""time""
""fullscreenenter"",""5"",""28375""
","
","
","""event"",""trial"",""time""
""fullscreenenter"",""5"",""28375""
","
","8766","audio/instructions/treasure_feedback.wav","32","","","","","","","","","","","","","","","","","","",""
"d3-instructions","123","561057","0.0-64.0","716","807","12","Female","true","false","false","true","""event"",""trial"",""time""
""fullscreenenter"",""5"",""28375""
","
","
","""event"",""trial"",""time""
""fullscreenenter"",""5"",""28375""
","
","","","","","","","","","","","","","","","","","","","","","",""
"d3-instructions","124","575459","0.0-65.0","716","807","12","Female","true","false","false","true","""event"",""trial"",""time""
""fullscreenenter"",""5"",""28375""
","
","
","""event"",""trial"",""time""
""fullscreenenter"",""5"",""28375""
","
","","","","","","","","","","","","","","","","","","","","","",""
"d3-instructions","125","603748","0.0-66.0","716","807","12","Female","true","false","false","true","""event"",""trial"",""time""
""fullscreenenter"",""5"",""28375""
","
","
","""event"",""trial"",""time""
""fullscreenenter"",""5"",""28375""
","
","","","","","","","","","","","","","","","","","","","","","",""
"d3-instructions","126","621229","0.0-67.0","716","807","12","Female","true","false","false","true","""event"",""trial"",""time""
""fullscreenenter"",""5"",""28375""
","
","
","""event"",""trial"",""time""
""fullscreenenter"",""5"",""28375""
","
","","","","","","","","","","","","","","","","","","","","","",""
"d3-instructions","127","630418","0.0-68.0","716","807","12","Female","true","false","false","true","""event"",""trial"",""time""
""fullscreenenter"",""5"",""28375""
","
","
","""event"",""trial"",""time""
""fullscreenenter"",""5"",""28375""
","
","","","","","","","","","","","","","","","","","","","","","",""
"instructions-quiz","128","635088","0.0-69.0","716","807","12","Female","true","false","false","true","""event"",""trial"",""time""
""fullscreenenter"",""5"",""28375""
","
","
","""event"",""trial"",""time""
""fullscreenenter"",""5"",""28375""
","
","4669","audio/quiz/Q1_Prompt.wav","","1","","","","","","","","","","","","","","","","","",""
"audio-keyboard-response","129","644272","0.0-70.0","716","807","12","Female","true","false","false","true","""event"",""trial"",""time""
""fullscreenenter"",""5"",""28375""
","
","
","""event"",""trial"",""time""
""fullscreenenter"",""5"",""28375""
","
","null","audio/quiz/Q1_Correct.wav","null","","","","","","","","","","","","","","","","","","",""
"instructions-quiz","130","653554","0.0-71.0","716","807","12","Female","true","false","false","true","""event"",""trial"",""time""
""fullscreenenter"",""5"",""28375""
","
","
","""event"",""trial"",""time""
""fullscreenenter"",""5"",""28375""
","
","9279","audio/quiz/Q2_Prompt.wav","","0","","","","","","","","","","","","","","","","","",""
"audio-keyboard-response","131","666435","0.0-72.0","716","807","12","Female","true","false","false","true","""event"",""trial"",""time""
""fullscreenenter"",""5"",""28375""
","
","
","""event"",""trial"",""time""
""fullscreenenter"",""5"",""28375""
","
","null","audio/quiz/Q2_Correct.wav","null","","","","","","","","","","","","","","","","","","",""
"instructions-quiz","132","671480","0.0-73.0","716","807","12","Female","true","false","false","true","""event"",""trial"",""time""
""fullscreenenter"",""5"",""28375""
","
","
","""event"",""trial"",""time""
""fullscreenenter"",""5"",""28375""
","
","5043","audio/quiz/Q3_Prompt.wav","","1","","","","","","","","","","","","","","","","","",""
"audio-keyboard-response","133","677291","0.0-74.0","716","807","12","Female","true","false","false","true","""event"",""trial"",""time""
""fullscreenenter"",""5"",""28375""
","
","
","""event"",""trial"",""time""
""fullscreenenter"",""5"",""28375""
","
","null","audio/quiz/Q3_Correct.wav","null","","","","","","","","","","","","","","","","","","",""
"d3-instructions","134","691903","0.0-75.0","716","807","12","Female","true","false","false","true","""event"",""trial"",""time""
""fullscreenenter"",""5"",""28375""
","
","
","""event"",""trial"",""time""
""fullscreenenter"",""5"",""28375""
","
","","","","","","","","","","","","","","","","","","","","","",""
"d3-animate-choice","135","695613","0.0-76.0-0.0","716","807","12","Female","true","false","false","true","""event"",""trial"",""time""
""fullscreenenter"",""5"",""28375""
","
","
","""event"",""trial"",""time""
""fullscreenenter"",""5"",""28375""
","
","1117","","50","","","3000","1","1701","49","images/earth.jpg","images/rocket2","images/rocket1","null","images/rocket1","","1","real","null","","","",""
"d3-animate-choice","136","698331","0.0-76.0-1.0","716","807","12","Female","true","false","false","true","""event"",""trial"",""time""
""fullscreenenter"",""5"",""28375""
","
","
","""event"",""trial"",""time""
""fullscreenenter"",""5"",""28375""
","
","712","","48","","","3000","1","","","images/purpleplanet.jpg","images/alien4","images/alien3","images/rocket1","images/alien4","images/t.png","2","real","true","2","common","1","2022-02-14 23:07:40.829"
"two-step-fixation","137","699338","0.0-76.0-2.0","716","807","12","Female","true","false","false","true","""event"",""trial"",""time""
""fullscreenenter"",""5"",""28375""
","
","
","""event"",""trial"",""time""
""fullscreenenter"",""5"",""28375""
","
","","images/earth.jpg","","","","","","","","","","","","","","fixation","","","","","",""
"d3-animate-choice","138","701960","0.0-76.0-0.1","716","807","12","Female","true","false","false","true","""event"",""trial"",""time""
""fullscreenenter"",""5"",""28375""
","
","
","""event"",""trial"",""time""
""fullscreenenter"",""5"",""28375""
","
","611","","48","","","3000","1","","","images/earth.jpg","images/rocket2","images/rocket1","null","images/rocket2","","1","real","null","2","","",""
"d3-animate-choice","139","704578","0.0-76.0-1.1","716","807","12","Female","true","false","false","true","""event"",""trial"",""time""
""fullscreenenter"",""5"",""28375""
","
","
","""event"",""trial"",""time""
""fullscreenenter"",""5"",""28375""
","
","607","","49","","","3000","1","","","images/purpleplanet.jpg","images/alien4","images/alien3","images/rocket2","images/alien3","images/t.png","2","real","false","1","rare","1","2022-02-14 23:07:47.076"
"two-step-fixation","140","705586","0.0-76.0-2.1","716","807","12","Female","true","false","false","true","""event"",""trial"",""time""
""fullscreenenter"",""5"",""28375""
","
","
","""event"",""trial"",""time""
""fullscreenenter"",""5"",""28375""
","
","","images/earth.jpg","","","","","","","","","","","","","","fixation","","","","","",""
"d3-animate-choice","141","708219","0.0-76.0-0.2","716","807","12","Female","true","false","false","true","""event"",""trial"",""time""
""fullscreenenter"",""5"",""28375""
","
","
","""event"",""trial"",""time""
""fullscreenenter"",""5"",""28375""
","
","626","","49","","","3000","1","","","images/earth.jpg","images/rocket2","images/rocket1","null","images/rocket1","","1","real","null","1","","",""
"d3-animate-choice","142","711040","0.0-76.0-1.2","716","807","12","Female","true","false","false","true","""event"",""trial"",""time""
""fullscreenenter"",""5"",""28375""
","
","
","""event"",""trial"",""time""
""fullscreenenter"",""5"",""28375""
","
","811","","48","","","3000","1","","","images/purpleplanet.jpg","images/alien4","images/alien3","images/rocket1","images/alien4","images/t.png","2","real","true","2","common","1","2022-02-14 23:07:53.539"
"two-step-fixation","143","712043","0.0-76.0-2.2","716","807","12","Female","true","false","false","true","""event"",""trial"",""time""
""fullscreenenter"",""5"",""28375""
","
","
","""event"",""trial"",""time""
""fullscreenenter"",""5"",""28375""
","
","","images/earth.jpg","","","","","","","","","","","","","","fixation","","","","","",""
"d3-animate-choice","144","714197","0.0-76.0-0.3","716","807","12","Female","true","false","false","true","""event"",""trial"",""time""
""fullscreenenter"",""5"",""28375""
","
","
","""event"",""trial"",""time""
""fullscreenenter"",""5"",""28375""
","
","144","","49","","","3000","1","","","images/earth.jpg","images/rocket2","images/rocket1","null","images/rocket1","","1","real","null","1","","",""
"d3-animate-choice","145","716652","0.0-76.0-1.3","716","807","12","Female","true","false","false","true","""event"",""trial"",""time""
""fullscreenenter"",""5"",""28375""
","
","
","""event"",""trial"",""time""
""fullscreenenter"",""5"",""28375""
","
","446","","49","","","3000","1","","","images/redplanet1.jpg","images/alien2","images/alien1","images/rocket1","images/alien1","images/nothing.png","2","real","false","1","rare","0","2022-02-14 23:07:59.150"
"two-step-fixation","146","717654","0.0-76.0-2.3","716","807","12","Female","true","false","false","true","""event"",""trial"",""time""
""fullscreenenter"",""5"",""28375""
","
","
","""event"",""trial"",""time""
""fullscreenenter"",""5"",""28375""
","
","","images/earth.jpg","","","","","","","","","","","","","","fixation","","","","","",""
"d3-animate-choice","147","720083","0.0-76.0-0.4","716","807","12","Female","true","false","false","true","""event"",""trial"",""time""
""fullscreenenter"",""5"",""28375""
","
","
","""event"",""trial"",""time""
""fullscreenenter"",""5"",""28375""
","
","420","","49","","","3000","1","","","images/earth.jpg","images/rocket2","images/rocket1","null","images/rocket1","","1","real","null","1","","",""
"d3-animate-choice","148","722604","0.0-76.0-1.4","716","807","12","Female","true","false","false","true","""event"",""trial"",""time""
""fullscreenenter"",""5"",""28375""
","
","
","""event"",""trial"",""time""
""fullscreenenter"",""5"",""28375""
","
","514","","48","","","3000","1","","","images/purpleplanet.jpg","images/alien4","images/alien3","images/rocket1","images/alien4","images/t.png","2","real","true","2","common","1","2022-02-14 23:08:05.103"
"two-step-fixation","149","723612","0.0-76.0-2.4","716","807","12","Female","true","false","false","true","""event"",""trial"",""time""
""fullscreenenter"",""5"",""28375""
","
","
","""event"",""trial"",""time""
""fullscreenenter"",""5"",""28375""
","
","","images/earth.jpg","","","","","","","","","","","","","","fixation","","","","","",""
"d3-animate-choice","150","726074","0.0-76.0-0.5","716","807","12","Female","true","false","false","true","""event"",""trial"",""time""
""fullscreenenter"",""5"",""28375""
","
","
","""event"",""trial"",""time""
""fullscreenenter"",""5"",""28375""
","
","455","","48","","","3000","1","","","images/earth.jpg","images/rocket2","images/rocket1","null","images/rocket2","","1","real","null","2","","",""
"d3-animate-choice","151","728835","0.0-76.0-1.5","716","807","12","Female","true","false","false","true","""event"",""trial"",""time""
""fullscreenenter"",""5"",""28375""
","
","
","""event"",""trial"",""time""
""fullscreenenter"",""5"",""28375""
","
","752","","49","","","3000","1","","","images/purpleplanet.jpg","images/alien4","images/alien3","images/rocket2","images/alien3","images/t.png","2","real","false","1","rare","1","2022-02-14 23:08:11.333"
"two-step-fixation","152","729838","0.0-76.0-2.5","716","807","12","Female","true","false","false","true","""event"",""trial"",""time""
""fullscreenenter"",""5"",""28375""
","
","
","""event"",""trial"",""time""
""fullscreenenter"",""5"",""28375""
","
","","images/earth.jpg","","","","","","","","","","","","","","fixation","","","","","",""
"d3-animate-choice","153","732458","0.0-76.0-0.6","716","807","12","Female","true","false","false","true","""event"",""trial"",""time""
""fullscreenenter"",""5"",""28375""
","
","
","""event"",""trial"",""time""
""fullscreenenter"",""5"",""28375""
","
","611","","48","","","3000","1","","","images/earth.jpg","images/rocket2","images/rocket1","null","images/rocket2","","1","real","null","2","","",""
"d3-animate-choice","154","735403","0.0-76.0-1.6","716","807","12","Female","true","false","false","true","""event"",""trial"",""time""
""fullscreenenter"",""5"",""28375""
","
","
","""event"",""trial"",""time""
""fullscreenenter"",""5"",""28375""
","
","937","","48","","","3000","1","","","images/redplanet1.jpg","images/alien2","images/alien1","images/rocket2","images/alien2","images/t.png","2","real","true","2","common","1","2022-02-14 23:08:17.901"
"two-step-fixation","155","736410","0.0-76.0-2.6","716","807","12","Female","true","false","false","true","""event"",""trial"",""time""
""fullscreenenter"",""5"",""28375""
","
","
","""event"",""trial"",""time""
""fullscreenenter"",""5"",""28375""
","
","","images/earth.jpg","","","","","","","","","","","","","","fixation","","","","","",""
"d3-animate-choice","156","738578","0.0-76.0-0.7","716","807","12","Female","true","false","false","true","""event"",""trial"",""time""
""fullscreenenter"",""5"",""28375""
","
","
","""event"",""trial"",""time""
""fullscreenenter"",""5"",""28375""
","
","159","","49","","","3000","1","","","images/earth.jpg","images/rocket2","images/rocket1","null","images/rocket1","","1","real","null","1","","",""
"d3-animate-choice","157","741317","0.0-76.0-1.7","716","807","12","Female","true","false","false","true","""event"",""trial"",""time""
""fullscreenenter"",""5"",""28375""
","
","
","""event"",""trial"",""time""
""fullscreenenter"",""5"",""28375""
","
","731","","48","","","3000","1","","","images/redplanet1.jpg","images/alien2","images/alien1","images/rocket1","images/alien2","images/nothing.png","2","real","false","2","rare","0","2022-02-14 23:08:23.815"
"two-step-fixation","158","742320","0.0-76.0-2.7","716","807","12","Female","true","false","false","true","""event"",""trial"",""time""
""fullscreenenter"",""5"",""28375""
","
","
","""event"",""trial"",""time""
""fullscreenenter"",""5"",""28375""
","
","","images/earth.jpg","","","","","","","","","","","","","","fixation","","","","","",""
"d3-animate-choice","159","745190","0.0-76.0-0.8","716","807","12","Female","true","false","false","true","""event"",""trial"",""time""
""fullscreenenter"",""5"",""28375""
","
","
","""event"",""trial"",""time""
""fullscreenenter"",""5"",""28375""
","
","866","","49","","","3000","1","","","images/earth.jpg","images/rocket2","images/rocket1","null","images/rocket1","","1","real","null","1","","",""
"d3-animate-choice","160","747261","0.0-76.0-1.8","716","807","12","Female","true","false","false","true","""event"",""trial"",""time""
""fullscreenenter"",""5"",""28375""
","
","
","""event"",""trial"",""time""
""fullscreenenter"",""5"",""28375""
","
","64","","48","","","3000","1","","","images/redplanet1.jpg","images/alien2","images/alien1","images/rocket1","images/alien2","images/t.png","2","real","false","2","rare","1","2022-02-14 23:08:29.759"
"two-step-fixation","161","748268","0.0-76.0-2.8","716","807","12","Female","true","false","false","true","""event"",""trial"",""time""
""fullscreenenter"",""5"",""28375""
","
","
","""event"",""trial"",""time""
""fullscreenenter"",""5"",""28375""
","
","","images/earth.jpg","","","","","","","","","","","","","","fixation","","","","","",""
"d3-animate-choice","162","750641","0.0-76.0-0.9","716","807","12","Female","true","false","false","true","""event"",""trial"",""time""
""fullscreenenter"",""5"",""28375""
","
","
","""event"",""trial"",""time""
""fullscreenenter"",""5"",""28375""
","
","364","","48","","","3000","1","","","images/earth.jpg","images/rocket2","images/rocket1","null","images/rocket2","","1","real","null","2","","",""
"d3-animate-choice","163","753208","0.0-76.0-1.9","716","807","12","Female","true","false","false","true","""event"",""trial"",""time""
""fullscreenenter"",""5"",""28375""
","
","
","""event"",""trial"",""time""
""fullscreenenter"",""5"",""28375""
","
","561","","49","","","3000","1","","","images/purpleplanet.jpg","images/alien4","images/alien3","images/rocket2","images/alien3","images/nothing.png","2","real","false","1","rare","0","2022-02-14 23:08:35.706"
"two-step-fixation","164","754211","0.0-76.0-2.9","716","807","12","Female","true","false","false","true","""event"",""trial"",""time""
""fullscreenenter"",""5"",""28375""
","
","
","""event"",""trial"",""time""
""fullscreenenter"",""5"",""28375""
","
","","images/earth.jpg","","","","","","","","","","","","","","fixation","","","","","",""
"d3-animate-choice","165","756531","0.0-76.0-0.10","716","807","12","Female","true","false","false","true","""event"",""trial"",""time""
""fullscreenenter"",""5"",""28375""
","
","
","""event"",""trial"",""time""
""fullscreenenter"",""5"",""28375""
","
","312","","48","","","3000","1","","","images/earth.jpg","images/rocket2","images/rocket1","null","images/rocket2","","1","real","null","2","","",""
"d3-animate-choice","166","758968","0.0-76.0-1.10","716","807","12","Female","true","false","false","true","""event"",""trial"",""time""
""fullscreenenter"",""5"",""28375""
","
","
","""event"",""trial"",""time""
""fullscreenenter"",""5"",""28375""
","
","428","","48","","","3000","1","","","images/purpleplanet.jpg","images/alien4","images/alien3","images/rocket2","images/alien4","images/nothing.png","2","real","false","2","rare","0","2022-02-14 23:08:41.467"
"two-step-fixation","167","759970","0.0-76.0-2.10","716","807","12","Female","true","false","false","true","""event"",""trial"",""time""
""fullscreenenter"",""5"",""28375""
","
","
","""event"",""trial"",""time""
""fullscreenenter"",""5"",""28375""
","
","","images/earth.jpg","","","","","","","","","","","","","","fixation","","","","","",""
"d3-animate-choice","168","762593","0.0-76.0-0.11","716","807","12","Female","true","false","false","true","""event"",""trial"",""time""
""fullscreenenter"",""5"",""28375""
","
","
","""event"",""trial"",""time""
""fullscreenenter"",""5"",""28375""
","
","618","","49","","","3000","1","","","images/earth.jpg","images/rocket2","images/rocket1","null","images/rocket1","","1","real","null","1","","",""
"d3-animate-choice","169","765488","0.0-76.0-1.11","716","807","12","Female","true","false","false","true","""event"",""trial"",""time""
""fullscreenenter"",""5"",""28375""
","
","
","""event"",""trial"",""time""
""fullscreenenter"",""5"",""28375""
","
","889","","49","","","3000","1","","","images/redplanet1.jpg","images/alien2","images/alien1","images/rocket1","images/alien1","images/nothing.png","2","real","false","1","rare","0","2022-02-14 23:08:47.986"
"two-step-fixation","170","766495","0.0-76.0-2.11","716","807","12","Female","true","false","false","true","""event"",""trial"",""time""
""fullscreenenter"",""5"",""28375""
","
","
","""event"",""trial"",""time""
""fullscreenenter"",""5"",""28375""
","
","","images/earth.jpg","","","","","","","","","","","","","","fixation","","","","","",""
"d3-animate-choice","171","768815","0.0-76.0-0.12","716","807","12","Female","true","false","false","true","""event"",""trial"",""time""
""fullscreenenter"",""5"",""28375""
","
","
","""event"",""trial"",""time""
""fullscreenenter"",""5"",""28375""
","
","313","","49","","","3000","1","","","images/earth.jpg","images/rocket2","images/rocket1","null","images/rocket1","","1","real","null","1","","",""
"d3-animate-choice","172","770976","0.0-76.0-1.12","716","807","12","Female","true","false","false","true","""event"",""trial"",""time""
""fullscreenenter"",""5"",""28375""
","
","
","""event"",""trial"",""time""
""fullscreenenter"",""5"",""28375""
","
","156","","48","","","3000","1","","","images/purpleplanet.jpg","images/alien4","images/alien3","images/rocket1","images/alien4","images/nothing.png","2","real","true","2","common","0","2022-02-14 23:08:53.475"
"two-step-fixation","173","771983","0.0-76.0-2.12","716","807","12","Female","true","false","false","true","""event"",""trial"",""time""
""fullscreenenter"",""5"",""28375""
","
","
","""event"",""trial"",""time""
""fullscreenenter"",""5"",""28375""
","
","","images/earth.jpg","","","","","","","","","","","","","","fixation","","","","","",""
"d3-animate-choice","174","774354","0.0-76.0-0.13","716","807","12","Female","true","false","false","true","""event"",""trial"",""time""
""fullscreenenter"",""5"",""28375""
","
","
","""event"",""trial"",""time""
""fullscreenenter"",""5"",""28375""
","
","362","","48","","","3000","1","","","images/earth.jpg","images/rocket2","images/rocket1","null","images/rocket2","","1","real","null","2","","",""
"d3-animate-choice","175","776910","0.0-76.0-1.13","716","807","12","Female","true","false","false","true","""event"",""trial"",""time""
""fullscreenenter"",""5"",""28375""
","
","
","""event"",""trial"",""time""
""fullscreenenter"",""5"",""28375""
","
","549","","48","","","3000","1","","","images/redplanet1.jpg","images/alien2","images/alien1","images/rocket2","images/alien2","images/nothing.png","2","real","true","2","common","0","2022-02-14 23:08:59.408"
"two-step-fixation","176","777915","0.0-76.0-2.13","716","807","12","Female","true","false","false","true","""event"",""trial"",""time""
""fullscreenenter"",""5"",""28375""
","
","
","""event"",""trial"",""time""
""fullscreenenter"",""5"",""28375""
","
","","images/earth.jpg","","","","","","","","","","","","","","fixation","","","","","",""
"d3-animate-choice","177","780309","0.0-76.0-0.14","716","807","12","Female","true","false","false","true","""event"",""trial"",""time""
""fullscreenenter"",""5"",""28375""
","
","
","""event"",""trial"",""time""
""fullscreenenter"",""5"",""28375""
","
","386","","48","","","3000","1","","","images/earth.jpg","images/rocket2","images/rocket1","null","images/rocket2","","1","real","null","2","","",""
"d3-animate-choice","178","782774","0.0-76.0-1.14","716","807","12","Female","true","false","false","true","""event"",""trial"",""time""
""fullscreenenter"",""5"",""28375""
","
","
","""event"",""trial"",""time""
""fullscreenenter"",""5"",""28375""
","
","460","","49","","","3000","1","","","images/purpleplanet.jpg","images/alien4","images/alien3","images/rocket2","images/alien3","images/nothing.png","2","real","false","1","rare","0","2022-02-14 23:09:05.272"
"two-step-fixation","179","783777","0.0-76.0-2.14","716","807","12","Female","true","false","false","true","""event"",""trial"",""time""
""fullscreenenter"",""5"",""28375""
","
","
","""event"",""trial"",""time""
""fullscreenenter"",""5"",""28375""
","
","","images/earth.jpg","","","","","","","","","","","","","","fixation","","","","","",""
"d3-animate-choice","180","786314","0.0-76.0-0.15","716","807","12","Female","true","false","false","true","""event"",""trial"",""time""
""fullscreenenter"",""5"",""28375""
","
","
","""event"",""trial"",""time""
""fullscreenenter"",""5"",""28375""
","
","531","","48","","","3000","1","","","images/earth.jpg","images/rocket2","images/rocket1","null","images/rocket2","","1","real","null","2","","",""
"d3-animate-choice","181","788957","0.0-76.0-1.15","716","807","12","Female","true","false","false","true","""event"",""trial"",""time""
""fullscreenenter"",""5"",""28375""
","
","
","""event"",""trial"",""time""
""fullscreenenter"",""5"",""28375""
","
","637","","48","","","3000","1","","","images/redplanet1.jpg","images/alien2","images/alien1","images/rocket2","images/alien2","images/t.png","2","real","true","2","common","1","2022-02-14 23:09:11.455"
"two-step-fixation","182","789960","0.0-76.0-2.15","716","807","12","Female","true","false","false","true","""event"",""trial"",""time""
""fullscreenenter"",""5"",""28375""
","
","
","""event"",""trial"",""time""
""fullscreenenter"",""5"",""28375""
","
","","images/earth.jpg","","","","","","","","","","","","","","fixation","","","","","",""
"d3-animate-choice","183","792358","0.0-76.0-0.16","716","807","12","Female","true","false","false","true","""event"",""trial"",""time""
""fullscreenenter"",""5"",""28375""
","
","
","""event"",""trial"",""time""
""fullscreenenter"",""5"",""28375""
","
","394","","48","","","3000","1","","","images/earth.jpg","images/rocket2","images/rocket1","null","images/rocket2","","1","real","null","2","","",""
"d3-animate-choice","184","794821","0.0-76.0-1.16","716","807","12","Female","true","false","false","true","""event"",""trial"",""time""
""fullscreenenter"",""5"",""28375""
","
","
","""event"",""trial"",""time""
""fullscreenenter"",""5"",""28375""
","
","457","","48","","","3000","1","","","images/redplanet1.jpg","images/alien2","images/alien1","images/rocket2","images/alien2","images/t.png","2","real","true","2","common","1","2022-02-14 23:09:17.319"
"two-step-fixation","185","795823","0.0-76.0-2.16","716","807","12","Female","true","false","false","true","""event"",""trial"",""time""
""fullscreenenter"",""5"",""28375""
","
","
","""event"",""trial"",""time""
""fullscreenenter"",""5"",""28375""
","
","","images/earth.jpg","","","","","","","","","","","","","","fixation","","","","","",""
"d3-animate-choice","186","798145","0.0-76.0-0.17","716","807","12","Female","true","false","false","true","""event"",""trial"",""time""
""fullscreenenter"",""5"",""28375""
","
","
","""event"",""trial"",""time""
""fullscreenenter"",""5"",""28375""
","
","316","","48","","","3000","1","","","images/earth.jpg","images/rocket2","images/rocket1","null","images/rocket2","","1","real","null","2","","",""
"d3-animate-choice","187","800709","0.0-76.0-1.17","716","807","12","Female","true","false","false","true","""event"",""trial"",""time""
""fullscreenenter"",""5"",""28375""
","
","
","""event"",""trial"",""time""
""fullscreenenter"",""5"",""28375""
","
","556","","48","","","3000","1","","","images/redplanet1.jpg","images/alien2","images/alien1","images/rocket2","images/alien2","images/t.png","2","real","true","2","common","1","2022-02-14 23:09:23.207"
"two-step-fixation","188","801717","0.0-76.0-2.17","716","807","12","Female","true","false","false","true","""event"",""trial"",""time""
""fullscreenenter"",""5"",""28375""
","
","
","""event"",""trial"",""time""
""fullscreenenter"",""5"",""28375""
","
","","images/earth.jpg","","","","","","","","","","","","","","fixation","","","","","",""
"d3-animate-choice","189","804025","0.0-76.0-0.18","716","807","12","Female","true","false","false","true","""event"",""trial"",""time""
""fullscreenenter"",""5"",""28375""
","
","
","""event"",""trial"",""time""
""fullscreenenter"",""5"",""28375""
","
","304","","48","","","3000","1","","","images/earth.jpg","images/rocket2","images/rocket1","null","images/rocket2","","1","real","null","2","","",""
"d3-animate-choice","190","806705","0.0-76.0-1.18","716","807","12","Female","true","false","false","true","""event"",""trial"",""time""
""fullscreenenter"",""5"",""28375""
","
","
","""event"",""trial"",""time""
""fullscreenenter"",""5"",""28375""
","
","675","","48","","","3000","1","","","images/redplanet1.jpg","images/alien2","images/alien1","images/rocket2","images/alien2","images/t.png","2","real","true","2","common","1","2022-02-14 23:09:29.203"
"two-step-fixation","191","807711","0.0-76.0-2.18","716","807","12","Female","true","false","false","true","""event"",""trial"",""time""
""fullscreenenter"",""5"",""28375""
","
","
","""event"",""trial"",""time""
""fullscreenenter"",""5"",""28375""
","
","","images/earth.jpg","","","","","","","","","","","","","","fixation","","","","","",""
"d3-animate-choice","192","810029","0.0-76.0-0.19","716","807","12","Female","true","false","false","true","""event"",""trial"",""time""
""fullscreenenter"",""5"",""28375""
","
","
","""event"",""trial"",""time""
""fullscreenenter"",""5"",""28375""
","
","312","","48","","","3000","1","","","images/earth.jpg","images/rocket2","images/rocket1","null","images/rocket2","","1","real","null","2","","",""
"d3-animate-choice","193","812646","0.0-76.0-1.19","716","807","12","Female","true","false","false","true","""event"",""trial"",""time""
""fullscreenenter"",""5"",""28375""
","
","
","""event"",""trial"",""time""
""fullscreenenter"",""5"",""28375""
","
","612","","49","","","3000","1","","","images/redplanet1.jpg","images/alien2","images/alien1","images/rocket2","images/alien1","images/t.png","2","real","true","1","common","1","2022-02-14 23:09:35.145"
"two-step-fixation","194","813653","0.0-76.0-2.19","716","807","12","Female","true","false","false","true","""event"",""trial"",""time""
""fullscreenenter"",""5"",""28375""
","
","
","""event"",""trial"",""time""
""fullscreenenter"",""5"",""28375""
","
","","images/earth.jpg","","","","","","","","","","","","","","fixation","","","","","",""
"d3-animate-choice","195","816020","0.0-76.0-0.20","716","807","12","Female","true","false","false","true","""event"",""trial"",""time""
""fullscreenenter"",""5"",""28375""
","
","
","""event"",""trial"",""time""
""fullscreenenter"",""5"",""28375""
","
","361","","48","","","3000","1","","","images/earth.jpg","images/rocket2","images/rocket1","null","images/rocket2","","1","real","null","2","","",""
"d3-animate-choice","196","818572","0.0-76.0-1.20","716","807","12","Female","true","false","false","true","""event"",""trial"",""time""
""fullscreenenter"",""5"",""28375""
","
","
","""event"",""trial"",""time""
""fullscreenenter"",""5"",""28375""
","
","544","","48","","","3000","1","","","images/redplanet1.jpg","images/alien2","images/alien1","images/rocket2","images/alien2","images/t.png","2","real","true","2","common","1","2022-02-14 23:09:41.070"
"two-step-fixation","197","819577","0.0-76.0-2.20","716","807","12","Female","true","false","false","true","""event"",""trial"",""time""
""fullscreenenter"",""5"",""28375""
","
","
","""event"",""trial"",""time""
""fullscreenenter"",""5"",""28375""
","
","","images/earth.jpg","","","","","","","","","","","","","","fixation","","","","","",""
"d3-animate-choice","198","822093","0.0-76.0-0.21","716","807","12","Female","true","false","false","true","""event"",""trial"",""time""
""fullscreenenter"",""5"",""28375""
","
","
","""event"",""trial"",""time""
""fullscreenenter"",""5"",""28375""
","
","506","","48","","","3000","1","","","images/earth.jpg","images/rocket2","images/rocket1","null","images/rocket2","","1","real","null","2","","",""
"d3-animate-choice","199","824603","0.0-76.0-1.21","716","807","12","Female","true","false","false","true","""event"",""trial"",""time""
""fullscreenenter"",""5"",""28375""
","
","
","""event"",""trial"",""time""
""fullscreenenter"",""5"",""28375""
","
","502","","48","","","3000","1","","","images/redplanet1.jpg","images/alien2","images/alien1","images/rocket2","images/alien2","images/nothing.png","2","real","true","2","common","0","2022-02-14 23:09:47.101"
"two-step-fixation","200","825610","0.0-76.0-2.21","716","807","12","Female","true","false","false","true","""event"",""trial"",""time""
""fullscreenenter"",""5"",""28375""
","
","
","""event"",""trial"",""time""
""fullscreenenter"",""5"",""28375""
","
","","images/earth.jpg","","","","","","","","","","","","","","fixation","","","","","",""
"d3-animate-choice","201","828110","0.0-76.0-0.22","716","807","12","Female","true","false","false","true","""event"",""trial"",""time""
""fullscreenenter"",""5"",""28375""
","
","
","""event"",""trial"",""time""
""fullscreenenter"",""5"",""28375""
","
","491","","48","","","3000","1","2220","49","images/earth.jpg","images/rocket2","images/rocket1","null","images/rocket2","","1","real","null","2","","",""
"d3-animate-choice","202","830392","0.0-76.0-1.22","716","807","12","Female","true","false","false","true","""event"",""trial"",""time""
""fullscreenenter"",""5"",""28375""
","
","
","""event"",""trial"",""time""
""fullscreenenter"",""5"",""28375""
","
","276","","49","","","3000","1","","","images/purpleplanet.jpg","images/alien4","images/alien3","images/rocket2","images/alien3","images/t.png","2","real","false","1","rare","1","2022-02-14 23:09:52.890"
"two-step-fixation","203","831395","0.0-76.0-2.22","716","807","12","Female","true","false","false","true","""event"",""trial"",""time""
""fullscreenenter"",""5"",""28375""
","
","
","""event"",""trial"",""time""
""fullscreenenter"",""5"",""28375""
","
","","images/earth.jpg","","","","","","","","","","","","","","fixation","","","","","",""
"d3-animate-choice","204","833578","0.0-76.0-0.23","716","807","12","Female","true","false","false","true","""event"",""trial"",""time""
""fullscreenenter"",""5"",""28375""
","
","
","""event"",""trial"",""time""
""fullscreenenter"",""5"",""28375""
","
","175","","49","","","3000","1","","","images/earth.jpg","images/rocket2","images/rocket1","null","images/rocket1","","1","real","null","1","","",""
"d3-animate-choice","205","836087","0.0-76.0-1.23","716","807","12","Female","true","false","false","true","""event"",""trial"",""time""
""fullscreenenter"",""5"",""28375""
","
","
","""event"",""trial"",""time""
""fullscreenenter"",""5"",""28375""
","
","501","","49","","","3000","1","","","images/purpleplanet.jpg","images/alien4","images/alien3","images/rocket1","images/alien3","images/t.png","2","real","true","1","common","1","2022-02-14 23:09:58.585"
"two-step-fixation","206","837092","0.0-76.0-2.23","716","807","12","Female","true","false","false","true","""event"",""trial"",""time""
""fullscreenenter"",""5"",""28375""
","
","
","""event"",""trial"",""time""
""fullscreenenter"",""5"",""28375""
","
","","images/earth.jpg","","","","","","","","","","","","","","fixation","","","","","",""
"d3-animate-choice","207","839490","0.0-76.0-0.24","716","807","12","Female","true","false","false","true","""event"",""trial"",""time""
""fullscreenenter"",""5"",""28375""
","
","
","""event"",""trial"",""time""
""fullscreenenter"",""5"",""28375""
","
","393","","49","","","3000","1","","","images/earth.jpg","images/rocket2","images/rocket1","null","images/rocket1","","1","real","null","1","","",""
"d3-animate-choice","208","842148","0.0-76.0-1.24","716","807","12","Female","true","false","false","true","""event"",""trial"",""time""
""fullscreenenter"",""5"",""28375""
","
","
","""event"",""trial"",""time""
""fullscreenenter"",""5"",""28375""
","
","654","","48","","","3000","1","","","images/redplanet1.jpg","images/alien2","images/alien1","images/rocket1","images/alien2","images/t.png","2","real","false","2","rare","1","2022-02-14 23:10:04.646"
"two-step-fixation","209","843154","0.0-76.0-2.24","716","807","12","Female","true","false","false","true","""event"",""trial"",""time""
""fullscreenenter"",""5"",""28375""
","
","
","""event"",""trial"",""time""
""fullscreenenter"",""5"",""28375""
","
","","images/earth.jpg","","","","","","","","","","","","","","fixation","","","","","",""
"d3-animate-choice","210","845210","0.0-76.0-0.25","716","807","12","Female","true","false","false","true","""event"",""trial"",""time""
""fullscreenenter"",""5"",""28375""
","
","
","""event"",""trial"",""time""
""fullscreenenter"",""5"",""28375""
","
","49","","49","","","3000","1","","","images/earth.jpg","images/rocket2","images/rocket1","null","images/rocket1","","1","real","null","1","","",""
"d3-animate-choice","211","847709","0.0-76.0-1.25","716","807","12","Female","true","false","false","true","""event"",""trial"",""time""
""fullscreenenter"",""5"",""28375""
","
","
","""event"",""trial"",""time""
""fullscreenenter"",""5"",""28375""
","
","491","","49","","","3000","1","","","images/purpleplanet.jpg","images/alien4","images/alien3","images/rocket1","images/alien3","images/t.png","2","real","true","1","common","1","2022-02-14 23:10:10.208"
"two-step-fixation","212","848712","0.0-76.0-2.25","716","807","12","Female","true","false","false","true","""event"",""trial"",""time""
""fullscreenenter"",""5"",""28375""
","
","
","""event"",""trial"",""time""
""fullscreenenter"",""5"",""28375""
","
","","images/earth.jpg","","","","","","","","","","","","","","fixation","","","","","",""
"d3-animate-choice","213","851219","0.0-76.0-0.26","716","807","12","Female","true","false","false","true","""event"",""trial"",""time""
""fullscreenenter"",""5"",""28375""
","
","
","""event"",""trial"",""time""
""fullscreenenter"",""5"",""28375""
","
","502","","49","","","3000","1","912,1629,2071,2454","48,48,48,48","images/earth.jpg","images/rocket2","images/rocket1","null","images/rocket1","","1","real","null","1","","",""
"d3-animate-choice","214","853457","0.0-76.0-1.26","716","807","12","Female","true","false","false","true","""event"",""trial"",""time""
""fullscreenenter"",""5"",""28375""
","
","
","""event"",""trial"",""time""
""fullscreenenter"",""5"",""28375""
","
","229","","48","","","3000","1","656","48","images/purpleplanet.jpg","images/alien4","images/alien3","images/rocket1","images/alien4","images/t.png","2","real","true","2","common","1","2022-02-14 23:10:15.955"
"two-step-fixation","215","854463","0.0-76.0-2.26","716","807","12","Female","true","false","false","true","""event"",""trial"",""time""
""fullscreenenter"",""5"",""28375""
","
","
","""event"",""trial"",""time""
""fullscreenenter"",""5"",""28375""
","
","","images/earth.jpg","","","","","","","","","","","","","","fixation","","","","","",""
"d3-animate-choice","216","857242","0.0-76.0-0.27","716","807","12","Female","true","false","false","true","""event"",""trial"",""time""
""fullscreenenter"",""5"",""28375""
","
","
","""event"",""trial"",""time""
""fullscreenenter"",""5"",""28375""
","
","774","","49","","","3000","1","","","images/earth.jpg","images/rocket2","images/rocket1","null","images/rocket1","","1","real","null","1","","",""
"d3-animate-choice","217","859982","0.0-76.0-1.27","716","807","12","Female","true","false","false","true","""event"",""trial"",""time""
""fullscreenenter"",""5"",""28375""
","
","
","""event"",""trial"",""time""
""fullscreenenter"",""5"",""28375""
","
","732","","49","","","3000","1","","","images/purpleplanet.jpg","images/alien4","images/alien3","images/rocket1","images/alien3","images/t.png","2","real","true","1","common","1","2022-02-14 23:10:22.480"
"two-step-fixation","218","860987","0.0-76.0-2.27","716","807","12","Female","true","false","false","true","""event"",""trial"",""time""
""fullscreenenter"",""5"",""28375""
","
","
","""event"",""trial"",""time""
""fullscreenenter"",""5"",""28375""
","
","","images/earth.jpg","","","","","","","","","","","","","","fixation","","","","","",""
"d3-animate-choice","219","863465","0.0-76.0-0.28","716","807","12","Female","true","false","false","true","""event"",""trial"",""time""
""fullscreenenter"",""5"",""28375""
","
","
","""event"",""trial"",""time""
""fullscreenenter"",""5"",""28375""
","
","471","","49","","","3000","1","","","images/earth.jpg","images/rocket2","images/rocket1","null","images/rocket1","","1","real","null","1","","",""
"d3-animate-choice","220","866304","0.0-76.0-1.28","716","807","12","Female","true","false","false","true","""event"",""trial"",""time""
""fullscreenenter"",""5"",""28375""
","
","
","""event"",""trial"",""time""
""fullscreenenter"",""5"",""28375""
","
","832","","48","","","3000","1","","","images/redplanet1.jpg","images/alien2","images/alien1","images/rocket1","images/alien2","images/t.png","2","real","false","2","rare","1","2022-02-14 23:10:28.802"
"two-step-fixation","221","867307","0.0-76.0-2.28","716","807","12","Female","true","false","false","true","""event"",""trial"",""time""
""fullscreenenter"",""5"",""28375""
","
","
","""event"",""trial"",""time""
""fullscreenenter"",""5"",""28375""
","
","","images/earth.jpg","","","","","","","","","","","","","","fixation","","","","","",""
"d3-animate-choice","222","870121","0.0-76.0-0.29","716","807","12","Female","true","false","false","true","""event"",""trial"",""time""
""fullscreenenter"",""5"",""28375""
","
","
","""event"",""trial"",""time""
""fullscreenenter"",""5"",""28375""
","
","804","","48","","","3000","1","","","images/earth.jpg","images/rocket2","images/rocket1","null","images/rocket2","","1","real","null","2","","",""
"d3-animate-choice","223","872822","0.0-76.0-1.29","716","807","12","Female","true","false","false","true","""event"",""trial"",""time""
""fullscreenenter"",""5"",""28375""
","
","
","""event"",""trial"",""time""
""fullscreenenter"",""5"",""28375""
","
","696","","49","","","3000","1","","","images/redplanet1.jpg","images/alien2","images/alien1","images/rocket2","images/alien1","images/t.png","2","real","true","1","common","1","2022-02-14 23:10:35.321"
"two-step-fixation","224","873829","0.0-76.0-2.29","716","807","12","Female","true","false","false","true","""event"",""trial"",""time""
""fullscreenenter"",""5"",""28375""
","
","
","""event"",""trial"",""time""
""fullscreenenter"",""5"",""28375""
","
","","images/earth.jpg","","","","","","","","","","","","","","fixation","","","","","",""
"d3-animate-choice","225","876562","0.0-76.0-0.30","716","807","12","Female","true","false","false","true","""event"",""trial"",""time""
""fullscreenenter"",""5"",""28375""
","
","
","""event"",""trial"",""time""
""fullscreenenter"",""5"",""28375""
","
","727","","48","","","3000","1","","","images/earth.jpg","images/rocket2","images/rocket1","null","images/rocket2","","1","real","null","2","","",""
"d3-animate-choice","226","879034","0.0-76.0-1.30","716","807","12","Female","true","false","false","true","""event"",""trial"",""time""
""fullscreenenter"",""5"",""28375""
","
","
","""event"",""trial"",""time""
""fullscreenenter"",""5"",""28375""
","
","468","","49","","","3000","1","507","48","images/redplanet1.jpg","images/alien2","images/alien1","images/rocket2","images/alien1","images/nothing.png","2","real","true","1","common","0","2022-02-14 23:10:41.532"
"two-step-fixation","227","880038","0.0-76.0-2.30","716","807","12","Female","true","false","false","true","""event"",""trial"",""time""
""fullscreenenter"",""5"",""28375""
","
","
","""event"",""trial"",""time""
""fullscreenenter"",""5"",""28375""
","
","","images/earth.jpg","","","","","","","","","","","","","","fixation","","","","","",""
"d3-animate-choice","228","882709","0.0-76.0-0.31","716","807","12","Female","true","false","false","true","""event"",""trial"",""time""
""fullscreenenter"",""5"",""28375""
","
","
","""event"",""trial"",""time""
""fullscreenenter"",""5"",""28375""
","
","663","","48","","","3000","1","","","images/earth.jpg","images/rocket2","images/rocket1","null","images/rocket2","","1","real","null","2","","",""
"d3-animate-choice","229","885716","0.0-76.0-1.31","716","807","12","Female","true","false","false","true","""event"",""trial"",""time""
""fullscreenenter"",""5"",""28375""
","
","
","""event"",""trial"",""time""
""fullscreenenter"",""5"",""28375""
","
","1001","","48","","","3000","1","","","images/purpleplanet.jpg","images/alien4","images/alien3","images/rocket2","images/alien4","images/t.png","2","real","false","2","rare","1","2022-02-14 23:10:48.214"
"two-step-fixation","230","886720","0.0-76.0-2.31","716","807","12","Female","true","false","false","true","""event"",""trial"",""time""
""fullscreenenter"",""5"",""28375""
","
","
","""event"",""trial"",""time""
""fullscreenenter"",""5"",""28375""
","
","","images/earth.jpg","","","","","","","","","","","","","","fixation","","","","","",""
"d3-animate-choice","231","890598","0.0-76.0-0.32","716","807","12","Female","true","false","false","true","""event"",""trial"",""time""
""fullscreenenter"",""5"",""28375""
","
","
","""event"",""trial"",""time""
""fullscreenenter"",""5"",""28375""
","
","1872","","48","","","3000","1","","","images/earth.jpg","images/rocket2","images/rocket1","null","images/rocket2","","1","real","null","2","","",""
"d3-animate-choice","232","893146","0.0-76.0-1.32","716","807","12","Female","true","false","false","true","""event"",""trial"",""time""
""fullscreenenter"",""5"",""28375""
","
","
","""event"",""trial"",""time""
""fullscreenenter"",""5"",""28375""
","
","543","","48","","","3000","1","","","images/redplanet1.jpg","images/alien2","images/alien1","images/rocket2","images/alien2","images/nothing.png","2","real","true","2","common","0","2022-02-14 23:10:55.644"
"two-step-fixation","233","894149","0.0-76.0-2.32","716","807","12","Female","true","false","false","true","""event"",""trial"",""time""
""fullscreenenter"",""5"",""28375""
","
","
","""event"",""trial"",""time""
""fullscreenenter"",""5"",""28375""
","
","","images/earth.jpg","","","","","","","","","","","","","","fixation","","","","","",""
"d3-animate-choice","234","896760","0.0-76.0-0.33","716","807","12","Female","true","false","false","true","""event"",""trial"",""time""
""fullscreenenter"",""5"",""28375""
","
","
","""event"",""trial"",""time""
""fullscreenenter"",""5"",""28375""
","
","606","","49","","","3000","1","","","images/earth.jpg","images/rocket2","images/rocket1","null","images/rocket1","","1","real","null","1","","",""
"d3-animate-choice","235","899689","0.0-76.0-1.33","716","807","12","Female","true","false","false","true","""event"",""trial"",""time""
""fullscreenenter"",""5"",""28375""
","
","
","""event"",""trial"",""time""
""fullscreenenter"",""5"",""28375""
","
","925","","48","","","3000","1","","","images/purpleplanet.jpg","images/alien4","images/alien3","images/rocket1","images/alien4","images/t.png","2","real","true","2","common","1","2022-02-14 23:11:02.187"
"two-step-fixation","236","900693","0.0-76.0-2.33","716","807","12","Female","true","false","false","true","""event"",""trial"",""time""
""fullscreenenter"",""5"",""28375""
","
","
","""event"",""trial"",""time""
""fullscreenenter"",""5"",""28375""
","
","","images/earth.jpg","","","","","","","","","","","","","","fixation","","","","","",""
"d3-animate-choice","237","903126","0.0-76.0-0.34","716","807","12","Female","true","false","false","true","""event"",""trial"",""time""
""fullscreenenter"",""5"",""28375""
","
","
","""event"",""trial"",""time""
""fullscreenenter"",""5"",""28375""
","
","425","","49","","","3000","1","","","images/earth.jpg","images/rocket2","images/rocket1","null","images/rocket1","","1","real","null","1","","",""
"d3-animate-choice","238","905830","0.0-76.0-1.34","716","807","12","Female","true","false","false","true","""event"",""trial"",""time""
""fullscreenenter"",""5"",""28375""
","
","
","""event"",""trial"",""time""
""fullscreenenter"",""5"",""28375""
","
","696","","48","","","3000","1","","","images/redplanet1.jpg","images/alien2","images/alien1","images/rocket1","images/alien2","images/nothing.png","2","real","false","2","rare","0","2022-02-14 23:11:08.328"
"two-step-fixation","239","906835","0.0-76.0-2.34","716","807","12","Female","true","false","false","true","""event"",""trial"",""time""
""fullscreenenter"",""5"",""28375""
","
","
","""event"",""trial"",""time""
""fullscreenenter"",""5"",""28375""
","
","","images/earth.jpg","","","","","","","","","","","","","","fixation","","","","","",""
"d3-animate-choice","240","909303","0.0-76.0-0.35","716","807","12","Female","true","false","false","true","""event"",""trial"",""time""
""fullscreenenter"",""5"",""28375""
","
","
","""event"",""trial"",""time""
""fullscreenenter"",""5"",""28375""
","
","460","","49","","","3000","1","","","images/earth.jpg","images/rocket2","images/rocket1","null","images/rocket1","","1","real","null","1","","",""
"d3-animate-choice","241","911852","0.0-76.0-1.35","716","807","12","Female","true","false","false","true","""event"",""trial"",""time""
""fullscreenenter"",""5"",""28375""
","
","
","""event"",""trial"",""time""
""fullscreenenter"",""5"",""28375""
","
","540","","49","","","3000","1","","","images/redplanet1.jpg","images/alien2","images/alien1","images/rocket1","images/alien1","images/t.png","2","real","false","1","rare","1","2022-02-14 23:11:14.350"
"two-step-fixation","242","912854","0.0-76.0-2.35","716","807","12","Female","true","false","false","true","""event"",""trial"",""time""
""fullscreenenter"",""5"",""28375""
","
","
","""event"",""trial"",""time""
""fullscreenenter"",""5"",""28375""
","
","","images/earth.jpg","","","","","","","","","","","","","","fixation","","","","","",""
"d3-animate-choice","243","915362","0.0-76.0-0.36","716","807","12","Female","true","false","false","true","""event"",""trial"",""time""
""fullscreenenter"",""5"",""28375""
","
","
","""event"",""trial"",""time""
""fullscreenenter"",""5"",""28375""
","
","497","","49","","","3000","1","","","images/earth.jpg","images/rocket2","images/rocket1","null","images/rocket1","","1","real","null","1","","",""
"d3-animate-choice","244","917892","0.0-76.0-1.36","716","807","12","Female","true","false","false","true","""event"",""trial"",""time""
""fullscreenenter"",""5"",""28375""
","
","
","""event"",""trial"",""time""
""fullscreenenter"",""5"",""28375""
","
","521","","49","","","3000","1","","","images/redplanet1.jpg","images/alien2","images/alien1","images/rocket1","images/alien1","images/t.png","2","real","false","1","rare","1","2022-02-14 23:11:20.390"
"two-step-fixation","245","918896","0.0-76.0-2.36","716","807","12","Female","true","false","false","true","""event"",""trial"",""time""
""fullscreenenter"",""5"",""28375""
","
","
","""event"",""trial"",""time""
""fullscreenenter"",""5"",""28375""
","
","","images/earth.jpg","","","","","","","","","","","","","","fixation","","","","","",""
"d3-animate-choice","246","921267","0.0-76.0-0.37","716","807","12","Female","true","false","false","true","""event"",""trial"",""time""
""fullscreenenter"",""5"",""28375""
","
","
","""event"",""trial"",""time""
""fullscreenenter"",""5"",""28375""
","
","365","","49","","","3000","1","","","images/earth.jpg","images/rocket2","images/rocket1","null","images/rocket1","","1","real","null","1","","",""
"d3-animate-choice","247","923920","0.0-76.0-1.37","716","807","12","Female","true","false","false","true","""event"",""trial"",""time""
""fullscreenenter"",""5"",""28375""
","
","
","""event"",""trial"",""time""
""fullscreenenter"",""5"",""28375""
","
","646","","49","","","3000","1","","","images/redplanet1.jpg","images/alien2","images/alien1","images/rocket1","images/alien1","images/t.png","2","real","false","1","rare","1","2022-02-14 23:11:26.418"
"two-step-fixation","248","924921","0.0-76.0-2.37","716","807","12","Female","true","false","false","true","""event"",""trial"",""time""
""fullscreenenter"",""5"",""28375""
","
","
","""event"",""trial"",""time""
""fullscreenenter"",""5"",""28375""
","
","","images/earth.jpg","","","","","","","","","","","","","","fixation","","","","","",""
"d3-animate-choice","249","927647","0.0-76.0-0.38","716","807","12","Female","true","false","false","true","""event"",""trial"",""time""
""fullscreenenter"",""5"",""28375""
","
","
","""event"",""trial"",""time""
""fullscreenenter"",""5"",""28375""
","
","720","","49","","","3000","1","","","images/earth.jpg","images/rocket2","images/rocket1","null","images/rocket1","","1","real","null","1","","",""
"d3-animate-choice","250","930394","0.0-76.0-1.38","716","807","12","Female","true","false","false","true","""event"",""trial"",""time""
""fullscreenenter"",""5"",""28375""
","
","
","""event"",""trial"",""time""
""fullscreenenter"",""5"",""28375""
","
