"trial_type","trial_index","time_elapsed","internal_node_id","participant_id","subject_id","age","gender","rocket_sides","red_planet_first_rocket","red_display_order","purple_display_order","interactions","blur_events","focus_events","fullscreenenter_events","fullscreenexit_events","rt","stimulus","key_press","button_pressed","success","duration","valid_pressed","rts","keys","planet_text","right_text","left_text","center_text","chosen_text","reward_text","trial_stage","practice_trial","transition_type","choice","transition","reward","timestamp"
"pavlovia","0","6","0.0-0.0","859","897","10","Female","false","false","true","false","
","
","
","
","
","","","","","","","","","","","","","","","","","","","","","",""
"html-keyboard-response","1","15354","0.0-1.0","859","897","10","Female","false","false","true","false","
","
","
","
","
","15346.100000143051","Welcome! Press the space bar to begin.","32","","","","","","","","","","","","","","","","","","",""
"audio-keyboard-response","2","20749","0.0-2.0","859","897","10","Female","false","false","true","false","
","
","
","
","
","3669","audio/beep_loop.wav","32","","","","","","","","","","","","","","","","","","",""
"audio-button-response","3","26018","0.0-3.0","859","897","10","Female","false","false","true","false","
","
","
","
","
","NaN","audio/fish.mp3","","1","","","","","","","","","","","","","","","","","",""
"audio-button-response","4","29607","0.0-4.0","859","897","10","Female","false","false","true","false","""event"",""trial"",""time""
""fullscreenenter"",""5"",""35726""
","
","
","""event"",""trial"",""time""
""fullscreenenter"",""5"",""35726""
","
","NaN","audio/tiger.mp3","","4","","","","","","","","","","","","","","","","","",""
"fullscreen","5","36677","0.0-5.0","859","897","10","Female","false","false","true","false","""event"",""trial"",""time""
""fullscreenenter"",""5"",""35726""
","
","
","""event"",""trial"",""time""
""fullscreenenter"",""5"",""35726""
","
","","","","","true","","","","","","","","","","","","","","","","",""
"d3-instructions","6","51043","0.0-6.0","859","897","10","Female","false","false","true","false","""event"",""trial"",""time""
""fullscreenenter"",""5"",""35726""
","
","
","""event"",""trial"",""time""
""fullscreenenter"",""5"",""35726""
","
","","","","","","","","","","","","","","","","","","","","","",""
"d3-instructions","7","64163","0.0-7.0","859","897","10","Female","false","false","true","false","""event"",""trial"",""time""
""fullscreenenter"",""5"",""35726""
","
","
","""event"",""trial"",""time""
""fullscreenenter"",""5"",""35726""
","
","","","","","","","","","","","","","","","","","","","","","",""
"d3-instructions","8","74270","0.0-8.0","859","897","10","Female","false","false","true","false","""event"",""trial"",""time""
""fullscreenenter"",""5"",""35726""
","
","
","""event"",""trial"",""time""
""fullscreenenter"",""5"",""35726""
","
","","","","","","","","","","","","","","","","","","","","","",""
"d3-instructions","9","85669","0.0-9.0","859","897","10","Female","false","false","true","false","""event"",""trial"",""time""
""fullscreenenter"",""5"",""35726""
","
","
","""event"",""trial"",""time""
""fullscreenenter"",""5"",""35726""
","
","","","","","","","","","","","","","","","","","","","","","",""
"d3-instructions","10","110000","0.0-10.0","859","897","10","Female","false","false","true","false","""event"",""trial"",""time""
""fullscreenenter"",""5"",""35726""
","
","
","""event"",""trial"",""time""
""fullscreenenter"",""5"",""35726""
","
","","","","","","","","","","","","","","","","","","","","","",""
"d3-animate-choice","11","114426","0.0-11.0","859","897","10","Female","false","false","true","false","""event"",""trial"",""time""
""fullscreenenter"",""5"",""35726""
","
","
","""event"",""trial"",""time""
""fullscreenenter"",""5"",""35726""
","
","2406.699999809265","","49","","","3000","1","2654.5,2808.2999999523163,2970.7999999523163,3188.899999856949,3399.2999999523163","48,49,48,49,48","images/tutgreenplanet.jpg","images/tutalien1","images/tutalien2","null","images/tutalien2","","NA","practice","null","","","",""
"d3-animate-choice","12","117260","0.0-12.0","859","897","10","Female","false","false","true","false","""event"",""trial"",""time""
""fullscreenenter"",""5"",""35726""
","
","
","""event"",""trial"",""time""
""fullscreenenter"",""5"",""35726""
","
","818.4000000953674","","48","","","3000","1","","","images/tutgreenplanet.jpg","images/tutalien1","images/tutalien2","null","images/tutalien1","","NA","practice","null","","","",""
"d3-animate-choice","13","120168","0.0-13.0","859","897","10","Female","false","false","true","false","""event"",""trial"",""time""
""fullscreenenter"",""5"",""35726""
","
","
","""event"",""trial"",""time""
""fullscreenenter"",""5"",""35726""
","
","901.4000000953674","","49","","","3000","1","","","images/tutgreenplanet.jpg","images/tutalien1","images/tutalien2","null","images/tutalien2","","NA","practice","null","","","",""
"d3-animate-choice","14","122654","0.0-14.0","859","897","10","Female","false","false","true","false","""event"",""trial"",""time""
""fullscreenenter"",""5"",""35726""
","
","
","""event"",""trial"",""time""
""fullscreenenter"",""5"",""35726""
","
","467.40000009536743","","48","","","3000","1","","","images/tutgreenplanet.jpg","images/tutalien1","images/tutalien2","null","images/tutalien1","","NA","practice","null","","","",""
"d3-instructions","15","128687","0.0-15.0","859","897","10","Female","false","false","true","false","""event"",""trial"",""time""
""fullscreenenter"",""5"",""35726""
","
","
","""event"",""trial"",""time""
""fullscreenenter"",""5"",""35726""
","
","","","","","","","","","","","","","","","","","","","","","",""
"d3-instructions","16","135918","0.0-16.0","859","897","10","Female","false","false","true","false","""event"",""trial"",""time""
""fullscreenenter"",""5"",""35726""
","
","
","""event"",""trial"",""time""
""fullscreenenter"",""5"",""35726""
","
","","","","","","","","","","","","","","","","","","","","","",""
"d3-instructions","17","144822","0.0-17.0","859","897","10","Female","false","false","true","false","""event"",""trial"",""time""
""fullscreenenter"",""5"",""35726""
","
","
","""event"",""trial"",""time""
""fullscreenenter"",""5"",""35726""
","
","","","","","","","","","","","","","","","","","","","","","",""
"d3-instructions","18","158635","0.0-18.0","859","897","10","Female","false","false","true","false","""event"",""trial"",""time""
""fullscreenenter"",""5"",""35726""
","
","
","""event"",""trial"",""time""
""fullscreenenter"",""5"",""35726""
","
","","","","","","","","","","","","","","","","","","","","","",""
"d3-instructions","19","173974","0.0-19.0","859","897","10","Female","false","false","true","false","""event"",""trial"",""time""
""fullscreenenter"",""5"",""35726""
","
","
","""event"",""trial"",""time""
""fullscreenenter"",""5"",""35726""
","
","","","","","","","","","","","","","","","","","","","","","",""
"d3-animate-choice","20","177267","0.0-20.0","859","897","10","Female","false","false","true","false","""event"",""trial"",""time""
""fullscreenenter"",""5"",""35726""
","
","
","""event"",""trial"",""time""
""fullscreenenter"",""5"",""35726""
","
","1277.9000000953674","","49","","","3000","1","","","images/tutyellowplanet.jpg","null","images/tutalien3","null","images/tutalien3","images/t.png","NA","practice","null","","","",""
"d3-animate-choice","21","179678","0.0-21.0","859","897","10","Female","false","false","true","false","""event"",""trial"",""time""
""fullscreenenter"",""5"",""35726""
","
","
","""event"",""trial"",""time""
""fullscreenenter"",""5"",""35726""
","
","396.40000009536743","","49","","","3000","1","","","images/tutyellowplanet.jpg","null","images/tutalien3","null","images/tutalien3","images/nothing.png","NA","practice","null","","","",""
"d3-animate-choice","22","182162","0.0-22.0","859","897","10","Female","false","false","true","false","""event"",""trial"",""time""
""fullscreenenter"",""5"",""35726""
","
","
","""event"",""trial"",""time""
""fullscreenenter"",""5"",""35726""
","
","470.19999980926514","","49","","","3000","1","","","images/tutyellowplanet.jpg","null","images/tutalien3","null","images/tutalien3","images/t.png","NA","practice","null","","","",""
"d3-animate-choice","23","185372","0.0-23.0","859","897","10","Female","false","false","true","false","""event"",""trial"",""time""
""fullscreenenter"",""5"",""35726""
","
","
","""event"",""trial"",""time""
""fullscreenenter"",""5"",""35726""
","
","1200.3999998569489","","49","","","3000","1","","","images/tutyellowplanet.jpg","null","images/tutalien3","null","images/tutalien3","images/nothing.png","NA","practice","null","","","",""
"d3-animate-choice","24","188054","0.0-24.0","859","897","10","Female","false","false","true","false","""event"",""trial"",""time""
""fullscreenenter"",""5"",""35726""
","
","
","""event"",""trial"",""time""
""fullscreenenter"",""5"",""35726""
","
","668","","49","","","3000","1","","","images/tutyellowplanet.jpg","null","images/tutalien3","null","images/tutalien3","images/t.png","NA","practice","null","","","",""
"d3-animate-choice","25","190787","0.0-25.0","859","897","10","Female","false","false","true","false","""event"",""trial"",""time""
""fullscreenenter"",""5"",""35726""
","
","
","""event"",""trial"",""time""
""fullscreenenter"",""5"",""35726""
","
","715.7999999523163","","49","","","3000","1","","","images/tutyellowplanet.jpg","null","images/tutalien3","null","images/tutalien3","images/t.png","NA","practice","null","","","",""
"d3-animate-choice","26","193594","0.0-26.0","859","897","10","Female","false","false","true","false","""event"",""trial"",""time""
""fullscreenenter"",""5"",""35726""
","
","
","""event"",""trial"",""time""
""fullscreenenter"",""5"",""35726""
","
","797.4000000953674","","49","","","3000","1","","","images/tutyellowplanet.jpg","null","images/tutalien3","null","images/tutalien3","images/t.png","NA","practice","null","","","",""
"d3-animate-choice","27","196277","0.0-27.0","859","897","10","Female","false","false","true","false","""event"",""trial"",""time""
""fullscreenenter"",""5"",""35726""
","
","
","""event"",""trial"",""time""
""fullscreenenter"",""5"",""35726""
","
","666.5","","49","","","3000","1","2581.0999999046326","49","images/tutyellowplanet.jpg","null","images/tutalien3","null","images/tutalien3","images/t.png","NA","practice","null","","","",""
"d3-animate-choice","28","199282","0.0-28.0","859","897","10","Female","false","false","true","false","""event"",""trial"",""time""
""fullscreenenter"",""5"",""35726""
","
","
","""event"",""trial"",""time""
""fullscreenenter"",""5"",""35726""
","
","988.9000000953674","","49","","","3000","1","","","images/tutyellowplanet.jpg","null","images/tutalien3","null","images/tutalien3","images/t.png","NA","practice","null","","","",""
"d3-animate-choice","29","201789","0.0-29.0","859","897","10","Female","false","false","true","false","""event"",""trial"",""time""
""fullscreenenter"",""5"",""35726""
","
","
","""event"",""trial"",""time""
""fullscreenenter"",""5"",""35726""
","
","493.40000009536743","","49","","","3000","1","","","images/tutyellowplanet.jpg","null","images/tutalien3","null","images/tutalien3","images/t.png","NA","practice","null","","","",""
"d3-instructions","30","208391","0.0-30.0","859","897","10","Female","false","false","true","false","""event"",""trial"",""time""
""fullscreenenter"",""5"",""35726""
","
","
","""event"",""trial"",""time""
""fullscreenenter"",""5"",""35726""
","
","","","","","","","","","","","","","","","","","","","","","",""
"d3-instructions","31","218244","0.0-31.0","859","897","10","Female","false","false","true","false","""event"",""trial"",""time""
""fullscreenenter"",""5"",""35726""
","
","
","""event"",""trial"",""time""
""fullscreenenter"",""5"",""35726""
","
","","","","","","","","","","","","","","","","","","","","","",""
"d3-instructions","32","225248","0.0-32.0","859","897","10","Female","false","false","true","false","""event"",""trial"",""time""
""fullscreenenter"",""5"",""35726""
","
","
","""event"",""trial"",""time""
""fullscreenenter"",""5"",""35726""
","
","","","","","","","","","","","","","","","","","","","","","",""
"d3-instructions","33","236609","0.0-33.0","859","897","10","Female","false","false","true","false","""event"",""trial"",""time""
""fullscreenenter"",""5"",""35726""
","
","
","""event"",""trial"",""time""
""fullscreenenter"",""5"",""35726""
","
","","","","","","","","","","","","","","","","","","","","","",""
"d3-animate-choice","34","240218","0.0-34.0","859","897","10","Female","false","false","true","false","""event"",""trial"",""time""
""fullscreenenter"",""5"",""35726""
","
","
","""event"",""trial"",""time""
""fullscreenenter"",""5"",""35726""
","
","1588.7999999523163","","49","","","3000","1","","","images/tutgreenplanet.jpg","images/tutalien1","images/tutalien2","null","images/tutalien2","images/t.png","NA","practice","null","","","",""
"d3-animate-choice","35","243108","0.0-35.0","859","897","10","Female","false","false","true","false","""event"",""trial"",""time""
""fullscreenenter"",""5"",""35726""
","
","
","""event"",""trial"",""time""
""fullscreenenter"",""5"",""35726""
","
","868.7000000476837","","49","","","3000","1","","","images/tutgreenplanet.jpg","images/tutalien1","images/tutalien2","null","images/tutalien2","images/t.png","NA","practice","null","","","",""
"d3-animate-choice","36","245639","0.0-36.0","859","897","10","Female","false","false","true","false","""event"",""trial"",""time""
""fullscreenenter"",""5"",""35726""
","
","
","""event"",""trial"",""time""
""fullscreenenter"",""5"",""35726""
","
","524.2999999523163","","49","","","3000","1","","","images/tutgreenplanet.jpg","images/tutalien1","images/tutalien2","null","images/tutalien2","images/t.png","NA","practice","null","","","",""
"d3-animate-choice","37","248061","0.0-37.0","859","897","10","Female","false","false","true","false","""event"",""trial"",""time""
""fullscreenenter"",""5"",""35726""
","
","
","""event"",""trial"",""time""
""fullscreenenter"",""5"",""35726""
","
","405.09999990463257","","49","","","3000","1","","","images/tutgreenplanet.jpg","images/tutalien1","images/tutalien2","null","images/tutalien2","images/t.png","NA","practice","null","","","",""
"d3-animate-choice","38","250456","0.0-38.0","859","897","10","Female","false","false","true","false","""event"",""trial"",""time""
""fullscreenenter"",""5"",""35726""
","
","
","""event"",""trial"",""time""
""fullscreenenter"",""5"",""35726""
","
","383.89999985694885","","49","","","3000","1","2049.0999999046326","49","images/tutgreenplanet.jpg","images/tutalien1","images/tutalien2","null","images/tutalien2","images/t.png","NA","practice","null","","","",""
"d3-animate-choice","39","252795","0.0-39.0","859","897","10","Female","false","false","true","false","""event"",""trial"",""time""
""fullscreenenter"",""5"",""35726""
","
","
","""event"",""trial"",""time""
""fullscreenenter"",""5"",""35726""
","
","333.5","","49","","","3000","1","","","images/tutgreenplanet.jpg","images/tutalien1","images/tutalien2","null","images/tutalien2","images/t.png","NA","practice","null","","","",""
"d3-animate-choice","40","255202","0.0-40.0","859","897","10","Female","false","false","true","false","""event"",""trial"",""time""
""fullscreenenter"",""5"",""35726""
","
","
","""event"",""trial"",""time""
""fullscreenenter"",""5"",""35726""
","
","401.7000000476837","","49","","","3000","1","","","images/tutgreenplanet.jpg","images/tutalien1","images/tutalien2","null","images/tutalien2","images/t.png","NA","practice","null","","","",""
"d3-animate-choice","41","257677","0.0-41.0","859","897","10","Female","false","false","true","false","""event"",""trial"",""time""
""fullscreenenter"",""5"",""35726""
","
","
","""event"",""trial"",""time""
""fullscreenenter"",""5"",""35726""
","
","464.2000000476837","","49","","","3000","1","","","images/tutgreenplanet.jpg","images/tutalien1","images/tutalien2","null","images/tutalien2","images/nothing.png","NA","practice","null","","","",""
"d3-animate-choice","42","260107","0.0-42.0","859","897","10","Female","false","false","true","false","""event"",""trial"",""time""
""fullscreenenter"",""5"",""35726""
","
","
","""event"",""trial"",""time""
""fullscreenenter"",""5"",""35726""
","
","424.59999990463257","","49","","","3000","1","","","images/tutgreenplanet.jpg","images/tutalien1","images/tutalien2","null","images/tutalien2","images/t.png","NA","practice","null","","","",""
"d3-animate-choice","43","262869","0.0-43.0","859","897","10","Female","false","false","true","false","""event"",""trial"",""time""
""fullscreenenter"",""5"",""35726""
","
","
","""event"",""trial"",""time""
""fullscreenenter"",""5"",""35726""
","
","756","","49","","","3000","1","2696.7000000476837","49","images/tutgreenplanet.jpg","images/tutalien1","images/tutalien2","null","images/tutalien2","images/t.png","NA","practice","null","","","",""
"d3-instructions","44","276631","0.0-44.0","859","897","10","Female","false","false","true","false","""event"",""trial"",""time""
""fullscreenenter"",""5"",""35726""
","
","
","""event"",""trial"",""time""
""fullscreenenter"",""5"",""35726""
","
","","","","","","","","","","","","","","","","","","","","","",""
"d3-instructions","45","283578","0.0-45.0","859","897","10","Female","false","false","true","false","""event"",""trial"",""time""
""fullscreenenter"",""5"",""35726""
","
","
","""event"",""trial"",""time""
""fullscreenenter"",""5"",""35726""
","
","","","","","","","","","","","","","","","","","","","","","",""
"d3-instructions","46","288159","0.0-46.0","859","897","10","Female","false","false","true","false","""event"",""trial"",""time""
""fullscreenenter"",""5"",""35726""
","
","
","""event"",""trial"",""time""
""fullscreenenter"",""5"",""35726""
","
","","","","","","","","","","","","","","","","","","","","","",""
"d3-instructions","47","306571","0.0-47.0","859","897","10","Female","false","false","true","false","""event"",""trial"",""time""
""fullscreenenter"",""5"",""35726""
","
","
","""event"",""trial"",""time""
""fullscreenenter"",""5"",""35726""
","
","","","","","","","","","","","","","","","","","","","","","",""
"d3-instructions","48","313794","0.0-48.0","859","897","10","Female","false","false","true","false","""event"",""trial"",""time""
""fullscreenenter"",""5"",""35726""
","
","
","""event"",""trial"",""time""
""fullscreenenter"",""5"",""35726""
","
","","","","","","","","","","","","","","","","","","","","","",""
"d3-instructions","49","325228","0.0-49.0","859","897","10","Female","false","false","true","false","""event"",""trial"",""time""
""fullscreenenter"",""5"",""35726""
","
","
","""event"",""trial"",""time""
""fullscreenenter"",""5"",""35726""
","
","","","","","","","","","","","","","","","","","","","","","",""
"d3-instructions","50","335016","0.0-50.0","859","897","10","Female","false","false","true","false","""event"",""trial"",""time""
""fullscreenenter"",""5"",""35726""
","
","
","""event"",""trial"",""time""
""fullscreenenter"",""5"",""35726""
","
","","","","","","","","","","","","","","","","","","","","","",""
"d3-instructions","51","340730","0.0-51.0","859","897","10","Female","false","false","true","false","""event"",""trial"",""time""
""fullscreenenter"",""5"",""35726""
","
","
","""event"",""trial"",""time""
""fullscreenenter"",""5"",""35726""
","
","","","","","","","","","","","","","","","","","","","","","",""
"d3-instructions","52","344833","0.0-52.0","859","897","10","Female","false","false","true","false","""event"",""trial"",""time""
""fullscreenenter"",""5"",""35726""
","
","
","""event"",""trial"",""time""
""fullscreenenter"",""5"",""35726""
","
","","","","","","","","","","","","","","","","","","","","","",""
"d3-instructions","53","356306","0.0-53.0","859","897","10","Female","false","false","true","false","""event"",""trial"",""time""
""fullscreenenter"",""5"",""35726""
","
","
","""event"",""trial"",""time""
""fullscreenenter"",""5"",""35726""
","
","","","","","","","","","","","","","","","","","","","","","",""
"d3-instructions","54","369110","0.0-54.0","859","897","10","Female","false","false","true","false","""event"",""trial"",""time""
""fullscreenenter"",""5"",""35726""
","
","
","""event"",""trial"",""time""
""fullscreenenter"",""5"",""35726""
","
","","","","","","","","","","","","","","","","","","","","","",""
"d3-instructions","55","380527","0.0-55.0","859","897","10","Female","false","false","true","false","""event"",""trial"",""time""
""fullscreenenter"",""5"",""35726""
","
","
","""event"",""trial"",""time""
""fullscreenenter"",""5"",""35726""
","
","","","","","","","","","","","","","","","","","","","","","",""
"d3-instructions","56","388859","0.0-56.0","859","897","10","Female","false","false","true","false","""event"",""trial"",""time""
""fullscreenenter"",""5"",""35726""
","
","
","""event"",""trial"",""time""
""fullscreenenter"",""5"",""35726""
","
","","","","","","","","","","","","","","","","","","","","","",""
"d3-instructions","57","399698","0.0-57.0","859","897","10","Female","false","false","true","false","""event"",""trial"",""time""
""fullscreenenter"",""5"",""35726""
","
","
","""event"",""trial"",""time""
""fullscreenenter"",""5"",""35726""
","
","","","","","","","","","","","","","","","","","","","","","",""
"d3-instructions","58","410009","0.0-58.0","859","897","10","Female","false","false","true","false","""event"",""trial"",""time""
""fullscreenenter"",""5"",""35726""
","
","
","""event"",""trial"",""time""
""fullscreenenter"",""5"",""35726""
","
","","","","","","","","","","","","","","","","","","","","","",""
"d3-instructions","59","415044","0.0-59.0","859","897","10","Female","false","false","true","false","""event"",""trial"",""time""
""fullscreenenter"",""5"",""35726""
","
","
","""event"",""trial"",""time""
""fullscreenenter"",""5"",""35726""
","
","","","","","","","","","","","","","","","","","","","","","",""
"d3-instructions","60","422745","0.0-60.0","859","897","10","Female","false","false","true","false","""event"",""trial"",""time""
""fullscreenenter"",""5"",""35726""
","
","
","""event"",""trial"",""time""
""fullscreenenter"",""5"",""35726""
","
","","","","","","","","","","","","","","","","","","","","","",""
"d3-animate-choice","61","425728","0.0-61.0-0.0","859","897","10","Female","false","false","true","false","""event"",""trial"",""time""
""fullscreenenter"",""5"",""35726""
","
","
","""event"",""trial"",""time""
""fullscreenenter"",""5"",""35726""
","
","961.8000001907349","","49","","","3000","1","","","images/earth.jpg","images/tutrocket1","images/tutrocket2","null","images/tutrocket2","","1","practice","null","1","","",""
"d3-animate-choice","62","428748","0.0-61.0-1.0","859","897","10","Female","false","false","true","false","""event"",""trial"",""time""
""fullscreenenter"",""5"",""35726""
","
","
","""event"",""trial"",""time""
""fullscreenenter"",""5"",""35726""
","
","1003.8000001907349","","49","","","3000","1","","","images/tutgreenplanet.jpg","images/tutalien2","images/tutalien1","images/tutrocket2","images/tutalien1","images/t.png","2","practice","true","1","common","1","2022-03-07 23:05:51.719"
"two-step-fixation","63","429761","0.0-61.0-2.0","859","897","10","Female","false","false","true","false","""event"",""trial"",""time""
""fullscreenenter"",""5"",""35726""
","
","
","""event"",""trial"",""time""
""fullscreenenter"",""5"",""35726""
","
","","images/earth.jpg","","","","","","","","","","","","","","fixation","","","","","",""
"d3-animate-choice","64","432129","0.0-61.0-0.1","859","897","10","Female","false","false","true","false","""event"",""trial"",""time""
""fullscreenenter"",""5"",""35726""
","
","
","""event"",""trial"",""time""
""fullscreenenter"",""5"",""35726""
","
","361.2999999523163","","49","","","3000","1","","","images/earth.jpg","images/tutrocket1","images/tutrocket2","null","images/tutrocket2","","1","practice","null","1","","",""
"d3-animate-choice","65","434761","0.0-61.0-1.1","859","897","10","Female","false","false","true","false","""event"",""trial"",""time""
""fullscreenenter"",""5"",""35726""
","
","
","""event"",""trial"",""time""
""fullscreenenter"",""5"",""35726""
","
","623.6999998092651","","49","","","3000","1","","","images/tutgreenplanet.jpg","images/tutalien2","images/tutalien1","images/tutrocket2","images/tutalien1","images/nothing.png","2","practice","true","1","common","0","2022-03-07 23:05:57.732"
"two-step-fixation","66","435768","0.0-61.0-2.1","859","897","10","Female","false","false","true","false","""event"",""trial"",""time""
""fullscreenenter"",""5"",""35726""
","
","
","""event"",""trial"",""time""
""fullscreenenter"",""5"",""35726""
","
","","images/earth.jpg","","","","","","","","","","","","","","fixation","","","","","",""
"d3-animate-choice","67","438153","0.0-61.0-0.2","859","897","10","Female","false","false","true","false","""event"",""trial"",""time""
""fullscreenenter"",""5"",""35726""
","
","
","""event"",""trial"",""time""
""fullscreenenter"",""5"",""35726""
","
","379.09999990463257","","49","","","3000","1","","","images/earth.jpg","images/tutrocket1","images/tutrocket2","null","images/tutrocket2","","1","practice","null","1","","",""
"d3-animate-choice","68","440663","0.0-61.0-1.2","859","897","10","Female","false","false","true","false","""event"",""trial"",""time""
""fullscreenenter"",""5"",""35726""
","
","
","""event"",""trial"",""time""
""fullscreenenter"",""5"",""35726""
","
","487.10000014305115","","49","","","3000","1","","","images/tutgreenplanet.jpg","images/tutalien2","images/tutalien1","images/tutrocket2","images/tutalien1","images/t.png","2","practice","true","1","common","1","2022-03-07 23:06:03.633"
"two-step-fixation","69","441676","0.0-61.0-2.2","859","897","10","Female","false","false","true","false","""event"",""trial"",""time""
""fullscreenenter"",""5"",""35726""
","
","
","""event"",""trial"",""time""
""fullscreenenter"",""5"",""35726""
","
","","images/earth.jpg","","","","","","","","","","","","","","fixation","","","","","",""
"d3-animate-choice","70","444272","0.0-61.0-0.3","859","897","10","Female","false","false","true","false","""event"",""trial"",""time""
""fullscreenenter"",""5"",""35726""
","
","
","""event"",""trial"",""time""
""fullscreenenter"",""5"",""35726""
","
","581.1000001430511","","49","","","3000","1","","","images/earth.jpg","images/tutrocket1","images/tutrocket2","null","images/tutrocket2","","1","practice","null","1","","",""
"d3-animate-choice","71","446682","0.0-61.0-1.3","859","897","10","Female","false","false","true","false","""event"",""trial"",""time""
""fullscreenenter"",""5"",""35726""
","
","
","""event"",""trial"",""time""
""fullscreenenter"",""5"",""35726""
","
","395.90000009536743","","49","","","3000","1","","","images/tutyellowplanet.jpg","images/tutalien4","images/tutalien3","images/tutrocket2","images/tutalien3","images/t.png","2","practice","false","1","rare","1","2022-03-07 23:06:09.652"
"two-step-fixation","72","447689","0.0-61.0-2.3","859","897","10","Female","false","false","true","false","""event"",""trial"",""time""
""fullscreenenter"",""5"",""35726""
","
","
","""event"",""trial"",""time""
""fullscreenenter"",""5"",""35726""
","
","","images/earth.jpg","","","","","","","","","","","","","","fixation","","","","","",""
"d3-animate-choice","73","450254","0.0-61.0-0.4","859","897","10","Female","false","false","true","false","""event"",""trial"",""time""
""fullscreenenter"",""5"",""35726""
","
","
","""event"",""trial"",""time""
""fullscreenenter"",""5"",""35726""
","
","556.7000000476837","","49","","","3000","1","","","images/earth.jpg","images/tutrocket1","images/tutrocket2","null","images/tutrocket2","","1","practice","null","1","","",""
"d3-animate-choice","74","452901","0.0-61.0-1.4","859","897","10","Female","false","false","true","false","""event"",""trial"",""time""
""fullscreenenter"",""5"",""35726""
","
","
","""event"",""trial"",""time""
""fullscreenenter"",""5"",""35726""
","
","637.9000000953674","","49","","","3000","1","","","images/tutyellowplanet.jpg","images/tutalien4","images/tutalien3","images/tutrocket2","images/tutalien3","images/t.png","2","practice","false","1","rare","1","2022-03-07 23:06:15.871"
"two-step-fixation","75","453910","0.0-61.0-2.4","859","897","10","Female","false","false","true","false","""event"",""trial"",""time""
""fullscreenenter"",""5"",""35726""
","
","
","""event"",""trial"",""time""
""fullscreenenter"",""5"",""35726""
","
","","images/earth.jpg","","","","","","","","","","","","","","fixation","","","","","",""
"d3-animate-choice","76","456433","0.0-61.0-0.5","859","897","10","Female","false","false","true","false","""event"",""trial"",""time""
""fullscreenenter"",""5"",""35726""
","
","
","""event"",""trial"",""time""
""fullscreenenter"",""5"",""35726""
","
","515.7999999523163","","49","","","3000","1","","","images/earth.jpg","images/tutrocket1","images/tutrocket2","null","images/tutrocket2","","1","practice","null","1","","",""
"d3-animate-choice","77","459056","0.0-61.0-1.5","859","897","10","Female","false","false","true","false","""event"",""trial"",""time""
""fullscreenenter"",""5"",""35726""
","
","
","""event"",""trial"",""time""
""fullscreenenter"",""5"",""35726""
","
","615","","49","","","3000","1","","","images/tutgreenplanet.jpg","images/tutalien2","images/tutalien1","images/tutrocket2","images/tutalien1","images/nothing.png","2","practice","true","1","common","0","2022-03-07 23:06:22.026"
"two-step-fixation","78","460069","0.0-61.0-2.5","859","897","10","Female","false","false","true","false","""event"",""trial"",""time""
""fullscreenenter"",""5"",""35726""
","
","
","""event"",""trial"",""time""
""fullscreenenter"",""5"",""35726""
","
","","images/earth.jpg","","","","","","","","","","","","","","fixation","","","","","",""
"d3-animate-choice","79","462582","0.0-61.0-0.6","859","897","10","Female","false","false","true","false","""event"",""trial"",""time""
""fullscreenenter"",""5"",""35726""
","
","
","""event"",""trial"",""time""
""fullscreenenter"",""5"",""35726""
","
","503.39999985694885","","49","","","3000","1","","","images/earth.jpg","images/tutrocket1","images/tutrocket2","null","images/tutrocket2","","1","practice","null","1","","",""
"d3-animate-choice","80","465047","0.0-61.0-1.6","859","897","10","Female","false","false","true","false","""event"",""trial"",""time""
""fullscreenenter"",""5"",""35726""
","
","
","""event"",""trial"",""time""
""fullscreenenter"",""5"",""35726""
","
","458.2000000476837","","49","","","3000","1","","","images/tutgreenplanet.jpg","images/tutalien2","images/tutalien1","images/tutrocket2","images/tutalien1","images/nothing.png","2","practice","true","1","common","0","2022-03-07 23:06:28.017"
"two-step-fixation","81","466055","0.0-61.0-2.6","859","897","10","Female","false","false","true","false","""event"",""trial"",""time""
""fullscreenenter"",""5"",""35726""
","
","
","""event"",""trial"",""time""
""fullscreenenter"",""5"",""35726""
","
","","images/earth.jpg","","","","","","","","","","","","","","fixation","","","","","",""
"d3-animate-choice","82","468603","0.0-61.0-0.7","859","897","10","Female","false","false","true","false","""event"",""trial"",""time""
""fullscreenenter"",""5"",""35726""
","
","
","""event"",""trial"",""time""
""fullscreenenter"",""5"",""35726""
","
","529.2000000476837","","49","","","3000","1","","","images/earth.jpg","images/tutrocket1","images/tutrocket2","null","images/tutrocket2","","1","practice","null","1","","",""
"d3-animate-choice","83","471284","0.0-61.0-1.7","859","897","10","Female","false","false","true","false","""event"",""trial"",""time""
""fullscreenenter"",""5"",""35726""
","
","
","""event"",""trial"",""time""
""fullscreenenter"",""5"",""35726""
","
","672.9000000953674","","49","","","3000","1","","","images/tutyellowplanet.jpg","images/tutalien4","images/tutalien3","images/tutrocket2","images/tutalien3","images/nothing.png","2","practice","false","1","rare","0","2022-03-07 23:06:34.254"
"two-step-fixation","84","472291","0.0-61.0-2.7","859","897","10","Female","false","false","true","false","""event"",""trial"",""time""
""fullscreenenter"",""5"",""35726""
","
","
","""event"",""trial"",""time""
""fullscreenenter"",""5"",""35726""
","
","","images/earth.jpg","","","","","","","","","","","","","","fixation","","","","","",""
"d3-animate-choice","85","474898","0.0-61.0-0.8","859","897","10","Female","false","false","true","false","""event"",""trial"",""time""
""fullscreenenter"",""5"",""35726""
","
","
","""event"",""trial"",""time""
""fullscreenenter"",""5"",""35726""
","
","598.7999999523163","","49","","","3000","1","","","images/earth.jpg","images/tutrocket1","images/tutrocket2","null","images/tutrocket2","","1","practice","null","1","","",""
"d3-animate-choice","86","478034","0.0-61.0-1.8","859","897","10","Female","false","false","true","false","""event"",""trial"",""time""
""fullscreenenter"",""5"",""35726""
","
","
","""event"",""trial"",""time""
""fullscreenenter"",""5"",""35726""
","
","1128.5","","48","","","3000","1","","","images/tutyellowplanet.jpg","images/tutalien4","images/tutalien3","images/tutrocket2","images/tutalien4","images/t.png","2","practice","false","2","rare","1","2022-03-07 23:06:41.004"
"two-step-fixation","87","479045","0.0-61.0-2.8","859","897","10","Female","false","false","true","false","""event"",""trial"",""time""
""fullscreenenter"",""5"",""35726""
","
","
","""event"",""trial"",""time""
""fullscreenenter"",""5"",""35726""
","
","","images/earth.jpg","","","","","","","","","","","","","","fixation","","","","","",""
"d3-animate-choice","88","481457","0.0-61.0-0.9","859","897","10","Female","false","false","true","false","""event"",""trial"",""time""
""fullscreenenter"",""5"",""35726""
","
","
","""event"",""trial"",""time""
""fullscreenenter"",""5"",""35726""
","
","404.7000000476837","","48","","","3000","1","","","images/earth.jpg","images/tutrocket1","images/tutrocket2","null","images/tutrocket1","","1","practice","null","2","","",""
"d3-animate-choice","89","484373","0.0-61.0-1.9","859","897","10","Female","false","false","true","false","""event"",""trial"",""time""
""fullscreenenter"",""5"",""35726""
","
","
","""event"",""trial"",""time""
""fullscreenenter"",""5"",""35726""
","
","909","","48","","","3000","1","","","images/tutgreenplanet.jpg","images/tutalien2","images/tutalien1","images/tutrocket1","images/tutalien2","images/nothing.png","2","practice","false","2","rare","0","2022-03-07 23:06:47.343"
"two-step-fixation","90","485381","0.0-61.0-2.9","859","897","10","Female","false","false","true","false","""event"",""trial"",""time""
""fullscreenenter"",""5"",""35726""
","
","
","""event"",""trial"",""time""
""fullscreenenter"",""5"",""35726""
","
","","images/earth.jpg","","","","","","","","","","","","","","fixation","","","","","",""
"d3-animate-choice","91","488168","0.0-61.0-0.10","859","897","10","Female","false","false","true","false","""event"",""trial"",""time""
""fullscreenenter"",""5"",""35726""
","
","
","""event"",""trial"",""time""
""fullscreenenter"",""5"",""35726""
","
","779.5999999046326","","49","","","3000","1","","","images/earth.jpg","images/tutrocket1","images/tutrocket2","null","images/tutrocket2","","1","practice","null","1","","",""
"d3-animate-choice","92","490853","0.0-61.0-1.10","859","897","10","Female","false","false","true","false","""event"",""trial"",""time""
""fullscreenenter"",""5"",""35726""
","
","
","""event"",""trial"",""time""
""fullscreenenter"",""5"",""35726""
","
","676.8999998569489","","48","","","3000","1","","","images/tutyellowplanet.jpg","images/tutalien4","images/tutalien3","images/tutrocket2","images/tutalien4","images/nothing.png","2","practice","false","2","rare","0","2022-03-07 23:06:53.823"
"two-step-fixation","93","491862","0.0-61.0-2.10","859","897","10","Female","false","false","true","false","""event"",""trial"",""time""
""fullscreenenter"",""5"",""35726""
","
","
","""event"",""trial"",""time""
""fullscreenenter"",""5"",""35726""
","
","","images/earth.jpg","","","","","","","","","","","","","","fixation","","","","","",""
"d3-animate-choice","94","494328","0.0-61.0-0.11","859","897","10","Female","false","false","true","false","""event"",""trial"",""time""
""fullscreenenter"",""5"",""35726""
","
","
","""event"",""trial"",""time""
""fullscreenenter"",""5"",""35726""
","
","458.2999999523163","","49","","","3000","1","","","images/earth.jpg","images/tutrocket1","images/tutrocket2","null","images/tutrocket2","","1","practice","null","1","","",""
"d3-animate-choice","95","496994","0.0-61.0-1.11","859","897","10","Female","false","false","true","false","""event"",""trial"",""time""
""fullscreenenter"",""5"",""35726""
","
","
","""event"",""trial"",""time""
""fullscreenenter"",""5"",""35726""
","
","659.2999999523163","","49","","","3000","1","","","images/tutgreenplanet.jpg","images/tutalien2","images/tutalien1","images/tutrocket2","images/tutalien1","images/nothing.png","2","practice","true","1","common","0","2022-03-07 23:06:59.964"
"two-step-fixation","96","498001","0.0-61.0-2.11","859","897","10","Female","false","false","true","false","""event"",""trial"",""time""
""fullscreenenter"",""5"",""35726""
","
","
","""event"",""trial"",""time""
""fullscreenenter"",""5"",""35726""
","
","","images/earth.jpg","","","","","","","","","","","","","","fixation","","","","","",""
"d3-animate-choice","97","500570","0.0-61.0-0.12","859","897","10","Female","false","false","true","false","""event"",""trial"",""time""
""fullscreenenter"",""5"",""35726""
","
","
","""event"",""trial"",""time""
""fullscreenenter"",""5"",""35726""
","
","561.5999999046326","","49","","","3000","1","","","images/earth.jpg","images/tutrocket1","images/tutrocket2","null","images/tutrocket2","","1","practice","null","1","","",""
"d3-animate-choice","98","503556","0.0-61.0-1.12","859","897","10","Female","false","false","true","false","""event"",""trial"",""time""
""fullscreenenter"",""5"",""35726""
","
","
","""event"",""trial"",""time""
""fullscreenenter"",""5"",""35726""
","
","979.8999998569489","","49","","","3000","1","","","images/tutgreenplanet.jpg","images/tutalien2","images/tutalien1","images/tutrocket2","images/tutalien1","images/nothing.png","2","practice","true","1","common","0","2022-03-07 23:07:06.527"
"two-step-fixation","99","504564","0.0-61.0-2.12","859","897","10","Female","false","false","true","false","""event"",""trial"",""time""
""fullscreenenter"",""5"",""35726""
","
","
","""event"",""trial"",""time""
""fullscreenenter"",""5"",""35726""
","
","","images/earth.jpg","","","","","","","","","","","","","","fixation","","","","","",""
"d3-animate-choice","100","507248","0.0-61.0-0.13","859","897","10","Female","false","false","true","false","""event"",""trial"",""time""
""fullscreenenter"",""5"",""35726""
","
","
","""event"",""trial"",""time""
""fullscreenenter"",""5"",""35726""
","
","674.4000000953674","","49","","","3000","1","","","images/earth.jpg","images/tutrocket1","images/tutrocket2","null","images/tutrocket2","","1","practice","null","1","","",""
"d3-animate-choice","101","509908","0.0-61.0-1.13","859","897","10","Female","false","false","true","false","""event"",""trial"",""time""
""fullscreenenter"",""5"",""35726""
","
","
","""event"",""trial"",""time""
""fullscreenenter"",""5"",""35726""
","
","652","","49","","","3000","1","","","images/tutgreenplanet.jpg","images/tutalien2","images/tutalien1","images/tutrocket2","images/tutalien1","images/nothing.png","2","practice","true","1","common","0","2022-03-07 23:07:12.878"
"two-step-fixation","102","510915","0.0-61.0-2.13","859","897","10","Female","false","false","true","false","""event"",""trial"",""time""
""fullscreenenter"",""5"",""35726""
","
","
","""event"",""trial"",""time""
""fullscreenenter"",""5"",""35726""
","
","","images/earth.jpg","","","","","","","","","","","","","","fixation","","","","","",""
"d3-animate-choice","103","513097","0.0-61.0-0.14","859","897","10","Female","false","false","true","false","""event"",""trial"",""time""
""fullscreenenter"",""5"",""35726""
","
","
","""event"",""trial"",""time""
""fullscreenenter"",""5"",""35726""
","
","173.29999995231628","","49","","","3000","1","1061.5999999046326","49","images/earth.jpg","images/tutrocket1","images/tutrocket2","null","images/tutrocket2","","1","practice","null","1","","",""
"d3-animate-choice","104","515590","0.0-61.0-1.14","859","897","10","Female","false","false","true","false","""event"",""trial"",""time""
""fullscreenenter"",""5"",""35726""
","
","
","""event"",""trial"",""time""
""fullscreenenter"",""5"",""35726""
","
","483.7000000476837","","49","","","3000","1","","","images/tutgreenplanet.jpg","images/tutalien2","images/tutalien1","images/tutrocket2","images/tutalien1","images/t.png","2","practice","true","1","common","1","2022-03-07 23:07:18.560"
"two-step-fixation","105","516597","0.0-61.0-2.14","859","897","10","Female","false","false","true","false","""event"",""trial"",""time""
""fullscreenenter"",""5"",""35726""
","
","
","""event"",""trial"",""time""
""fullscreenenter"",""5"",""35726""
","
","","images/earth.jpg","","","","","","","","","","","","","","fixation","","","","","",""
"d3-animate-choice","106","518743","0.0-61.0-0.15","859","897","10","Female","false","false","true","false","""event"",""trial"",""time""
""fullscreenenter"",""5"",""35726""
","
","
","""event"",""trial"",""time""
""fullscreenenter"",""5"",""35726""
","
","137.29999995231628","","49","","","3000","1","","","images/earth.jpg","images/tutrocket1","images/tutrocket2","null","images/tutrocket2","","1","practice","null","1","","",""
"d3-animate-choice","107","521283","0.0-61.0-1.15","859","897","10","Female","false","false","true","false","""event"",""trial"",""time""
""fullscreenenter"",""5"",""35726""
","
","
","""event"",""trial"",""time""
""fullscreenenter"",""5"",""35726""
","
","534","","49","","","3000","1","","","images/tutgreenplanet.jpg","images/tutalien2","images/tutalien1","images/tutrocket2","images/tutalien1","images/t.png","2","practice","true","1","common","1","2022-03-07 23:07:24.253"
"two-step-fixation","108","522291","0.0-61.0-2.15","859","897","10","Female","false","false","true","false","""event"",""trial"",""time""
""fullscreenenter"",""5"",""35726""
","
","
","""event"",""trial"",""time""
""fullscreenenter"",""5"",""35726""
","
","","images/earth.jpg","","","","","","","","","","","","","","fixation","","","","","",""
"d3-animate-choice","109","524726","0.0-61.0-0.16","859","897","10","Female","false","false","true","false","""event"",""trial"",""time""
""fullscreenenter"",""5"",""35726""
","
","
","""event"",""trial"",""time""
""fullscreenenter"",""5"",""35726""
","
","428","","49","","","3000","1","","","images/earth.jpg","images/tutrocket1","images/tutrocket2","null","images/tutrocket2","","1","practice","null","1","","",""
"d3-animate-choice","110","527481","0.0-61.0-1.16","859","897","10","Female","false","false","true","false","""event"",""trial"",""time""
""fullscreenenter"",""5"",""35726""
","
","
","""event"",""trial"",""time""
""fullscreenenter"",""5"",""35726""
","
","748.4000000953674","","49","","","3000","1","","","images/tutgreenplanet.jpg","images/tutalien2","images/tutalien1","images/tutrocket2","images/tutalien1","images/t.png","2","practice","true","1","common","1","2022-03-07 23:07:30.451"
"two-step-fixation","111","528488","0.0-61.0-2.16","859","897","10","Female","false","false","true","false","""event"",""trial"",""time""
""fullscreenenter"",""5"",""35726""
","
","
","""event"",""trial"",""time""
""fullscreenenter"",""5"",""35726""
","
","","images/earth.jpg","","","","","","","","","","","","","","fixation","","","","","",""
"d3-animate-choice","112","531257","0.0-61.0-0.17","859","897","10","Female","false","false","true","false","""event"",""trial"",""time""
""fullscreenenter"",""5"",""35726""
","
","
","""event"",""trial"",""time""
""fullscreenenter"",""5"",""35726""
","
","761.8000001907349","","49","","","3000","1","","","images/earth.jpg","images/tutrocket1","images/tutrocket2","null","images/tutrocket2","","1","practice","null","1","","",""
"d3-animate-choice","113","533825","0.0-61.0-1.17","859","897","10","Female","false","false","true","false","""event"",""trial"",""time""
""fullscreenenter"",""5"",""35726""
","
","
","""event"",""trial"",""time""
""fullscreenenter"",""5"",""35726""
","
","559.6000001430511","","49","","","3000","1","1690.5","49","images/tutgreenplanet.jpg","images/tutalien2","images/tutalien1","images/tutrocket2","images/tutalien1","images/nothing.png","2","practice","true","1","common","0","2022-03-07 23:07:36.795"
"two-step-fixation","114","534834","0.0-61.0-2.17","859","897","10","Female","false","false","true","false","""event"",""trial"",""time""
""fullscreenenter"",""5"",""35726""
","
","
","""event"",""trial"",""time""
""fullscreenenter"",""5"",""35726""
","
","","images/earth.jpg","","","","","","","","","","","","","","fixation","","","","","",""
"d3-animate-choice","115","537297","0.0-61.0-0.18","859","897","10","Female","false","false","true","false","""event"",""trial"",""time""
""fullscreenenter"",""5"",""35726""
","
","
","""event"",""trial"",""time""
""fullscreenenter"",""5"",""35726""
","
","455.09999990463257","","49","","","3000","1","","","images/earth.jpg","images/tutrocket1","images/tutrocket2","null","images/tutrocket2","","1","practice","null","1","","",""
"d3-animate-choice","116","540074","0.0-61.0-1.18","859","897","10","Female","false","false","true","false","""event"",""trial"",""time""
""fullscreenenter"",""5"",""35726""
","
","
","""event"",""trial"",""time""
""fullscreenenter"",""5"",""35726""
","
","767.2000000476837","","49","","","3000","1","","","images/tutgreenplanet.jpg","images/tutalien2","images/tutalien1","images/tutrocket2","images/tutalien1","images/t.png","2","practice","true","1","common","1","2022-03-07 23:07:43.044"
"two-step-fixation","117","541080","0.0-61.0-2.18","859","897","10","Female","false","false","true","false","""event"",""trial"",""time""
""fullscreenenter"",""5"",""35726""
","
","
","""event"",""trial"",""time""
""fullscreenenter"",""5"",""35726""
","
","","images/earth.jpg","","","","","","","","","","","","","","fixation","","","","","",""
"d3-animate-choice","118","543554","0.0-61.0-0.19","859","897","10","Female","false","false","true","false","""event"",""trial"",""time""
""fullscreenenter"",""5"",""35726""
","
","
","""event"",""trial"",""time""
""fullscreenenter"",""5"",""35726""
","
","465.59999990463257","","49","","","3000","1","","","images/earth.jpg","images/tutrocket1","images/tutrocket2","null","images/tutrocket2","","1","practice","null","1","","",""
"d3-animate-choice","119","546119","0.0-61.0-1.19","859","897","10","Female","false","false","true","false","""event"",""trial"",""time""
""fullscreenenter"",""5"",""35726""
","
","
","""event"",""trial"",""time""
""fullscreenenter"",""5"",""35726""
","
","556","","49","","","3000","1","","","images/tutyellowplanet.jpg","images/tutalien4","images/tutalien3","images/tutrocket2","images/tutalien3","images/t.png","2","practice","false","1","rare","1","2022-03-07 23:07:49.089"
"two-step-fixation","120","547125","0.0-61.0-2.19","859","897","10","Female","false","false","true","false","""event"",""trial"",""time""
""fullscreenenter"",""5"",""35726""
","
","
","""event"",""trial"",""time""
""fullscreenenter"",""5"",""35726""
","
","","images/earth.jpg","","","","","","","","","","","","","","fixation","","","","","",""
"d3-instructions","121","556881","0.0-62.0","859","897","10","Female","false","false","true","false","""event"",""trial"",""time""
""fullscreenenter"",""5"",""35726""
","
","
","""event"",""trial"",""time""
""fullscreenenter"",""5"",""35726""
","
","","","","","","","","","","","","","","","","","","","","","",""
"audio-keyboard-response","122","561964","0.0-63.0","859","897","10","Female","false","false","true","false","""event"",""trial"",""time""
""fullscreenenter"",""5"",""35726""
","
","
","""event"",""trial"",""time""
""fullscreenenter"",""5"",""35726""
","
","5069","audio/instructions/treasure_feedback.wav","32","","","","","","","","","","","","","","","","","","",""
"d3-instructions","123","582132","0.0-64.0","859","897","10","Female","false","false","true","false","""event"",""trial"",""time""
""fullscreenenter"",""5"",""35726""
","
","
","""event"",""trial"",""time""
""fullscreenenter"",""5"",""35726""
","
","","","","","","","","","","","","","","","","","","","","","",""
"d3-instructions","124","597404","0.0-65.0","859","897","10","Female","false","false","true","false","""event"",""trial"",""time""
""fullscreenenter"",""5"",""35726""
","
","
","""event"",""trial"",""time""
""fullscreenenter"",""5"",""35726""
","
","","","","","","","","","","","","","","","","","","","","","",""
"d3-instructions","125","624427","0.0-66.0","859","897","10","Female","false","false","true","false","""event"",""trial"",""time""
""fullscreenenter"",""5"",""35726""
","
","
","""event"",""trial"",""time""
""fullscreenenter"",""5"",""35726""
","
","","","","","","","","","","","","","","","","","","","","","",""
"d3-instructions","126","642136","0.0-67.0","859","897","10","Female","false","false","true","false","""event"",""trial"",""time""
""fullscreenenter"",""5"",""35726""
","
","
","""event"",""trial"",""time""
""fullscreenenter"",""5"",""35726""
","
","","","","","","","","","","","","","","","","","","","","","",""
"d3-instructions","127","651063","0.0-68.0","859","897","10","Female","false","false","true","false","""event"",""trial"",""time""
""fullscreenenter"",""5"",""35726""
","
","
","""event"",""trial"",""time""
""fullscreenenter"",""5"",""35726""
","
","","","","","","","","","","","","","","","","","","","","","",""
"instructions-quiz","128","655480","0.0-69.0","859","897","10","Female","false","false","true","false","""event"",""trial"",""time""
""fullscreenenter"",""5"",""35726""
","
","
","""event"",""trial"",""time""
""fullscreenenter"",""5"",""35726""
","
","4410.900000095367","audio/quiz/Q1_Prompt.wav","","1","","","","","","","","","","","","","","","","","",""
"audio-keyboard-response","129","658766","0.0-70.0","859","897","10","Female","false","false","true","false","""event"",""trial"",""time""
""fullscreenenter"",""5"",""35726""
","
","
","""event"",""trial"",""time""
""fullscreenenter"",""5"",""35726""
","
","3280","audio/quiz/Q1_Correct.wav","32","","","","","","","","","","","","","","","","","","",""
"instructions-quiz","130","666194","0.0-71.0","859","897","10","Female","false","false","true","false","""event"",""trial"",""time""
""fullscreenenter"",""5"",""35726""
","
","
","""event"",""trial"",""time""
""fullscreenenter"",""5"",""35726""
","
","7423.5","audio/quiz/Q2_Prompt.wav","","0","","","","","","","","","","","","","","","","","",""
"audio-keyboard-response","131","667374","0.0-72.0","859","897","10","Female","false","false","true","false","""event"",""trial"",""time""
""fullscreenenter"",""5"",""35726""
","
","
","""event"",""trial"",""time""
""fullscreenenter"",""5"",""35726""
","
","1181","audio/quiz/Q2_Correct.wav","32","","","","","","","","","","","","","","","","","","",""
"instructions-quiz","132","671221","0.0-73.0","859","897","10","Female","false","false","true","false","""event"",""trial"",""time""
""fullscreenenter"",""5"",""35726""
","
","
","""event"",""trial"",""time""
""fullscreenenter"",""5"",""35726""
","
","3841.4000000953674","audio/quiz/Q3_Prompt.wav","","1","","","","","","","","","","","","","","","","","",""
"audio-keyboard-response","133","672649","0.0-74.0","859","897","10","Female","false","false","true","false","""event"",""trial"",""time""
""fullscreenenter"",""5"",""35726""
","
","
","""event"",""trial"",""time""
""fullscreenenter"",""5"",""35726""
","
","1421","audio/quiz/Q3_Correct.wav","32","","","","","","","","","","","","","","","","","","",""
"d3-instructions","134","689939","0.0-75.0","859","897","10","Female","false","false","true","false","""event"",""trial"",""time""
""fullscreenenter"",""5"",""35726""
","
","
","""event"",""trial"",""time""
""fullscreenenter"",""5"",""35726""
","
","","","","","","","","","","","","","","","","","","","","","",""
"d3-animate-choice","135","692353","0.0-76.0-0.0","859","897","10","Female","false","false","true","false","""event"",""trial"",""time""
""fullscreenenter"",""5"",""35726""
","
","
","""event"",""trial"",""time""
""fullscreenenter"",""5"",""35726""
","
","405","","49","","","3000","1","","","images/earth.jpg","images/rocket1","images/rocket2","null","images/rocket2","","1","real","null","1","","",""
"d3-animate-choice","136","695158","0.0-76.0-1.0","859","897","10","Female","false","false","true","false","""event"",""trial"",""time""
""fullscreenenter"",""5"",""35726""
","
","
","""event"",""trial"",""time""
""fullscreenenter"",""5"",""35726""
","
","797.2999999523163","","49","","","3000","1","","","images/purpleplanet.jpg","images/alien4","images/alien3","images/rocket2","images/alien3","images/nothing.png","2","real","false","1","rare","0","2022-03-07 23:10:18.128"
"two-step-fixation","137","696166","0.0-76.0-2.0","859","897","10","Female","false","false","true","false","""event"",""trial"",""time""
""fullscreenenter"",""5"",""35726""
","
","
","""event"",""trial"",""time""
""fullscreenenter"",""5"",""35726""
","
","","images/earth.jpg","","","","","","","","","","","","","","fixation","","","","","",""
"d3-animate-choice","138","698573","0.0-76.0-0.1","859","897","10","Female","false","false","true","false","""event"",""trial"",""time""
""fullscreenenter"",""5"",""35726""
","
","
","""event"",""trial"",""time""
""fullscreenenter"",""5"",""35726""
","
","395.60000014305115","","49","","","3000","1","","","images/earth.jpg","images/rocket1","images/rocket2","null","images/rocket2","","1","real","null","1","","",""
"d3-animate-choice","139","701249","0.0-76.0-1.1","859","897","10","Female","false","false","true","false","""event"",""trial"",""time""
""fullscreenenter"",""5"",""35726""
","
","
","""event"",""trial"",""time""
""fullscreenenter"",""5"",""35726""
","
","671.3999998569489","","48","","","3000","1","","","images/redplanet1.jpg","images/alien2","images/alien1","images/rocket2","images/alien2","images/nothing.png","2","real","true","2","common","0","2022-03-07 23:10:24.220"
"two-step-fixation","140","702257","0.0-76.0-2.1","859","897","10","Female","false","false","true","false","""event"",""trial"",""time""
""fullscreenenter"",""5"",""35726""
","
","
","""event"",""trial"",""time""
""fullscreenenter"",""5"",""35726""
","
","","images/earth.jpg","","","","","","","","","","","","","","fixation","","","","","",""
"d3-animate-choice","141","704779","0.0-76.0-0.2","859","897","10","Female","false","false","true","false","""event"",""trial"",""time""
""fullscreenenter"",""5"",""35726""
","
","
","""event"",""trial"",""time""
""fullscreenenter"",""5"",""35726""
","
","512.3999998569489","","49","","","3000","1","","","images/earth.jpg","images/rocket1","images/rocket2","null","images/rocket2","","1","real","null","1","","",""
"d3-animate-choice","142","707775","0.0-76.0-1.2","859","897","10","Female","false","false","true","false","""event"",""trial"",""time""
""fullscreenenter"",""5"",""35726""
","
","
","""event"",""trial"",""time""
""fullscreenenter"",""5"",""35726""
","
","988.0999999046326","","49","","","3000","1","","","images/redplanet1.jpg","images/alien2","images/alien1","images/rocket2","images/alien1","images/nothing.png","2","real","true","1","common","0","2022-03-07 23:10:30.746"
"two-step-fixation","143","708783","0.0-76.0-2.2","859","897","10","Female","false","false","true","false","""event"",""trial"",""time""
""fullscreenenter"",""5"",""35726""
","
","
","""event"",""trial"",""time""
""fullscreenenter"",""5"",""35726""
","
","","images/earth.jpg","","","","","","","","","","","","","","fixation","","","","","",""
"d3-animate-choice","144","712668","0.0-76.0-0.3","859","897","10","Female","false","false","true","false","""event"",""trial"",""time""
""fullscreenenter"",""5"",""35726""
","
","
","""event"",""trial"",""time""
""fullscreenenter"",""5"",""35726""
","
","1872","","48","","","3000","1","","","images/earth.jpg","images/rocket1","images/rocket2","null","images/rocket1","","1","real","null","2","","",""
"d3-animate-choice","145","715199","0.0-76.0-1.3","859","897","10","Female","false","false","true","false","""event"",""trial"",""time""
""fullscreenenter"",""5"",""35726""
","
","
","""event"",""trial"",""time""
""fullscreenenter"",""5"",""35726""
","
","519.8000001907349","","48","","","3000","1","","","images/purpleplanet.jpg","images/alien4","images/alien3","images/rocket1","images/alien4","images/t.png","2","real","true","2","common","1","2022-03-07 23:10:38.169"
"two-step-fixation","146","716209","0.0-76.0-2.3","859","897","10","Female","false","false","true","false","""event"",""trial"",""time""
""fullscreenenter"",""5"",""35726""
","
","
","""event"",""trial"",""time""
""fullscreenenter"",""5"",""35726""
","
","","images/earth.jpg","","","","","","","","","","","","","","fixation","","","","","",""
"d3-animate-choice","147","718708","0.0-76.0-0.4","859","897","10","Female","false","false","true","false","""event"",""trial"",""time""
""fullscreenenter"",""5"",""35726""
","
","
","""event"",""trial"",""time""
""fullscreenenter"",""5"",""35726""
","
","487.40000009536743","","48","","","3000","1","","","images/earth.jpg","images/rocket1","images/rocket2","null","images/rocket1","","1","real","null","2","","",""
"d3-animate-choice","148","721062","0.0-76.0-1.4","859","897","10","Female","false","false","true","false","""event"",""trial"",""time""
""fullscreenenter"",""5"",""35726""
","
","
","""event"",""trial"",""time""
""fullscreenenter"",""5"",""35726""
","
","345","","48","","","3000","1","","","images/purpleplanet.jpg","images/alien4","images/alien3","images/rocket1","images/alien4","images/t.png","2","real","true","2","common","1","2022-03-07 23:10:44.032"
"two-step-fixation","149","722070","0.0-76.0-2.4","859","897","10","Female","false","false","true","false","""event"",""trial"",""time""
""fullscreenenter"",""5"",""35726""
","
","
","""event"",""trial"",""time""
""fullscreenenter"",""5"",""35726""
","
","","images/earth.jpg","","","","","","","","","","","","","","fixation","","","","","",""
"d3-animate-choice","150","724631","0.0-76.0-0.5","859","897","10","Female","false","false","true","false","""event"",""trial"",""time""
""fullscreenenter"",""5"",""35726""
","
","
","""event"",""trial"",""time""
""fullscreenenter"",""5"",""35726""
","
","553.3999998569489","","48","","","3000","1","","","images/earth.jpg","images/rocket1","images/rocket2","null","images/rocket1","","1","real","null","2","","",""
"d3-animate-choice","151","727251","0.0-76.0-1.5","859","897","10","Female","false","false","true","false","""event"",""trial"",""time""
""fullscreenenter"",""5"",""35726""
","
","
","""event"",""trial"",""time""
""fullscreenenter"",""5"",""35726""
","
","611.0999999046326","","48","","","3000","1","","","images/purpleplanet.jpg","images/alien4","images/alien3","images/rocket1","images/alien4","images/t.png","2","real","true","2","common","1","2022-03-07 23:10:50.221"
"two-step-fixation","152","728259","0.0-76.0-2.5","859","897","10","Female","false","false","true","false","""event"",""trial"",""time""
""fullscreenenter"",""5"",""35726""
","
","
","""event"",""trial"",""time""
""fullscreenenter"",""5"",""35726""
","
","","images/earth.jpg","","","","","","","","","","","","","","fixation","","","","","",""
"d3-animate-choice","153","730826","0.0-76.0-0.6","859","897","10","Female","false","false","true","false","""event"",""trial"",""time""
""fullscreenenter"",""5"",""35726""
","
","
","""event"",""trial"",""time""
""fullscreenenter"",""5"",""35726""
","
","559.7999999523163","","48","","","3000","1","","","images/earth.jpg","images/rocket1","images/rocket2","null","images/rocket1","","1","real","null","2","","",""
"d3-animate-choice","154","733693","0.0-76.0-1.6","859","897","10","Female","false","false","true","false","""event"",""trial"",""time""
""fullscreenenter"",""5"",""35726""
","
","
","""event"",""trial"",""time""
""fullscreenenter"",""5"",""35726""
","
","859","","48","","","3000","1","","","images/purpleplanet.jpg","images/alien4","images/alien3","images/rocket1","images/alien4","images/t.png","2","real","true","2","common","1","2022-03-07 23:10:56.663"
"two-step-fixation","155","734702","0.0-76.0-2.6","859","897","10","Female","false","false","true","false","""event"",""trial"",""time""
""fullscreenenter"",""5"",""35726""
","
","
","""event"",""trial"",""time""
""fullscreenenter"",""5"",""35726""
","
","","images/earth.jpg","","","","","","","","","","","","","","fixation","","","","","",""
"d3-animate-choice","156","736958","0.0-76.0-0.7","859","897","10","Female","false","false","true","false","""event"",""trial"",""time""
""fullscreenenter"",""5"",""35726""
","
","
","""event"",""trial"",""time""
""fullscreenenter"",""5"",""35726""
","
","246.5","","48","","","3000","1","","","images/earth.jpg","images/rocket1","images/rocket2","null","images/rocket1","","1","real","null","2","","",""
"d3-animate-choice","157","739626","0.0-76.0-1.7","859","897","10","Female","false","false","true","false","""event"",""trial"",""time""
""fullscreenenter"",""5"",""35726""
","
","
","""event"",""trial"",""time""
""fullscreenenter"",""5"",""35726""
","
","659.0999999046326","","48","","","3000","1","","","images/purpleplanet.jpg","images/alien4","images/alien3","images/rocket1","images/alien4","images/t.png","2","real","true","2","common","1","2022-03-07 23:11:02.596"
"two-step-fixation","158","740635","0.0-76.0-2.7","859","897","10","Female","false","false","true","false","""event"",""trial"",""time""
""fullscreenenter"",""5"",""35726""
","
","
","""event"",""trial"",""time""
""fullscreenenter"",""5"",""35726""
","
","","images/earth.jpg","","","","","","","","","","","","","","fixation","","","","","",""
"d3-animate-choice","159","742990","0.0-76.0-0.8","859","897","10","Female","false","false","true","false","""event"",""trial"",""time""
""fullscreenenter"",""5"",""35726""
","
","
","""event"",""trial"",""time""
""fullscreenenter"",""5"",""35726""
","
","347.19999980926514","","48","","","3000","1","","","images/earth.jpg","images/rocket1","images/rocket2","null","images/rocket1","","1","real","null","2","","",""
"d3-animate-choice","160","745432","0.0-76.0-1.8","859","897","10","Female","false","false","true","false","""event"",""trial"",""time""
""fullscreenenter"",""5"",""35726""
","
","
","""event"",""trial"",""time""
""fullscreenenter"",""5"",""35726""
","
","433.2999999523163","","48","","","3000","1","1885","49","images/purpleplanet.jpg","images/alien4","images/alien3","images/rocket1","images/alien4","images/t.png","2","real","true","2","common","1","2022-03-07 23:11:08.402"
"two-step-fixation","161","746440","0.0-76.0-2.8","859","897","10","Female","false","false","true","false","""event"",""trial"",""time""
""fullscreenenter"",""5"",""35726""
","
","
","""event"",""trial"",""time""
""fullscreenenter"",""5"",""35726""
","
","","images/earth.jpg","","","","","","","","","","","","","","fixation","","","","","",""
"d3-animate-choice","162","749167","0.0-76.0-0.9","859","897","10","Female","false","false","true","false","""event"",""trial"",""time""
""fullscreenenter"",""5"",""35726""
","
","
","""event"",""trial"",""time""
""fullscreenenter"",""5"",""35726""
","
","718.9000000953674","","48","","","3000","1","","","images/earth.jpg","images/rocket1","images/rocket2","null","images/rocket1","","1","real","null","2","","",""
"d3-animate-choice","163","751870","0.0-76.0-1.9","859","897","10","Female","false","false","true","false","""event"",""trial"",""time""
""fullscreenenter"",""5"",""35726""
","
","
","""event"",""trial"",""time""
""fullscreenenter"",""5"",""35726""
","
","694.9000000953674","","48","","","3000","1","","","images/purpleplanet.jpg","images/alien4","images/alien3","images/rocket1","images/alien4","images/t.png","2","real","true","2","common","1","2022-03-07 23:11:14.840"
"two-step-fixation","164","752875","0.0-76.0-2.9","859","897","10","Female","false","false","true","false","""event"",""trial"",""time""
""fullscreenenter"",""5"",""35726""
","
","
","""event"",""trial"",""time""
""fullscreenenter"",""5"",""35726""
","
","","images/earth.jpg","","","","","","","","","","","","","","fixation","","","","","",""
"d3-animate-choice","165","755354","0.0-76.0-0.10","859","897","10","Female","false","false","true","false","""event"",""trial"",""time""
""fullscreenenter"",""5"",""35726""
","
","
","""event"",""trial"",""time""
""fullscreenenter"",""5"",""35726""
","
","468.2000000476837","","48","","","3000","1","","","images/earth.jpg","images/rocket1","images/rocket2","null","images/rocket1","","1","real","null","2","","",""
"d3-animate-choice","166","757889","0.0-76.0-1.10","859","897","10","Female","false","false","true","false","""event"",""trial"",""time""
""fullscreenenter"",""5"",""35726""
","
","
","""event"",""trial"",""time""
""fullscreenenter"",""5"",""35726""
","
","528.5999999046326","","48","","","3000","1","","","images/purpleplanet.jpg","images/alien4","images/alien3","images/rocket1","images/alien4","images/t.png","2","real","true","2","common","1","2022-03-07 23:11:20.860"
"two-step-fixation","167","758897","0.0-76.0-2.10","859","897","10","Female","false","false","true","false","""event"",""trial"",""time""
""fullscreenenter"",""5"",""35726""
","
","
","""event"",""trial"",""time""
""fullscreenenter"",""5"",""35726""
","
","","images/earth.jpg","","","","","","","","","","","","","","fixation","","","","","",""
"d3-animate-choice","168","761293","0.0-76.0-0.11","859","897","10","Female","false","false","true","false","""event"",""trial"",""time""
""fullscreenenter"",""5"",""35726""
","
","
","""event"",""trial"",""time""
""fullscreenenter"",""5"",""35726""
","
","387.7000000476837","","48","","","3000","1","","","images/earth.jpg","images/rocket1","images/rocket2","null","images/rocket1","","1","real","null","2","","",""
"d3-animate-choice","169","763920","0.0-76.0-1.11","859","897","10","Female","false","false","true","false","""event"",""trial"",""time""
""fullscreenenter"",""5"",""35726""
","
","
","""event"",""trial"",""time""
""fullscreenenter"",""5"",""35726""
","
","616.5","","48","","","3000","1","","","images/purpleplanet.jpg","images/alien4","images/alien3","images/rocket1","images/alien4","images/nothing.png","2","real","true","2","common","0","2022-03-07 23:11:26.890"
"two-step-fixation","170","764927","0.0-76.0-2.11","859","897","10","Female","false","false","true","false","""event"",""trial"",""time""
""fullscreenenter"",""5"",""35726""
","
","
","""event"",""trial"",""time""
""fullscreenenter"",""5"",""35726""
","
","","images/earth.jpg","","","","","","","","","","","","","","fixation","","","","","",""
"d3-animate-choice","171","767450","0.0-76.0-0.12","859","897","10","Female","false","false","true","false","""event"",""trial"",""time""
""fullscreenenter"",""5"",""35726""
","
","
","""event"",""trial"",""time""
""fullscreenenter"",""5"",""35726""
","
","515.1000001430511","","48","","","3000","1","","","images/earth.jpg","images/rocket1","images/rocket2","null","images/rocket1","","1","real","null","2","","",""
"d3-animate-choice","172","770037","0.0-76.0-1.12","859","897","10","Female","false","false","true","false","""event"",""trial"",""time""
""fullscreenenter"",""5"",""35726""
","
","
","""event"",""trial"",""time""
""fullscreenenter"",""5"",""35726""
","
","579","","48","","","3000","1","","","images/redplanet1.jpg","images/alien2","images/alien1","images/rocket1","images/alien2","images/nothing.png","2","real","false","2","rare","0","2022-03-07 23:11:33.007"
"two-step-fixation","173","771043","0.0-76.0-2.12","859","897","10","Female","false","false","true","false","""event"",""trial"",""time""
""fullscreenenter"",""5"",""35726""
","
","
","""event"",""trial"",""time""
""fullscreenenter"",""5"",""35726""
","
","","images/earth.jpg","","","","","","","","","","","","","","fixation","","","","","",""
"d3-animate-choice","174","773425","0.0-76.0-0.13","859","897","10","Female","false","false","true","false","""event"",""trial"",""time""
""fullscreenenter"",""5"",""35726""
","
","
","""event"",""trial"",""time""
""fullscreenenter"",""5"",""35726""
","
","374.7999999523163","","48","","","3000","1","","","images/earth.jpg","images/rocket1","images/rocket2","null","images/rocket1","","1","real","null","2","","",""
"d3-animate-choice","175","776679","0.0-76.0-1.13","859","897","10","Female","false","false","true","false","""event"",""trial"",""time""
""fullscreenenter"",""5"",""35726""
","
","
","""event"",""trial"",""time""
""fullscreenenter"",""5"",""35726""
","
","1247.2000000476837","","49","","","3000","1","","","images/redplanet1.jpg","images/alien2","images/alien1","images/rocket1","images/alien1","images/nothing.png","2","real","false","1","rare","0","2022-03-07 23:11:39.650"
"two-step-fixation","176","777686","0.0-76.0-2.13","859","897","10","Female","false","false","true","false","""event"",""trial"",""time""
""fullscreenenter"",""5"",""35726""
","
","
","""event"",""trial"",""time""
""fullscreenenter"",""5"",""35726""
","
","","images/earth.jpg","","","","","","","","","","","","","","fixation","","","","","",""
"d3-animate-choice","177","780238","0.0-76.0-0.14","859","897","10","Female","false","false","true","false","""event"",""trial"",""time""
""fullscreenenter"",""5"",""35726""
","
","
","""event"",""trial"",""time""
""fullscreenenter"",""5"",""35726""
","
","544.7000000476837","","48","","","3000","1","","","images/earth.jpg","images/rocket1","images/rocket2","null","images/rocket1","","1","real","null","2","","",""
"d3-animate-choice","178","782794","0.0-76.0-1.14","859","897","10","Female","false","false","true","false","""event"",""trial"",""time""
""fullscreenenter"",""5"",""35726""
","
","
","""event"",""trial"",""time""
""fullscreenenter"",""5"",""35726""
","
","548.1999998092651","","48","","","3000","1","","","images/purpleplanet.jpg","images/alien4","images/alien3","images/rocket1","images/alien4","images/t.png","2","real","true","2","common","1","2022-03-07 23:11:45.764"
"two-step-fixation","179","783803","0.0-76.0-2.14","859","897","10","Female","false","false","true","false","""event"",""trial"",""time""
""fullscreenenter"",""5"",""35726""
","
","
","""event"",""trial"",""time""
""fullscreenenter"",""5"",""35726""
","
","","images/earth.jpg","","","","","","","","","","","","","","fixation","","","","","",""
"d3-animate-choice","180","786419","0.0-76.0-0.15","859","897","10","Female","false","false","true","false","""event"",""trial"",""time""
""fullscreenenter"",""5"",""35726""
","
","
","""event"",""trial"",""time""
""fullscreenenter"",""5"",""35726""
","
","610.2000000476837","","48","","","3000","1","","","images/earth.jpg","images/rocket1","images/rocket2","null","images/rocket1","","1","real","null","2","","",""
"d3-animate-choice","181","789034","0.0-76.0-1.15","859","897","10","Female","false","false","true","false","""event"",""trial"",""time""
""fullscreenenter"",""5"",""35726""
","
","
","""event"",""trial"",""time""
""fullscreenenter"",""5"",""35726""
","
","609.0999999046326","","48","","","3000","1","","","images/purpleplanet.jpg","images/alien4","images/alien3","images/rocket1","images/alien4","images/t.png","2","real","true","2","common","1","2022-03-07 23:11:52.004"
"two-step-fixation","182","790041","0.0-76.0-2.15","859","897","10","Female","false","false","true","false","""event"",""trial"",""time""
""fullscreenenter"",""5"",""35726""
","
","
","""event"",""trial"",""time""
""fullscreenenter"",""5"",""35726""
","
","","images/earth.jpg","","","","","","","","","","","","","","fixation","","","","","",""
"d3-animate-choice","183","792471","0.0-76.0-0.16","859","897","10","Female","false","false","true","false","""event"",""trial"",""time""
""fullscreenenter"",""5"",""35726""
","
","
","""event"",""trial"",""time""
""fullscreenenter"",""5"",""35726""
","
","423.5","","48","","","3000","1","","","images/earth.jpg","images/rocket1","images/rocket2","null","images/rocket1","","1","real","null","2","","",""
"d3-animate-choice","184","794962","0.0-76.0-1.16","859","897","10","Female","false","false","true","false","""event"",""trial"",""time""
""fullscreenenter"",""5"",""35726""
","
","
","""event"",""trial"",""time""
""fullscreenenter"",""5"",""35726""
","
","483.2999999523163","","48","","","3000","1","","","images/purpleplanet.jpg","images/alien4","images/alien3","images/rocket1","images/alien4","images/t.png","2","real","true","2","common","1","2022-03-07 23:11:57.932"
"two-step-fixation","185","795970","0.0-76.0-2.16","859","897","10","Female","false","false","true","false","""event"",""trial"",""time""
""fullscreenenter"",""5"",""35726""
","
","
","""event"",""trial"",""time""
""fullscreenenter"",""5"",""35726""
","
","","images/earth.jpg","","","","","","","","","","","","","","fixation","","","","","",""
"d3-animate-choice","186","798195","0.0-76.0-0.17","859","897","10","Female","false","false","true","false","""event"",""trial"",""time""
""fullscreenenter"",""5"",""35726""
","
","
","""event"",""trial"",""time""
""fullscreenenter"",""5"",""35726""
","
","219.5","","48","","","3000","1","","","images/earth.jpg","images/rocket1","images/rocket2","null","images/rocket1","","1","real","null","2","","",""
"d3-animate-choice","187","800616","0.0-76.0-1.17","859","897","10","Female","false","false","true","false","""event"",""trial"",""time""
""fullscreenenter"",""5"",""35726""
","
","
","""event"",""trial"",""time""
""fullscreenenter"",""5"",""35726""
","
","411.40000009536743","","48","","","3000","1","","","images/purpleplanet.jpg","images/alien4","images/alien3","images/rocket1","images/alien4","images/t.png","2","real","true","2","common","1","2022-03-07 23:12:03.586"
"two-step-fixation","188","801623","0.0-76.0-2.17","859","897","10","Female","false","false","true","false","""event"",""trial"",""time""
""fullscreenenter"",""5"",""35726""
","
","
","""event"",""trial"",""time""
""fullscreenenter"",""5"",""35726""
","
","","images/earth.jpg","","","","","","","","","","","","","","fixation","","","","","",""
"d3-animate-choice","189","804494","0.0-76.0-0.18","859","897","10","Female","false","false","true","false","""event"",""trial"",""time""
""fullscreenenter"",""5"",""35726""
","
","
","""event"",""trial"",""time""
""fullscreenenter"",""5"",""35726""
","
","865.2000000476837","","48","","","3000","1","","","images/earth.jpg","images/rocket1","images/rocket2","null","images/rocket1","","1","real","null","2","","",""
"d3-animate-choice","190","807101","0.0-76.0-1.18","859","897","10","Female","false","false","true","false","""event"",""trial"",""time""
""fullscreenenter"",""5"",""35726""
","
","
","""event"",""trial"",""time""
""fullscreenenter"",""5"",""35726""
","
","599.2999999523163","","48","","","3000","1","","","images/purpleplanet.jpg","images/alien4","images/alien3","images/rocket1","images/alien4","images/t.png","2","real","true","2","common","1","2022-03-07 23:12:10.071"
"two-step-fixation","191","808107","0.0-76.0-2.18","859","897","10","Female","false","false","true","false","""event"",""trial"",""time""
""fullscreenenter"",""5"",""35726""
","
","
","""event"",""trial"",""time""
""fullscreenenter"",""5"",""35726""
","
","","images/earth.jpg","","","","","","","","","","","","","","fixation","","","","","",""
"d3-animate-choice","192","810636","0.0-76.0-0.19","859","897","10","Female","false","false","true","false","""event"",""trial"",""time""
""fullscreenenter"",""5"",""35726""
","
","
","""event"",""trial"",""time""
""fullscreenenter"",""5"",""35726""
","
","520","","48","","","3000","1","","","images/earth.jpg","images/rocket1","images/rocket2","null","images/rocket1","","1","real","null","2","","",""
"d3-animate-choice","193","813318","0.0-76.0-1.19","859","897","10","Female","false","false","true","false","""event"",""trial"",""time""
""fullscreenenter"",""5"",""35726""
","
","
","""event"",""trial"",""time""
""fullscreenenter"",""5"",""35726""
","
","675.6999998092651","","48","","","3000","1","","","images/purpleplanet.jpg","images/alien4","images/alien3","images/rocket1","images/alien4","images/nothing.png","2","real","true","2","common","0","2022-03-07 23:12:16.288"
"two-step-fixation","194","814324","0.0-76.0-2.19","859","897","10","Female","false","false","true","false","""event"",""trial"",""time""
""fullscreenenter"",""5"",""35726""
","
","
","""event"",""trial"",""time""
""fullscreenenter"",""5"",""35726""
","
","","images/earth.jpg","","","","","","","","","","","","","","fixation","","","","","",""
"d3-animate-choice","195","816801","0.0-76.0-0.20","859","897","10","Female","false","false","true","false","""event"",""trial"",""time""
""fullscreenenter"",""5"",""35726""
","
","
","""event"",""trial"",""time""
""fullscreenenter"",""5"",""35726""
","
","467.40000009536743","","48","","","3000","1","","","images/earth.jpg","images/rocket1","images/rocket2","null","images/rocket1","","1","real","null","2","","",""
"d3-animate-choice","196","819492","0.0-76.0-1.20","859","897","10","Female","false","false","true","false","""event"",""trial"",""time""
""fullscreenenter"",""5"",""35726""
","
","
","""event"",""trial"",""time""
""fullscreenenter"",""5"",""35726""
","
","686.0999999046326","","48","","","3000","1","","","images/purpleplanet.jpg","images/alien4","images/alien3","images/rocket1","images/alien4","images/nothing.png","2","real","true","2","common","0","2022-03-07 23:12:22.463"
"two-step-fixation","197","820499","0.0-76.0-2.20","859","897","10","Female","false","false","true","false","""event"",""trial"",""time""
""fullscreenenter"",""5"",""35726""
","
","
","""event"",""trial"",""time""
""fullscreenenter"",""5"",""35726""
","
","","images/earth.jpg","","","","","","","","","","","","","","fixation","","","","","",""
"d3-animate-choice","198","823068","0.0-76.0-0.21","859","897","10","Female","false","false","true","false","""event"",""trial"",""time""
""fullscreenenter"",""5"",""35726""
","
","
","""event"",""trial"",""time""
""fullscreenenter"",""5"",""35726""
","
","562.5","","48","","","3000","1","","","images/earth.jpg","images/rocket1","images/rocket2","null","images/rocket1","","1","real","null","2","","",""
"d3-animate-choice","199","826325","0.0-76.0-1.21","859","897","10","Female","false","false","true","false","""event"",""trial"",""time""
""fullscreenenter"",""5"",""35726""
","
","
","""event"",""trial"",""time""
""fullscreenenter"",""5"",""35726""
","
","1248.3999998569489","","49","","","3000","1","","","images/redplanet1.jpg","images/alien2","images/alien1","images/rocket1","images/alien1","images/t.png","2","real","false","1","rare","1","2022-03-07 23:12:29.296"
"two-step-fixation","200","827333","0.0-76.0-2.21","859","897","10","Female","false","false","true","false","""event"",""trial"",""time""
""fullscreenenter"",""5"",""35726""
","
","
","""event"",""trial"",""time""
""fullscreenenter"",""5"",""35726""
","
","","images/earth.jpg","","","","","","","","","","","","","","fixation","","","","","",""
"d3-animate-choice","201","829732","0.0-76.0-0.22","859","897","10","Female","false","false","true","false","""event"",""trial"",""time""
""fullscreenenter"",""5"",""35726""
","
","
","""event"",""trial"",""time""
""fullscreenenter"",""5"",""35726""
","
","391.90000009536743","","48","","","3000","1","","","images/earth.jpg","images/rocket1","images/rocket2","null","images/rocket1","","1","real","null","2","","",""
"d3-animate-choice","202","832333","0.0-76.0-1.22","859","897","10","Female","false","false","true","false","""event"",""trial"",""time""
""fullscreenenter"",""5"",""35726""
","
","
","""event"",""trial"",""time""
""fullscreenenter"",""5"",""35726""
","
","592.2999999523163","","48","","","3000","1","","","images/purpleplanet.jpg","images/alien4","images/alien3","images/rocket1","images/alien4","images/t.png","2","real","true","2","common","1","2022-03-07 23:12:35.303"
"two-step-fixation","203","833338","0.0-76.0-2.22","859","897","10","Female","false","false","true","false","""event"",""trial"",""time""
""fullscreenenter"",""5"",""35726""
","
","
","""event"",""trial"",""time""
""fullscreenenter"",""5"",""35726""
","
","","images/earth.jpg","","","","","","","","","","","","","","fixation","","","","","",""
"d3-animate-choice","204","835817","0.0-76.0-0.23","859","897","10","Female","false","false","true","false","""event"",""trial"",""time""
""fullscreenenter"",""5"",""35726""
","
","
","""event"",""trial"",""time""
""fullscreenenter"",""5"",""35726""
","
","472.90000009536743","","48","","","3000","1","","","images/earth.jpg","images/rocket1","images/rocket2","null","images/rocket1","","1","real","null","2","","",""
"d3-animate-choice","205","838703","0.0-76.0-1.23","859","897","10","Female","false","false","true","false","""event"",""trial"",""time""
""fullscreenenter"",""5"",""35726""
","
","
","""event"",""trial"",""time""
""fullscreenenter"",""5"",""35726""
","
","878.8999998569489","","48","","","3000","1","","","images/purpleplanet.jpg","images/alien4","images/alien3","images/rocket1","images/alien4","images/nothing.png","2","real","true","2","common","0","2022-03-07 23:12:41.673"
"two-step-fixation","206","839708","0.0-76.0-2.23","859","897","10","Female","false","false","true","false","""event"",""trial"",""time""
""fullscreenenter"",""5"",""35726""
","
","
","""event"",""trial"",""time""
""fullscreenenter"",""5"",""35726""
","
","","images/earth.jpg","","","","","","","","","","","","","","fixation","","","","","",""
"d3-animate-choice","207","843550","0.0-76.0-0.24","859","897","10","Female","false","false","true","false","""event"",""trial"",""time""
""fullscreenenter"",""5"",""35726""
","
","
","""event"",""trial"",""time""
""fullscreenenter"",""5"",""35726""
","
","1832.7000000476837","","48","","","3000","1","","","images/earth.jpg","images/rocket1","images/rocket2","null","images/rocket1","","1","real","null","2","","",""
"d3-animate-choice","208","846031","0.0-76.0-1.24","859","897","10","Female","false","false","true","false","""event"",""trial"",""time""
""fullscreenenter"",""5"",""35726""
","
","
","""event"",""trial"",""time""
""fullscreenenter"",""5"",""35726""
","
","474","","48","","","3000","1","","","images/purpleplanet.jpg","images/alien4","images/alien3","images/rocket1","images/alien4","images/t.png","2","real","true","2","common","1","2022-03-07 23:12:49.002"
"two-step-fixation","209","847038","0.0-76.0-2.24","859","897","10","Female","false","false","true","false","""event"",""trial"",""time""
""fullscreenenter"",""5"",""35726""
","
","
","""event"",""trial"",""time""
""fullscreenenter"",""5"",""35726""
","
","","images/earth.jpg","","","","","","","","","","","","","","fixation","","","","","",""
"d3-animate-choice","210","849874","0.0-76.0-0.25","859","897","10","Female","false","false","true","false","""event"",""trial"",""time""
""fullscreenenter"",""5"",""35726""
","
","
","""event"",""trial"",""time""
""fullscreenenter"",""5"",""35726""
","
","828.2000000476837","","48","","","3000","1","","","images/earth.jpg","images/rocket1","images/rocket2","null","images/rocket1","","1","real","null","2","","",""
"d3-animate-choice","211","852336","0.0-76.0-1.25","859","897","10","Female","false","false","true","false","""event"",""trial"",""time""
""fullscreenenter"",""5"",""35726""
","
","
","""event"",""trial"",""time""
""fullscreenenter"",""5"",""35726""
","
","456.2000000476837","","48","","","3000","1","","","images/purpleplanet.jpg","images/alien4","images/alien3","images/rocket1","images/alien4","images/t.png","2","real","true","2","common","1","2022-03-07 23:12:55.306"
"two-step-fixation","212","853343","0.0-76.0-2.25","859","897","10","Female","false","false","true","false","""event"",""trial"",""time""
""fullscreenenter"",""5"",""35726""
","
","
","""event"",""trial"",""time""
""fullscreenenter"",""5"",""35726""
","
","","images/earth.jpg","","","","","","","","","","","","","","fixation","","","","","",""
"d3-animate-choice","213","855877","0.0-76.0-0.26","859","897","10","Female","false","false","true","false","""event"",""trial"",""time""
""fullscreenenter"",""5"",""35726""
","
","
","""event"",""trial"",""time""
""fullscreenenter"",""5"",""35726""
","
","524.0999999046326","","48","","","3000","1","","","images/earth.jpg","images/rocket1","images/rocket2","null","images/rocket1","","1","real","null","2","","",""
"d3-animate-choice","214","858371","0.0-76.0-1.26","859","897","10","Female","false","false","true","false","""event"",""trial"",""time""
""fullscreenenter"",""5"",""35726""
","
","
","""event"",""trial"",""time""
""fullscreenenter"",""5"",""35726""
","
","487","","48","","","3000","1","","","images/purpleplanet.jpg","images/alien4","images/alien3","images/rocket1","images/alien4","images/t.png","2","real","true","2","common","1","2022-03-07 23:13:01.342"
"two-step-fixation","215","859378","0.0-76.0-2.26","859","897","10","Female","false","false","true","false","""event"",""trial"",""time""
""fullscreenenter"",""5"",""35726""
","
","
","""event"",""trial"",""time""
""fullscreenenter"",""5"",""35726""
","
","","images/earth.jpg","","","","","","","","","","","","","","fixation","","","","","",""
"d3-animate-choice","216","861853","0.0-76.0-0.27","859","897","10","Female","false","false","true","false","""event"",""trial"",""time""
""fullscreenenter"",""5"",""35726""
","
","
","""event"",""trial"",""time""
""fullscreenenter"",""5"",""35726""
","
","467.39999985694885","","48","","","3000","1","","","images/earth.jpg","images/rocket1","images/rocket2","null","images/rocket1","","1","real","null","2","","",""
"d3-animate-choice","217","864265","0.0-76.0-1.27","859","897","10","Female","false","false","true","false","""event"",""trial"",""time""
""fullscreenenter"",""5"",""35726""
","
","
","""event"",""trial"",""time""
""fullscreenenter"",""5"",""35726""
","
","406.30000019073486","","48","","","3000","1","","","images/purpleplanet.jpg","images/alien4","images/alien3","images/rocket1","images/alien4","images/nothing.png","2","real","true","2","common","0","2022-03-07 23:13:07.235"
"two-step-fixation","218","865272","0.0-76.0-2.27","859","897","10","Female","false","false","true","false","""event"",""trial"",""time""
""fullscreenenter"",""5"",""35726""
","
","
","""event"",""trial"",""time""
""fullscreenenter"",""5"",""35726""
","
","","images/earth.jpg","","","","","","","","","","","","","","fixation","","","","","",""
"d3-animate-choice","219","867853","0.0-76.0-0.28","859","897","10","Female","false","false","true","false","""event"",""trial"",""time""
""fullscreenenter"",""5"",""35726""
","
","
","""event"",""trial"",""time""
""fullscreenenter"",""5"",""35726""
","
","573.5999999046326","","48","","","3000","1","","","images/earth.jpg","images/rocket1","images/rocket2","null","images/rocket1","","1","real","null","2","","",""
"d3-animate-choice","220","870416","0.0-76.0-1.28","859","897","10","Female","false","false","true","false","""event"",""trial"",""time""
""fullscreenenter"",""5"",""35726""
","
","
","""event"",""trial"",""time""
""fullscreenenter"",""5"",""35726""
","
","555.6000001430511","","48","","","3000","1","","","images/purpleplanet.jpg","images/alien4","images/alien3","images/rocket1","images/alien4","images/nothing.png","2","real","true","2","common","0","2022-03-07 23:13:13.386"
"two-step-fixation","221","871422","0.0-76.0-2.28","859","897","10","Female","false","false","true","false","""event"",""trial"",""time""
""fullscreenenter"",""5"",""35726""
","
","
","""event"",""trial"",""time""
""fullscreenenter"",""5"",""35726""
","
","","images/earth.jpg","","","","","","","","","","","","","","fixation","","","","","",""
"d3-animate-choice","222","874002","0.0-76.0-0.29","859","897","10","Female","false","false","true","false","""event"",""trial"",""time""
""fullscreenenter"",""5"",""35726""
","
","
","""event"",""trial"",""time""
""fullscreenenter"",""5"",""35726""
","
","571.2000000476837","","48","","","3000","1","","","images/earth.jpg","images/rocket1","images/rocket2","null","images/rocket1","","1","real","null","2","","",""
"d3-animate-choice","223","876946","0.0-76.0-1.29","859","897","10","Female","false","false","true","false","""event"",""trial"",""time""
""fullscreenenter"",""5"",""35726""
","
","
","""event"",""trial"",""time""
""fullscreenenter"",""5"",""35726""
","
","936.7999999523163","","48","","","3000","1","","","images/purpleplanet.jpg","images/alien4","images/alien3","images/rocket1","images/alien4","images/t.png","2","real","true","2","common","1","2022-03-07 23:13:19.916"
"two-step-fixation","224","877952","0.0-76.0-2.29","859","897","10","Female","false","false","true","false","""event"",""trial"",""time""
""fullscreenenter"",""5"",""35726""
","
","
","""event"",""trial"",""time""
""fullscreenenter"",""5"",""35726""
","
","","images/earth.jpg","","","","","","","","","","","","","","fixation","","","","","",""
"d3-animate-choice","225","881120","0.0-76.0-0.30","859","897","10","Female","false","false","true","false","""event"",""trial"",""time""
""fullscreenenter"",""5"",""35726""
","
","
","""event"",""trial"",""time""
""fullscreenenter"",""5"",""35726""
","
","1160.0999999046326","","48","","","3000","1","","","images/earth.jpg","images/rocket1","images/rocket2","null","images/rocket1","","1","real","null","2","","",""
"d3-animate-choice","226","883667","0.0-76.0-1.30","859","897","10","Female","false","false","true","false","""event"",""trial"",""time""
""fullscreenenter"",""5"",""35726""
","
","
","""event"",""trial"",""time""
""fullscreenenter"",""5"",""35726""
","
","537.9000000953674","","48","","","3000","1","","","images/purpleplanet.jpg","images/alien4","images/alien3","images/rocket1","images/alien4","images/t.png","2","real","true","2","common","1","2022-03-07 23:13:26.637"
"two-step-fixation","227","884674","0.0-76.0-2.30","859","897","10","Female","false","false","true","false","""event"",""trial"",""time""
""fullscreenenter"",""5"",""35726""
","
","
","""event"",""trial"",""time""
""fullscreenenter"",""5"",""35726""
","
","","images/earth.jpg","","","","","","","","","","","","","","fixation","","","","","",""
"d3-animate-choice","228","886692","0.0-76.0-0.31","859","897","10","Female","false","false","true","false","""event"",""trial"",""time""
""fullscreenenter"",""5"",""35726""
","
","
","""event"",""trial"",""time""
""fullscreenenter"",""5"",""35726""
","
","11.099999904632568","","48","","","3000","1","","","images/earth.jpg","images/rocket1","images/rocket2","null","images/rocket1","","1","real","null","2","","",""
"d3-animate-choice","229","889358","0.0-76.0-1.31","859","897","10","Female","false","false","true","false","""event"",""trial"",""time""
""fullscreenenter"",""5"",""35726""
","
","
","""event"",""trial"",""time""
""fullscreenenter"",""5"",""35726""
","
","658.4000000953674","","48","","","3000","1","","","images/purpleplanet.jpg","images/alien4","images/alien3","images/rocket1","images/alien4","images/t.png","2","real","true","2","common","1","2022-03-07 23:13:32.328"
"two-step-fixation","230","890365","0.0-76.0-2.31","859","897","10","Female","false","false","true","false","""event"",""trial"",""time""
""fullscreenenter"",""5"",""35726""
","
","
","""event"",""trial"",""time""
""fullscreenenter"",""5"",""35726""
","
","","images/earth.jpg","","","","","","","","","","","","","","fixation","","","","","",""
"d3-animate-choice","231","892748","0.0-76.0-0.32","859","897","10","Female","false","false","true","false","""event"",""trial"",""time""
""fullscreenenter"",""5"",""35726""
","
","
","""event"",""trial"",""time""
""fullscreenenter"",""5"",""35726""
","
","377.60000014305115","","48","","","3000","1","","","images/earth.jpg","images/rocket1","images/rocket2","null","images/rocket1","","1","real","null","2","","",""
"d3-animate-choice","232","896624","0.0-76.0-1.32","859","897","10","Female","false","false","true","false","""event"",""trial"",""time""
""fullscreenenter"",""5"",""35726""
","
","
","""event"",""trial"",""time""
""fullscreenenter"",""5"",""35726""
","
","1867.1000001430511","","49","","","3000","1","3429.5","16","images/redplanet1.jpg","images/alien2","images/alien1","images/rocket1","images/alien1","images/t.png","2","real","false","1","rare","1","2022-03-07 23:13:39.594"
"two-step-fixation","233","897631","0.0-76.0-2.32","859","897","10","Female","false","false","true","false","""event"",""trial"",""time""
""fullscreenenter"",""5"",""35726""
","
","
","""event"",""trial"",""time""
""fullscreenenter"",""5"",""35726""
","
","","images/earth.jpg","","","","","","","","","","","","","","fixation","","","","","",""
"d3-animate-choice","234","900119","0.0-76.0-0.33","859","897","10","Female","false","false","true","false","""event"",""trial"",""time""
""fullscreenenter"",""5"",""35726""
","
","
","""event"",""trial"",""time""
""fullscreenenter"",""5"",""35726""
","
","480","","48","","","3000","1","","","images/earth.jpg","images/rocket1","images/rocket2","null","images/rocket1","","1","real","null","2","","",""
"d3-animate-choice","235","902607","0.0-76.0-1.33","859","897","10","Female","false","false","true","false","""event"",""trial"",""time""
""fullscreenenter"",""5"",""35726""
","
","
","""event"",""trial"",""time""
""fullscreenenter"",""5"",""35726""
","
","478.19999980926514","","49","","","3000","1","","","images/redplanet1.jpg","images/alien2","images/alien1","images/rocket1","images/alien1","images/t.png","2","real","false","1","rare","1","2022-03-07 23:13:45.577"
"two-step-fixation","236","903613","0.0-76.0-2.33","859","897","10","Female","false","false","true","false","""event"",""trial"",""time""
""fullscreenenter"",""5"",""35726""
","
","
","""event"",""trial"",""time""
""fullscreenenter"",""5"",""35726""
","
","","images/earth.jpg","","","","","","","","","","","","","","fixation","","","","","",""
"d3-animate-choice","237","905896","0.0-76.0-0.34","859","897","10","Female","false","false","true","false","""event"",""trial"",""time""
""fullscreenenter"",""5"",""35726""
","
","
","""event"",""trial"",""time""
""fullscreenenter"",""5"",""35726""
","
","277.30000019073486","","48","","","3000","1","","","images/earth.jpg","images/rocket1","images/rocket2","null","images/rocket1","","1","real","null","2","","",""
"d3-animate-choice","238","908699","0.0-76.0-1.34","859","897","10","Female","false","false","true","false","""event"",""trial"",""time""
""fullscreenenter"",""5"",""35726""
","
","
","""event"",""trial"",""time""
""fullscreenenter"",""5"",""35726""
","
","796.7000000476837","","48","","","3000","1","","","images/purpleplanet.jpg","images/alien4","images/alien3","images/rocket1","images/alien4","images/nothing.png","2","real","true","2","common","0","2022-03-07 23:13:51.670"
"two-step-fixation","239","909706","0.0-76.0-2.34","859","897","10","Female","false","false","true","false","""event"",""trial"",""time""
""fullscreenenter"",""5"",""35726""
","
","
","""event"",""trial"",""time""
""fullscreenenter"",""5"",""35726""
","
","","images/earth.jpg","","","","","","","","","","","","","","fixation","","","","","",""
"d3-animate-choice","240","912203","0.0-76.0-0.35","859","897","10","Female","false","false","true","false","""event"",""trial"",""time""
""fullscreenenter"",""5"",""35726""
","
","
","""event"",""trial"",""time""
""fullscreenenter"",""5"",""35726""
","
","488.09999990463257","","48","","","3000","1","","","images/earth.jpg","images/rocket1","images/rocket2","null","images/rocket1","","1","real","null","2","","",""
"d3-animate-choice","241","914873","0.0-76.0-1.35","859","897","10","Female","false","false","true","false","""event"",""trial"",""time""
""fullscreenenter"",""5"",""35726""
","
","
","""event"",""trial"",""time""
""fullscreenenter"",""5"",""35726""
","
","661.3999998569489","","49","","","3000","1","","","images/redplanet1.jpg","images/alien2","images/alien1","images/rocket1","images/alien1","images/t.png","2","real","false","1","rare","1","2022-03-07 23:13:57.843"
"two-step-fixation","242","915880","0.0-76.0-2.35","859","897","10","Female","false","false","true","false","""event"",""trial"",""time""
""fullscreenenter"",""5"",""35726""
","
","
","""event"",""trial"",""time""
""fullscreenenter"",""5"",""35726""
","
","","images/earth.jpg","","","","","","","","","","","","","","fixation","","","","","",""
"d3-animate-choice","243","918597","0.0-76.0-0.36","859","897","10","Female","false","false","true","false","""event"",""trial"",""time""
""fullscreenenter"",""5"",""35726""
","
","
","""event"",""trial"",""time""
""fullscreenenter"",""5"",""35726""
","
","709.5","","48","","","3000","1","","","images/earth.jpg","images/rocket1","images/rocket2","null","images/rocket1","","1","real","null","2","","",""
"d3-animate-choice","244","921335","0.0-76.0-1.36","859","897","10","Female","false","false","true","false","""event"",""trial"",""time""
""fullscreenenter"",""5"",""35726""
","
","
","""event"",""trial"",""time""
""fullscreenenter"",""5"",""35726""
","
","727.0999999046326","","48","","","3000","1","","","images/purpleplanet.jpg","images/alien4","images/alien3","images/rocket1","images/alien4","images/t.png","2","real","true","2","common","1","2022-03-07 23:14:04.305"
"two-step-fixation","245","922343","0.0-76.0-2.36","859","897","10","Female","false","false","true","false","""event"",""trial"",""time""
""fullscreenenter"",""5"",""35726""
","
","
","""event"",""trial"",""time""
""fullscreenenter"",""5"",""35726""
","
