"trial_type","trial_index","time_elapsed","internal_node_id","participant_id","subject_id","age","gender","rocket_sides","red_planet_first_rocket","red_display_order","purple_display_order","interactions","blur_events","focus_events","fullscreenenter_events","fullscreenexit_events","rt","stimulus","key_press","button_pressed","success","duration","valid_pressed","rts","keys","planet_text","right_text","left_text","center_text","chosen_text","reward_text","trial_stage","practice_trial","transition_type","choice","transition","reward","timestamp"
"pavlovia","0","5","0.0-0.0","229","642","10","Female","false","false","false","false","
","
","
","
","
","","","","","","","","","","","","","","","","","","","","","",""
"html-keyboard-response","1","3233","0.0-1.0","229","642","10","Female","false","false","false","false","
","
","
","
","
","3227.5","Welcome! Press the space bar to begin.","32","","","","","","","","","","","","","","","","","","",""
"audio-keyboard-response","2","8528","0.0-2.0","229","642","10","Female","false","false","false","false","
","
","
","
","
","5155","audio/beep_loop.wav","32","","","","","","","","","","","","","","","","","","",""
"audio-button-response","3","16081","0.0-3.0","229","642","10","Female","false","false","false","false","
","
","
","
","
","NaN","audio/fish.mp3","","1","","","","","","","","","","","","","","","","","",""
"audio-button-response","4","19387","0.0-4.0","229","642","10","Female","false","false","false","false","""event"",""trial"",""time""
""fullscreenenter"",""5"",""23710""
","
","
","""event"",""trial"",""time""
""fullscreenenter"",""5"",""23710""
","
","NaN","audio/tiger.mp3","","4","","","","","","","","","","","","","","","","","",""
"fullscreen","5","24699","0.0-5.0","229","642","10","Female","false","false","false","false","""event"",""trial"",""time""
""fullscreenenter"",""5"",""23710""
","
","
","""event"",""trial"",""time""
""fullscreenenter"",""5"",""23710""
","
","","","","","true","","","","","","","","","","","","","","","","",""
"d3-instructions","6","38052","0.0-6.0","229","642","10","Female","false","false","false","false","""event"",""trial"",""time""
""fullscreenenter"",""5"",""23710""
","
","
","""event"",""trial"",""time""
""fullscreenenter"",""5"",""23710""
","
","","","","","","","","","","","","","","","","","","","","","",""
"d3-instructions","7","46139","0.0-7.0","229","642","10","Female","false","false","false","false","""event"",""trial"",""time""
""fullscreenenter"",""5"",""23710""
","
","
","""event"",""trial"",""time""
""fullscreenenter"",""5"",""23710""
","
","","","","","","","","","","","","","","","","","","","","","",""
"d3-instructions","8","55108","0.0-8.0","229","642","10","Female","false","false","false","false","""event"",""trial"",""time""
""fullscreenenter"",""5"",""23710""
","
","
","""event"",""trial"",""time""
""fullscreenenter"",""5"",""23710""
","
","","","","","","","","","","","","","","","","","","","","","",""
"d3-instructions","9","66328","0.0-9.0","229","642","10","Female","false","false","false","false","""event"",""trial"",""time""
""fullscreenenter"",""5"",""23710""
","
","
","""event"",""trial"",""time""
""fullscreenenter"",""5"",""23710""
","
","","","","","","","","","","","","","","","","","","","","","",""
"d3-instructions","10","91228","0.0-10.0","229","642","10","Female","false","false","false","false","""event"",""trial"",""time""
""fullscreenenter"",""5"",""23710""
","
","
","""event"",""trial"",""time""
""fullscreenenter"",""5"",""23710""
","
","","","","","","","","","","","","","","","","","","","","","",""
"d3-animate-choice","11","94510","0.0-11.0","229","642","10","Female","false","false","false","false","""event"",""trial"",""time""
""fullscreenenter"",""5"",""23710""
","
","
","""event"",""trial"",""time""
""fullscreenenter"",""5"",""23710""
","
","1250.4000000059605","","49","","","3000","1","2827.7000000178814","48","images/tutgreenplanet.jpg","images/tutalien1","images/tutalien2","null","images/tutalien2","","NA","practice","null","","","",""
"d3-animate-choice","12","97430","0.0-12.0","229","642","10","Female","false","false","false","false","""event"",""trial"",""time""
""fullscreenenter"",""5"",""23710""
","
","
","""event"",""trial"",""time""
""fullscreenenter"",""5"",""23710""
","
","913.4000000059605","","48","","","3000","1","","","images/tutgreenplanet.jpg","images/tutalien1","images/tutalien2","null","images/tutalien1","","NA","practice","null","","","",""
"d3-animate-choice","13","100100","0.0-13.0","229","642","10","Female","false","false","false","false","""event"",""trial"",""time""
""fullscreenenter"",""5"",""23710""
","
","
","""event"",""trial"",""time""
""fullscreenenter"",""5"",""23710""
","
","663.1000000238419","","49","","","3000","1","","","images/tutgreenplanet.jpg","images/tutalien1","images/tutalien2","null","images/tutalien2","","NA","practice","null","","","",""
"d3-animate-choice","14","102648","0.0-14.0","229","642","10","Female","false","false","false","false","""event"",""trial"",""time""
""fullscreenenter"",""5"",""23710""
","
","
","""event"",""trial"",""time""
""fullscreenenter"",""5"",""23710""
","
","543.1999999880791","","48","","","3000","1","","","images/tutgreenplanet.jpg","images/tutalien1","images/tutalien2","null","images/tutalien1","","NA","practice","null","","","",""
"d3-instructions","15","109277","0.0-15.0","229","642","10","Female","false","false","false","false","""event"",""trial"",""time""
""fullscreenenter"",""5"",""23710""
","
","
","""event"",""trial"",""time""
""fullscreenenter"",""5"",""23710""
","
","","","","","","","","","","","","","","","","","","","","","",""
"d3-instructions","16","116729","0.0-16.0","229","642","10","Female","false","false","false","false","""event"",""trial"",""time""
""fullscreenenter"",""5"",""23710""
","
","
","""event"",""trial"",""time""
""fullscreenenter"",""5"",""23710""
","
","","","","","","","","","","","","","","","","","","","","","",""
"d3-instructions","17","125620","0.0-17.0","229","642","10","Female","false","false","false","false","""event"",""trial"",""time""
""fullscreenenter"",""5"",""23710""
","
","
","""event"",""trial"",""time""
""fullscreenenter"",""5"",""23710""
","
","","","","","","","","","","","","","","","","","","","","","",""
"d3-instructions","18","139025","0.0-18.0","229","642","10","Female","false","false","false","false","""event"",""trial"",""time""
""fullscreenenter"",""5"",""23710""
","
","
","""event"",""trial"",""time""
""fullscreenenter"",""5"",""23710""
","
","","","","","","","","","","","","","","","","","","","","","",""
"d3-instructions","19","153027","0.0-19.0","229","642","10","Female","false","false","false","false","""event"",""trial"",""time""
""fullscreenenter"",""5"",""23710""
","
","
","""event"",""trial"",""time""
""fullscreenenter"",""5"",""23710""
","
","","","","","","","","","","","","","","","","","","","","","",""
"d3-animate-choice","20","155612","0.0-20.0","229","642","10","Female","false","false","false","false","""event"",""trial"",""time""
""fullscreenenter"",""5"",""23710""
","
","
","""event"",""trial"",""time""
""fullscreenenter"",""5"",""23710""
","
","582.3000000119209","","49","","","3000","1","","","images/tutyellowplanet.jpg","null","images/tutalien3","null","images/tutalien3","images/t.png","NA","practice","null","","","",""
"d3-animate-choice","21","158016","0.0-21.0","229","642","10","Female","false","false","false","false","""event"",""trial"",""time""
""fullscreenenter"",""5"",""23710""
","
","
","""event"",""trial"",""time""
""fullscreenenter"",""5"",""23710""
","
","395.7000000178814","","49","","","3000","1","","","images/tutyellowplanet.jpg","null","images/tutalien3","null","images/tutalien3","images/t.png","NA","practice","null","","","",""
"d3-animate-choice","22","160355","0.0-22.0","229","642","10","Female","false","false","false","false","""event"",""trial"",""time""
""fullscreenenter"",""5"",""23710""
","
","
","""event"",""trial"",""time""
""fullscreenenter"",""5"",""23710""
","
","333.69999998807907","","49","","","3000","1","","","images/tutyellowplanet.jpg","null","images/tutalien3","null","images/tutalien3","images/t.png","NA","practice","null","","","",""
"d3-animate-choice","23","162840","0.0-23.0","229","642","10","Female","false","false","false","false","""event"",""trial"",""time""
""fullscreenenter"",""5"",""23710""
","
","
","""event"",""trial"",""time""
""fullscreenenter"",""5"",""23710""
","
","480.69999998807907","","49","","","3000","1","","","images/tutyellowplanet.jpg","null","images/tutalien3","null","images/tutalien3","images/t.png","NA","practice","null","","","",""
"d3-animate-choice","24","165190","0.0-24.0","229","642","10","Female","false","false","false","false","""event"",""trial"",""time""
""fullscreenenter"",""5"",""23710""
","
","
","""event"",""trial"",""time""
""fullscreenenter"",""5"",""23710""
","
","342.5","","49","","","3000","1","","","images/tutyellowplanet.jpg","null","images/tutalien3","null","images/tutalien3","images/t.png","NA","practice","null","","","",""
"d3-animate-choice","25","167483","0.0-25.0","229","642","10","Female","false","false","false","false","""event"",""trial"",""time""
""fullscreenenter"",""5"",""23710""
","
","
","""event"",""trial"",""time""
""fullscreenenter"",""5"",""23710""
","
","286.80000001192093","","49","","","3000","1","","","images/tutyellowplanet.jpg","null","images/tutalien3","null","images/tutalien3","images/t.png","NA","practice","null","","","",""
"d3-animate-choice","26","169788","0.0-26.0","229","642","10","Female","false","false","false","false","""event"",""trial"",""time""
""fullscreenenter"",""5"",""23710""
","
","
","""event"",""trial"",""time""
""fullscreenenter"",""5"",""23710""
","
","303","","49","","","3000","1","","","images/tutyellowplanet.jpg","null","images/tutalien3","null","images/tutalien3","images/nothing.png","NA","practice","null","","","",""
"d3-animate-choice","27","172273","0.0-27.0","229","642","10","Female","false","false","false","false","""event"",""trial"",""time""
""fullscreenenter"",""5"",""23710""
","
","
","""event"",""trial"",""time""
""fullscreenenter"",""5"",""23710""
","
","479.30000001192093","","49","","","3000","1","","","images/tutyellowplanet.jpg","null","images/tutalien3","null","images/tutalien3","images/t.png","NA","practice","null","","","",""
"d3-animate-choice","28","174635","0.0-28.0","229","642","10","Female","false","false","false","false","""event"",""trial"",""time""
""fullscreenenter"",""5"",""23710""
","
","
","""event"",""trial"",""time""
""fullscreenenter"",""5"",""23710""
","
","358.19999998807907","","49","","","3000","1","","","images/tutyellowplanet.jpg","null","images/tutalien3","null","images/tutalien3","images/t.png","NA","practice","null","","","",""
"d3-animate-choice","29","177073","0.0-29.0","229","642","10","Female","false","false","false","false","""event"",""trial"",""time""
""fullscreenenter"",""5"",""23710""
","
","
","""event"",""trial"",""time""
""fullscreenenter"",""5"",""23710""
","
","435","","49","","","3000","1","","","images/tutyellowplanet.jpg","null","images/tutalien3","null","images/tutalien3","images/nothing.png","NA","practice","null","","","",""
"d3-instructions","30","184498","0.0-30.0","229","642","10","Female","false","false","false","false","""event"",""trial"",""time""
""fullscreenenter"",""5"",""23710""
","
","
","""event"",""trial"",""time""
""fullscreenenter"",""5"",""23710""
","
","","","","","","","","","","","","","","","","","","","","","",""
"d3-instructions","31","195236","0.0-31.0","229","642","10","Female","false","false","false","false","""event"",""trial"",""time""
""fullscreenenter"",""5"",""23710""
","
","
","""event"",""trial"",""time""
""fullscreenenter"",""5"",""23710""
","
","","","","","","","","","","","","","","","","","","","","","",""
"d3-instructions","32","202662","0.0-32.0","229","642","10","Female","false","false","false","false","""event"",""trial"",""time""
""fullscreenenter"",""5"",""23710""
","
","
","""event"",""trial"",""time""
""fullscreenenter"",""5"",""23710""
","
","","","","","","","","","","","","","","","","","","","","","",""
"d3-instructions","33","213812","0.0-33.0","229","642","10","Female","false","false","false","false","""event"",""trial"",""time""
""fullscreenenter"",""5"",""23710""
","
","
","""event"",""trial"",""time""
""fullscreenenter"",""5"",""23710""
","
","","","","","","","","","","","","","","","","","","","","","",""
"d3-animate-choice","34","216786","0.0-34.0","229","642","10","Female","false","false","false","false","""event"",""trial"",""time""
""fullscreenenter"",""5"",""23710""
","
","
","""event"",""trial"",""time""
""fullscreenenter"",""5"",""23710""
","
","969","","49","","","3000","1","","","images/tutgreenplanet.jpg","images/tutalien1","images/tutalien2","null","images/tutalien2","images/t.png","NA","practice","null","","","",""
"d3-animate-choice","35","219101","0.0-35.0","229","642","10","Female","false","false","false","false","""event"",""trial"",""time""
""fullscreenenter"",""5"",""23710""
","
","
","""event"",""trial"",""time""
""fullscreenenter"",""5"",""23710""
","
","307.90000000596046","","49","","","3000","1","","","images/tutgreenplanet.jpg","images/tutalien1","images/tutalien2","null","images/tutalien2","images/t.png","NA","practice","null","","","",""
"d3-animate-choice","36","221400","0.0-36.0","229","642","10","Female","false","false","false","false","""event"",""trial"",""time""
""fullscreenenter"",""5"",""23710""
","
","
","""event"",""trial"",""time""
""fullscreenenter"",""5"",""23710""
","
","294.39999997615814","","49","","","3000","1","","","images/tutgreenplanet.jpg","images/tutalien1","images/tutalien2","null","images/tutalien2","images/nothing.png","NA","practice","null","","","",""
"d3-animate-choice","37","223754","0.0-37.0","229","642","10","Female","false","false","false","false","""event"",""trial"",""time""
""fullscreenenter"",""5"",""23710""
","
","
","""event"",""trial"",""time""
""fullscreenenter"",""5"",""23710""
","
","349.2999999821186","","49","","","3000","1","","","images/tutgreenplanet.jpg","images/tutalien1","images/tutalien2","null","images/tutalien2","images/nothing.png","NA","practice","null","","","",""
"d3-animate-choice","38","226073","0.0-38.0","229","642","10","Female","false","false","false","false","""event"",""trial"",""time""
""fullscreenenter"",""5"",""23710""
","
","
","""event"",""trial"",""time""
""fullscreenenter"",""5"",""23710""
","
","312.09999999403954","","48","","","3000","1","","","images/tutgreenplanet.jpg","images/tutalien1","images/tutalien2","null","images/tutalien1","images/nothing.png","NA","practice","null","","","",""
"d3-animate-choice","39","228395","0.0-39.0","229","642","10","Female","false","false","false","false","""event"",""trial"",""time""
""fullscreenenter"",""5"",""23710""
","
","
","""event"",""trial"",""time""
""fullscreenenter"",""5"",""23710""
","
","315.09999999403954","","49","","","3000","1","","","images/tutgreenplanet.jpg","images/tutalien1","images/tutalien2","null","images/tutalien2","images/t.png","NA","practice","null","","","",""
"d3-animate-choice","40","230804","0.0-40.0","229","642","10","Female","false","false","false","false","""event"",""trial"",""time""
""fullscreenenter"",""5"",""23710""
","
","
","""event"",""trial"",""time""
""fullscreenenter"",""5"",""23710""
","
","403.5","","49","","","3000","1","","","images/tutgreenplanet.jpg","images/tutalien1","images/tutalien2","null","images/tutalien2","images/t.png","NA","practice","null","","","",""
"d3-animate-choice","41","233300","0.0-41.0","229","642","10","Female","false","false","false","false","""event"",""trial"",""time""
""fullscreenenter"",""5"",""23710""
","
","
","""event"",""trial"",""time""
""fullscreenenter"",""5"",""23710""
","
","492.89999997615814","","49","","","3000","1","","","images/tutgreenplanet.jpg","images/tutalien1","images/tutalien2","null","images/tutalien2","images/t.png","NA","practice","null","","","",""
"d3-animate-choice","42","235692","0.0-42.0","229","642","10","Female","false","false","false","false","""event"",""trial"",""time""
""fullscreenenter"",""5"",""23710""
","
","
","""event"",""trial"",""time""
""fullscreenenter"",""5"",""23710""
","
","388.90000000596046","","49","","","3000","1","","","images/tutgreenplanet.jpg","images/tutalien1","images/tutalien2","null","images/tutalien2","images/t.png","NA","practice","null","","","",""
"d3-animate-choice","43","238095","0.0-43.0","229","642","10","Female","false","false","false","false","""event"",""trial"",""time""
""fullscreenenter"",""5"",""23710""
","
","
","""event"",""trial"",""time""
""fullscreenenter"",""5"",""23710""
","
","396.69999998807907","","49","","","3000","1","","","images/tutgreenplanet.jpg","images/tutalien1","images/tutalien2","null","images/tutalien2","images/t.png","NA","practice","null","","","",""
"d3-instructions","44","251154","0.0-44.0","229","642","10","Female","false","false","false","false","""event"",""trial"",""time""
""fullscreenenter"",""5"",""23710""
","
","
","""event"",""trial"",""time""
""fullscreenenter"",""5"",""23710""
","
","","","","","","","","","","","","","","","","","","","","","",""
"d3-instructions","45","258055","0.0-45.0","229","642","10","Female","false","false","false","false","""event"",""trial"",""time""
""fullscreenenter"",""5"",""23710""
","
","
","""event"",""trial"",""time""
""fullscreenenter"",""5"",""23710""
","
","","","","","","","","","","","","","","","","","","","","","",""
"d3-instructions","46","263403","0.0-46.0","229","642","10","Female","false","false","false","false","""event"",""trial"",""time""
""fullscreenenter"",""5"",""23710""
","
","
","""event"",""trial"",""time""
""fullscreenenter"",""5"",""23710""
","
","","","","","","","","","","","","","","","","","","","","","",""
"d3-instructions","47","280669","0.0-47.0","229","642","10","Female","false","false","false","false","""event"",""trial"",""time""
""fullscreenenter"",""5"",""23710""
","
","
","""event"",""trial"",""time""
""fullscreenenter"",""5"",""23710""
","
","","","","","","","","","","","","","","","","","","","","","",""
"d3-instructions","48","288766","0.0-48.0","229","642","10","Female","false","false","false","false","""event"",""trial"",""time""
""fullscreenenter"",""5"",""23710""
","
","
","""event"",""trial"",""time""
""fullscreenenter"",""5"",""23710""
","
","","","","","","","","","","","","","","","","","","","","","",""
"d3-instructions","49","299577","0.0-49.0","229","642","10","Female","false","false","false","false","""event"",""trial"",""time""
""fullscreenenter"",""5"",""23710""
","
","
","""event"",""trial"",""time""
""fullscreenenter"",""5"",""23710""
","
","","","","","","","","","","","","","","","","","","","","","",""
"d3-instructions","50","309275","0.0-50.0","229","642","10","Female","false","false","false","false","""event"",""trial"",""time""
""fullscreenenter"",""5"",""23710""
","
","
","""event"",""trial"",""time""
""fullscreenenter"",""5"",""23710""
","
","","","","","","","","","","","","","","","","","","","","","",""
"d3-instructions","51","312142","0.0-51.0","229","642","10","Female","false","false","false","false","""event"",""trial"",""time""
""fullscreenenter"",""5"",""23710""
","
","
","""event"",""trial"",""time""
""fullscreenenter"",""5"",""23710""
","
","","","","","","","","","","","","","","","","","","","","","",""
"d3-instructions","52","314907","0.0-52.0","229","642","10","Female","false","false","false","false","""event"",""trial"",""time""
""fullscreenenter"",""5"",""23710""
","
","
","""event"",""trial"",""time""
""fullscreenenter"",""5"",""23710""
","
","","","","","","","","","","","","","","","","","","","","","",""
"d3-instructions","53","326908","0.0-53.0","229","642","10","Female","false","false","false","false","""event"",""trial"",""time""
""fullscreenenter"",""5"",""23710""
","
","
","""event"",""trial"",""time""
""fullscreenenter"",""5"",""23710""
","
","","","","","","","","","","","","","","","","","","","","","",""
"d3-instructions","54","343818","0.0-54.0","229","642","10","Female","false","false","false","false","""event"",""trial"",""time""
""fullscreenenter"",""5"",""23710""
","
","
","""event"",""trial"",""time""
""fullscreenenter"",""5"",""23710""
","
","","","","","","","","","","","","","","","","","","","","","",""
"d3-instructions","55","354232","0.0-55.0","229","642","10","Female","false","false","false","false","""event"",""trial"",""time""
""fullscreenenter"",""5"",""23710""
","
","
","""event"",""trial"",""time""
""fullscreenenter"",""5"",""23710""
","
","","","","","","","","","","","","","","","","","","","","","",""
"d3-instructions","56","362606","0.0-56.0","229","642","10","Female","false","false","false","false","""event"",""trial"",""time""
""fullscreenenter"",""5"",""23710""
","
","
","""event"",""trial"",""time""
""fullscreenenter"",""5"",""23710""
","
","","","","","","","","","","","","","","","","","","","","","",""
"d3-instructions","57","372801","0.0-57.0","229","642","10","Female","false","false","false","false","""event"",""trial"",""time""
""fullscreenenter"",""5"",""23710""
","
","
","""event"",""trial"",""time""
""fullscreenenter"",""5"",""23710""
","
","","","","","","","","","","","","","","","","","","","","","",""
"d3-instructions","58","384096","0.0-58.0","229","642","10","Female","false","false","false","false","""event"",""trial"",""time""
""fullscreenenter"",""5"",""23710""
","
","
","""event"",""trial"",""time""
""fullscreenenter"",""5"",""23710""
","
","","","","","","","","","","","","","","","","","","","","","",""
"d3-instructions","59","390247","0.0-59.0","229","642","10","Female","false","false","false","false","""event"",""trial"",""time""
""fullscreenenter"",""5"",""23710""
","
","
","""event"",""trial"",""time""
""fullscreenenter"",""5"",""23710""
","
","","","","","","","","","","","","","","","","","","","","","",""
"d3-instructions","60","397180","0.0-60.0","229","642","10","Female","false","false","false","false","""event"",""trial"",""time""
""fullscreenenter"",""5"",""23710""
","
","
","""event"",""trial"",""time""
""fullscreenenter"",""5"",""23710""
","
","","","","","","","","","","","","","","","","","","","","","",""
"d3-animate-choice","61","400657","0.0-61.0-0.0","229","642","10","Female","false","false","false","false","""event"",""trial"",""time""
""fullscreenenter"",""5"",""23710""
","
","
","""event"",""trial"",""time""
""fullscreenenter"",""5"",""23710""
","
","1458.699999988079","","49","","","3000","1","","","images/earth.jpg","images/tutrocket1","images/tutrocket2","null","images/tutrocket2","","1","practice","null","1","","",""
"d3-animate-choice","62","403530","0.0-61.0-1.0","229","642","10","Female","false","false","false","false","""event"",""trial"",""time""
""fullscreenenter"",""5"",""23710""
","
","
","""event"",""trial"",""time""
""fullscreenenter"",""5"",""23710""
","
","866.3000000119209","","49","","","3000","1","","","images/tutgreenplanet.jpg","images/tutalien2","images/tutalien1","images/tutrocket2","images/tutalien1","images/t.png","2","practice","true","1","common","1","2022-02-05 19:05:11.982"
"two-step-fixation","63","404535","0.0-61.0-2.0","229","642","10","Female","false","false","false","false","""event"",""trial"",""time""
""fullscreenenter"",""5"",""23710""
","
","
","""event"",""trial"",""time""
""fullscreenenter"",""5"",""23710""
","
","","images/earth.jpg","","","","","","","","","","","","","","fixation","","","","","",""
"d3-animate-choice","64","407344","0.0-61.0-0.1","229","642","10","Female","false","false","false","false","""event"",""trial"",""time""
""fullscreenenter"",""5"",""23710""
","
","
","""event"",""trial"",""time""
""fullscreenenter"",""5"",""23710""
","
","804","","48","","","3000","1","","","images/earth.jpg","images/tutrocket1","images/tutrocket2","null","images/tutrocket1","","1","practice","null","2","","",""
"d3-animate-choice","65","410246","0.0-61.0-1.1","229","642","10","Female","false","false","false","false","""event"",""trial"",""time""
""fullscreenenter"",""5"",""23710""
","
","
","""event"",""trial"",""time""
""fullscreenenter"",""5"",""23710""
","
","894.1999999880791","","48","","","3000","1","","","images/tutyellowplanet.jpg","images/tutalien4","images/tutalien3","images/tutrocket1","images/tutalien4","images/nothing.png","2","practice","true","2","common","0","2022-02-05 19:05:18.698"
"two-step-fixation","66","411251","0.0-61.0-2.1","229","642","10","Female","false","false","false","false","""event"",""trial"",""time""
""fullscreenenter"",""5"",""23710""
","
","
","""event"",""trial"",""time""
""fullscreenenter"",""5"",""23710""
","
","","images/earth.jpg","","","","","","","","","","","","","","fixation","","","","","",""
"d3-animate-choice","67","414426","0.0-61.0-0.2","229","642","10","Female","false","false","false","false","""event"",""trial"",""time""
""fullscreenenter"",""5"",""23710""
","
","
","""event"",""trial"",""time""
""fullscreenenter"",""5"",""23710""
","
","1167.4000000059605","","49","","","3000","1","","","images/earth.jpg","images/tutrocket1","images/tutrocket2","null","images/tutrocket2","","1","practice","null","1","","",""
"d3-animate-choice","68","416933","0.0-61.0-1.2","229","642","10","Female","false","false","false","false","""event"",""trial"",""time""
""fullscreenenter"",""5"",""23710""
","
","
","""event"",""trial"",""time""
""fullscreenenter"",""5"",""23710""
","
","500.69999998807907","","49","","","3000","1","","","images/tutgreenplanet.jpg","images/tutalien2","images/tutalien1","images/tutrocket2","images/tutalien1","images/nothing.png","2","practice","true","1","common","0","2022-02-05 19:05:25.385"
"two-step-fixation","69","417938","0.0-61.0-2.2","229","642","10","Female","false","false","false","false","""event"",""trial"",""time""
""fullscreenenter"",""5"",""23710""
","
","
","""event"",""trial"",""time""
""fullscreenenter"",""5"",""23710""
","
","","images/earth.jpg","","","","","","","","","","","","","","fixation","","","","","",""
"d3-animate-choice","70","420463","0.0-61.0-0.3","229","642","10","Female","false","false","false","false","""event"",""trial"",""time""
""fullscreenenter"",""5"",""23710""
","
","
","""event"",""trial"",""time""
""fullscreenenter"",""5"",""23710""
","
","516","","49","","","3000","1","","","images/earth.jpg","images/tutrocket1","images/tutrocket2","null","images/tutrocket2","","1","practice","null","1","","",""
"d3-animate-choice","71","424167","0.0-61.0-1.3","229","642","10","Female","false","false","false","false","""event"",""trial"",""time""
""fullscreenenter"",""5"",""23710""
","
","
","""event"",""trial"",""time""
""fullscreenenter"",""5"",""23710""
","
","1694.199999988079","","48","","","3000","1","","","images/tutyellowplanet.jpg","images/tutalien4","images/tutalien3","images/tutrocket2","images/tutalien4","images/t.png","2","practice","false","2","rare","1","2022-02-05 19:05:32.619"
"two-step-fixation","72","425171","0.0-61.0-2.3","229","642","10","Female","false","false","false","false","""event"",""trial"",""time""
""fullscreenenter"",""5"",""23710""
","
","
","""event"",""trial"",""time""
""fullscreenenter"",""5"",""23710""
","
","","images/earth.jpg","","","","","","","","","","","","","","fixation","","","","","",""
"d3-animate-choice","73","427848","0.0-61.0-0.4","229","642","10","Female","false","false","false","false","""event"",""trial"",""time""
""fullscreenenter"",""5"",""23710""
","
","
","""event"",""trial"",""time""
""fullscreenenter"",""5"",""23710""
","
","672","","49","","","3000","1","","","images/earth.jpg","images/tutrocket1","images/tutrocket2","null","images/tutrocket2","","1","practice","null","1","","",""
"d3-animate-choice","74","431023","0.0-61.0-1.4","229","642","10","Female","false","false","false","false","""event"",""trial"",""time""
""fullscreenenter"",""5"",""23710""
","
","
","""event"",""trial"",""time""
""fullscreenenter"",""5"",""23710""
","
","1167.300000011921","","48","","","3000","1","","","images/tutyellowplanet.jpg","images/tutalien4","images/tutalien3","images/tutrocket2","images/tutalien4","images/nothing.png","2","practice","false","2","rare","0","2022-02-05 19:05:39.476"
"two-step-fixation","75","432028","0.0-61.0-2.4","229","642","10","Female","false","false","false","false","""event"",""trial"",""time""
""fullscreenenter"",""5"",""23710""
","
","
","""event"",""trial"",""time""
""fullscreenenter"",""5"",""23710""
","
","","images/earth.jpg","","","","","","","","","","","","","","fixation","","","","","",""
"d3-animate-choice","76","434826","0.0-61.0-0.5","229","642","10","Female","false","false","false","false","""event"",""trial"",""time""
""fullscreenenter"",""5"",""23710""
","
","
","""event"",""trial"",""time""
""fullscreenenter"",""5"",""23710""
","
","788.5","","49","","","3000","1","","","images/earth.jpg","images/tutrocket1","images/tutrocket2","null","images/tutrocket2","","1","practice","null","1","","",""
"d3-animate-choice","77","437394","0.0-61.0-1.5","229","642","10","Female","false","false","false","false","""event"",""trial"",""time""
""fullscreenenter"",""5"",""23710""
","
","
","""event"",""trial"",""time""
""fullscreenenter"",""5"",""23710""
","
","563.7000000178814","","49","","","3000","1","","","images/tutgreenplanet.jpg","images/tutalien2","images/tutalien1","images/tutrocket2","images/tutalien1","images/nothing.png","2","practice","true","1","common","0","2022-02-05 19:05:45.846"
"two-step-fixation","78","438400","0.0-61.0-2.5","229","642","10","Female","false","false","false","false","""event"",""trial"",""time""
""fullscreenenter"",""5"",""23710""
","
","
","""event"",""trial"",""time""
""fullscreenenter"",""5"",""23710""
","
","","images/earth.jpg","","","","","","","","","","","","","","fixation","","","","","",""
"d3-animate-choice","79","440938","0.0-61.0-0.6","229","642","10","Female","false","false","false","false","""event"",""trial"",""time""
""fullscreenenter"",""5"",""23710""
","
","
","""event"",""trial"",""time""
""fullscreenenter"",""5"",""23710""
","
","532.9000000059605","","48","","","3000","1","","","images/earth.jpg","images/tutrocket1","images/tutrocket2","null","images/tutrocket1","","1","practice","null","2","","",""
"d3-animate-choice","80","444143","0.0-61.0-1.6","229","642","10","Female","false","false","false","false","""event"",""trial"",""time""
""fullscreenenter"",""5"",""23710""
","
","
","""event"",""trial"",""time""
""fullscreenenter"",""5"",""23710""
","
","1196.5","","49","","","3000","1","","","images/tutgreenplanet.jpg","images/tutalien2","images/tutalien1","images/tutrocket1","images/tutalien1","images/nothing.png","2","practice","false","1","rare","0","2022-02-05 19:05:52.595"
"two-step-fixation","81","445148","0.0-61.0-2.6","229","642","10","Female","false","false","false","false","""event"",""trial"",""time""
""fullscreenenter"",""5"",""23710""
","
","
","""event"",""trial"",""time""
""fullscreenenter"",""5"",""23710""
","
","","images/earth.jpg","","","","","","","","","","","","","","fixation","","","","","",""
"d3-animate-choice","82","447684","0.0-61.0-0.7","229","642","10","Female","false","false","false","false","""event"",""trial"",""time""
""fullscreenenter"",""5"",""23710""
","
","
","""event"",""trial"",""time""
""fullscreenenter"",""5"",""23710""
","
","529.9000000059605","","49","","","3000","1","","","images/earth.jpg","images/tutrocket1","images/tutrocket2","null","images/tutrocket2","","1","practice","null","1","","",""
"d3-animate-choice","83","450644","0.0-61.0-1.7","229","642","10","Female","false","false","false","false","""event"",""trial"",""time""
""fullscreenenter"",""5"",""23710""
","
","
","""event"",""trial"",""time""
""fullscreenenter"",""5"",""23710""
","
","952","","49","","","3000","1","","","images/tutgreenplanet.jpg","images/tutalien2","images/tutalien1","images/tutrocket2","images/tutalien1","images/t.png","2","practice","true","1","common","1","2022-02-05 19:05:59.096"
"two-step-fixation","84","451648","0.0-61.0-2.7","229","642","10","Female","false","false","false","false","""event"",""trial"",""time""
""fullscreenenter"",""5"",""23710""
","
","
","""event"",""trial"",""time""
""fullscreenenter"",""5"",""23710""
","
","","images/earth.jpg","","","","","","","","","","","","","","fixation","","","","","",""
"d3-animate-choice","85","454377","0.0-61.0-0.8","229","642","10","Female","false","false","false","false","""event"",""trial"",""time""
""fullscreenenter"",""5"",""23710""
","
","
","""event"",""trial"",""time""
""fullscreenenter"",""5"",""23710""
","
","723.9000000059605","","48","","","3000","1","","","images/earth.jpg","images/tutrocket1","images/tutrocket2","null","images/tutrocket1","","1","practice","null","2","","",""
"d3-animate-choice","86","457607","0.0-61.0-1.8","229","642","10","Female","false","false","false","false","""event"",""trial"",""time""
""fullscreenenter"",""5"",""23710""
","
","
","""event"",""trial"",""time""
""fullscreenenter"",""5"",""23710""
","
","1225.800000011921","","48","","","3000","1","","","images/tutgreenplanet.jpg","images/tutalien2","images/tutalien1","images/tutrocket1","images/tutalien2","images/t.png","2","practice","false","2","rare","1","2022-02-05 19:06:06.059"
"two-step-fixation","87","458613","0.0-61.0-2.8","229","642","10","Female","false","false","false","false","""event"",""trial"",""time""
""fullscreenenter"",""5"",""23710""
","
","
","""event"",""trial"",""time""
""fullscreenenter"",""5"",""23710""
","
","","images/earth.jpg","","","","","","","","","","","","","","fixation","","","","","",""
"d3-animate-choice","88","461099","0.0-61.0-0.9","229","642","10","Female","false","false","false","false","""event"",""trial"",""time""
""fullscreenenter"",""5"",""23710""
","
","
","""event"",""trial"",""time""
""fullscreenenter"",""5"",""23710""
","
","477.7999999821186","","49","","","3000","1","","","images/earth.jpg","images/tutrocket1","images/tutrocket2","null","images/tutrocket2","","1","practice","null","1","","",""
"d3-animate-choice","89","464135","0.0-61.0-1.9","229","642","10","Female","false","false","false","false","""event"",""trial"",""time""
""fullscreenenter"",""5"",""23710""
","
","
","""event"",""trial"",""time""
""fullscreenenter"",""5"",""23710""
","
","1029.4000000059605","","49","","","3000","1","","","images/tutyellowplanet.jpg","images/tutalien4","images/tutalien3","images/tutrocket2","images/tutalien3","images/nothing.png","2","practice","false","1","rare","0","2022-02-05 19:06:12.587"
"two-step-fixation","90","465139","0.0-61.0-2.9","229","642","10","Female","false","false","false","false","""event"",""trial"",""time""
""fullscreenenter"",""5"",""23710""
","
","
","""event"",""trial"",""time""
""fullscreenenter"",""5"",""23710""
","
","","images/earth.jpg","","","","","","","","","","","","","","fixation","","","","","",""
"d3-animate-choice","91","468430","0.0-61.0-0.10","229","642","10","Female","false","false","false","false","""event"",""trial"",""time""
""fullscreenenter"",""5"",""23710""
","
","
","""event"",""trial"",""time""
""fullscreenenter"",""5"",""23710""
","
","1281.300000011921","","48","","","3000","1","","","images/earth.jpg","images/tutrocket1","images/tutrocket2","null","images/tutrocket1","","1","practice","null","2","","",""
"d3-animate-choice","92","471414","0.0-61.0-1.10","229","642","10","Female","false","false","false","false","""event"",""trial"",""time""
""fullscreenenter"",""5"",""23710""
","
","
","""event"",""trial"",""time""
""fullscreenenter"",""5"",""23710""
","
","975.8000000119209","","48","","","3000","1","","","images/tutyellowplanet.jpg","images/tutalien4","images/tutalien3","images/tutrocket1","images/tutalien4","images/t.png","2","practice","true","2","common","1","2022-02-05 19:06:19.866"
"two-step-fixation","93","472418","0.0-61.0-2.10","229","642","10","Female","false","false","false","false","""event"",""trial"",""time""
""fullscreenenter"",""5"",""23710""
","
","
","""event"",""trial"",""time""
""fullscreenenter"",""5"",""23710""
","
","","images/earth.jpg","","","","","","","","","","","","","","fixation","","","","","",""
"d3-animate-choice","94","475251","0.0-61.0-0.11","229","642","10","Female","false","false","false","false","""event"",""trial"",""time""
""fullscreenenter"",""5"",""23710""
","
","
","""event"",""trial"",""time""
""fullscreenenter"",""5"",""23710""
","
","824.0999999940395","","48","","","3000","1","","","images/earth.jpg","images/tutrocket1","images/tutrocket2","null","images/tutrocket1","","1","practice","null","2","","",""
"d3-animate-choice","95","478044","0.0-61.0-1.11","229","642","10","Female","false","false","false","false","""event"",""trial"",""time""
""fullscreenenter"",""5"",""23710""
","
","
","""event"",""trial"",""time""
""fullscreenenter"",""5"",""23710""
","
","785.9000000059605","","48","","","3000","1","","","images/tutyellowplanet.jpg","images/tutalien4","images/tutalien3","images/tutrocket1","images/tutalien4","images/t.png","2","practice","true","2","common","1","2022-02-05 19:06:26.496"
"two-step-fixation","96","479048","0.0-61.0-2.11","229","642","10","Female","false","false","false","false","""event"",""trial"",""time""
""fullscreenenter"",""5"",""23710""
","
","
","""event"",""trial"",""time""
""fullscreenenter"",""5"",""23710""
","
","","images/earth.jpg","","","","","","","","","","","","","","fixation","","","","","",""
"d3-animate-choice","97","481660","0.0-61.0-0.12","229","642","10","Female","false","false","false","false","""event"",""trial"",""time""
""fullscreenenter"",""5"",""23710""
","
","
","""event"",""trial"",""time""
""fullscreenenter"",""5"",""23710""
","
","606.6999999880791","","48","","","3000","1","","","images/earth.jpg","images/tutrocket1","images/tutrocket2","null","images/tutrocket1","","1","practice","null","2","","",""
"d3-animate-choice","98","484545","0.0-61.0-1.12","229","642","10","Female","false","false","false","false","""event"",""trial"",""time""
""fullscreenenter"",""5"",""23710""
","
","
","""event"",""trial"",""time""
""fullscreenenter"",""5"",""23710""
","
","880.6999999880791","","48","","","3000","1","","","images/tutyellowplanet.jpg","images/tutalien4","images/tutalien3","images/tutrocket1","images/tutalien4","images/t.png","2","practice","true","2","common","1","2022-02-05 19:06:32.997"
"two-step-fixation","99","485549","0.0-61.0-2.12","229","642","10","Female","false","false","false","false","""event"",""trial"",""time""
""fullscreenenter"",""5"",""23710""
","
","
","""event"",""trial"",""time""
""fullscreenenter"",""5"",""23710""
","
","","images/earth.jpg","","","","","","","","","","","","","","fixation","","","","","",""
"d3-animate-choice","100","488342","0.0-61.0-0.13","229","642","10","Female","false","false","false","false","""event"",""trial"",""time""
""fullscreenenter"",""5"",""23710""
","
","
","""event"",""trial"",""time""
""fullscreenenter"",""5"",""23710""
","
","788","","48","","","3000","1","","","images/earth.jpg","images/tutrocket1","images/tutrocket2","null","images/tutrocket1","","1","practice","null","2","","",""
"d3-animate-choice","101","491157","0.0-61.0-1.13","229","642","10","Female","false","false","false","false","""event"",""trial"",""time""
""fullscreenenter"",""5"",""23710""
","
","
","""event"",""trial"",""time""
""fullscreenenter"",""5"",""23710""
","
","807.1000000238419","","48","","","3000","1","","","images/tutyellowplanet.jpg","images/tutalien4","images/tutalien3","images/tutrocket1","images/tutalien4","images/t.png","2","practice","true","2","common","1","2022-02-05 19:06:39.609"
"two-step-fixation","102","492161","0.0-61.0-2.13","229","642","10","Female","false","false","false","false","""event"",""trial"",""time""
""fullscreenenter"",""5"",""23710""
","
","
","""event"",""trial"",""time""
""fullscreenenter"",""5"",""23710""
","
","","images/earth.jpg","","","","","","","","","","","","","","fixation","","","","","",""
"d3-animate-choice","103","494713","0.0-61.0-0.14","229","642","10","Female","false","false","false","false","""event"",""trial"",""time""
""fullscreenenter"",""5"",""23710""
","
","
","""event"",""trial"",""time""
""fullscreenenter"",""5"",""23710""
","
","546.8999999761581","","48","","","3000","1","","","images/earth.jpg","images/tutrocket1","images/tutrocket2","null","images/tutrocket1","","1","practice","null","2","","",""
"d3-animate-choice","104","497464","0.0-61.0-1.14","229","642","10","Female","false","false","false","false","""event"",""trial"",""time""
""fullscreenenter"",""5"",""23710""
","
","
","""event"",""trial"",""time""
""fullscreenenter"",""5"",""23710""
","
","746.0999999940395","","48","","","3000","1","","","images/tutyellowplanet.jpg","images/tutalien4","images/tutalien3","images/tutrocket1","images/tutalien4","images/nothing.png","2","practice","true","2","common","0","2022-02-05 19:06:45.916"
"two-step-fixation","105","498470","0.0-61.0-2.14","229","642","10","Female","false","false","false","false","""event"",""trial"",""time""
""fullscreenenter"",""5"",""23710""
","
","
","""event"",""trial"",""time""
""fullscreenenter"",""5"",""23710""
","
","","images/earth.jpg","","","","","","","","","","","","","","fixation","","","","","",""
"d3-animate-choice","106","501294","0.0-61.0-0.15","229","642","10","Female","false","false","false","false","""event"",""trial"",""time""
""fullscreenenter"",""5"",""23710""
","
","
","""event"",""trial"",""time""
""fullscreenenter"",""5"",""23710""
","
","819.5","","48","","","3000","1","","","images/earth.jpg","images/tutrocket1","images/tutrocket2","null","images/tutrocket1","","1","practice","null","2","","",""
"d3-animate-choice","107","504006","0.0-61.0-1.15","229","642","10","Female","false","false","false","false","""event"",""trial"",""time""
""fullscreenenter"",""5"",""23710""
","
","
","""event"",""trial"",""time""
""fullscreenenter"",""5"",""23710""
","
","706.2999999821186","","48","","","3000","1","","","images/tutyellowplanet.jpg","images/tutalien4","images/tutalien3","images/tutrocket1","images/tutalien4","images/t.png","2","practice","true","2","common","1","2022-02-05 19:06:52.458"
"two-step-fixation","108","505010","0.0-61.0-2.15","229","642","10","Female","false","false","false","false","""event"",""trial"",""time""
""fullscreenenter"",""5"",""23710""
","
","
","""event"",""trial"",""time""
""fullscreenenter"",""5"",""23710""
","
","","images/earth.jpg","","","","","","","","","","","","","","fixation","","","","","",""
"d3-animate-choice","109","507428","0.0-61.0-0.16","229","642","10","Female","false","false","false","false","""event"",""trial"",""time""
""fullscreenenter"",""5"",""23710""
","
","
","""event"",""trial"",""time""
""fullscreenenter"",""5"",""23710""
","
","411","","48","","","3000","1","","","images/earth.jpg","images/tutrocket1","images/tutrocket2","null","images/tutrocket1","","1","practice","null","2","","",""
"d3-animate-choice","110","510180","0.0-61.0-1.16","229","642","10","Female","false","false","false","false","""event"",""trial"",""time""
""fullscreenenter"",""5"",""23710""
","
","
","""event"",""trial"",""time""
""fullscreenenter"",""5"",""23710""
","
","746.6999999880791","","48","","","3000","1","","","images/tutyellowplanet.jpg","images/tutalien4","images/tutalien3","images/tutrocket1","images/tutalien4","images/t.png","2","practice","true","2","common","1","2022-02-05 19:06:58.632"
"two-step-fixation","111","511184","0.0-61.0-2.16","229","642","10","Female","false","false","false","false","""event"",""trial"",""time""
""fullscreenenter"",""5"",""23710""
","
","
","""event"",""trial"",""time""
""fullscreenenter"",""5"",""23710""
","
","","images/earth.jpg","","","","","","","","","","","","","","fixation","","","","","",""
"d3-animate-choice","112","513865","0.0-61.0-0.17","229","642","10","Female","false","false","false","false","""event"",""trial"",""time""
""fullscreenenter"",""5"",""23710""
","
","
","""event"",""trial"",""time""
""fullscreenenter"",""5"",""23710""
","
","675.5","","48","","","3000","1","","","images/earth.jpg","images/tutrocket1","images/tutrocket2","null","images/tutrocket1","","1","practice","null","2","","",""
"d3-animate-choice","113","516534","0.0-61.0-1.17","229","642","10","Female","false","false","false","false","""event"",""trial"",""time""
""fullscreenenter"",""5"",""23710""
","
","
","""event"",""trial"",""time""
""fullscreenenter"",""5"",""23710""
","
","662.5","","48","","","3000","1","","","images/tutyellowplanet.jpg","images/tutalien4","images/tutalien3","images/tutrocket1","images/tutalien4","images/nothing.png","2","practice","true","2","common","0","2022-02-05 19:07:04.986"
"two-step-fixation","114","517540","0.0-61.0-2.17","229","642","10","Female","false","false","false","false","""event"",""trial"",""time""
""fullscreenenter"",""5"",""23710""
","
","
","""event"",""trial"",""time""
""fullscreenenter"",""5"",""23710""
","
","","images/earth.jpg","","","","","","","","","","","","","","fixation","","","","","",""
"d3-animate-choice","115","520042","0.0-61.0-0.18","229","642","10","Female","false","false","false","false","""event"",""trial"",""time""
""fullscreenenter"",""5"",""23710""
","
","
","""event"",""trial"",""time""
""fullscreenenter"",""5"",""23710""
","
","493.09999999403954","","48","","","3000","1","1623.5999999940395","48","images/earth.jpg","images/tutrocket1","images/tutrocket2","null","images/tutrocket1","","1","practice","null","2","","",""
"d3-animate-choice","116","522800","0.0-61.0-1.18","229","642","10","Female","false","false","false","false","""event"",""trial"",""time""
""fullscreenenter"",""5"",""23710""
","
","
","""event"",""trial"",""time""
""fullscreenenter"",""5"",""23710""
","
","752","","48","","","3000","1","","","images/tutyellowplanet.jpg","images/tutalien4","images/tutalien3","images/tutrocket1","images/tutalien4","images/nothing.png","2","practice","true","2","common","0","2022-02-05 19:07:11.252"
"two-step-fixation","117","523804","0.0-61.0-2.18","229","642","10","Female","false","false","false","false","""event"",""trial"",""time""
""fullscreenenter"",""5"",""23710""
","
","
","""event"",""trial"",""time""
""fullscreenenter"",""5"",""23710""
","
","","images/earth.jpg","","","","","","","","","","","","","","fixation","","","","","",""
"d3-animate-choice","118","526184","0.0-61.0-0.19","229","642","10","Female","false","false","false","false","""event"",""trial"",""time""
""fullscreenenter"",""5"",""23710""
","
","
","""event"",""trial"",""time""
""fullscreenenter"",""5"",""23710""
","
","373.59999999403954","","48","","","3000","1","","","images/earth.jpg","images/tutrocket1","images/tutrocket2","null","images/tutrocket1","","1","practice","null","2","","",""
"d3-animate-choice","119","528622","0.0-61.0-1.19","229","642","10","Female","false","false","false","false","""event"",""trial"",""time""
""fullscreenenter"",""5"",""23710""
","
","
","""event"",""trial"",""time""
""fullscreenenter"",""5"",""23710""
","
","432.5","","49","","","3000","1","","","images/tutyellowplanet.jpg","images/tutalien4","images/tutalien3","images/tutrocket1","images/tutalien3","images/nothing.png","2","practice","true","1","common","0","2022-02-05 19:07:17.074"
"two-step-fixation","120","529626","0.0-61.0-2.19","229","642","10","Female","false","false","false","false","""event"",""trial"",""time""
""fullscreenenter"",""5"",""23710""
","
","
","""event"",""trial"",""time""
""fullscreenenter"",""5"",""23710""
","
","","images/earth.jpg","","","","","","","","","","","","","","fixation","","","","","",""
"d3-instructions","121","536952","0.0-62.0","229","642","10","Female","false","false","false","false","""event"",""trial"",""time""
""fullscreenenter"",""5"",""23710""
","
","
","""event"",""trial"",""time""
""fullscreenenter"",""5"",""23710""
","
","","","","","","","","","","","","","","","","","","","","","",""
"audio-keyboard-response","122","542995","0.0-63.0","229","642","10","Female","false","false","false","false","""event"",""trial"",""time""
""fullscreenenter"",""5"",""23710""
","
","
","""event"",""trial"",""time""
""fullscreenenter"",""5"",""23710""
","
","6043","audio/instructions/treasure_feedback.wav","32","","","","","","","","","","","","","","","","","","",""
"d3-instructions","123","562320","0.0-64.0","229","642","10","Female","false","false","false","false","""event"",""trial"",""time""
""fullscreenenter"",""5"",""23710""
","
","
","""event"",""trial"",""time""
""fullscreenenter"",""5"",""23710""
","
","","","","","","","","","","","","","","","","","","","","","",""
"d3-instructions","124","576866","0.0-65.0","229","642","10","Female","false","false","false","false","""event"",""trial"",""time""
""fullscreenenter"",""5"",""23710""
","
","
","""event"",""trial"",""time""
""fullscreenenter"",""5"",""23710""
","
","","","","","","","","","","","","","","","","","","","","","",""
"d3-instructions","125","601977","0.0-66.0","229","642","10","Female","false","false","false","false","""event"",""trial"",""time""
""fullscreenenter"",""5"",""23710""
","
","
","""event"",""trial"",""time""
""fullscreenenter"",""5"",""23710""
","
","","","","","","","","","","","","","","","","","","","","","",""
"d3-instructions","126","618128","0.0-67.0","229","642","10","Female","false","false","false","false","""event"",""trial"",""time""
""fullscreenenter"",""5"",""23710""
","
","
","""event"",""trial"",""time""
""fullscreenenter"",""5"",""23710""
","
","","","","","","","","","","","","","","","","","","","","","",""
"d3-instructions","127","626807","0.0-68.0","229","642","10","Female","false","false","false","false","""event"",""trial"",""time""
""fullscreenenter"",""5"",""23710""
","
","
","""event"",""trial"",""time""
""fullscreenenter"",""5"",""23710""
","
","","","","","","","","","","","","","","","","","","","","","",""
"instructions-quiz","128","632182","0.0-69.0","229","642","10","Female","false","false","false","false","""event"",""trial"",""time""
""fullscreenenter"",""5"",""23710""
","
","
","""event"",""trial"",""time""
""fullscreenenter"",""5"",""23710""
","
","5369.899999976158","audio/quiz/Q1_Prompt.wav","","1","","","","","","","","","","","","","","","","","",""
"audio-keyboard-response","129","641353","0.0-70.0","229","642","10","Female","false","false","false","false","""event"",""trial"",""time""
""fullscreenenter"",""5"",""23710""
","
","
","""event"",""trial"",""time""
""fullscreenenter"",""5"",""23710""
","
","null","audio/quiz/Q1_Correct.wav","null","","","","","","","","","","","","","","","","","","",""
"instructions-quiz","130","650442","0.0-71.0","229","642","10","Female","false","false","false","false","""event"",""trial"",""time""
""fullscreenenter"",""5"",""23710""
","
","
","""event"",""trial"",""time""
""fullscreenenter"",""5"",""23710""
","
","9085.299999982119","audio/quiz/Q2_Prompt.wav","","0","","","","","","","","","","","","","","","","","",""
"audio-keyboard-response","131","662037","0.0-72.0","229","642","10","Female","false","false","false","false","""event"",""trial"",""time""
""fullscreenenter"",""5"",""23710""
","
","
","""event"",""trial"",""time""
""fullscreenenter"",""5"",""23710""
","
","11593","audio/quiz/Q2_Correct.wav","32","","","","","","","","","","","","","","","","","","",""
"instructions-quiz","132","665904","0.0-73.0","229","642","10","Female","false","false","false","false","""event"",""trial"",""time""
""fullscreenenter"",""5"",""23710""
","
","
","""event"",""trial"",""time""
""fullscreenenter"",""5"",""23710""
","
","3863","audio/quiz/Q3_Prompt.wav","","1","","","","","","","","","","","","","","","","","",""
"audio-keyboard-response","133","671707","0.0-74.0","229","642","10","Female","false","false","false","false","""event"",""trial"",""time""
""fullscreenenter"",""5"",""23710""
","
","
","""event"",""trial"",""time""
""fullscreenenter"",""5"",""23710""
","
","null","audio/quiz/Q3_Correct.wav","null","","","","","","","","","","","","","","","","","","",""
"d3-instructions","134","686366","0.0-75.0","229","642","10","Female","false","false","false","false","""event"",""trial"",""time""
""fullscreenenter"",""5"",""23710""
","
","
","""event"",""trial"",""time""
""fullscreenenter"",""5"",""23710""
","
","","","","","","","","","","","","","","","","","","","","","",""
"d3-animate-choice","135","689255","0.0-76.0-0.0","229","642","10","Female","false","false","false","false","""event"",""trial"",""time""
""fullscreenenter"",""5"",""23710""
","
","
","""event"",""trial"",""time""
""fullscreenenter"",""5"",""23710""
","
","879.1000000238419","","49","","","3000","1","","","images/earth.jpg","images/rocket1","images/rocket2","null","images/rocket2","","1","real","null","1","","",""
"d3-animate-choice","136","692245","0.0-76.0-1.0","229","642","10","Female","false","false","false","false","""event"",""trial"",""time""
""fullscreenenter"",""5"",""23710""
","
","
","""event"",""trial"",""time""
""fullscreenenter"",""5"",""23710""
","
","982.7999999821186","","49","","","3000","1","","","images/redplanet1.jpg","images/alien2","images/alien1","images/rocket2","images/alien1","images/nothing.png","2","real","true","1","common","0","2022-02-05 19:10:00.697"
"two-step-fixation","137","693254","0.0-76.0-2.0","229","642","10","Female","false","false","false","false","""event"",""trial"",""time""
""fullscreenenter"",""5"",""23710""
","
","
","""event"",""trial"",""time""
""fullscreenenter"",""5"",""23710""
","
","","images/earth.jpg","","","","","","","","","","","","","","fixation","","","","","",""
"d3-animate-choice","138","695905","0.0-76.0-0.1","229","642","10","Female","false","false","false","false","""event"",""trial"",""time""
""fullscreenenter"",""5"",""23710""
","
","
","""event"",""trial"",""time""
""fullscreenenter"",""5"",""23710""
","
","642.3999999761581","","49","","","3000","1","","","images/earth.jpg","images/rocket1","images/rocket2","null","images/rocket2","","1","real","null","1","","",""
"d3-animate-choice","139","698573","0.0-76.0-1.1","229","642","10","Female","false","false","false","false","""event"",""trial"",""time""
""fullscreenenter"",""5"",""23710""
","
","
","""event"",""trial"",""time""
""fullscreenenter"",""5"",""23710""
","
","661.5999999940395","","48","","","3000","1","","","images/redplanet1.jpg","images/alien2","images/alien1","images/rocket2","images/alien2","images/t.png","2","real","true","2","common","1","2022-02-05 19:10:07.025"
"two-step-fixation","140","699578","0.0-76.0-2.1","229","642","10","Female","false","false","false","false","""event"",""trial"",""time""
""fullscreenenter"",""5"",""23710""
","
","
","""event"",""trial"",""time""
""fullscreenenter"",""5"",""23710""
","
","","images/earth.jpg","","","","","","","","","","","","","","fixation","","","","","",""
"d3-animate-choice","141","702277","0.0-76.0-0.2","229","642","10","Female","false","false","false","false","""event"",""trial"",""time""
""fullscreenenter"",""5"",""23710""
","
","
","""event"",""trial"",""time""
""fullscreenenter"",""5"",""23710""
","
","692.2000000178814","","49","","","3000","1","","","images/earth.jpg","images/rocket1","images/rocket2","null","images/rocket2","","1","real","null","1","","",""
"d3-animate-choice","142","706077","0.0-76.0-1.2","229","642","10","Female","false","false","false","false","""event"",""trial"",""time""
""fullscreenenter"",""5"",""23710""
","
","
","""event"",""trial"",""time""
""fullscreenenter"",""5"",""23710""
","
","1795","","48","","","3000","1","","","images/purpleplanet.jpg","images/alien4","images/alien3","images/rocket2","images/alien4","images/nothing.png","2","real","false","2","rare","0","2022-02-05 19:10:14.529"
"two-step-fixation","143","707082","0.0-76.0-2.2","229","642","10","Female","false","false","false","false","""event"",""trial"",""time""
""fullscreenenter"",""5"",""23710""
","
","
","""event"",""trial"",""time""
""fullscreenenter"",""5"",""23710""
","
","","images/earth.jpg","","","","","","","","","","","","","","fixation","","","","","",""
"d3-animate-choice","144","710366","0.0-76.0-0.3","229","642","10","Female","false","false","false","false","""event"",""trial"",""time""
""fullscreenenter"",""5"",""23710""
","
","
","""event"",""trial"",""time""
""fullscreenenter"",""5"",""23710""
","
","1279.0999999940395","","49","","","3000","1","","","images/earth.jpg","images/rocket1","images/rocket2","null","images/rocket2","","1","real","null","1","","",""
"d3-animate-choice","145","713788","0.0-76.0-1.3","229","642","10","Female","false","false","false","false","""event"",""trial"",""time""
""fullscreenenter"",""5"",""23710""
","
","
","""event"",""trial"",""time""
""fullscreenenter"",""5"",""23710""
","
","1414.5","","49","","","3000","1","","","images/purpleplanet.jpg","images/alien4","images/alien3","images/rocket2","images/alien3","images/nothing.png","2","real","false","1","rare","0","2022-02-05 19:10:22.240"
"two-step-fixation","146","714791","0.0-76.0-2.3","229","642","10","Female","false","false","false","false","""event"",""trial"",""time""
""fullscreenenter"",""5"",""23710""
","
","
","""event"",""trial"",""time""
""fullscreenenter"",""5"",""23710""
","
","","images/earth.jpg","","","","","","","","","","","","","","fixation","","","","","",""
"d3-animate-choice","147","717334","0.0-76.0-0.4","229","642","10","Female","false","false","false","false","""event"",""trial"",""time""
""fullscreenenter"",""5"",""23710""
","
","
","""event"",""trial"",""time""
""fullscreenenter"",""5"",""23710""
","
","539","","48","","","3000","1","","","images/earth.jpg","images/rocket1","images/rocket2","null","images/rocket1","","1","real","null","2","","",""
"d3-animate-choice","148","720541","0.0-76.0-1.4","229","642","10","Female","false","false","false","false","""event"",""trial"",""time""
""fullscreenenter"",""5"",""23710""
","
","
","""event"",""trial"",""time""
""fullscreenenter"",""5"",""23710""
","
","1202.300000011921","","49","","","3000","1","","","images/purpleplanet.jpg","images/alien4","images/alien3","images/rocket1","images/alien3","images/nothing.png","2","real","true","1","common","0","2022-02-05 19:10:28.993"
"two-step-fixation","149","721546","0.0-76.0-2.4","229","642","10","Female","false","false","false","false","""event"",""trial"",""time""
""fullscreenenter"",""5"",""23710""
","
","
","""event"",""trial"",""time""
""fullscreenenter"",""5"",""23710""
","
","","images/earth.jpg","","","","","","","","","","","","","","fixation","","","","","",""
"d3-animate-choice","150","724910","0.0-76.0-0.5","229","642","10","Female","false","false","false","false","""event"",""trial"",""time""
""fullscreenenter"",""5"",""23710""
","
","
","""event"",""trial"",""time""
""fullscreenenter"",""5"",""23710""
","
","1360","","49","","","3000","1","","","images/earth.jpg","images/rocket1","images/rocket2","null","images/rocket2","","1","real","null","1","","",""
"d3-animate-choice","151","727897","0.0-76.0-1.5","229","642","10","Female","false","false","false","false","""event"",""trial"",""time""
""fullscreenenter"",""5"",""23710""
","
","
","""event"",""trial"",""time""
""fullscreenenter"",""5"",""23710""
","
","980.9000000059605","","48","","","3000","1","","","images/purpleplanet.jpg","images/alien4","images/alien3","images/rocket2","images/alien4","images/t.png","2","real","false","2","rare","1","2022-02-05 19:10:36.349"
"two-step-fixation","152","728904","0.0-76.0-2.5","229","642","10","Female","false","false","false","false","""event"",""trial"",""time""
""fullscreenenter"",""5"",""23710""
","
","
","""event"",""trial"",""time""
""fullscreenenter"",""5"",""23710""
","
","","images/earth.jpg","","","","","","","","","","","","","","fixation","","","","","",""
"d3-animate-choice","153","731620","0.0-76.0-0.6","229","642","10","Female","false","false","false","false","""event"",""trial"",""time""
""fullscreenenter"",""5"",""23710""
","
","
","""event"",""trial"",""time""
""fullscreenenter"",""5"",""23710""
","
","710.1999999880791","","49","","","3000","1","","","images/earth.jpg","images/rocket1","images/rocket2","null","images/rocket2","","1","real","null","1","","",""
"d3-animate-choice","154","735045","0.0-76.0-1.6","229","642","10","Female","false","false","false","false","""event"",""trial"",""time""
""fullscreenenter"",""5"",""23710""
","
","
","""event"",""trial"",""time""
""fullscreenenter"",""5"",""23710""
","
","1419.2999999821186","","48","","","3000","1","","","images/redplanet1.jpg","images/alien2","images/alien1","images/rocket2","images/alien2","images/t.png","2","real","true","2","common","1","2022-02-05 19:10:43.497"
"two-step-fixation","155","736049","0.0-76.0-2.6","229","642","10","Female","false","false","false","false","""event"",""trial"",""time""
""fullscreenenter"",""5"",""23710""
","
","
","""event"",""trial"",""time""
""fullscreenenter"",""5"",""23710""
","
","","images/earth.jpg","","","","","","","","","","","","","","fixation","","","","","",""
"d3-animate-choice","156","739561","0.0-76.0-0.7","229","642","10","Female","false","false","false","false","""event"",""trial"",""time""
""fullscreenenter"",""5"",""23710""
","
","
","""event"",""trial"",""time""
""fullscreenenter"",""5"",""23710""
","
","1506.699999988079","","49","","","3000","1","","","images/earth.jpg","images/rocket1","images/rocket2","null","images/rocket2","","1","real","null","1","","",""
"d3-animate-choice","157","742249","0.0-76.0-1.7","229","642","10","Female","false","false","false","false","""event"",""trial"",""time""
""fullscreenenter"",""5"",""23710""
","
","
","""event"",""trial"",""time""
""fullscreenenter"",""5"",""23710""
","
","682","","48","","","3000","1","","","images/redplanet1.jpg","images/alien2","images/alien1","images/rocket2","images/alien2","images/t.png","2","real","true","2","common","1","2022-02-05 19:10:50.701"
"two-step-fixation","158","743253","0.0-76.0-2.7","229","642","10","Female","false","false","false","false","""event"",""trial"",""time""
""fullscreenenter"",""5"",""23710""
","
","
","""event"",""trial"",""time""
""fullscreenenter"",""5"",""23710""
","
","","images/earth.jpg","","","","","","","","","","","","","","fixation","","","","","",""
"d3-animate-choice","159","745709","0.0-76.0-0.8","229","642","10","Female","false","false","false","false","""event"",""trial"",""time""
""fullscreenenter"",""5"",""23710""
","
","
","""event"",""trial"",""time""
""fullscreenenter"",""5"",""23710""
","
","448.89999997615814","","49","","","3000","1","","","images/earth.jpg","images/rocket1","images/rocket2","null","images/rocket2","","1","real","null","1","","",""
"d3-animate-choice","160","748216","0.0-76.0-1.8","229","642","10","Female","false","false","false","false","""event"",""trial"",""time""
""fullscreenenter"",""5"",""23710""
","
","
","""event"",""trial"",""time""
""fullscreenenter"",""5"",""23710""
","
","502.40000000596046","","48","","","3000","1","","","images/redplanet1.jpg","images/alien2","images/alien1","images/rocket2","images/alien2","images/t.png","2","real","true","2","common","1","2022-02-05 19:10:56.668"
"two-step-fixation","161","749221","0.0-76.0-2.8","229","642","10","Female","false","false","false","false","""event"",""trial"",""time""
""fullscreenenter"",""5"",""23710""
","
","
","""event"",""trial"",""time""
""fullscreenenter"",""5"",""23710""
","
","","images/earth.jpg","","","","","","","","","","","","","","fixation","","","","","",""
"d3-animate-choice","162","751671","0.0-76.0-0.9","229","642","10","Female","false","false","false","false","""event"",""trial"",""time""
""fullscreenenter"",""5"",""23710""
","
","
","""event"",""trial"",""time""
""fullscreenenter"",""5"",""23710""
","
","440.90000000596046","","49","","","3000","1","","","images/earth.jpg","images/rocket1","images/rocket2","null","images/rocket2","","1","real","null","1","","",""
"d3-animate-choice","163","754254","0.0-76.0-1.9","229","642","10","Female","false","false","false","false","""event"",""trial"",""time""
""fullscreenenter"",""5"",""23710""
","
","
","""event"",""trial"",""time""
""fullscreenenter"",""5"",""23710""
","
","577.7999999821186","","48","","","3000","1","","","images/redplanet1.jpg","images/alien2","images/alien1","images/rocket2","images/alien2","images/t.png","2","real","true","2","common","1","2022-02-05 19:11:02.706"
"two-step-fixation","164","755258","0.0-76.0-2.9","229","642","10","Female","false","false","false","false","""event"",""trial"",""time""
""fullscreenenter"",""5"",""23710""
","
","
","""event"",""trial"",""time""
""fullscreenenter"",""5"",""23710""
","
","","images/earth.jpg","","","","","","","","","","","","","","fixation","","","","","",""
"d3-animate-choice","165","757655","0.0-76.0-0.10","229","642","10","Female","false","false","false","false","""event"",""trial"",""time""
""fullscreenenter"",""5"",""23710""
","
","
","""event"",""trial"",""time""
""fullscreenenter"",""5"",""23710""
","
","388.5","","49","","","3000","1","","","images/earth.jpg","images/rocket1","images/rocket2","null","images/rocket2","","1","real","null","1","","",""
"d3-animate-choice","166","760262","0.0-76.0-1.10","229","642","10","Female","false","false","false","false","""event"",""trial"",""time""
""fullscreenenter"",""5"",""23710""
","
","
","""event"",""trial"",""time""
""fullscreenenter"",""5"",""23710""
","
","602.4000000059605","","48","","","3000","1","","","images/redplanet1.jpg","images/alien2","images/alien1","images/rocket2","images/alien2","images/t.png","2","real","true","2","common","1","2022-02-05 19:11:08.714"
"two-step-fixation","167","761266","0.0-76.0-2.10","229","642","10","Female","false","false","false","false","""event"",""trial"",""time""
""fullscreenenter"",""5"",""23710""
","
","
","""event"",""trial"",""time""
""fullscreenenter"",""5"",""23710""
","
","","images/earth.jpg","","","","","","","","","","","","","","fixation","","","","","",""
"d3-animate-choice","168","763803","0.0-76.0-0.11","229","642","10","Female","false","false","false","false","""event"",""trial"",""time""
""fullscreenenter"",""5"",""23710""
","
","
","""event"",""trial"",""time""
""fullscreenenter"",""5"",""23710""
","
","529.4000000059605","","49","","","3000","1","","","images/earth.jpg","images/rocket1","images/rocket2","null","images/rocket2","","1","real","null","1","","",""
"d3-animate-choice","169","766346","0.0-76.0-1.11","229","642","10","Female","false","false","false","false","""event"",""trial"",""time""
""fullscreenenter"",""5"",""23710""
","
","
","""event"",""trial"",""time""
""fullscreenenter"",""5"",""23710""
","
","538.9000000059605","","48","","","3000","1","","","images/redplanet1.jpg","images/alien2","images/alien1","images/rocket2","images/alien2","images/nothing.png","2","real","true","2","common","0","2022-02-05 19:11:14.798"
"two-step-fixation","170","767350","0.0-76.0-2.11","229","642","10","Female","false","false","false","false","""event"",""trial"",""time""
""fullscreenenter"",""5"",""23710""
","
","
","""event"",""trial"",""time""
""fullscreenenter"",""5"",""23710""
","
","","images/earth.jpg","","","","","","","","","","","","","","fixation","","","","","",""
"d3-animate-choice","171","769770","0.0-76.0-0.12","229","642","10","Female","false","false","false","false","""event"",""trial"",""time""
""fullscreenenter"",""5"",""23710""
","
","
","""event"",""trial"",""time""
""fullscreenenter"",""5"",""23710""
","
","416.5","","49","","","3000","1","","","images/earth.jpg","images/rocket1","images/rocket2","null","images/rocket2","","1","real","null","1","","",""
"d3-animate-choice","172","772232","0.0-76.0-1.12","229","642","10","Female","false","false","false","false","""event"",""trial"",""time""
""fullscreenenter"",""5"",""23710""
","
","
","""event"",""trial"",""time""
""fullscreenenter"",""5"",""23710""
","
","455.59999999403954","","48","","","3000","1","702.1999999880791","48","images/redplanet1.jpg","images/alien2","images/alien1","images/rocket2","images/alien2","images/nothing.png","2","real","true","2","common","0","2022-02-05 19:11:20.684"
"two-step-fixation","173","773235","0.0-76.0-2.12","229","642","10","Female","false","false","false","false","""event"",""trial"",""time""
""fullscreenenter"",""5"",""23710""
","
","
","""event"",""trial"",""time""
""fullscreenenter"",""5"",""23710""
","
","","images/earth.jpg","","","","","","","","","","","","","","fixation","","","","","",""
"d3-animate-choice","174","775606","0.0-76.0-0.13","229","642","10","Female","false","false","false","false","""event"",""trial"",""time""
""fullscreenenter"",""5"",""23710""
","
","
","""event"",""trial"",""time""
""fullscreenenter"",""5"",""23710""
","
","366.59999999403954","","49","","","3000","1","","","images/earth.jpg","images/rocket1","images/rocket2","null","images/rocket2","","1","real","null","1","","",""
"d3-animate-choice","175","778106","0.0-76.0-1.13","229","642","10","Female","false","false","false","false","""event"",""trial"",""time""
""fullscreenenter"",""5"",""23710""
","
","
","""event"",""trial"",""time""
""fullscreenenter"",""5"",""23710""
","
","491.80000001192093","","49","","","3000","1","","","images/redplanet1.jpg","images/alien2","images/alien1","images/rocket2","images/alien1","images/t.png","2","real","true","1","common","1","2022-02-05 19:11:26.558"
"two-step-fixation","176","779110","0.0-76.0-2.13","229","642","10","Female","false","false","false","false","""event"",""trial"",""time""
""fullscreenenter"",""5"",""23710""
","
","
","""event"",""trial"",""time""
""fullscreenenter"",""5"",""23710""
","
","","images/earth.jpg","","","","","","","","","","","","","","fixation","","","","","",""
"d3-animate-choice","177","781556","0.0-76.0-0.14","229","642","10","Female","false","false","false","false","""event"",""trial"",""time""
""fullscreenenter"",""5"",""23710""
","
","
","""event"",""trial"",""time""
""fullscreenenter"",""5"",""23710""
","
","440.7000000178814","","49","","","3000","1","","","images/earth.jpg","images/rocket1","images/rocket2","null","images/rocket2","","1","real","null","1","","",""
"d3-animate-choice","178","784079","0.0-76.0-1.14","229","642","10","Female","false","false","false","false","""event"",""trial"",""time""
""fullscreenenter"",""5"",""23710""
","
","
","""event"",""trial"",""time""
""fullscreenenter"",""5"",""23710""
","
","517.6999999880791","","49","","","3000","1","","","images/redplanet1.jpg","images/alien2","images/alien1","images/rocket2","images/alien1","images/nothing.png","2","real","true","1","common","0","2022-02-05 19:11:32.531"
"two-step-fixation","179","785083","0.0-76.0-2.14","229","642","10","Female","false","false","false","false","""event"",""trial"",""time""
""fullscreenenter"",""5"",""23710""
","
","
","""event"",""trial"",""time""
""fullscreenenter"",""5"",""23710""
","
","","images/earth.jpg","","","","","","","","","","","","","","fixation","","","","","",""
"d3-animate-choice","180","787469","0.0-76.0-0.15","229","642","10","Female","false","false","false","false","""event"",""trial"",""time""
""fullscreenenter"",""5"",""23710""
","
","
","""event"",""trial"",""time""
""fullscreenenter"",""5"",""23710""
","
","380","","49","","","3000","1","","","images/earth.jpg","images/rocket1","images/rocket2","null","images/rocket2","","1","real","null","1","","",""
"d3-animate-choice","181","789882","0.0-76.0-1.15","229","642","10","Female","false","false","false","false","""event"",""trial"",""time""
""fullscreenenter"",""5"",""23710""
","
","
","""event"",""trial"",""time""
""fullscreenenter"",""5"",""23710""
","
","406.2000000178814","","49","","","3000","1","","","images/redplanet1.jpg","images/alien2","images/alien1","images/rocket2","images/alien1","images/t.png","2","real","true","1","common","1","2022-02-05 19:11:38.334"
"two-step-fixation","182","790887","0.0-76.0-2.15","229","642","10","Female","false","false","false","false","""event"",""trial"",""time""
""fullscreenenter"",""5"",""23710""
","
","
","""event"",""trial"",""time""
""fullscreenenter"",""5"",""23710""
","
","","images/earth.jpg","","","","","","","","","","","","","","fixation","","","","","",""
"d3-animate-choice","183","793344","0.0-76.0-0.16","229","642","10","Female","false","false","false","false","""event"",""trial"",""time""
""fullscreenenter"",""5"",""23710""
","
","
","""event"",""trial"",""time""
""fullscreenenter"",""5"",""23710""
","
","450.10000002384186","","49","","","3000","1","","","images/earth.jpg","images/rocket1","images/rocket2","null","images/rocket2","","1","real","null","1","","",""
"d3-animate-choice","184","795747","0.0-76.0-1.16","229","642","10","Female","false","false","false","false","""event"",""trial"",""time""
""fullscreenenter"",""5"",""23710""
","
","
","""event"",""trial"",""time""
""fullscreenenter"",""5"",""23710""
","
","398.09999999403954","","49","","","3000","1","","","images/purpleplanet.jpg","images/alien4","images/alien3","images/rocket2","images/alien3","images/t.png","2","real","false","1","rare","1","2022-02-05 19:11:44.199"
"two-step-fixation","185","796752","0.0-76.0-2.16","229","642","10","Female","false","false","false","false","""event"",""trial"",""time""
""fullscreenenter"",""5"",""23710""
","
","
","""event"",""trial"",""time""
""fullscreenenter"",""5"",""23710""
","
","","images/earth.jpg","","","","","","","","","","","","","","fixation","","","","","",""
"d3-animate-choice","186","799274","0.0-76.0-0.17","229","642","10","Female","false","false","false","false","""event"",""trial"",""time""
""fullscreenenter"",""5"",""23710""
","
","
","""event"",""trial"",""time""
""fullscreenenter"",""5"",""23710""
","
","517.4000000059605","","49","","","3000","1","","","images/earth.jpg","images/rocket1","images/rocket2","null","images/rocket2","","1","real","null","1","","",""
"d3-animate-choice","187","801863","0.0-76.0-1.17","229","642","10","Female","false","false","false","false","""event"",""trial"",""time""
""fullscreenenter"",""5"",""23710""
","
","
","""event"",""trial"",""time""
""fullscreenenter"",""5"",""23710""
","
","583.5999999940395","","49","","","3000","1","","","images/redplanet1.jpg","images/alien2","images/alien1","images/rocket2","images/alien1","images/t.png","2","real","true","1","common","1","2022-02-05 19:11:50.315"
"two-step-fixation","188","802870","0.0-76.0-2.17","229","642","10","Female","false","false","false","false","""event"",""trial"",""time""
""fullscreenenter"",""5"",""23710""
","
","
","""event"",""trial"",""time""
""fullscreenenter"",""5"",""23710""
","
","","images/earth.jpg","","","","","","","","","","","","","","fixation","","","","","",""
"d3-animate-choice","189","805300","0.0-76.0-0.18","229","642","10","Female","false","false","false","false","""event"",""trial"",""time""
""fullscreenenter"",""5"",""23710""
","
","
","""event"",""trial"",""time""
""fullscreenenter"",""5"",""23710""
","
","423.2000000178814","","49","","","3000","1","","","images/earth.jpg","images/rocket1","images/rocket2","null","images/rocket2","","1","real","null","1","","",""
"d3-animate-choice","190","807890","0.0-76.0-1.18","229","642","10","Female","false","false","false","false","""event"",""trial"",""time""
""fullscreenenter"",""5"",""23710""
","
","
","""event"",""trial"",""time""
""fullscreenenter"",""5"",""23710""
","
","584.8000000119209","","49","","","3000","1","","","images/redplanet1.jpg","images/alien2","images/alien1","images/rocket2","images/alien1","images/t.png","2","real","true","1","common","1","2022-02-05 19:11:56.342"
"two-step-fixation","191","808895","0.0-76.0-2.18","229","642","10","Female","false","false","false","false","""event"",""trial"",""time""
""fullscreenenter"",""5"",""23710""
","
","
","""event"",""trial"",""time""
""fullscreenenter"",""5"",""23710""
","
","","images/earth.jpg","","","","","","","","","","","","","","fixation","","","","","",""
"d3-animate-choice","192","811262","0.0-76.0-0.19","229","642","10","Female","false","false","false","false","""event"",""trial"",""time""
""fullscreenenter"",""5"",""23710""
","
","
","""event"",""trial"",""time""
""fullscreenenter"",""5"",""23710""
","
","361.2999999821186","","49","","","3000","1","","","images/earth.jpg","images/rocket1","images/rocket2","null","images/rocket2","","1","real","null","1","","",""
"d3-animate-choice","193","813800","0.0-76.0-1.19","229","642","10","Female","false","false","false","false","""event"",""trial"",""time""
""fullscreenenter"",""5"",""23710""
","
","
","""event"",""trial"",""time""
""fullscreenenter"",""5"",""23710""
","
","533","","49","","","3000","1","","","images/redplanet1.jpg","images/alien2","images/alien1","images/rocket2","images/alien1","images/t.png","2","real","true","1","common","1","2022-02-05 19:12:02.252"
"two-step-fixation","194","814803","0.0-76.0-2.19","229","642","10","Female","false","false","false","false","""event"",""trial"",""time""
""fullscreenenter"",""5"",""23710""
","
","
","""event"",""trial"",""time""
""fullscreenenter"",""5"",""23710""
","
","","images/earth.jpg","","","","","","","","","","","","","","fixation","","","","","",""
"d3-animate-choice","195","817383","0.0-76.0-0.20","229","642","10","Female","false","false","false","false","""event"",""trial"",""time""
""fullscreenenter"",""5"",""23710""
","
","
","""event"",""trial"",""time""
""fullscreenenter"",""5"",""23710""
","
","576.4000000059605","","49","","","3000","1","","","images/earth.jpg","images/rocket1","images/rocket2","null","images/rocket2","","1","real","null","1","","",""
"d3-animate-choice","196","819832","0.0-76.0-1.20","229","642","10","Female","false","false","false","false","""event"",""trial"",""time""
""fullscreenenter"",""5"",""23710""
","
","
","""event"",""trial"",""time""
""fullscreenenter"",""5"",""23710""
","
","445","","49","","","3000","1","","","images/purpleplanet.jpg","images/alien4","images/alien3","images/rocket2","images/alien3","images/nothing.png","2","real","false","1","rare","0","2022-02-05 19:12:08.284"
"two-step-fixation","197","820837","0.0-76.0-2.20","229","642","10","Female","false","false","false","false","""event"",""trial"",""time""
""fullscreenenter"",""5"",""23710""
","
","
","""event"",""trial"",""time""
""fullscreenenter"",""5"",""23710""
","
","","images/earth.jpg","","","","","","","","","","","","","","fixation","","","","","",""
"d3-animate-choice","198","823355","0.0-76.0-0.21","229","642","10","Female","false","false","false","false","""event"",""trial"",""time""
""fullscreenenter"",""5"",""23710""
","
","
","""event"",""trial"",""time""
""fullscreenenter"",""5"",""23710""
","
","511.90000000596046","","49","","","3000","1","","","images/earth.jpg","images/rocket1","images/rocket2","null","images/rocket2","","1","real","null","1","","",""
"d3-animate-choice","199","825945","0.0-76.0-1.21","229","642","10","Female","false","false","false","false","""event"",""trial"",""time""
""fullscreenenter"",""5"",""23710""
","
","
","""event"",""trial"",""time""
""fullscreenenter"",""5"",""23710""
","
","584.2000000178814","","49","","","3000","1","","","images/redplanet1.jpg","images/alien2","images/alien1","images/rocket2","images/alien1","images/t.png","2","real","true","1","common","1","2022-02-05 19:12:14.397"
"two-step-fixation","200","826949","0.0-76.0-2.21","229","642","10","Female","false","false","false","false","""event"",""trial"",""time""
""fullscreenenter"",""5"",""23710""
","
","
","""event"",""trial"",""time""
""fullscreenenter"",""5"",""23710""
","
","","images/earth.jpg","","","","","","","","","","","","","","fixation","","","","","",""
"d3-animate-choice","201","829625","0.0-76.0-0.22","229","642","10","Female","false","false","false","false","""event"",""trial"",""time""
""fullscreenenter"",""5"",""23710""
","
","
","""event"",""trial"",""time""
""fullscreenenter"",""5"",""23710""
","
","670.1999999880791","","49","","","3000","1","","","images/earth.jpg","images/rocket1","images/rocket2","null","images/rocket2","","1","real","null","1","","",""
"d3-animate-choice","202","832460","0.0-76.0-1.22","229","642","10","Female","false","false","false","false","""event"",""trial"",""time""
""fullscreenenter"",""5"",""23710""
","
","
","""event"",""trial"",""time""
""fullscreenenter"",""5"",""23710""
","
","829.6999999880791","","48","","","3000","1","","","images/purpleplanet.jpg","images/alien4","images/alien3","images/rocket2","images/alien4","images/nothing.png","2","real","false","2","rare","0","2022-02-05 19:12:20.912"
"two-step-fixation","203","833465","0.0-76.0-2.22","229","642","10","Female","false","false","false","false","""event"",""trial"",""time""
""fullscreenenter"",""5"",""23710""
","
","
","""event"",""trial"",""time""
""fullscreenenter"",""5"",""23710""
","
","","images/earth.jpg","","","","","","","","","","","","","","fixation","","","","","",""
"d3-animate-choice","204","836097","0.0-76.0-0.23","229","642","10","Female","false","false","false","false","""event"",""trial"",""time""
""fullscreenenter"",""5"",""23710""
","
","
","""event"",""trial"",""time""
""fullscreenenter"",""5"",""23710""
","
","623.5","","49","","","3000","1","","","images/earth.jpg","images/rocket1","images/rocket2","null","images/rocket2","","1","real","null","1","","",""
"d3-animate-choice","205","838737","0.0-76.0-1.23","229","642","10","Female","false","false","false","false","""event"",""trial"",""time""
""fullscreenenter"",""5"",""23710""
","
","
","""event"",""trial"",""time""
""fullscreenenter"",""5"",""23710""
","
","635.8999999761581","","49","","","3000","1","","","images/redplanet1.jpg","images/alien2","images/alien1","images/rocket2","images/alien1","images/t.png","2","real","true","1","common","1","2022-02-05 19:12:27.189"
"two-step-fixation","206","839741","0.0-76.0-2.23","229","642","10","Female","false","false","false","false","""event"",""trial"",""time""
""fullscreenenter"",""5"",""23710""
","
","
","""event"",""trial"",""time""
""fullscreenenter"",""5"",""23710""
","
","","images/earth.jpg","","","","","","","","","","","","","","fixation","","","","","",""
"d3-animate-choice","207","842153","0.0-76.0-0.24","229","642","10","Female","false","false","false","false","""event"",""trial"",""time""
""fullscreenenter"",""5"",""23710""
","
","
","""event"",""trial"",""time""
""fullscreenenter"",""5"",""23710""
","
","407.59999999403954","","49","","","3000","1","","","images/earth.jpg","images/rocket1","images/rocket2","null","images/rocket2","","1","real","null","1","","",""
"d3-animate-choice","208","844758","0.0-76.0-1.24","229","642","10","Female","false","false","false","false","""event"",""trial"",""time""
""fullscreenenter"",""5"",""23710""
","
","
","""event"",""trial"",""time""
""fullscreenenter"",""5"",""23710""
","
","600.5999999940395","","49","","","3000","1","","","images/redplanet1.jpg","images/alien2","images/alien1","images/rocket2","images/alien1","images/nothing.png","2","real","true","1","common","0","2022-02-05 19:12:33.210"
"two-step-fixation","209","845763","0.0-76.0-2.24","229","642","10","Female","false","false","false","false","""event"",""trial"",""time""
""fullscreenenter"",""5"",""23710""
","
","
","""event"",""trial"",""time""
""fullscreenenter"",""5"",""23710""
","
","","images/earth.jpg","","","","","","","","","","","","","","fixation","","","","","",""
"d3-animate-choice","210","848213","0.0-76.0-0.25","229","642","10","Female","false","false","false","false","""event"",""trial"",""time""
""fullscreenenter"",""5"",""23710""
","
","
","""event"",""trial"",""time""
""fullscreenenter"",""5"",""23710""
","
","444.19999998807907","","49","","","3000","1","","","images/earth.jpg","images/rocket1","images/rocket2","null","images/rocket2","","1","real","null","1","","",""
"d3-animate-choice","211","851469","0.0-76.0-1.25","229","642","10","Female","false","false","false","false","""event"",""trial"",""time""
""fullscreenenter"",""5"",""23710""
","
","
","""event"",""trial"",""time""
""fullscreenenter"",""5"",""23710""
","
","1252.699999988079","","48","","","3000","1","","","images/purpleplanet.jpg","images/alien4","images/alien3","images/rocket2","images/alien4","images/t.png","2","real","false","2","rare","1","2022-02-05 19:12:39.921"
"two-step-fixation","212","852473","0.0-76.0-2.25","229","642","10","Female","false","false","false","false","""event"",""trial"",""time""
""fullscreenenter"",""5"",""23710""
","
","
","""event"",""trial"",""time""
""fullscreenenter"",""5"",""23710""
","
","","images/earth.jpg","","","","","","","","","","","","","","fixation","","","","","",""
"d3-animate-choice","213","854987","0.0-76.0-0.26","229","642","10","Female","false","false","false","false","""event"",""trial"",""time""
""fullscreenenter"",""5"",""23710""
","
","
","""event"",""trial"",""time""
""fullscreenenter"",""5"",""23710""
","
","508.19999998807907","","48","","","3000","1","","","images/earth.jpg","images/rocket1","images/rocket2","null","images/rocket1","","1","real","null","2","","",""
"d3-animate-choice","214","857754","0.0-76.0-1.26","229","642","10","Female","false","false","false","false","""event"",""trial"",""time""
""fullscreenenter"",""5"",""23710""
","
","
","""event"",""trial"",""time""
""fullscreenenter"",""5"",""23710""
","
","762.6999999880791","","48","","","3000","1","","","images/purpleplanet.jpg","images/alien4","images/alien3","images/rocket1","images/alien4","images/nothing.png","2","real","true","2","common","0","2022-02-05 19:12:46.206"
"two-step-fixation","215","858759","0.0-76.0-2.26","229","642","10","Female","false","false","false","false","""event"",""trial"",""time""
""fullscreenenter"",""5"",""23710""
","
","
","""event"",""trial"",""time""
""fullscreenenter"",""5"",""23710""
","
","","images/earth.jpg","","","","","","","","","","","","","","fixation","","","","","",""
"d3-animate-choice","216","861581","0.0-76.0-0.27","229","642","10","Female","false","false","false","false","""event"",""trial"",""time""
""fullscreenenter"",""5"",""23710""
","
","
","""event"",""trial"",""time""
""fullscreenenter"",""5"",""23710""
","
","816.7999999821186","","49","","","3000","1","","","images/earth.jpg","images/rocket1","images/rocket2","null","images/rocket2","","1","real","null","1","","",""
"d3-animate-choice","217","864430","0.0-76.0-1.27","229","642","10","Female","false","false","false","false","""event"",""trial"",""time""
""fullscreenenter"",""5"",""23710""
","
","
","""event"",""trial"",""time""
""fullscreenenter"",""5"",""23710""
","
","842.2999999821186","","49","","","3000","1","","","images/redplanet1.jpg","images/alien2","images/alien1","images/rocket2","images/alien1","images/t.png","2","real","true","1","common","1","2022-02-05 19:12:52.882"
"two-step-fixation","218","865436","0.0-76.0-2.27","229","642","10","Female","false","false","false","false","""event"",""trial"",""time""
""fullscreenenter"",""5"",""23710""
","
","
","""event"",""trial"",""time""
""fullscreenenter"",""5"",""23710""
","
","","images/earth.jpg","","","","","","","","","","","","","","fixation","","","","","",""
"d3-animate-choice","219","867880","0.0-76.0-0.28","229","642","10","Female","false","false","false","false","""event"",""trial"",""time""
""fullscreenenter"",""5"",""23710""
","
","
","""event"",""trial"",""time""
""fullscreenenter"",""5"",""23710""
","
","437.40000000596046","","49","","","3000","1","","","images/earth.jpg","images/rocket1","images/rocket2","null","images/rocket2","","1","real","null","1","","",""
"d3-animate-choice","220","871061","0.0-76.0-1.28","229","642","10","Female","false","false","false","false","""event"",""trial"",""time""
""fullscreenenter"",""5"",""23710""
","
","
","""event"",""trial"",""time""
""fullscreenenter"",""5"",""23710""
","
","1177.5999999940395","","48","","","3000","1","","","images/purpleplanet.jpg","images/alien4","images/alien3","images/rocket2","images/alien4","images/t.png","2","real","false","2","rare","1","2022-02-05 19:12:59.513"
"two-step-fixation","221","872065","0.0-76.0-2.28","229","642","10","Female","false","false","false","false","""event"",""trial"",""time""
""fullscreenenter"",""5"",""23710""
","
","
","""event"",""trial"",""time""
""fullscreenenter"",""5"",""23710""
","
","","images/earth.jpg","","","","","","","","","","","","","","fixation","","","","","",""
"d3-animate-choice","222","874474","0.0-76.0-0.29","229","642","10","Female","false","false","false","false","""event"",""trial"",""time""
""fullscreenenter"",""5"",""23710""
","
","
","""event"",""trial"",""time""
""fullscreenenter"",""5"",""23710""
","
","404.09999999403954","","49","","","3000","1","","","images/earth.jpg","images/rocket1","images/rocket2","null","images/rocket2","","1","real","null","1","","",""
"d3-animate-choice","223","877377","0.0-76.0-1.29","229","642","10","Female","false","false","false","false","""event"",""trial"",""time""
""fullscreenenter"",""5"",""23710""
","
","
","""event"",""trial"",""time""
""fullscreenenter"",""5"",""23710""
","
","897.1999999880791","","49","","","3000","1","","","images/redplanet1.jpg","images/alien2","images/alien1","images/rocket2","images/alien1","images/t.png","2","real","true","1","common","1","2022-02-05 19:13:05.829"
"two-step-fixation","224","878381","0.0-76.0-2.29","229","642","10","Female","false","false","false","false","""event"",""trial"",""time""
""fullscreenenter"",""5"",""23710""
","
","
","""event"",""trial"",""time""
""fullscreenenter"",""5"",""23710""
","
","","images/earth.jpg","","","","","","","","","","","","","","fixation","","","","","",""
"d3-animate-choice","225","880819","0.0-76.0-0.30","229","642","10","Female","false","false","false","false","""event"",""trial"",""time""
""fullscreenenter"",""5"",""23710""
","
","
","""event"",""trial"",""time""
""fullscreenenter"",""5"",""23710""
","
","429.2999999821186","","49","","","3000","1","","","images/earth.jpg","images/rocket1","images/rocket2","null","images/rocket2","","1","real","null","1","","",""
"d3-animate-choice","226","883518","0.0-76.0-1.30","229","642","10","Female","false","false","false","false","""event"",""trial"",""time""
""fullscreenenter"",""5"",""23710""
","
","
","""event"",""trial"",""time""
""fullscreenenter"",""5"",""23710""
","
","694.7000000178814","","49","","","3000","1","","","images/redplanet1.jpg","images/alien2","images/alien1","images/rocket2","images/alien1","images/t.png","2","real","true","1","common","1","2022-02-05 19:13:11.970"
"two-step-fixation","227","884522","0.0-76.0-2.30","229","642","10","Female","false","false","false","false","""event"",""trial"",""time""
""fullscreenenter"",""5"",""23710""
","
","
","""event"",""trial"",""time""
""fullscreenenter"",""5"",""23710""
","
","","images/earth.jpg","","","","","","","","","","","","","","fixation","","","","","",""
"d3-animate-choice","228","886922","0.0-76.0-0.31","229","642","10","Female","false","false","false","false","""event"",""trial"",""time""
""fullscreenenter"",""5"",""23710""
","
","
","""event"",""trial"",""time""
""fullscreenenter"",""5"",""23710""
","
","395.7000000178814","","49","","","3000","1","","","images/earth.jpg","images/rocket1","images/rocket2","null","images/rocket2","","1","real","null","1","","",""
"d3-animate-choice","229","889483","0.0-76.0-1.31","229","642","10","Female","false","false","false","false","""event"",""trial"",""time""
""fullscreenenter"",""5"",""23710""
","
","
","""event"",""trial"",""time""
""fullscreenenter"",""5"",""23710""
","
","555.3000000119209","","49","","","3000","1","","","images/redplanet1.jpg","images/alien2","images/alien1","images/rocket2","images/alien1","images/t.png","2","real","true","1","common","1","2022-02-05 19:13:17.935"
"two-step-fixation","230","890487","0.0-76.0-2.31","229","642","10","Female","false","false","false","false","""event"",""trial"",""time""
""fullscreenenter"",""5"",""23710""
","
","
","""event"",""trial"",""time""
""fullscreenenter"",""5"",""23710""
","
","","images/earth.jpg","","","","","","","","","","","","","","fixation","","","","","",""
"d3-animate-choice","231","892870","0.0-76.0-0.32","229","642","10","Female","false","false","false","false","""event"",""trial"",""time""
""fullscreenenter"",""5"",""23710""
","
","
","""event"",""trial"",""time""
""fullscreenenter"",""5"",""23710""
","
","376.09999999403954","","49","","","3000","1","","","images/earth.jpg","images/rocket1","images/rocket2","null","images/rocket2","","1","real","null","1","","",""
"d3-animate-choice","232","895349","0.0-76.0-1.32","229","642","10","Female","false","false","false","false","""event"",""trial"",""time""
""fullscreenenter"",""5"",""23710""
","
","
","""event"",""trial"",""time""
""fullscreenenter"",""5"",""23710""
","
","474.19999998807907","","49","","","3000","1","","","images/redplanet1.jpg","images/alien2","images/alien1","images/rocket2","images/alien1","images/nothing.png","2","real","true","1","common","0","2022-02-05 19:13:23.801"
"two-step-fixation","233","896353","0.0-76.0-2.32","229","642","10","Female","false","false","false","false","""event"",""trial"",""time""
""fullscreenenter"",""5"",""23710""
","
","
","""event"",""trial"",""time""
""fullscreenenter"",""5"",""23710""
","
","","images/earth.jpg","","","","","","","","","","","","","","fixation","","","","","",""
"d3-animate-choice","234","899023","0.0-76.0-0.33","229","642","10","Female","false","false","false","false","""event"",""trial"",""time""
""fullscreenenter"",""5"",""23710""
","
","
","""event"",""trial"",""time""
""fullscreenenter"",""5"",""23710""
","
","666.1999999880791","","49","","","3000","1","","","images/earth.jpg","images/rocket1","images/rocket2","null","images/rocket2","","1","real","null","1","","",""
"d3-animate-choice","235","902268","0.0-76.0-1.33","229","642","10","Female","false","false","false","false","""event"",""trial"",""time""
""fullscreenenter"",""5"",""23710""
","
","
","""event"",""trial"",""time""
""fullscreenenter"",""5"",""23710""
","
","1238.199999988079","","48","","","3000","1","","","images/purpleplanet.jpg","images/alien4","images/alien3","images/rocket2","images/alien4","images/t.png","2","real","false","2","rare","1","2022-02-05 19:13:30.720"
"two-step-fixation","236","903273","0.0-76.0-2.33","229","642","10","Female","false","false","false","false","""event"",""trial"",""time""
""fullscreenenter"",""5"",""23710""
","
","
","""event"",""trial"",""time""
""fullscreenenter"",""5"",""23710""
","
","","images/earth.jpg","","","","","","","","","","","","","","fixation","","","","","",""
"d3-animate-choice","237","905751","0.0-76.0-0.34","229","642","10","Female","false","false","false","false","""event"",""trial"",""time""
""fullscreenenter"",""5"",""23710""
","
","
","""event"",""trial"",""time""
""fullscreenenter"",""5"",""23710""
","
","473.5","","49","","","3000","1","","","images/earth.jpg","images/rocket1","images/rocket2","null","images/rocket2","","1","real","null","1","","",""
"d3-animate-choice","238","908589","0.0-76.0-1.34","229","642","10","Female","false","false","false","false","""event"",""trial"",""time""
""fullscreenenter"",""5"",""23710""
","
","
","""event"",""trial"",""time""
""fullscreenenter"",""5"",""23710""
","
","832.6000000238419","","48","","","3000","1","","","images/purpleplanet.jpg","images/alien4","images/alien3","images/rocket2","images/alien4","images/nothing.png","2","real","false","2","rare","0","2022-02-05 19:13:37.041"
"two-step-fixation","239","909594","0.0-76.0-2.34","229","642","10","Female","false","false","false","false","""event"",""trial"",""time""
""fullscreenenter"",""5"",""23710""
","
","
","""event"",""trial"",""time""
""fullscreenenter"",""5"",""23710""
","
","","images/earth.jpg","","","","","","","","","","","","","","fixation","","","","","",""
"d3-animate-choice","240","912090","0.0-76.0-0.35","229","642","10","Female","false","false","false","false","""event"",""trial"",""time""
""fullscreenenter"",""5"",""23710""
","
","
","""event"",""trial"",""time""
""fullscreenenter"",""5"",""23710""
","
","490.2999999821186","","49","","","3000","1","","","images/earth.jpg","images/rocket1","images/rocket2","null","images/rocket2","","1","real","null","1","","",""
"d3-animate-choice","241","914788","0.0-76.0-1.35","229","642","10","Female","false","false","false","false","""event"",""trial"",""time""
""fullscreenenter"",""5"",""23710""
","
","
","""event"",""trial"",""time""
""fullscreenenter"",""5"",""23710""
","
","689.5","","48","","","3000","1","","","images/redplanet1.jpg","images/alien2","images/alien1","images/rocket2","images/alien2","images/t.png","2","real","true","2","common","1","2022-02-05 19:13:43.240"
"two-step-fixation","242","915793","0.0-76.0-2.35","229","642","10","Female","false","false","false","false","""event"",""trial"",""time""
""fullscreenenter"",""5"",""23710""
","
","
","""event"",""trial"",""time""
""fullscreenenter"",""5"",""23710""
","
","","images/earth.jpg","","","","","","","","","","","","","","fixation","","","","","",""
"d3-animate-choice","243","918372","0.0-76.0-0.36","229","642","10","Female","false","false","false","false","""event"",""trial"",""time""
""fullscreenenter"",""5"",""23710""
","
","
","""event"",""trial"",""time""
""fullscreenenter"",""5"",""23710""
","
","575.2000000178814","","49","","","3000","1","","","images/earth.jpg","images/rocket1","images/rocket2","null","images/rocket2","","1","real","null","1","","",""
"d3-animate-choice","244","920955","0.0-76.0-1.36","229","642","10","Female","false","false","false","false","""event"",""trial"",""time""
""fullscreenenter"",""5"",""23710""
","
","
","""event"",""trial"",""time""
""fullscreenenter"",""5"",""23710""
","
","578.8000000119209","","48","","","3000","1","","","images/redplanet1.jpg","images/alien2","images/alien1","images/rocket2","images/alien2","images/nothing.png","2","real","true","2","common","0","2022-02-05 19:13:49.408"
"two-step-fixation","245","921960","0.0-76.0-2.36","229","642","10","Female","false","false","false","false","""event"",""trial"",""time""
""fullscreenenter"",""5"",""23710""
","
","
","""event"",""trial"",""time""
""fullscreenenter"",""5"",""23710""
","
