"trial_type","trial_index","time_elapsed","internal_node_id","participant_id","subject_id","age","gender","rocket_sides","red_planet_first_rocket","red_display_order","purple_display_order","interactions","blur_events","focus_events","fullscreenenter_events","fullscreenexit_events","rt","stimulus","key_press","button_pressed","success","duration","valid_pressed","rts","keys","planet_text","right_text","left_text","center_text","chosen_text","reward_text","trial_stage","practice_trial","transition_type","choice","transition","reward","timestamp"
"pavlovia","0","3","0.0-0.0","220","605","19","Female","true","true","true","true","
","
","
","
","
","","","","","","","","","","","","","","","","","","","","","",""
"html-keyboard-response","1","29031","0.0-1.0","220","605","19","Female","true","true","true","true","
","
","
","
","
","29041.5","Welcome! Press the space bar to begin.","32","","","","","","","","","","","","","","","","","","",""
"audio-keyboard-response","2","33794","0.0-2.0","220","605","19","Female","true","true","true","true","
","
","
","
","
","4389","audio/beep_loop.wav","32","","","","","","","","","","","","","","","","","","",""
"audio-button-response","3","36347","0.0-3.0","220","605","19","Female","true","true","true","true","
","
","
","
","
","NaN","audio/fish.mp3","","1","","","","","","","","","","","","","","","","","",""
"audio-button-response","4","39091","0.0-4.0","220","605","19","Female","true","true","true","true","""event"",""trial"",""time""
""fullscreenenter"",""5"",""42245""
","
","
","""event"",""trial"",""time""
""fullscreenenter"",""5"",""42245""
","
","NaN","audio/tiger.mp3","","4","","","","","","","","","","","","","","","","","",""
"fullscreen","5","43241","0.0-5.0","220","605","19","Female","true","true","true","true","""event"",""trial"",""time""
""fullscreenenter"",""5"",""42245""
","
","
","""event"",""trial"",""time""
""fullscreenenter"",""5"",""42245""
","
","","","","","true","","","","","","","","","","","","","","","","",""
"d3-instructions","6","61379","0.0-6.0","220","605","19","Female","true","true","true","true","""event"",""trial"",""time""
""fullscreenenter"",""5"",""42245""
","
","
","""event"",""trial"",""time""
""fullscreenenter"",""5"",""42245""
","
","","","","","","","","","","","","","","","","","","","","","",""
"d3-instructions","7","75777","0.0-7.0","220","605","19","Female","true","true","true","true","""event"",""trial"",""time""
""fullscreenenter"",""5"",""42245""
","
","
","""event"",""trial"",""time""
""fullscreenenter"",""5"",""42245""
","
","","","","","","","","","","","","","","","","","","","","","",""
"d3-instructions","8","84987","0.0-8.0","220","605","19","Female","true","true","true","true","""event"",""trial"",""time""
""fullscreenenter"",""5"",""42245""
","
","
","""event"",""trial"",""time""
""fullscreenenter"",""5"",""42245""
","
","","","","","","","","","","","","","","","","","","","","","",""
"d3-instructions","9","98415","0.0-9.0","220","605","19","Female","true","true","true","true","""event"",""trial"",""time""
""fullscreenenter"",""5"",""42245""
","
","
","""event"",""trial"",""time""
""fullscreenenter"",""5"",""42245""
","
","","","","","","","","","","","","","","","","","","","","","",""
"d3-instructions","10","166793","0.0-10.0","220","605","19","Female","true","true","true","true","""event"",""trial"",""time""
""fullscreenenter"",""5"",""42245""
","
","
","""event"",""trial"",""time""
""fullscreenenter"",""5"",""42245""
","
","","","","","","","","","","","","","","","","","","","","","",""
"d3-animate-choice","11","171456","0.0-11.0","220","605","19","Female","true","true","true","true","""event"",""trial"",""time""
""fullscreenenter"",""5"",""42245""
","
","
","""event"",""trial"",""time""
""fullscreenenter"",""5"",""42245""
","
","2651.4000000000233","","49","","","3000","1","4272","48","images/tutgreenplanet.jpg","images/tutalien1","images/tutalien2","null","images/tutalien2","","NA","practice","null","","","",""
"d3-animate-choice","12","173876","0.0-12.0","220","605","19","Female","true","true","true","true","""event"",""trial"",""time""
""fullscreenenter"",""5"",""42245""
","
","
","""event"",""trial"",""time""
""fullscreenenter"",""5"",""42245""
","
","414.5","","48","","","3000","1","","","images/tutgreenplanet.jpg","images/tutalien1","images/tutalien2","null","images/tutalien1","","NA","practice","null","","","",""
"d3-animate-choice","13","176304","0.0-13.0","220","605","19","Female","true","true","true","true","""event"",""trial"",""time""
""fullscreenenter"",""5"",""42245""
","
","
","""event"",""trial"",""time""
""fullscreenenter"",""5"",""42245""
","
","423.70000000001164","","48","","","3000","1","","","images/tutgreenplanet.jpg","images/tutalien1","images/tutalien2","null","images/tutalien1","","NA","practice","null","","","",""
"d3-animate-choice","14","180258","0.0-14.0","220","605","19","Female","true","true","true","true","""event"",""trial"",""time""
""fullscreenenter"",""5"",""42245""
","
","
","""event"",""trial"",""time""
""fullscreenenter"",""5"",""42245""
","
","1948.7999999999884","","48","","","3000","1","","","images/tutgreenplanet.jpg","images/tutalien1","images/tutalien2","null","images/tutalien1","","NA","practice","null","","","",""
"d3-instructions","15","188989","0.0-15.0","220","605","19","Female","true","true","true","true","""event"",""trial"",""time""
""fullscreenenter"",""5"",""42245""
","
","
","""event"",""trial"",""time""
""fullscreenenter"",""5"",""42245""
","
","","","","","","","","","","","","","","","","","","","","","",""
"d3-instructions","16","197175","0.0-16.0","220","605","19","Female","true","true","true","true","""event"",""trial"",""time""
""fullscreenenter"",""5"",""42245""
","
","
","""event"",""trial"",""time""
""fullscreenenter"",""5"",""42245""
","
","","","","","","","","","","","","","","","","","","","","","",""
"d3-instructions","17","206576","0.0-17.0","220","605","19","Female","true","true","true","true","""event"",""trial"",""time""
""fullscreenenter"",""5"",""42245""
","
","
","""event"",""trial"",""time""
""fullscreenenter"",""5"",""42245""
","
","","","","","","","","","","","","","","","","","","","","","",""
"d3-instructions","18","220019","0.0-18.0","220","605","19","Female","true","true","true","true","""event"",""trial"",""time""
""fullscreenenter"",""5"",""42245""
","
","
","""event"",""trial"",""time""
""fullscreenenter"",""5"",""42245""
","
","","","","","","","","","","","","","","","","","","","","","",""
"d3-instructions","19","233422","0.0-19.0","220","605","19","Female","true","true","true","true","""event"",""trial"",""time""
""fullscreenenter"",""5"",""42245""
","
","
","""event"",""trial"",""time""
""fullscreenenter"",""5"",""42245""
","
","","","","","","","","","","","","","","","","","","","","","",""
"d3-animate-choice","20","236862","0.0-20.0","220","605","19","Female","true","true","true","true","""event"",""trial"",""time""
""fullscreenenter"",""5"",""42245""
","
","
","""event"",""trial"",""time""
""fullscreenenter"",""5"",""42245""
","
","1421.5","","49","","","3000","1","","","images/tutyellowplanet.jpg","null","images/tutalien3","null","images/tutalien3","images/nothing.png","NA","practice","null","","","",""
"d3-animate-choice","21","239281","0.0-21.0","220","605","19","Female","true","true","true","true","""event"",""trial"",""time""
""fullscreenenter"",""5"",""42245""
","
","
","""event"",""trial"",""time""
""fullscreenenter"",""5"",""42245""
","
","409.80000000004657","","49","","","3000","1","","","images/tutyellowplanet.jpg","null","images/tutalien3","null","images/tutalien3","images/t.png","NA","practice","null","","","",""
"d3-animate-choice","22","241671","0.0-22.0","220","605","19","Female","true","true","true","true","""event"",""trial"",""time""
""fullscreenenter"",""5"",""42245""
","
","
","""event"",""trial"",""time""
""fullscreenenter"",""5"",""42245""
","
","376.5999999999767","","49","","","3000","1","1847.4000000000233","49","images/tutyellowplanet.jpg","null","images/tutalien3","null","images/tutalien3","images/t.png","NA","practice","null","","","",""
"d3-animate-choice","23","244042","0.0-23.0","220","605","19","Female","true","true","true","true","""event"",""trial"",""time""
""fullscreenenter"",""5"",""42245""
","
","
","""event"",""trial"",""time""
""fullscreenenter"",""5"",""42245""
","
","354.5","","49","","","3000","1","","","images/tutyellowplanet.jpg","null","images/tutalien3","null","images/tutalien3","images/nothing.png","NA","practice","null","","","",""
"d3-animate-choice","24","246438","0.0-24.0","220","605","19","Female","true","true","true","true","""event"",""trial"",""time""
""fullscreenenter"",""5"",""42245""
","
","
","""event"",""trial"",""time""
""fullscreenenter"",""5"",""42245""
","
","388.29999999993015","","49","","","3000","1","2393.5999999999767","49","images/tutyellowplanet.jpg","null","images/tutalien3","null","images/tutalien3","images/t.png","NA","practice","null","","","",""
"d3-animate-choice","25","248822","0.0-25.0","220","605","19","Female","true","true","true","true","""event"",""trial"",""time""
""fullscreenenter"",""5"",""42245""
","
","
","""event"",""trial"",""time""
""fullscreenenter"",""5"",""42245""
","
","377.79999999993015","","49","","","3000","1","","","images/tutyellowplanet.jpg","null","images/tutalien3","null","images/tutalien3","images/t.png","NA","practice","null","","","",""
"d3-animate-choice","26","251232","0.0-26.0","220","605","19","Female","true","true","true","true","""event"",""trial"",""time""
""fullscreenenter"",""5"",""42245""
","
","
","""event"",""trial"",""time""
""fullscreenenter"",""5"",""42245""
","
","393.5999999999767","","49","","","3000","1","2294.6999999999534","49","images/tutyellowplanet.jpg","null","images/tutalien3","null","images/tutalien3","images/t.png","NA","practice","null","","","",""
"d3-animate-choice","27","253811","0.0-27.0","220","605","19","Female","true","true","true","true","""event"",""trial"",""time""
""fullscreenenter"",""5"",""42245""
","
","
","""event"",""trial"",""time""
""fullscreenenter"",""5"",""42245""
","
","556.5","","49","","","3000","1","","","images/tutyellowplanet.jpg","null","images/tutalien3","null","images/tutalien3","images/t.png","NA","practice","null","","","",""
"d3-animate-choice","28","256142","0.0-28.0","220","605","19","Female","true","true","true","true","""event"",""trial"",""time""
""fullscreenenter"",""5"",""42245""
","
","
","""event"",""trial"",""time""
""fullscreenenter"",""5"",""42245""
","
","321.9000000000233","","49","","","3000","1","","","images/tutyellowplanet.jpg","null","images/tutalien3","null","images/tutalien3","images/nothing.png","NA","practice","null","","","",""
"d3-animate-choice","29","258771","0.0-29.0","220","605","19","Female","true","true","true","true","""event"",""trial"",""time""
""fullscreenenter"",""5"",""42245""
","
","
","""event"",""trial"",""time""
""fullscreenenter"",""5"",""42245""
","
","606.7999999999302","","49","","","3000","1","2257.79999999993","49","images/tutyellowplanet.jpg","null","images/tutalien3","null","images/tutalien3","images/t.png","NA","practice","null","","","",""
"d3-instructions","30","266901","0.0-30.0","220","605","19","Female","true","true","true","true","""event"",""trial"",""time""
""fullscreenenter"",""5"",""42245""
","
","
","""event"",""trial"",""time""
""fullscreenenter"",""5"",""42245""
","
","","","","","","","","","","","","","","","","","","","","","",""
"d3-instructions","31","276944","0.0-31.0","220","605","19","Female","true","true","true","true","""event"",""trial"",""time""
""fullscreenenter"",""5"",""42245""
","
","
","""event"",""trial"",""time""
""fullscreenenter"",""5"",""42245""
","
","","","","","","","","","","","","","","","","","","","","","",""
"d3-instructions","32","284622","0.0-32.0","220","605","19","Female","true","true","true","true","""event"",""trial"",""time""
""fullscreenenter"",""5"",""42245""
","
","
","""event"",""trial"",""time""
""fullscreenenter"",""5"",""42245""
","
","","","","","","","","","","","","","","","","","","","","","",""
"d3-instructions","33","289330","0.0-33.0","220","605","19","Female","true","true","true","true","""event"",""trial"",""time""
""fullscreenenter"",""5"",""42245""
","
","
","""event"",""trial"",""time""
""fullscreenenter"",""5"",""42245""
","
","","","","","","","","","","","","","","","","","","","","","",""
"d3-animate-choice","34","292342","0.0-34.0","220","605","19","Female","true","true","true","true","""event"",""trial"",""time""
""fullscreenenter"",""5"",""42245""
","
","
","""event"",""trial"",""time""
""fullscreenenter"",""5"",""42245""
","
","990.2000000000698","","49","","","3000","1","","","images/tutgreenplanet.jpg","images/tutalien1","images/tutalien2","null","images/tutalien2","images/t.png","NA","practice","null","","","",""
"d3-animate-choice","35","294722","0.0-35.0","220","605","19","Female","true","true","true","true","""event"",""trial"",""time""
""fullscreenenter"",""5"",""42245""
","
","
","""event"",""trial"",""time""
""fullscreenenter"",""5"",""42245""
","
","367.5","","49","","","3000","1","2288.20000000007","49","images/tutgreenplanet.jpg","images/tutalien1","images/tutalien2","null","images/tutalien2","images/nothing.png","NA","practice","null","","","",""
"d3-animate-choice","36","297092","0.0-36.0","220","605","19","Female","true","true","true","true","""event"",""trial"",""time""
""fullscreenenter"",""5"",""42245""
","
","
","""event"",""trial"",""time""
""fullscreenenter"",""5"",""42245""
","
","356.60000000009313","","49","","","3000","1","1774.3000000000466,2338.70000000007","49,49","images/tutgreenplanet.jpg","images/tutalien1","images/tutalien2","null","images/tutalien2","images/t.png","NA","practice","null","","","",""
"d3-animate-choice","37","299382","0.0-37.0","220","605","19","Female","true","true","true","true","""event"",""trial"",""time""
""fullscreenenter"",""5"",""42245""
","
","
","""event"",""trial"",""time""
""fullscreenenter"",""5"",""42245""
","
","285.79999999993015","","49","","","3000","1","","","images/tutgreenplanet.jpg","images/tutalien1","images/tutalien2","null","images/tutalien2","images/t.png","NA","practice","null","","","",""
"d3-animate-choice","38","301742","0.0-38.0","220","605","19","Female","true","true","true","true","""event"",""trial"",""time""
""fullscreenenter"",""5"",""42245""
","
","
","""event"",""trial"",""time""
""fullscreenenter"",""5"",""42245""
","
","343.5999999999767","","49","","","3000","1","2138.6999999999534","49","images/tutgreenplanet.jpg","images/tutalien1","images/tutalien2","null","images/tutalien2","images/t.png","NA","practice","null","","","",""
"d3-animate-choice","39","304230","0.0-39.0","220","605","19","Female","true","true","true","true","""event"",""trial"",""time""
""fullscreenenter"",""5"",""42245""
","
","
","""event"",""trial"",""time""
""fullscreenenter"",""5"",""42245""
","
","482.19999999995343","","49","","","3000","1","","","images/tutgreenplanet.jpg","images/tutalien1","images/tutalien2","null","images/tutalien2","images/t.png","NA","practice","null","","","",""
"d3-animate-choice","40","306632","0.0-40.0","220","605","19","Female","true","true","true","true","""event"",""trial"",""time""
""fullscreenenter"",""5"",""42245""
","
","
","""event"",""trial"",""time""
""fullscreenenter"",""5"",""42245""
","
","390.0999999999767","","49","","","3000","1","","","images/tutgreenplanet.jpg","images/tutalien1","images/tutalien2","null","images/tutalien2","images/t.png","NA","practice","null","","","",""
"d3-animate-choice","41","308927","0.0-41.0","220","605","19","Female","true","true","true","true","""event"",""trial"",""time""
""fullscreenenter"",""5"",""42245""
","
","
","""event"",""trial"",""time""
""fullscreenenter"",""5"",""42245""
","
","291","","49","","","3000","1","","","images/tutgreenplanet.jpg","images/tutalien1","images/tutalien2","null","images/tutalien2","images/t.png","NA","practice","null","","","",""
"d3-animate-choice","42","311422","0.0-42.0","220","605","19","Female","true","true","true","true","""event"",""trial"",""time""
""fullscreenenter"",""5"",""42245""
","
","
","""event"",""trial"",""time""
""fullscreenenter"",""5"",""42245""
","
","473.5999999999767","","49","","","3000","1","","","images/tutgreenplanet.jpg","images/tutalien1","images/tutalien2","null","images/tutalien2","images/t.png","NA","practice","null","","","",""
"d3-animate-choice","43","313492","0.0-43.0","220","605","19","Female","true","true","true","true","""event"",""trial"",""time""
""fullscreenenter"",""5"",""42245""
","
","
","""event"",""trial"",""time""
""fullscreenenter"",""5"",""42245""
","
","58.59999999997672","","49","","","3000","1","372.9000000000233,1523.8000000000466,2043.3000000000466","49,49,49","images/tutgreenplanet.jpg","images/tutalien1","images/tutalien2","null","images/tutalien2","images/t.png","NA","practice","null","","","",""
"d3-instructions","44","325623","0.0-44.0","220","605","19","Female","true","true","true","true","""event"",""trial"",""time""
""fullscreenenter"",""5"",""42245""
","
","
","""event"",""trial"",""time""
""fullscreenenter"",""5"",""42245""
","
","","","","","","","","","","","","","","","","","","","","","",""
"d3-instructions","45","332032","0.0-45.0","220","605","19","Female","true","true","true","true","""event"",""trial"",""time""
""fullscreenenter"",""5"",""42245""
","
","
","""event"",""trial"",""time""
""fullscreenenter"",""5"",""42245""
","
","","","","","","","","","","","","","","","","","","","","","",""
"d3-instructions","46","336212","0.0-46.0","220","605","19","Female","true","true","true","true","""event"",""trial"",""time""
""fullscreenenter"",""5"",""42245""
","
","
","""event"",""trial"",""time""
""fullscreenenter"",""5"",""42245""
","
","","","","","","","","","","","","","","","","","","","","","",""
"d3-instructions","47","353644","0.0-47.0","220","605","19","Female","true","true","true","true","""event"",""trial"",""time""
""fullscreenenter"",""5"",""42245""
","
","
","""event"",""trial"",""time""
""fullscreenenter"",""5"",""42245""
","
","","","","","","","","","","","","","","","","","","","","","",""
"d3-instructions","48","359906","0.0-48.0","220","605","19","Female","true","true","true","true","""event"",""trial"",""time""
""fullscreenenter"",""5"",""42245""
","
","
","""event"",""trial"",""time""
""fullscreenenter"",""5"",""42245""
","
","","","","","","","","","","","","","","","","","","","","","",""
"d3-instructions","49","373916","0.0-49.0","220","605","19","Female","true","true","true","true","""event"",""trial"",""time""
""fullscreenenter"",""5"",""42245""
","
","
","""event"",""trial"",""time""
""fullscreenenter"",""5"",""42245""
","
","","","","","","","","","","","","","","","","","","","","","",""
"d3-instructions","50","382514","0.0-50.0","220","605","19","Female","true","true","true","true","""event"",""trial"",""time""
""fullscreenenter"",""5"",""42245""
","
","
","""event"",""trial"",""time""
""fullscreenenter"",""5"",""42245""
","
","","","","","","","","","","","","","","","","","","","","","",""
"d3-instructions","51","385375","0.0-51.0","220","605","19","Female","true","true","true","true","""event"",""trial"",""time""
""fullscreenenter"",""5"",""42245""
","
","
","""event"",""trial"",""time""
""fullscreenenter"",""5"",""42245""
","
","","","","","","","","","","","","","","","","","","","","","",""
"d3-instructions","52","387682","0.0-52.0","220","605","19","Female","true","true","true","true","""event"",""trial"",""time""
""fullscreenenter"",""5"",""42245""
","
","
","""event"",""trial"",""time""
""fullscreenenter"",""5"",""42245""
","
","","","","","","","","","","","","","","","","","","","","","",""
"d3-instructions","53","401567","0.0-53.0","220","605","19","Female","true","true","true","true","""event"",""trial"",""time""
""fullscreenenter"",""5"",""42245""
","
","
","""event"",""trial"",""time""
""fullscreenenter"",""5"",""42245""
","
","","","","","","","","","","","","","","","","","","","","","",""
"d3-instructions","54","413995","0.0-54.0","220","605","19","Female","true","true","true","true","""event"",""trial"",""time""
""fullscreenenter"",""5"",""42245""
","
","
","""event"",""trial"",""time""
""fullscreenenter"",""5"",""42245""
","
","","","","","","","","","","","","","","","","","","","","","",""
"d3-instructions","55","422929","0.0-55.0","220","605","19","Female","true","true","true","true","""event"",""trial"",""time""
""fullscreenenter"",""5"",""42245""
","
","
","""event"",""trial"",""time""
""fullscreenenter"",""5"",""42245""
","
","","","","","","","","","","","","","","","","","","","","","",""
"d3-instructions","56","433321","0.0-56.0","220","605","19","Female","true","true","true","true","""event"",""trial"",""time""
""fullscreenenter"",""5"",""42245""
","
","
","""event"",""trial"",""time""
""fullscreenenter"",""5"",""42245""
","
","","","","","","","","","","","","","","","","","","","","","",""
"d3-instructions","57","441472","0.0-57.0","220","605","19","Female","true","true","true","true","""event"",""trial"",""time""
""fullscreenenter"",""5"",""42245""
","
","
","""event"",""trial"",""time""
""fullscreenenter"",""5"",""42245""
","
","","","","","","","","","","","","","","","","","","","","","",""
"d3-instructions","58","451411","0.0-58.0","220","605","19","Female","true","true","true","true","""event"",""trial"",""time""
""fullscreenenter"",""5"",""42245""
","
","
","""event"",""trial"",""time""
""fullscreenenter"",""5"",""42245""
","
","","","","","","","","","","","","","","","","","","","","","",""
"d3-instructions","59","456120","0.0-59.0","220","605","19","Female","true","true","true","true","""event"",""trial"",""time""
""fullscreenenter"",""5"",""42245""
","
","
","""event"",""trial"",""time""
""fullscreenenter"",""5"",""42245""
","
","","","","","","","","","","","","","","","","","","","","","",""
"d3-instructions","60","460113","0.0-60.0","220","605","19","Female","true","true","true","true","""event"",""trial"",""time""
""fullscreenenter"",""5"",""42245""
","
","
","""event"",""trial"",""time""
""fullscreenenter"",""5"",""42245""
","
","","","","","","","","","","","","","","","","","","","","","",""
"d3-animate-choice","61","462772","0.0-61.0-0.0","220","605","19","Female","true","true","true","true","""event"",""trial"",""time""
""fullscreenenter"",""5"",""42245""
","
","
","""event"",""trial"",""time""
""fullscreenenter"",""5"",""42245""
","
","642.9000000000233","","49","","","3000","1","","","images/earth.jpg","images/tutrocket2","images/tutrocket1","null","images/tutrocket1","","1","practice","null","1","","",""
"d3-animate-choice","62","465732","0.0-61.0-1.0","220","605","19","Female","true","true","true","true","""event"",""trial"",""time""
""fullscreenenter"",""5"",""42245""
","
","
","""event"",""trial"",""time""
""fullscreenenter"",""5"",""42245""
","
","951.0999999999767","","48","","","3000","1","","","images/tutgreenplanet.jpg","images/tutalien2","images/tutalien1","images/tutrocket1","images/tutalien2","images/nothing.png","2","practice","true","2","common","0","2022-02-02 00:59:11.942"
"two-step-fixation","63","466742","0.0-61.0-2.0","220","605","19","Female","true","true","true","true","""event"",""trial"",""time""
""fullscreenenter"",""5"",""42245""
","
","
","""event"",""trial"",""time""
""fullscreenenter"",""5"",""42245""
","
","","images/earth.jpg","","","","","","","","","","","","","","fixation","","","","","",""
"d3-animate-choice","64","469872","0.0-61.0-0.1","220","605","19","Female","true","true","true","true","""event"",""trial"",""time""
""fullscreenenter"",""5"",""42245""
","
","
","""event"",""trial"",""time""
""fullscreenenter"",""5"",""42245""
","
","1115.4000000000233","","49","","","3000","1","","","images/earth.jpg","images/tutrocket2","images/tutrocket1","null","images/tutrocket1","","1","practice","null","1","","",""
"d3-animate-choice","65","472847","0.0-61.0-1.1","220","605","19","Female","true","true","true","true","""event"",""trial"",""time""
""fullscreenenter"",""5"",""42245""
","
","
","""event"",""trial"",""time""
""fullscreenenter"",""5"",""42245""
","
","971.0999999999767","","48","","","3000","1","","","images/tutyellowplanet.jpg","images/tutalien4","images/tutalien3","images/tutrocket1","images/tutalien4","images/nothing.png","2","practice","false","2","rare","0","2022-02-02 00:59:19.057"
"two-step-fixation","66","473853","0.0-61.0-2.1","220","605","19","Female","true","true","true","true","""event"",""trial"",""time""
""fullscreenenter"",""5"",""42245""
","
","
","""event"",""trial"",""time""
""fullscreenenter"",""5"",""42245""
","
","","images/earth.jpg","","","","","","","","","","","","","","fixation","","","","","",""
"d3-animate-choice","67","476412","0.0-61.0-0.2","220","605","19","Female","true","true","true","true","""event"",""trial"",""time""
""fullscreenenter"",""5"",""42245""
","
","
","""event"",""trial"",""time""
""fullscreenenter"",""5"",""42245""
","
","547.6000000000931","","49","","","3000","1","","","images/earth.jpg","images/tutrocket2","images/tutrocket1","null","images/tutrocket1","","1","practice","null","1","","",""
"d3-animate-choice","68","479245","0.0-61.0-1.2","220","605","19","Female","true","true","true","true","""event"",""trial"",""time""
""fullscreenenter"",""5"",""42245""
","
","
","""event"",""trial"",""time""
""fullscreenenter"",""5"",""42245""
","
","828.5","","48","","","3000","1","","","images/tutgreenplanet.jpg","images/tutalien2","images/tutalien1","images/tutrocket1","images/tutalien2","images/nothing.png","2","practice","true","2","common","0","2022-02-02 00:59:25.456"
"two-step-fixation","69","480249","0.0-61.0-2.2","220","605","19","Female","true","true","true","true","""event"",""trial"",""time""
""fullscreenenter"",""5"",""42245""
","
","
","""event"",""trial"",""time""
""fullscreenenter"",""5"",""42245""
","
","","images/earth.jpg","","","","","","","","","","","","","","fixation","","","","","",""
"d3-animate-choice","70","482722","0.0-61.0-0.3","220","605","19","Female","true","true","true","true","""event"",""trial"",""time""
""fullscreenenter"",""5"",""42245""
","
","
","""event"",""trial"",""time""
""fullscreenenter"",""5"",""42245""
","
","454.5999999999767","","49","","","3000","1","","","images/earth.jpg","images/tutrocket2","images/tutrocket1","null","images/tutrocket1","","1","practice","null","1","","",""
"d3-animate-choice","71","485836","0.0-61.0-1.3","220","605","19","Female","true","true","true","true","""event"",""trial"",""time""
""fullscreenenter"",""5"",""42245""
","
","
","""event"",""trial"",""time""
""fullscreenenter"",""5"",""42245""
","
","1108.5","","49","","","3000","1","","","images/tutgreenplanet.jpg","images/tutalien2","images/tutalien1","images/tutrocket1","images/tutalien1","images/nothing.png","2","practice","true","1","common","0","2022-02-02 00:59:32.046"
"two-step-fixation","72","486841","0.0-61.0-2.3","220","605","19","Female","true","true","true","true","""event"",""trial"",""time""
""fullscreenenter"",""5"",""42245""
","
","
","""event"",""trial"",""time""
""fullscreenenter"",""5"",""42245""
","
","","images/earth.jpg","","","","","","","","","","","","","","fixation","","","","","",""
"d3-animate-choice","73","489139","0.0-61.0-0.4","220","605","19","Female","true","true","true","true","""event"",""trial"",""time""
""fullscreenenter"",""5"",""42245""
","
","
","""event"",""trial"",""time""
""fullscreenenter"",""5"",""42245""
","
","292.4000000000233","","49","","","3000","1","","","images/earth.jpg","images/tutrocket2","images/tutrocket1","null","images/tutrocket1","","1","practice","null","1","","",""
"d3-animate-choice","74","491484","0.0-61.0-1.4","220","605","19","Female","true","true","true","true","""event"",""trial"",""time""
""fullscreenenter"",""5"",""42245""
","
","
","""event"",""trial"",""time""
""fullscreenenter"",""5"",""42245""
","
","340.4000000000233","","49","","","3000","1","374","50","images/tutgreenplanet.jpg","images/tutalien2","images/tutalien1","images/tutrocket1","images/tutalien1","images/nothing.png","2","practice","true","1","common","0","2022-02-02 00:59:37.694"
"two-step-fixation","75","492489","0.0-61.0-2.4","220","605","19","Female","true","true","true","true","""event"",""trial"",""time""
""fullscreenenter"",""5"",""42245""
","
","
","""event"",""trial"",""time""
""fullscreenenter"",""5"",""42245""
","
","","images/earth.jpg","","","","","","","","","","","","","","fixation","","","","","",""
"d3-animate-choice","76","494948","0.0-61.0-0.5","220","605","19","Female","true","true","true","true","""event"",""trial"",""time""
""fullscreenenter"",""5"",""42245""
","
","
","""event"",""trial"",""time""
""fullscreenenter"",""5"",""42245""
","
","451.9000000000233","","48","","","3000","1","","","images/earth.jpg","images/tutrocket2","images/tutrocket1","null","images/tutrocket2","","1","practice","null","2","","",""
"d3-animate-choice","77","497354","0.0-61.0-1.5","220","605","19","Female","true","true","true","true","""event"",""trial"",""time""
""fullscreenenter"",""5"",""42245""
","
","
","""event"",""trial"",""time""
""fullscreenenter"",""5"",""42245""
","
","401.29999999993015","","48","","","3000","1","","","images/tutyellowplanet.jpg","images/tutalien4","images/tutalien3","images/tutrocket2","images/tutalien4","images/t.png","2","practice","true","2","common","1","2022-02-02 00:59:43.564"
"two-step-fixation","78","498357","0.0-61.0-2.5","220","605","19","Female","true","true","true","true","""event"",""trial"",""time""
""fullscreenenter"",""5"",""42245""
","
","
","""event"",""trial"",""time""
""fullscreenenter"",""5"",""42245""
","
","","images/earth.jpg","","","","","","","","","","","","","","fixation","","","","","",""
"d3-animate-choice","79","500751","0.0-61.0-0.6","220","605","19","Female","true","true","true","true","""event"",""trial"",""time""
""fullscreenenter"",""5"",""42245""
","
","
","""event"",""trial"",""time""
""fullscreenenter"",""5"",""42245""
","
","388.4000000000233","","48","","","3000","1","","","images/earth.jpg","images/tutrocket2","images/tutrocket1","null","images/tutrocket2","","1","practice","null","2","","",""
"d3-animate-choice","80","503259","0.0-61.0-1.6","220","605","19","Female","true","true","true","true","""event"",""trial"",""time""
""fullscreenenter"",""5"",""42245""
","
","
","""event"",""trial"",""time""
""fullscreenenter"",""5"",""42245""
","
","504.19999999995343","","49","","","3000","1","","","images/tutgreenplanet.jpg","images/tutalien2","images/tutalien1","images/tutrocket2","images/tutalien1","images/t.png","2","practice","false","1","rare","1","2022-02-02 00:59:49.470"
"two-step-fixation","81","504263","0.0-61.0-2.6","220","605","19","Female","true","true","true","true","""event"",""trial"",""time""
""fullscreenenter"",""5"",""42245""
","
","
","""event"",""trial"",""time""
""fullscreenenter"",""5"",""42245""
","
","","images/earth.jpg","","","","","","","","","","","","","","fixation","","","","","",""
"d3-animate-choice","82","506666","0.0-61.0-0.7","220","605","19","Female","true","true","true","true","""event"",""trial"",""time""
""fullscreenenter"",""5"",""42245""
","
","
","""event"",""trial"",""time""
""fullscreenenter"",""5"",""42245""
","
","396.69999999995343","","48","","","3000","1","","","images/earth.jpg","images/tutrocket2","images/tutrocket1","null","images/tutrocket2","","1","practice","null","2","","",""
"d3-animate-choice","83","509318","0.0-61.0-1.7","220","605","19","Female","true","true","true","true","""event"",""trial"",""time""
""fullscreenenter"",""5"",""42245""
","
","
","""event"",""trial"",""time""
""fullscreenenter"",""5"",""42245""
","
","647.8000000001048","","48","","","3000","1","","","images/tutyellowplanet.jpg","images/tutalien4","images/tutalien3","images/tutrocket2","images/tutalien4","images/t.png","2","practice","true","2","common","1","2022-02-02 00:59:55.530"
"two-step-fixation","84","510323","0.0-61.0-2.7","220","605","19","Female","true","true","true","true","""event"",""trial"",""time""
""fullscreenenter"",""5"",""42245""
","
","
","""event"",""trial"",""time""
""fullscreenenter"",""5"",""42245""
","
","","images/earth.jpg","","","","","","","","","","","","","","fixation","","","","","",""
"d3-animate-choice","85","512643","0.0-61.0-0.8","220","605","19","Female","true","true","true","true","""event"",""trial"",""time""
""fullscreenenter"",""5"",""42245""
","
","
","""event"",""trial"",""time""
""fullscreenenter"",""5"",""42245""
","
","315.20000000018626","","48","","","3000","1","","","images/earth.jpg","images/tutrocket2","images/tutrocket1","null","images/tutrocket2","","1","practice","null","2","","",""
"d3-animate-choice","86","515165","0.0-61.0-1.8","220","605","19","Female","true","true","true","true","""event"",""trial"",""time""
""fullscreenenter"",""5"",""42245""
","
","
","""event"",""trial"",""time""
""fullscreenenter"",""5"",""42245""
","
","519.3999999999069","","49","","","3000","1","","","images/tutyellowplanet.jpg","images/tutalien4","images/tutalien3","images/tutrocket2","images/tutalien3","images/t.png","2","practice","true","1","common","1","2022-02-02 01:00:01.375"
"two-step-fixation","87","516171","0.0-61.0-2.8","220","605","19","Female","true","true","true","true","""event"",""trial"",""time""
""fullscreenenter"",""5"",""42245""
","
","
","""event"",""trial"",""time""
""fullscreenenter"",""5"",""42245""
","
","","images/earth.jpg","","","","","","","","","","","","","","fixation","","","","","",""
"d3-animate-choice","88","518570","0.0-61.0-0.9","220","605","19","Female","true","true","true","true","""event"",""trial"",""time""
""fullscreenenter"",""5"",""42245""
","
","
","""event"",""trial"",""time""
""fullscreenenter"",""5"",""42245""
","
","395.19999999995343","","48","","","3000","1","","","images/earth.jpg","images/tutrocket2","images/tutrocket1","null","images/tutrocket2","","1","practice","null","2","","",""
"d3-animate-choice","89","521008","0.0-61.0-1.9","220","605","19","Female","true","true","true","true","""event"",""trial"",""time""
""fullscreenenter"",""5"",""42245""
","
","
","""event"",""trial"",""time""
""fullscreenenter"",""5"",""42245""
","
","432.39999999990687","","49","","","3000","1","445","50","images/tutyellowplanet.jpg","images/tutalien4","images/tutalien3","images/tutrocket2","images/tutalien3","images/t.png","2","practice","true","1","common","1","2022-02-02 01:00:07.218"
"two-step-fixation","90","522012","0.0-61.0-2.9","220","605","19","Female","true","true","true","true","""event"",""trial"",""time""
""fullscreenenter"",""5"",""42245""
","
","
","""event"",""trial"",""time""
""fullscreenenter"",""5"",""42245""
","
","","images/earth.jpg","","","","","","","","","","","","","","fixation","","","","","",""
"d3-animate-choice","91","524291","0.0-61.0-0.10","220","605","19","Female","true","true","true","true","""event"",""trial"",""time""
""fullscreenenter"",""5"",""42245""
","
","
","""event"",""trial"",""time""
""fullscreenenter"",""5"",""42245""
","
","273.60000000009313","","48","","","3000","1","","","images/earth.jpg","images/tutrocket2","images/tutrocket1","null","images/tutrocket2","","1","practice","null","2","","",""
"d3-animate-choice","92","526832","0.0-61.0-1.10","220","605","19","Female","true","true","true","true","""event"",""trial"",""time""
""fullscreenenter"",""5"",""42245""
","
","
","""event"",""trial"",""time""
""fullscreenenter"",""5"",""42245""
","
","536.5","","48","","","3000","1","","","images/tutgreenplanet.jpg","images/tutalien2","images/tutalien1","images/tutrocket2","images/tutalien2","images/t.png","2","practice","false","2","rare","1","2022-02-02 01:00:13.042"
"two-step-fixation","93","527837","0.0-61.0-2.10","220","605","19","Female","true","true","true","true","""event"",""trial"",""time""
""fullscreenenter"",""5"",""42245""
","
","
","""event"",""trial"",""time""
""fullscreenenter"",""5"",""42245""
","
","","images/earth.jpg","","","","","","","","","","","","","","fixation","","","","","",""
"d3-animate-choice","94","530219","0.0-61.0-0.11","220","605","19","Female","true","true","true","true","""event"",""trial"",""time""
""fullscreenenter"",""5"",""42245""
","
","
","""event"",""trial"",""time""
""fullscreenenter"",""5"",""42245""
","
","378.0999999998603","","48","","","3000","1","","","images/earth.jpg","images/tutrocket2","images/tutrocket1","null","images/tutrocket2","","1","practice","null","2","","",""
"d3-animate-choice","95","532888","0.0-61.0-1.11","220","605","19","Female","true","true","true","true","""event"",""trial"",""time""
""fullscreenenter"",""5"",""42245""
","
","
","""event"",""trial"",""time""
""fullscreenenter"",""5"",""42245""
","
","665.5","","48","","","3000","1","","","images/tutgreenplanet.jpg","images/tutalien2","images/tutalien1","images/tutrocket2","images/tutalien2","images/t.png","2","practice","false","2","rare","1","2022-02-02 01:00:19.098"
"two-step-fixation","96","533891","0.0-61.0-2.11","220","605","19","Female","true","true","true","true","""event"",""trial"",""time""
""fullscreenenter"",""5"",""42245""
","
","
","""event"",""trial"",""time""
""fullscreenenter"",""5"",""42245""
","
","","images/earth.jpg","","","","","","","","","","","","","","fixation","","","","","",""
"d3-animate-choice","97","535933","0.0-61.0-0.12","220","605","19","Female","true","true","true","true","""event"",""trial"",""time""
""fullscreenenter"",""5"",""42245""
","
","
","""event"",""trial"",""time""
""fullscreenenter"",""5"",""42245""
","
","36.89999999990687","","48","","","3000","1","","","images/earth.jpg","images/tutrocket2","images/tutrocket1","null","images/tutrocket2","","1","practice","null","2","","",""
"d3-animate-choice","98","538445","0.0-61.0-1.12","220","605","19","Female","true","true","true","true","""event"",""trial"",""time""
""fullscreenenter"",""5"",""42245""
","
","
","""event"",""trial"",""time""
""fullscreenenter"",""5"",""42245""
","
","508.19999999995343","","48","","","3000","1","","","images/tutgreenplanet.jpg","images/tutalien2","images/tutalien1","images/tutrocket2","images/tutalien2","images/nothing.png","2","practice","false","2","rare","0","2022-02-02 01:00:24.655"
"two-step-fixation","99","539450","0.0-61.0-2.12","220","605","19","Female","true","true","true","true","""event"",""trial"",""time""
""fullscreenenter"",""5"",""42245""
","
","
","""event"",""trial"",""time""
""fullscreenenter"",""5"",""42245""
","
","","images/earth.jpg","","","","","","","","","","","","","","fixation","","","","","",""
"d3-animate-choice","100","541598","0.0-61.0-0.13","220","605","19","Female","true","true","true","true","""event"",""trial"",""time""
""fullscreenenter"",""5"",""42245""
","
","
","""event"",""trial"",""time""
""fullscreenenter"",""5"",""42245""
","
","142.30000000004657","","48","","","3000","1","","","images/earth.jpg","images/tutrocket2","images/tutrocket1","null","images/tutrocket2","","1","practice","null","2","","",""
"d3-animate-choice","101","544094","0.0-61.0-1.13","220","605","19","Female","true","true","true","true","""event"",""trial"",""time""
""fullscreenenter"",""5"",""42245""
","
","
","""event"",""trial"",""time""
""fullscreenenter"",""5"",""42245""
","
","491","","49","","","3000","1","2454.5","32","images/tutyellowplanet.jpg","images/tutalien4","images/tutalien3","images/tutrocket2","images/tutalien3","images/nothing.png","2","practice","true","1","common","0","2022-02-02 01:00:30.304"
"two-step-fixation","102","545100","0.0-61.0-2.13","220","605","19","Female","true","true","true","true","""event"",""trial"",""time""
""fullscreenenter"",""5"",""42245""
","
","
","""event"",""trial"",""time""
""fullscreenenter"",""5"",""42245""
","
","","images/earth.jpg","","","","","","","","","","","","","","fixation","","","","","",""
"d3-animate-choice","103","547387","0.0-61.0-0.14","220","605","19","Female","true","true","true","true","""event"",""trial"",""time""
""fullscreenenter"",""5"",""42245""
","
","
","""event"",""trial"",""time""
""fullscreenenter"",""5"",""42245""
","
","280.89999999990687","","48","","","3000","1","","","images/earth.jpg","images/tutrocket2","images/tutrocket1","null","images/tutrocket2","","1","practice","null","2","","",""
"d3-animate-choice","104","549913","0.0-61.0-1.14","220","605","19","Female","true","true","true","true","""event"",""trial"",""time""
""fullscreenenter"",""5"",""42245""
","
","
","""event"",""trial"",""time""
""fullscreenenter"",""5"",""42245""
","
","521.4000000001397","","48","","","3000","1","","","images/tutgreenplanet.jpg","images/tutalien2","images/tutalien1","images/tutrocket2","images/tutalien2","images/t.png","2","practice","false","2","rare","1","2022-02-02 01:00:36.123"
"two-step-fixation","105","550917","0.0-61.0-2.14","220","605","19","Female","true","true","true","true","""event"",""trial"",""time""
""fullscreenenter"",""5"",""42245""
","
","
","""event"",""trial"",""time""
""fullscreenenter"",""5"",""42245""
","
","","images/earth.jpg","","","","","","","","","","","","","","fixation","","","","","",""
"d3-animate-choice","106","553222","0.0-61.0-0.15","220","605","19","Female","true","true","true","true","""event"",""trial"",""time""
""fullscreenenter"",""5"",""42245""
","
","
","""event"",""trial"",""time""
""fullscreenenter"",""5"",""42245""
","
","300.20000000018626","","48","","","3000","1","","","images/earth.jpg","images/tutrocket2","images/tutrocket1","null","images/tutrocket2","","1","practice","null","2","","",""
"d3-animate-choice","107","556525","0.0-61.0-1.15","220","605","19","Female","true","true","true","true","""event"",""trial"",""time""
""fullscreenenter"",""5"",""42245""
","
","
","""event"",""trial"",""time""
""fullscreenenter"",""5"",""42245""
","
","1296.1999999999534","","48","","","3000","1","","","images/tutyellowplanet.jpg","images/tutalien4","images/tutalien3","images/tutrocket2","images/tutalien4","images/t.png","2","practice","true","2","common","1","2022-02-02 01:00:42.735"
"two-step-fixation","108","557531","0.0-61.0-2.15","220","605","19","Female","true","true","true","true","""event"",""trial"",""time""
""fullscreenenter"",""5"",""42245""
","
","
","""event"",""trial"",""time""
""fullscreenenter"",""5"",""42245""
","
","","images/earth.jpg","","","","","","","","","","","","","","fixation","","","","","",""
"d3-animate-choice","109","559545","0.0-61.0-0.16","220","605","19","Female","true","true","true","true","""event"",""trial"",""time""
""fullscreenenter"",""5"",""42245""
","
","
","""event"",""trial"",""time""
""fullscreenenter"",""5"",""42245""
","
","11.199999999953434","","48","","","3000","1","","","images/earth.jpg","images/tutrocket2","images/tutrocket1","null","images/tutrocket2","","1","practice","null","2","","",""
"d3-animate-choice","110","562434","0.0-61.0-1.16","220","605","19","Female","true","true","true","true","""event"",""trial"",""time""
""fullscreenenter"",""5"",""42245""
","
","
","""event"",""trial"",""time""
""fullscreenenter"",""5"",""42245""
","
","883.7000000001863","","48","","","3000","1","","","images/tutyellowplanet.jpg","images/tutalien4","images/tutalien3","images/tutrocket2","images/tutalien4","images/nothing.png","2","practice","true","2","common","0","2022-02-02 01:00:48.644"
"two-step-fixation","111","563439","0.0-61.0-2.16","220","605","19","Female","true","true","true","true","""event"",""trial"",""time""
""fullscreenenter"",""5"",""42245""
","
","
","""event"",""trial"",""time""
""fullscreenenter"",""5"",""42245""
","
","","images/earth.jpg","","","","","","","","","","","","","","fixation","","","","","",""
"d3-animate-choice","112","565628","0.0-61.0-0.17","220","605","19","Female","true","true","true","true","""event"",""trial"",""time""
""fullscreenenter"",""5"",""42245""
","
","
","""event"",""trial"",""time""
""fullscreenenter"",""5"",""42245""
","
","180.60000000009313","","48","","","3000","1","","","images/earth.jpg","images/tutrocket2","images/tutrocket1","null","images/tutrocket2","","1","practice","null","2","","",""
"d3-animate-choice","113","568510","0.0-61.0-1.17","220","605","19","Female","true","true","true","true","""event"",""trial"",""time""
""fullscreenenter"",""5"",""42245""
","
","
","""event"",""trial"",""time""
""fullscreenenter"",""5"",""42245""
","
","876.4000000001397","","49","","","3000","1","","","images/tutgreenplanet.jpg","images/tutalien2","images/tutalien1","images/tutrocket2","images/tutalien1","images/t.png","2","practice","false","1","rare","1","2022-02-02 01:00:54.720"
"two-step-fixation","114","569514","0.0-61.0-2.17","220","605","19","Female","true","true","true","true","""event"",""trial"",""time""
""fullscreenenter"",""5"",""42245""
","
","
","""event"",""trial"",""time""
""fullscreenenter"",""5"",""42245""
","
","","images/earth.jpg","","","","","","","","","","","","","","fixation","","","","","",""
"d3-animate-choice","115","571770","0.0-61.0-0.18","220","605","19","Female","true","true","true","true","""event"",""trial"",""time""
""fullscreenenter"",""5"",""42245""
","
","
","""event"",""trial"",""time""
""fullscreenenter"",""5"",""42245""
","
","250.80000000004657","","48","","","3000","1","","","images/earth.jpg","images/tutrocket2","images/tutrocket1","null","images/tutrocket2","","1","practice","null","2","","",""
"d3-animate-choice","116","574356","0.0-61.0-1.18","220","605","19","Female","true","true","true","true","""event"",""trial"",""time""
""fullscreenenter"",""5"",""42245""
","
","
","""event"",""trial"",""time""
""fullscreenenter"",""5"",""42245""
","
","580.6999999999534","","48","","","3000","1","","","images/tutgreenplanet.jpg","images/tutalien2","images/tutalien1","images/tutrocket2","images/tutalien2","images/t.png","2","practice","false","2","rare","1","2022-02-02 01:01:00.566"
"two-step-fixation","117","575361","0.0-61.0-2.18","220","605","19","Female","true","true","true","true","""event"",""trial"",""time""
""fullscreenenter"",""5"",""42245""
","
","
","""event"",""trial"",""time""
""fullscreenenter"",""5"",""42245""
","
","","images/earth.jpg","","","","","","","","","","","","","","fixation","","","","","",""
"d3-animate-choice","118","577973","0.0-61.0-0.19","220","605","19","Female","true","true","true","true","""event"",""trial"",""time""
""fullscreenenter"",""5"",""42245""
","
","
","""event"",""trial"",""time""
""fullscreenenter"",""5"",""42245""
","
","606.5","","48","","","3000","1","","","images/earth.jpg","images/tutrocket2","images/tutrocket1","null","images/tutrocket2","","1","practice","null","2","","",""
"d3-animate-choice","119","580449","0.0-61.0-1.19","220","605","19","Female","true","true","true","true","""event"",""trial"",""time""
""fullscreenenter"",""5"",""42245""
","
","
","""event"",""trial"",""time""
""fullscreenenter"",""5"",""42245""
","
","472.19999999995343","","48","","","3000","1","2459.4000000001397","48","images/tutgreenplanet.jpg","images/tutalien2","images/tutalien1","images/tutrocket2","images/tutalien2","images/nothing.png","2","practice","false","2","rare","0","2022-02-02 01:01:06.659"
"two-step-fixation","120","581454","0.0-61.0-2.19","220","605","19","Female","true","true","true","true","""event"",""trial"",""time""
""fullscreenenter"",""5"",""42245""
","
","
","""event"",""trial"",""time""
""fullscreenenter"",""5"",""42245""
","
","","images/earth.jpg","","","","","","","","","","","","","","fixation","","","","","",""
"d3-instructions","121","583665","0.0-62.0","220","605","19","Female","true","true","true","true","""event"",""trial"",""time""
""fullscreenenter"",""5"",""42245""
","
","
","""event"",""trial"",""time""
""fullscreenenter"",""5"",""42245""
","
","","","","","","","","","","","","","","","","","","","","","",""
"audio-keyboard-response","122","587655","0.0-63.0","220","605","19","Female","true","true","true","true","""event"",""trial"",""time""
""fullscreenenter"",""5"",""42245""
","
","
","""event"",""trial"",""time""
""fullscreenenter"",""5"",""42245""
","
","3989","audio/instructions/treasure_feedback.wav","32","","","","","","","","","","","","","","","","","","",""
"d3-instructions","123","596769","0.0-64.0","220","605","19","Female","true","true","true","true","""event"",""trial"",""time""
""fullscreenenter"",""5"",""42245""
","
","
","""event"",""trial"",""time""
""fullscreenenter"",""5"",""42245""
","
","","","","","","","","","","","","","","","","","","","","","",""
"d3-instructions","124","606290","0.0-65.0","220","605","19","Female","true","true","true","true","""event"",""trial"",""time""
""fullscreenenter"",""5"",""42245""
","
","
","""event"",""trial"",""time""
""fullscreenenter"",""5"",""42245""
","
","","","","","","","","","","","","","","","","","","","","","",""
"d3-instructions","125","630339","0.0-66.0","220","605","19","Female","true","true","true","true","""event"",""trial"",""time""
""fullscreenenter"",""5"",""42245""
","
","
","""event"",""trial"",""time""
""fullscreenenter"",""5"",""42245""
","
","","","","","","","","","","","","","","","","","","","","","",""
"d3-instructions","126","644341","0.0-67.0","220","605","19","Female","true","true","true","true","""event"",""trial"",""time""
""fullscreenenter"",""5"",""42245""
","
","
","""event"",""trial"",""time""
""fullscreenenter"",""5"",""42245""
","
","","","","","","","","","","","","","","","","","","","","","",""
"d3-instructions","127","647375","0.0-68.0","220","605","19","Female","true","true","true","true","""event"",""trial"",""time""
""fullscreenenter"",""5"",""42245""
","
","
","""event"",""trial"",""time""
""fullscreenenter"",""5"",""42245""
","
","","","","","","","","","","","","","","","","","","","","","",""
"instructions-quiz","128","651622","0.0-69.0","220","605","19","Female","true","true","true","true","""event"",""trial"",""time""
""fullscreenenter"",""5"",""42245""
","
","
","""event"",""trial"",""time""
""fullscreenenter"",""5"",""42245""
","
","4244.300000000047","audio/quiz/Q1_Prompt.wav","","1","","","","","","","","","","","","","","","","","",""
"audio-keyboard-response","129","653984","0.0-70.0","220","605","19","Female","true","true","true","true","""event"",""trial"",""time""
""fullscreenenter"",""5"",""42245""
","
","
","""event"",""trial"",""time""
""fullscreenenter"",""5"",""42245""
","
","2360","audio/quiz/Q1_Correct.wav","32","","","","","","","","","","","","","","","","","","",""
"instructions-quiz","130","658806","0.0-71.0","220","605","19","Female","true","true","true","true","""event"",""trial"",""time""
""fullscreenenter"",""5"",""42245""
","
","
","""event"",""trial"",""time""
""fullscreenenter"",""5"",""42245""
","
","4819.799999999814","audio/quiz/Q2_Prompt.wav","","0","","","","","","","","","","","","","","","","","",""
"audio-keyboard-response","131","659183","0.0-72.0","220","605","19","Female","true","true","true","true","""event"",""trial"",""time""
""fullscreenenter"",""5"",""42245""
","
","
","""event"",""trial"",""time""
""fullscreenenter"",""5"",""42245""
","
","381","audio/quiz/Q2_Correct.wav","32","","","","","","","","","","","","","","","","","","",""
"instructions-quiz","132","661395","0.0-73.0","220","605","19","Female","true","true","true","true","""event"",""trial"",""time""
""fullscreenenter"",""5"",""42245""
","
","
","""event"",""trial"",""time""
""fullscreenenter"",""5"",""42245""
","
","2210","audio/quiz/Q3_Prompt.wav","","1","","","","","","","","","","","","","","","","","",""
"audio-keyboard-response","133","661577","0.0-74.0","220","605","19","Female","true","true","true","true","""event"",""trial"",""time""
""fullscreenenter"",""5"",""42245""
","
","
","""event"",""trial"",""time""
""fullscreenenter"",""5"",""42245""
","
","179","audio/quiz/Q3_Correct.wav","32","","","","","","","","","","","","","","","","","","",""
"d3-instructions","134","667093","0.0-75.0","220","605","19","Female","true","true","true","true","""event"",""trial"",""time""
""fullscreenenter"",""5"",""42245""
","
","
","""event"",""trial"",""time""
""fullscreenenter"",""5"",""42245""
","
","","","","","","","","","","","","","","","","","","","","","",""
"d3-animate-choice","135","670439","0.0-76.0-0.0","220","605","19","Female","true","true","true","true","""event"",""trial"",""time""
""fullscreenenter"",""5"",""42245""
","
","
","""event"",""trial"",""time""
""fullscreenenter"",""5"",""42245""
","
","1334.0999999998603","","48","","","3000","1","","","images/earth.jpg","images/rocket2","images/rocket1","null","images/rocket2","","1","real","null","2","","",""
"d3-animate-choice","136","673248","0.0-76.0-1.0","220","605","19","Female","true","true","true","true","""event"",""trial"",""time""
""fullscreenenter"",""5"",""42245""
","
","
","""event"",""trial"",""time""
""fullscreenenter"",""5"",""42245""
","
","804.3000000000466","","49","","","3000","1","","","images/redplanet1.jpg","images/alien2","images/alien1","images/rocket2","images/alien1","images/nothing.png","2","real","false","1","rare","0","2022-02-02 01:02:39.458"
"two-step-fixation","137","674255","0.0-76.0-2.0","220","605","19","Female","true","true","true","true","""event"",""trial"",""time""
""fullscreenenter"",""5"",""42245""
","
","
","""event"",""trial"",""time""
""fullscreenenter"",""5"",""42245""
","
","","images/earth.jpg","","","","","","","","","","","","","","fixation","","","","","",""
"d3-animate-choice","138","676843","0.0-76.0-0.1","220","605","19","Female","true","true","true","true","""event"",""trial"",""time""
""fullscreenenter"",""5"",""42245""
","
","
","""event"",""trial"",""time""
""fullscreenenter"",""5"",""42245""
","
","582.5","","48","","","3000","1","","","images/earth.jpg","images/rocket2","images/rocket1","null","images/rocket2","","1","real","null","2","","",""
"d3-animate-choice","139","679785","0.0-76.0-1.1","220","605","19","Female","true","true","true","true","""event"",""trial"",""time""
""fullscreenenter"",""5"",""42245""
","
","
","""event"",""trial"",""time""
""fullscreenenter"",""5"",""42245""
","
","939.6000000000931","","48","","","3000","1","","","images/purpleplanet.jpg","images/alien4","images/alien3","images/rocket2","images/alien4","images/t.png","2","real","true","2","common","1","2022-02-02 01:02:45.995"
"two-step-fixation","140","680789","0.0-76.0-2.1","220","605","19","Female","true","true","true","true","""event"",""trial"",""time""
""fullscreenenter"",""5"",""42245""
","
","
","""event"",""trial"",""time""
""fullscreenenter"",""5"",""42245""
","
","","images/earth.jpg","","","","","","","","","","","","","","fixation","","","","","",""
"d3-animate-choice","141","683160","0.0-76.0-0.2","220","605","19","Female","true","true","true","true","""event"",""trial"",""time""
""fullscreenenter"",""5"",""42245""
","
","
","""event"",""trial"",""time""
""fullscreenenter"",""5"",""42245""
","
","366.80000000004657","","48","","","3000","1","","","images/earth.jpg","images/rocket2","images/rocket1","null","images/rocket2","","1","real","null","2","","",""
"d3-animate-choice","142","685729","0.0-76.0-1.2","220","605","19","Female","true","true","true","true","""event"",""trial"",""time""
""fullscreenenter"",""5"",""42245""
","
","
","""event"",""trial"",""time""
""fullscreenenter"",""5"",""42245""
","
","545.1000000000931","","48","","","3000","1","","","images/purpleplanet.jpg","images/alien4","images/alien3","images/rocket2","images/alien4","images/nothing.png","2","real","true","2","common","0","2022-02-02 01:02:51.939"
"two-step-fixation","143","686732","0.0-76.0-2.2","220","605","19","Female","true","true","true","true","""event"",""trial"",""time""
""fullscreenenter"",""5"",""42245""
","
","
","""event"",""trial"",""time""
""fullscreenenter"",""5"",""42245""
","
","","images/earth.jpg","","","","","","","","","","","","","","fixation","","","","","",""
"d3-animate-choice","144","689042","0.0-76.0-0.3","220","605","19","Female","true","true","true","true","""event"",""trial"",""time""
""fullscreenenter"",""5"",""42245""
","
","
","""event"",""trial"",""time""
""fullscreenenter"",""5"",""42245""
","
","289.10000000009313","","48","","","3000","1","","","images/earth.jpg","images/rocket2","images/rocket1","null","images/rocket2","","1","real","null","2","","",""
"d3-animate-choice","145","691683","0.0-76.0-1.3","220","605","19","Female","true","true","true","true","""event"",""trial"",""time""
""fullscreenenter"",""5"",""42245""
","
","
","""event"",""trial"",""time""
""fullscreenenter"",""5"",""42245""
","
","632.0999999998603","","48","","","3000","1","","","images/purpleplanet.jpg","images/alien4","images/alien3","images/rocket2","images/alien4","images/t.png","2","real","true","2","common","1","2022-02-02 01:02:57.893"
"two-step-fixation","146","692699","0.0-76.0-2.3","220","605","19","Female","true","true","true","true","""event"",""trial"",""time""
""fullscreenenter"",""5"",""42245""
","
","
","""event"",""trial"",""time""
""fullscreenenter"",""5"",""42245""
","
","","images/earth.jpg","","","","","","","","","","","","","","fixation","","","","","",""
"d3-animate-choice","147","694964","0.0-76.0-0.4","220","605","19","Female","true","true","true","true","""event"",""trial"",""time""
""fullscreenenter"",""5"",""42245""
","
","
","""event"",""trial"",""time""
""fullscreenenter"",""5"",""42245""
","
","259.30000000004657","","48","","","3000","1","","","images/earth.jpg","images/rocket2","images/rocket1","null","images/rocket2","","1","real","null","2","","",""
"d3-animate-choice","148","697418","0.0-76.0-1.4","220","605","19","Female","true","true","true","true","""event"",""trial"",""time""
""fullscreenenter"",""5"",""42245""
","
","
","""event"",""trial"",""time""
""fullscreenenter"",""5"",""42245""
","
","448","","48","","","3000","1","","","images/purpleplanet.jpg","images/alien4","images/alien3","images/rocket2","images/alien4","images/t.png","2","real","true","2","common","1","2022-02-02 01:03:03.628"
"two-step-fixation","149","698423","0.0-76.0-2.4","220","605","19","Female","true","true","true","true","""event"",""trial"",""time""
""fullscreenenter"",""5"",""42245""
","
","
","""event"",""trial"",""time""
""fullscreenenter"",""5"",""42245""
","
","","images/earth.jpg","","","","","","","","","","","","","","fixation","","","","","",""
"d3-animate-choice","150","700865","0.0-76.0-0.5","220","605","19","Female","true","true","true","true","""event"",""trial"",""time""
""fullscreenenter"",""5"",""42245""
","
","
","""event"",""trial"",""time""
""fullscreenenter"",""5"",""42245""
","
","438.19999999995343","","48","","","3000","1","","","images/earth.jpg","images/rocket2","images/rocket1","null","images/rocket2","","1","real","null","2","","",""
"d3-animate-choice","151","703249","0.0-76.0-1.5","220","605","19","Female","true","true","true","true","""event"",""trial"",""time""
""fullscreenenter"",""5"",""42245""
","
","
","""event"",""trial"",""time""
""fullscreenenter"",""5"",""42245""
","
","379.70000000018626","","48","","","3000","1","","","images/purpleplanet.jpg","images/alien4","images/alien3","images/rocket2","images/alien4","images/t.png","2","real","true","2","common","1","2022-02-02 01:03:09.459"
"two-step-fixation","152","704255","0.0-76.0-2.5","220","605","19","Female","true","true","true","true","""event"",""trial"",""time""
""fullscreenenter"",""5"",""42245""
","
","
","""event"",""trial"",""time""
""fullscreenenter"",""5"",""42245""
","
","","images/earth.jpg","","","","","","","","","","","","","","fixation","","","","","",""
"d3-animate-choice","153","706560","0.0-76.0-0.6","220","605","19","Female","true","true","true","true","""event"",""trial"",""time""
""fullscreenenter"",""5"",""42245""
","
","
","""event"",""trial"",""time""
""fullscreenenter"",""5"",""42245""
","
","300.70000000018626","","48","","","3000","1","","","images/earth.jpg","images/rocket2","images/rocket1","null","images/rocket2","","1","real","null","2","","",""
"d3-animate-choice","154","708836","0.0-76.0-1.6","220","605","19","Female","true","true","true","true","""event"",""trial"",""time""
""fullscreenenter"",""5"",""42245""
","
","
","""event"",""trial"",""time""
""fullscreenenter"",""5"",""42245""
","
","271.60000000009313","","48","","","3000","1","","","images/redplanet1.jpg","images/alien2","images/alien1","images/rocket2","images/alien2","images/t.png","2","real","false","2","rare","1","2022-02-02 01:03:15.046"
"two-step-fixation","155","709839","0.0-76.0-2.6","220","605","19","Female","true","true","true","true","""event"",""trial"",""time""
""fullscreenenter"",""5"",""42245""
","
","
","""event"",""trial"",""time""
""fullscreenenter"",""5"",""42245""
","
","","images/earth.jpg","","","","","","","","","","","","","","fixation","","","","","",""
"d3-animate-choice","156","712110","0.0-76.0-0.7","220","605","19","Female","true","true","true","true","""event"",""trial"",""time""
""fullscreenenter"",""5"",""42245""
","
","
","""event"",""trial"",""time""
""fullscreenenter"",""5"",""42245""
","
","265.19999999995343","","48","","","3000","1","","","images/earth.jpg","images/rocket2","images/rocket1","null","images/rocket2","","1","real","null","2","","",""
"d3-animate-choice","157","714961","0.0-76.0-1.7","220","605","19","Female","true","true","true","true","""event"",""trial"",""time""
""fullscreenenter"",""5"",""42245""
","
","
","""event"",""trial"",""time""
""fullscreenenter"",""5"",""42245""
","
","846.4000000001397","","48","","","3000","1","","","images/purpleplanet.jpg","images/alien4","images/alien3","images/rocket2","images/alien4","images/t.png","2","real","true","2","common","1","2022-02-02 01:03:21.171"
"two-step-fixation","158","715964","0.0-76.0-2.7","220","605","19","Female","true","true","true","true","""event"",""trial"",""time""
""fullscreenenter"",""5"",""42245""
","
","
","""event"",""trial"",""time""
""fullscreenenter"",""5"",""42245""
","
","","images/earth.jpg","","","","","","","","","","","","","","fixation","","","","","",""
"d3-animate-choice","159","718983","0.0-76.0-0.8","220","605","19","Female","true","true","true","true","""event"",""trial"",""time""
""fullscreenenter"",""5"",""42245""
","
","
","""event"",""trial"",""time""
""fullscreenenter"",""5"",""42245""
","
","1015","","49","","","3000","1","","","images/earth.jpg","images/rocket2","images/rocket1","null","images/rocket1","","1","real","null","1","","",""
"d3-animate-choice","160","721484","0.0-76.0-1.8","220","605","19","Female","true","true","true","true","""event"",""trial"",""time""
""fullscreenenter"",""5"",""42245""
","
","
","""event"",""trial"",""time""
""fullscreenenter"",""5"",""42245""
","
","496.19999999995343","","48","","","3000","1","","","images/redplanet1.jpg","images/alien2","images/alien1","images/rocket1","images/alien2","images/t.png","2","real","true","2","common","1","2022-02-02 01:03:27.694"
"two-step-fixation","161","722490","0.0-76.0-2.8","220","605","19","Female","true","true","true","true","""event"",""trial"",""time""
""fullscreenenter"",""5"",""42245""
","
","
","""event"",""trial"",""time""
""fullscreenenter"",""5"",""42245""
","
","","images/earth.jpg","","","","","","","","","","","","","","fixation","","","","","",""
"d3-animate-choice","162","724889","0.0-76.0-0.9","220","605","19","Female","true","true","true","true","""event"",""trial"",""time""
""fullscreenenter"",""5"",""42245""
","
","
","""event"",""trial"",""time""
""fullscreenenter"",""5"",""42245""
","
","393.19999999995343","","49","","","3000","1","","","images/earth.jpg","images/rocket2","images/rocket1","null","images/rocket1","","1","real","null","1","","",""
"d3-animate-choice","163","727284","0.0-76.0-1.9","220","605","19","Female","true","true","true","true","""event"",""trial"",""time""
""fullscreenenter"",""5"",""42245""
","
","
","""event"",""trial"",""time""
""fullscreenenter"",""5"",""42245""
","
","389.89999999990687","","48","","","3000","1","","","images/redplanet1.jpg","images/alien2","images/alien1","images/rocket1","images/alien2","images/t.png","2","real","true","2","common","1","2022-02-02 01:03:33.494"
"two-step-fixation","164","728286","0.0-76.0-2.9","220","605","19","Female","true","true","true","true","""event"",""trial"",""time""
""fullscreenenter"",""5"",""42245""
","
","
","""event"",""trial"",""time""
""fullscreenenter"",""5"",""42245""
","
","","images/earth.jpg","","","","","","","","","","","","","","fixation","","","","","",""
"d3-animate-choice","165","730592","0.0-76.0-0.10","220","605","19","Female","true","true","true","true","""event"",""trial"",""time""
""fullscreenenter"",""5"",""42245""
","
","
","""event"",""trial"",""time""
""fullscreenenter"",""5"",""42245""
","
","300.80000000004657","","49","","","3000","1","1215.7000000001863,1473.5,1672.6000000000931","48,48,48","images/earth.jpg","images/rocket2","images/rocket1","null","images/rocket1","","1","real","null","1","","",""
"d3-animate-choice","166","732811","0.0-76.0-1.10","220","605","19","Female","true","true","true","true","""event"",""trial"",""time""
""fullscreenenter"",""5"",""42245""
","
","
","""event"",""trial"",""time""
""fullscreenenter"",""5"",""42245""
","
","214.19999999995343","","48","","","3000","1","","","images/redplanet1.jpg","images/alien2","images/alien1","images/rocket1","images/alien2","images/nothing.png","2","real","true","2","common","0","2022-02-02 01:03:39.021"
"two-step-fixation","167","733815","0.0-76.0-2.10","220","605","19","Female","true","true","true","true","""event"",""trial"",""time""
""fullscreenenter"",""5"",""42245""
","
","
","""event"",""trial"",""time""
""fullscreenenter"",""5"",""42245""
","
","","images/earth.jpg","","","","","","","","","","","","","","fixation","","","","","",""
"d3-animate-choice","168","735945","0.0-76.0-0.11","220","605","19","Female","true","true","true","true","""event"",""trial"",""time""
""fullscreenenter"",""5"",""42245""
","
","
","""event"",""trial"",""time""
""fullscreenenter"",""5"",""42245""
","
","124.60000000009313","","48","","","3000","1","576.6000000000931,774.1999999999534,993.3999999999069,1295.6999999999534","48,48,48,48","images/earth.jpg","images/rocket2","images/rocket1","null","images/rocket2","","1","real","null","2","","",""
"d3-animate-choice","169","738348","0.0-76.0-1.11","220","605","19","Female","true","true","true","true","""event"",""trial"",""time""
""fullscreenenter"",""5"",""42245""
","
","
","""event"",""trial"",""time""
""fullscreenenter"",""5"",""42245""
","
","401.0999999998603","","48","","","3000","1","","","images/redplanet1.jpg","images/alien2","images/alien1","images/rocket2","images/alien2","images/t.png","2","real","false","2","rare","1","2022-02-02 01:03:44.558"
"two-step-fixation","170","739353","0.0-76.0-2.11","220","605","19","Female","true","true","true","true","""event"",""trial"",""time""
""fullscreenenter"",""5"",""42245""
","
","
","""event"",""trial"",""time""
""fullscreenenter"",""5"",""42245""
","
","","images/earth.jpg","","","","","","","","","","","","","","fixation","","","","","",""
"d3-animate-choice","171","741685","0.0-76.0-0.12","220","605","19","Female","true","true","true","true","""event"",""trial"",""time""
""fullscreenenter"",""5"",""42245""
","
","
","""event"",""trial"",""time""
""fullscreenenter"",""5"",""42245""
","
","325.30000000004657","","48","","","3000","1","","","images/earth.jpg","images/rocket2","images/rocket1","null","images/rocket2","","1","real","null","2","","",""
"d3-animate-choice","172","744312","0.0-76.0-1.12","220","605","19","Female","true","true","true","true","""event"",""trial"",""time""
""fullscreenenter"",""5"",""42245""
","
","
","""event"",""trial"",""time""
""fullscreenenter"",""5"",""42245""
","
","621.3999999999069","","48","","","3000","1","","","images/purpleplanet.jpg","images/alien4","images/alien3","images/rocket2","images/alien4","images/t.png","2","real","true","2","common","1","2022-02-02 01:03:50.522"
"two-step-fixation","173","745318","0.0-76.0-2.12","220","605","19","Female","true","true","true","true","""event"",""trial"",""time""
""fullscreenenter"",""5"",""42245""
","
","
","""event"",""trial"",""time""
""fullscreenenter"",""5"",""42245""
","
","","images/earth.jpg","","","","","","","","","","","","","","fixation","","","","","",""
"d3-animate-choice","174","747624","0.0-76.0-0.13","220","605","19","Female","true","true","true","true","""event"",""trial"",""time""
""fullscreenenter"",""5"",""42245""
","
","
","""event"",""trial"",""time""
""fullscreenenter"",""5"",""42245""
","
","300.19999999995343","","48","","","3000","1","","","images/earth.jpg","images/rocket2","images/rocket1","null","images/rocket2","","1","real","null","2","","",""
"d3-animate-choice","175","750576","0.0-76.0-1.13","220","605","19","Female","true","true","true","true","""event"",""trial"",""time""
""fullscreenenter"",""5"",""42245""
","
","
","""event"",""trial"",""time""
""fullscreenenter"",""5"",""42245""
","
","946.8000000000466","","48","","","3000","1","","","images/redplanet1.jpg","images/alien2","images/alien1","images/rocket2","images/alien2","images/t.png","2","real","false","2","rare","1","2022-02-02 01:03:56.786"
"two-step-fixation","176","751581","0.0-76.0-2.13","220","605","19","Female","true","true","true","true","""event"",""trial"",""time""
""fullscreenenter"",""5"",""42245""
","
","
","""event"",""trial"",""time""
""fullscreenenter"",""5"",""42245""
","
","","images/earth.jpg","","","","","","","","","","","","","","fixation","","","","","",""
"d3-animate-choice","177","753905","0.0-76.0-0.14","220","605","19","Female","true","true","true","true","""event"",""trial"",""time""
""fullscreenenter"",""5"",""42245""
","
","
","""event"",""trial"",""time""
""fullscreenenter"",""5"",""42245""
","
","318.30000000004657","","48","","","3000","1","","","images/earth.jpg","images/rocket2","images/rocket1","null","images/rocket2","","1","real","null","2","","",""
"d3-animate-choice","178","756172","0.0-76.0-1.14","220","605","19","Female","true","true","true","true","""event"",""trial"",""time""
""fullscreenenter"",""5"",""42245""
","
","
","""event"",""trial"",""time""
""fullscreenenter"",""5"",""42245""
","
","260.79999999981374","","48","","","3000","1","","","images/purpleplanet.jpg","images/alien4","images/alien3","images/rocket2","images/alien4","images/t.png","2","real","true","2","common","1","2022-02-02 01:04:02.382"
"two-step-fixation","179","757178","0.0-76.0-2.14","220","605","19","Female","true","true","true","true","""event"",""trial"",""time""
""fullscreenenter"",""5"",""42245""
","
","
","""event"",""trial"",""time""
""fullscreenenter"",""5"",""42245""
","
","","images/earth.jpg","","","","","","","","","","","","","","fixation","","","","","",""
"d3-animate-choice","180","759204","0.0-76.0-0.15","220","605","19","Female","true","true","true","true","""event"",""trial"",""time""
""fullscreenenter"",""5"",""42245""
","
","
","""event"",""trial"",""time""
""fullscreenenter"",""5"",""42245""
","
","22.199999999953434","","48","","","3000","1","263.69999999995343,512.5","48,48","images/earth.jpg","images/rocket2","images/rocket1","null","images/rocket2","","1","real","null","2","","",""
"d3-animate-choice","181","761389","0.0-76.0-1.15","220","605","19","Female","true","true","true","true","""event"",""trial"",""time""
""fullscreenenter"",""5"",""42245""
","
","
","""event"",""trial"",""time""
""fullscreenenter"",""5"",""42245""
","
","181.69999999995343","","48","","","3000","1","","","images/redplanet1.jpg","images/alien2","images/alien1","images/rocket2","images/alien2","images/t.png","2","real","false","2","rare","1","2022-02-02 01:04:07.599"
"two-step-fixation","182","762391","0.0-76.0-2.15","220","605","19","Female","true","true","true","true","""event"",""trial"",""time""
""fullscreenenter"",""5"",""42245""
","
","
","""event"",""trial"",""time""
""fullscreenenter"",""5"",""42245""
","
","","images/earth.jpg","","","","","","","","","","","","","","fixation","","","","","",""
"d3-animate-choice","183","764631","0.0-76.0-0.16","220","605","19","Female","true","true","true","true","""event"",""trial"",""time""
""fullscreenenter"",""5"",""42245""
","
","
","""event"",""trial"",""time""
""fullscreenenter"",""5"",""42245""
","
","234.69999999995343","","48","","","3000","1","515.0999999998603,1820","48,48","images/earth.jpg","images/rocket2","images/rocket1","null","images/rocket2","","1","real","null","2","","",""
"d3-animate-choice","184","766810","0.0-76.0-1.16","220","605","19","Female","true","true","true","true","""event"",""trial"",""time""
""fullscreenenter"",""5"",""42245""
","
","
","""event"",""trial"",""time""
""fullscreenenter"",""5"",""42245""
","
","176.19999999995343","","48","","","3000","1","","","images/purpleplanet.jpg","images/alien4","images/alien3","images/rocket2","images/alien4","images/nothing.png","2","real","true","2","common","0","2022-02-02 01:04:13.020"
"two-step-fixation","185","767815","0.0-76.0-2.16","220","605","19","Female","true","true","true","true","""event"",""trial"",""time""
""fullscreenenter"",""5"",""42245""
","
","
","""event"",""trial"",""time""
""fullscreenenter"",""5"",""42245""
","
","","images/earth.jpg","","","","","","","","","","","","","","fixation","","","","","",""
"d3-animate-choice","186","769920","0.0-76.0-0.17","220","605","19","Female","true","true","true","true","""event"",""trial"",""time""
""fullscreenenter"",""5"",""42245""
","
","
","""event"",""trial"",""time""
""fullscreenenter"",""5"",""42245""
","
","99.5","","48","","","3000","1","","","images/earth.jpg","images/rocket2","images/rocket1","null","images/rocket2","","1","real","null","2","","",""
"d3-animate-choice","187","772275","0.0-76.0-1.17","220","605","19","Female","true","true","true","true","""event"",""trial"",""time""
""fullscreenenter"",""5"",""42245""
","
","
","""event"",""trial"",""time""
""fullscreenenter"",""5"",""42245""
","
","349.5","","48","","","3000","1","","","images/purpleplanet.jpg","images/alien4","images/alien3","images/rocket2","images/alien4","images/nothing.png","2","real","true","2","common","0","2022-02-02 01:04:18.485"
"two-step-fixation","188","773278","0.0-76.0-2.17","220","605","19","Female","true","true","true","true","""event"",""trial"",""time""
""fullscreenenter"",""5"",""42245""
","
","
","""event"",""trial"",""time""
""fullscreenenter"",""5"",""42245""
","
","","images/earth.jpg","","","","","","","","","","","","","","fixation","","","","","",""
"d3-animate-choice","189","775336","0.0-76.0-0.18","220","605","19","Female","true","true","true","true","""event"",""trial"",""time""
""fullscreenenter"",""5"",""42245""
","
","
","""event"",""trial"",""time""
""fullscreenenter"",""5"",""42245""
","
","52.9000000001397","","48","","","3000","1","","","images/earth.jpg","images/rocket2","images/rocket1","null","images/rocket2","","1","real","null","2","","",""
"d3-animate-choice","190","778243","0.0-76.0-1.18","220","605","19","Female","true","true","true","true","""event"",""trial"",""time""
""fullscreenenter"",""5"",""42245""
","
","
","""event"",""trial"",""time""
""fullscreenenter"",""5"",""42245""
","
","901.3000000000466","","48","","","3000","1","","","images/purpleplanet.jpg","images/alien4","images/alien3","images/rocket2","images/alien4","images/t.png","2","real","true","2","common","1","2022-02-02 01:04:24.453"
"two-step-fixation","191","779245","0.0-76.0-2.18","220","605","19","Female","true","true","true","true","""event"",""trial"",""time""
""fullscreenenter"",""5"",""42245""
","
","
","""event"",""trial"",""time""
""fullscreenenter"",""5"",""42245""
","
","","images/earth.jpg","","","","","","","","","","","","","","fixation","","","","","",""
"d3-animate-choice","192","781438","0.0-76.0-0.19","220","605","19","Female","true","true","true","true","""event"",""trial"",""time""
""fullscreenenter"",""5"",""42245""
","
","
","""event"",""trial"",""time""
""fullscreenenter"",""5"",""42245""
","
","188.69999999995343","","48","","","3000","1","","","images/earth.jpg","images/rocket2","images/rocket1","null","images/rocket2","","1","real","null","2","","",""
"d3-animate-choice","193","783672","0.0-76.0-1.19","220","605","19","Female","true","true","true","true","""event"",""trial"",""time""
""fullscreenenter"",""5"",""42245""
","
","
","""event"",""trial"",""time""
""fullscreenenter"",""5"",""42245""
","
","228.39999999990687","","48","","","3000","1","2055","48","images/purpleplanet.jpg","images/alien4","images/alien3","images/rocket2","images/alien4","images/t.png","2","real","true","2","common","1","2022-02-02 01:04:29.882"
"two-step-fixation","194","784674","0.0-76.0-2.19","220","605","19","Female","true","true","true","true","""event"",""trial"",""time""
""fullscreenenter"",""5"",""42245""
","
","
","""event"",""trial"",""time""
""fullscreenenter"",""5"",""42245""
","
","","images/earth.jpg","","","","","","","","","","","","","","fixation","","","","","",""
"d3-animate-choice","195","786851","0.0-76.0-0.20","220","605","19","Female","true","true","true","true","""event"",""trial"",""time""
""fullscreenenter"",""5"",""42245""
","
","
","""event"",""trial"",""time""
""fullscreenenter"",""5"",""42245""
","
","173.80000000004657","","48","","","3000","1","369.30000000004657","48","images/earth.jpg","images/rocket2","images/rocket1","null","images/rocket2","","1","real","null","2","","",""
"d3-animate-choice","196","788856","0.0-76.0-1.20","220","605","19","Female","true","true","true","true","""event"",""trial"",""time""
""fullscreenenter"",""5"",""42245""
","
","
","""event"",""trial"",""time""
""fullscreenenter"",""5"",""42245""
","
","0.20000000018626451","","48","","","3000","1","293.20000000018626,1703.6000000000931","48,48","images/purpleplanet.jpg","images/alien4","images/alien3","images/rocket2","images/alien4","images/t.png","2","real","true","2","common","1","2022-02-02 01:04:35.067"
"two-step-fixation","197","789862","0.0-76.0-2.20","220","605","19","Female","true","true","true","true","""event"",""trial"",""time""
""fullscreenenter"",""5"",""42245""
","
","
","""event"",""trial"",""time""
""fullscreenenter"",""5"",""42245""
","
","","images/earth.jpg","","","","","","","","","","","","","","fixation","","","","","",""
"d3-animate-choice","198","791928","0.0-76.0-0.21","220","605","19","Female","true","true","true","true","""event"",""trial"",""time""
""fullscreenenter"",""5"",""42245""
","
","
","""event"",""trial"",""time""
""fullscreenenter"",""5"",""42245""
","
","64","","48","","","3000","1","244.19999999995343,451.5,857.3999999999069,1167.5999999998603,1545.2999999998137","48,48,48,48,48","images/earth.jpg","images/rocket2","images/rocket1","null","images/rocket2","","1","real","null","2","","",""
"d3-animate-choice","199","794299","0.0-76.0-1.21","220","605","19","Female","true","true","true","true","""event"",""trial"",""time""
""fullscreenenter"",""5"",""42245""
","
","
","""event"",""trial"",""time""
""fullscreenenter"",""5"",""42245""
","
","365.30000000004657","","48","","","3000","1","","","images/purpleplanet.jpg","images/alien4","images/alien3","images/rocket2","images/alien4","images/nothing.png","2","real","true","2","common","0","2022-02-02 01:04:40.509"
"two-step-fixation","200","795304","0.0-76.0-2.21","220","605","19","Female","true","true","true","true","""event"",""trial"",""time""
""fullscreenenter"",""5"",""42245""
","
","
","""event"",""trial"",""time""
""fullscreenenter"",""5"",""42245""
","
","","images/earth.jpg","","","","","","","","","","","","","","fixation","","","","","",""
"d3-animate-choice","201","797553","0.0-76.0-0.22","220","605","19","Female","true","true","true","true","""event"",""trial"",""time""
""fullscreenenter"",""5"",""42245""
","
","
","""event"",""trial"",""time""
""fullscreenenter"",""5"",""42245""
","
","244.10000000009313","","48","","","3000","1","","","images/earth.jpg","images/rocket2","images/rocket1","null","images/rocket2","","1","real","null","2","","",""
"d3-animate-choice","202","799871","0.0-76.0-1.22","220","605","19","Female","true","true","true","true","""event"",""trial"",""time""
""fullscreenenter"",""5"",""42245""
","
","
","""event"",""trial"",""time""
""fullscreenenter"",""5"",""42245""
","
","312.5","","49","","","3000","1","","","images/purpleplanet.jpg","images/alien4","images/alien3","images/rocket2","images/alien3","images/nothing.png","2","real","true","1","common","0","2022-02-02 01:04:46.081"
"two-step-fixation","203","800873","0.0-76.0-2.22","220","605","19","Female","true","true","true","true","""event"",""trial"",""time""
""fullscreenenter"",""5"",""42245""
","
","
","""event"",""trial"",""time""
""fullscreenenter"",""5"",""42245""
","
","","images/earth.jpg","","","","","","","","","","","","","","fixation","","","","","",""
"d3-animate-choice","204","803048","0.0-76.0-0.23","220","605","19","Female","true","true","true","true","""event"",""trial"",""time""
""fullscreenenter"",""5"",""42245""
","
","
","""event"",""trial"",""time""
""fullscreenenter"",""5"",""42245""
","
","169.19999999995343","","49","","","3000","1","","","images/earth.jpg","images/rocket2","images/rocket1","null","images/rocket1","","1","real","null","1","","",""
"d3-animate-choice","205","805379","0.0-76.0-1.23","220","605","19","Female","true","true","true","true","""event"",""trial"",""time""
""fullscreenenter"",""5"",""42245""
","
","
","""event"",""trial"",""time""
""fullscreenenter"",""5"",""42245""
","
","325.80000000004657","","49","","","3000","1","","","images/redplanet1.jpg","images/alien2","images/alien1","images/rocket1","images/alien1","images/nothing.png","2","real","true","1","common","0","2022-02-02 01:04:51.589"
"two-step-fixation","206","806382","0.0-76.0-2.23","220","605","19","Female","true","true","true","true","""event"",""trial"",""time""
""fullscreenenter"",""5"",""42245""
","
","
","""event"",""trial"",""time""
""fullscreenenter"",""5"",""42245""
","
","","images/earth.jpg","","","","","","","","","","","","","","fixation","","","","","",""
"d3-animate-choice","207","808633","0.0-76.0-0.24","220","605","19","Female","true","true","true","true","""event"",""trial"",""time""
""fullscreenenter"",""5"",""42245""
","
","
","""event"",""trial"",""time""
""fullscreenenter"",""5"",""42245""
","
","245.80000000004657","","49","","","3000","1","1017.8999999999069","32","images/earth.jpg","images/rocket2","images/rocket1","null","images/rocket1","","1","real","null","1","","",""
"d3-animate-choice","208","811074","0.0-76.0-1.24","220","605","19","Female","true","true","true","true","""event"",""trial"",""time""
""fullscreenenter"",""5"",""42245""
","
","
","""event"",""trial"",""time""
""fullscreenenter"",""5"",""42245""
","
","436","","48","","","3000","1","2176.600000000093","48","images/redplanet1.jpg","images/alien2","images/alien1","images/rocket1","images/alien2","images/t.png","2","real","true","2","common","1","2022-02-02 01:04:57.284"
"two-step-fixation","209","812077","0.0-76.0-2.24","220","605","19","Female","true","true","true","true","""event"",""trial"",""time""
""fullscreenenter"",""5"",""42245""
","
","
","""event"",""trial"",""time""
""fullscreenenter"",""5"",""42245""
","
","","images/earth.jpg","","","","","","","","","","","","","","fixation","","","","","",""
"d3-animate-choice","210","814290","0.0-76.0-0.25","220","605","19","Female","true","true","true","true","""event"",""trial"",""time""
""fullscreenenter"",""5"",""42245""
","
","
","""event"",""trial"",""time""
""fullscreenenter"",""5"",""42245""
","
","210.70000000018626","","49","","","3000","1","712.8000000000466,1853.9000000001397","48,48","images/earth.jpg","images/rocket2","images/rocket1","null","images/rocket1","","1","real","null","1","","",""
"d3-animate-choice","211","816326","0.0-76.0-1.25","220","605","19","Female","true","true","true","true","""event"",""trial"",""time""
""fullscreenenter"",""5"",""42245""
","
","
","""event"",""trial"",""time""
""fullscreenenter"",""5"",""42245""
","
","31.100000000093132","","48","","","3000","1","","","images/redplanet1.jpg","images/alien2","images/alien1","images/rocket1","images/alien2","images/nothing.png","2","real","true","2","common","0","2022-02-02 01:05:02.536"
"two-step-fixation","212","817332","0.0-76.0-2.25","220","605","19","Female","true","true","true","true","""event"",""trial"",""time""
""fullscreenenter"",""5"",""42245""
","
","
","""event"",""trial"",""time""
""fullscreenenter"",""5"",""42245""
","
","","images/earth.jpg","","","","","","","","","","","","","","fixation","","","","","",""
"d3-animate-choice","213","819432","0.0-76.0-0.26","220","605","19","Female","true","true","true","true","""event"",""trial"",""time""
""fullscreenenter"",""5"",""42245""
","
","
","""event"",""trial"",""time""
""fullscreenenter"",""5"",""42245""
","
","94.9000000001397","","49","","","3000","1","","","images/earth.jpg","images/rocket2","images/rocket1","null","images/rocket1","","1","real","null","1","","",""
"d3-animate-choice","214","821713","0.0-76.0-1.26","220","605","19","Female","true","true","true","true","""event"",""trial"",""time""
""fullscreenenter"",""5"",""42245""
","
","
","""event"",""trial"",""time""
""fullscreenenter"",""5"",""42245""
","
","276.0999999998603","","48","","","3000","1","","","images/redplanet1.jpg","images/alien2","images/alien1","images/rocket1","images/alien2","images/t.png","2","real","true","2","common","1","2022-02-02 01:05:07.923"
"two-step-fixation","215","822718","0.0-76.0-2.26","220","605","19","Female","true","true","true","true","""event"",""trial"",""time""
""fullscreenenter"",""5"",""42245""
","
","
","""event"",""trial"",""time""
""fullscreenenter"",""5"",""42245""
","
","","images/earth.jpg","","","","","","","","","","","","","","fixation","","","","","",""
"d3-animate-choice","216","824732","0.0-76.0-0.27","220","605","19","Female","true","true","true","true","""event"",""trial"",""time""
""fullscreenenter"",""5"",""42245""
","
","
","""event"",""trial"",""time""
""fullscreenenter"",""5"",""42245""
","
","9.5","","49","","","3000","1","1009.3000000000466","48","images/earth.jpg","images/rocket2","images/rocket1","null","images/rocket1","","1","real","null","1","","",""
"d3-animate-choice","217","826787","0.0-76.0-1.27","220","605","19","Female","true","true","true","true","""event"",""trial"",""time""
""fullscreenenter"",""5"",""42245""
","
","
","""event"",""trial"",""time""
""fullscreenenter"",""5"",""42245""
","
","50.5999999998603","","48","","","3000","1","472.0999999998603","48","images/purpleplanet.jpg","images/alien4","images/alien3","images/rocket1","images/alien4","images/t.png","2","real","false","2","rare","1","2022-02-02 01:05:12.997"
"two-step-fixation","218","827789","0.0-76.0-2.27","220","605","19","Female","true","true","true","true","""event"",""trial"",""time""
""fullscreenenter"",""5"",""42245""
","
","
","""event"",""trial"",""time""
""fullscreenenter"",""5"",""42245""
","
","","images/earth.jpg","","","","","","","","","","","","","","fixation","","","","","",""
"d3-animate-choice","219","830086","0.0-76.0-0.28","220","605","19","Female","true","true","true","true","""event"",""trial"",""time""
""fullscreenenter"",""5"",""42245""
","
","
","""event"",""trial"",""time""
""fullscreenenter"",""5"",""42245""
","
","291.5","","49","","","3000","1","","","images/earth.jpg","images/rocket2","images/rocket1","null","images/rocket1","","1","real","null","1","","",""
"d3-animate-choice","220","832386","0.0-76.0-1.28","220","605","19","Female","true","true","true","true","""event"",""trial"",""time""
""fullscreenenter"",""5"",""42245""
","
","
","""event"",""trial"",""time""
""fullscreenenter"",""5"",""42245""
","
","295.80000000004657","","48","","","3000","1","","","images/redplanet1.jpg","images/alien2","images/alien1","images/rocket1","images/alien2","images/t.png","2","real","true","2","common","1","2022-02-02 01:05:18.596"
"two-step-fixation","221","833387","0.0-76.0-2.28","220","605","19","Female","true","true","true","true","""event"",""trial"",""time""
""fullscreenenter"",""5"",""42245""
","
","
","""event"",""trial"",""time""
""fullscreenenter"",""5"",""42245""
","
","","images/earth.jpg","","","","","","","","","","","","","","fixation","","","","","",""
"d3-animate-choice","222","835662","0.0-76.0-0.29","220","605","19","Female","true","true","true","true","""event"",""trial"",""time""
""fullscreenenter"",""5"",""42245""
","
","
","""event"",""trial"",""time""
""fullscreenenter"",""5"",""42245""
","
","269","","49","","","3000","1","1716.8999999999069","48","images/earth.jpg","images/rocket2","images/rocket1","null","images/rocket1","","1","real","null","1","","",""
"d3-animate-choice","223","837744","0.0-76.0-1.29","220","605","19","Female","true","true","true","true","""event"",""trial"",""time""
""fullscreenenter"",""5"",""42245""
","
","
","""event"",""trial"",""time""
""fullscreenenter"",""5"",""42245""
","
","77.10000000009313","","48","","","3000","1","","","images/redplanet1.jpg","images/alien2","images/alien1","images/rocket1","images/alien2","images/t.png","2","real","true","2","common","1","2022-02-02 01:05:23.954"
"two-step-fixation","224","838747","0.0-76.0-2.29","220","605","19","Female","true","true","true","true","""event"",""trial"",""time""
""fullscreenenter"",""5"",""42245""
","
","
","""event"",""trial"",""time""
""fullscreenenter"",""5"",""42245""
","
","","images/earth.jpg","","","","","","","","","","","","","","fixation","","","","","",""
"d3-animate-choice","225","840829","0.0-76.0-0.30","220","605","19","Female","true","true","true","true","""event"",""trial"",""time""
""fullscreenenter"",""5"",""42245""
","
","
","""event"",""trial"",""time""
""fullscreenenter"",""5"",""42245""
","
","76","","49","","","3000","1","","","images/earth.jpg","images/rocket2","images/rocket1","null","images/rocket1","","1","real","null","1","","",""
"d3-animate-choice","226","843281","0.0-76.0-1.30","220","605","19","Female","true","true","true","true","""event"",""trial"",""time""
""fullscreenenter"",""5"",""42245""
","
","
","""event"",""trial"",""time""
""fullscreenenter"",""5"",""42245""
","
","446.60000000009313","","48","","","3000","1","2413.600000000093","49","images/redplanet1.jpg","images/alien2","images/alien1","images/rocket1","images/alien2","images/t.png","2","real","true","2","common","1","2022-02-02 01:05:29.492"
"two-step-fixation","227","844286","0.0-76.0-2.30","220","605","19","Female","true","true","true","true","""event"",""trial"",""time""
""fullscreenenter"",""5"",""42245""
","
","
","""event"",""trial"",""time""
""fullscreenenter"",""5"",""42245""
","
","","images/earth.jpg","","","","","","","","","","","","","","fixation","","","","","",""
"d3-animate-choice","228","846410","0.0-76.0-0.31","220","605","19","Female","true","true","true","true","""event"",""trial"",""time""
""fullscreenenter"",""5"",""42245""
","
","
","""event"",""trial"",""time""
""fullscreenenter"",""5"",""42245""
","
","117.69999999995343","","49","","","3000","1","","","images/earth.jpg","images/rocket2","images/rocket1","null","images/rocket1","","1","real","null","1","","",""
"d3-animate-choice","229","848853","0.0-76.0-1.31","220","605","19","Female","true","true","true","true","""event"",""trial"",""time""
""fullscreenenter"",""5"",""42245""
","
","
","""event"",""trial"",""time""
""fullscreenenter"",""5"",""42245""
","
","438.39999999990687","","48","","","3000","1","","","images/redplanet1.jpg","images/alien2","images/alien1","images/rocket1","images/alien2","images/nothing.png","2","real","true","2","common","0","2022-02-02 01:05:35.063"
"two-step-fixation","230","849858","0.0-76.0-2.31","220","605","19","Female","true","true","true","true","""event"",""trial"",""time""
""fullscreenenter"",""5"",""42245""
","
","
","""event"",""trial"",""time""
""fullscreenenter"",""5"",""42245""
","
","","images/earth.jpg","","","","","","","","","","","","","","fixation","","","","","",""
"d3-animate-choice","231","852134","0.0-76.0-0.32","220","605","19","Female","true","true","true","true","""event"",""trial"",""time""
""fullscreenenter"",""5"",""42245""
","
","
","""event"",""trial"",""time""
""fullscreenenter"",""5"",""42245""
","
","272.5","","49","","","3000","1","","","images/earth.jpg","images/rocket2","images/rocket1","null","images/rocket1","","1","real","null","1","","",""
"d3-animate-choice","232","854605","0.0-76.0-1.32","220","605","19","Female","true","true","true","true","""event"",""trial"",""time""
""fullscreenenter"",""5"",""42245""
","
","
","""event"",""trial"",""time""
""fullscreenenter"",""5"",""42245""
","
","466.5999999998603","","48","","","3000","1","","","images/redplanet1.jpg","images/alien2","images/alien1","images/rocket1","images/alien2","images/t.png","2","real","true","2","common","1","2022-02-02 01:05:40.815"
"two-step-fixation","233","855609","0.0-76.0-2.32","220","605","19","Female","true","true","true","true","""event"",""trial"",""time""
""fullscreenenter"",""5"",""42245""
","
","
","""event"",""trial"",""time""
""fullscreenenter"",""5"",""42245""
","
","","images/earth.jpg","","","","","","","","","","","","","","fixation","","","","","",""
"d3-animate-choice","234","857633","0.0-76.0-0.33","220","605","19","Female","true","true","true","true","""event"",""trial"",""time""
""fullscreenenter"",""5"",""42245""
","
","
","""event"",""trial"",""time""
""fullscreenenter"",""5"",""42245""
","
","17.899999999906868","","48","","","3000","1","291.89999999990687,791.8999999999069","48,48","images/earth.jpg","images/rocket2","images/rocket1","null","images/rocket2","","1","real","null","2","","",""
"d3-animate-choice","235","860274","0.0-76.0-1.33","220","605","19","Female","true","true","true","true","""event"",""trial"",""time""
""fullscreenenter"",""5"",""42245""
","
","
","""event"",""trial"",""time""
""fullscreenenter"",""5"",""42245""
","
","638.9000000001397","","48","","","3000","1","","","images/purpleplanet.jpg","images/alien4","images/alien3","images/rocket2","images/alien4","images/nothing.png","2","real","true","2","common","0","2022-02-02 01:05:46.484"
"two-step-fixation","236","861278","0.0-76.0-2.33","220","605","19","Female","true","true","true","true","""event"",""trial"",""time""
""fullscreenenter"",""5"",""42245""
","
","
","""event"",""trial"",""time""
""fullscreenenter"",""5"",""42245""
","
","","images/earth.jpg","","","","","","","","","","","","","","fixation","","","","","",""
"d3-animate-choice","237","863324","0.0-76.0-0.34","220","605","19","Female","true","true","true","true","""event"",""trial"",""time""
""fullscreenenter"",""5"",""42245""
","
","
","""event"",""trial"",""time""
""fullscreenenter"",""5"",""42245""
","
","40.800000000046566","","48","","","3000","1","","","images/earth.jpg","images/rocket2","images/rocket1","null","images/rocket2","","1","real","null","2","","",""
"d3-animate-choice","238","865824","0.0-76.0-1.34","220","605","19","Female","true","true","true","true","""event"",""trial"",""time""
""fullscreenenter"",""5"",""42245""
","
","
","""event"",""trial"",""time""
""fullscreenenter"",""5"",""42245""
","
","496.9000000001397","","48","","","3000","1","","","images/purpleplanet.jpg","images/alien4","images/alien3","images/rocket2","images/alien4","images/t.png","2","real","true","2","common","1","2022-02-02 01:05:52.034"
"two-step-fixation","239","866830","0.0-76.0-2.34","220","605","19","Female","true","true","true","true","""event"",""trial"",""time""
""fullscreenenter"",""5"",""42245""
","
","
","""event"",""trial"",""time""
""fullscreenenter"",""5"",""42245""
","
","","images/earth.jpg","","","","","","","","","","","","","","fixation","","","","","",""
"d3-animate-choice","240","869047","0.0-76.0-0.35","220","605","19","Female","true","true","true","true","""event"",""trial"",""time""
""fullscreenenter"",""5"",""42245""
","
","
","""event"",""trial"",""time""
""fullscreenenter"",""5"",""42245""
","
","210.0999999998603","","48","","","3000","1","","","images/earth.jpg","images/rocket2","images/rocket1","null","images/rocket2","","1","real","null","2","","",""
"d3-animate-choice","241","871464","0.0-76.0-1.35","220","605","19","Female","true","true","true","true","""event"",""trial"",""time""
""fullscreenenter"",""5"",""42245""
","
","
","""event"",""trial"",""time""
""fullscreenenter"",""5"",""42245""
","
","411.89999999990687","","48","","","3000","1","2027,2358.6999999999534","48,48","images/purpleplanet.jpg","images/alien4","images/alien3","images/rocket2","images/alien4","images/t.png","2","real","true","2","common","1","2022-02-02 01:05:57.674"
"two-step-fixation","242","872469","0.0-76.0-2.35","220","605","19","Female","true","true","true","true","""event"",""trial"",""time""
""fullscreenenter"",""5"",""42245""
","
","
","""event"",""trial"",""time""
""fullscreenenter"",""5"",""42245""
","
","","images/earth.jpg","","","","","","","","","","","","","","fixation","","","","","",""
"d3-animate-choice","243","874685","0.0-76.0-0.36","220","605","19","Female","true","true","true","true","""event"",""trial"",""time""
""fullscreenenter"",""5"",""42245""
","
","
","""event"",""trial"",""time""
""fullscreenenter"",""5"",""42245""
","
","211.10000000009313","","48","","","3000","1","471.10000000009313,835.3000000000466,1157.5","48,48,48","images/earth.jpg","images/rocket2","images/rocket1","null","images/rocket2","","1","real","null","2","","",""
"d3-animate-choice","244","877084","0.0-76.0-1.36","220","605","19","Female","true","true","true","true","""event"",""trial"",""time""
""fullscreenenter"",""5"",""42245""
","
","
","""event"",""trial"",""time""
""fullscreenenter"",""5"",""42245""
","
","394.19999999995343","","48","","","3000","1","","","images/redplanet1.jpg","images/alien2","images/alien1","images/rocket2","images/alien2","images/t.png","2","real","false","2","rare","1","2022-02-02 01:06:03.294"
"two-step-fixation","245","878090","0.0-76.0-2.36","220","605","19","Female","true","true","true","true","""event"",""trial"",""time""
""fullscreenenter"",""5"",""42245""
","
","
","""event"",""trial"",""time""
""fullscreenenter"",""5"",""42245""
","
","","images/earth.jpg","","","","","","","","","","","","","","fixation","","","","","",""
