"trial_type","trial_index","time_elapsed","internal_node_id","participant_id","subject_id","age","gender","rocket_sides","red_planet_first_rocket","red_display_order","purple_display_order","interactions","blur_events","focus_events","fullscreenenter_events","fullscreenexit_events","rt","stimulus","key_press","button_pressed","success","duration","valid_pressed","rts","keys","planet_text","right_text","left_text","center_text","chosen_text","reward_text","trial_stage","practice_trial","transition_type","choice","transition","reward","timestamp"
"pavlovia","0","2","0.0-0.0","959","862","17","Female","true","true","true","true","""event"",""trial"",""time""
""blur"",""1"",""104035""
""focus"",""1"",""125269""
","""event"",""trial"",""time""
""blur"",""1"",""104035""
","""event"",""trial"",""time""
""focus"",""1"",""125269""
","
","
","","","","","","","","","","","","","","","","","","","","","",""
"html-keyboard-response","1","126064","0.0-1.0","959","862","17","Female","true","true","true","true","""event"",""trial"",""time""
""blur"",""1"",""104035""
""focus"",""1"",""125269""
","""event"",""trial"",""time""
""blur"",""1"",""104035""
","""event"",""trial"",""time""
""focus"",""1"",""125269""
","
","
","124280.09999999404","Welcome! Press the space bar to begin.","32","","","","","","","","","","","","","","","","","","",""
"audio-keyboard-response","2","127620","0.0-2.0","959","862","17","Female","true","true","true","true","""event"",""trial"",""time""
""blur"",""1"",""104035""
""focus"",""1"",""125269""
""blur"",""3"",""132201""
""focus"",""3"",""132383""
","""event"",""trial"",""time""
""blur"",""1"",""104035""
""blur"",""3"",""132201""
","""event"",""trial"",""time""
""focus"",""1"",""125269""
""focus"",""3"",""132383""
","
","
","1515","audio/beep_loop.wav","32","","","","","","","","","","","","","","","","","","",""
"audio-button-response","3","133030","0.0-3.0","959","862","17","Female","true","true","true","true","""event"",""trial"",""time""
""blur"",""1"",""104035""
""focus"",""1"",""125269""
""blur"",""3"",""132201""
""focus"",""3"",""132383""
","""event"",""trial"",""time""
""blur"",""1"",""104035""
""blur"",""3"",""132201""
","""event"",""trial"",""time""
""focus"",""1"",""125269""
""focus"",""3"",""132383""
","
","
","NaN","audio/fish.mp3","","1","","","","","","","","","","","","","","","","","",""
"audio-button-response","4","135654","0.0-4.0","959","862","17","Female","true","true","true","true","""event"",""trial"",""time""
""blur"",""1"",""104035""
""focus"",""1"",""125269""
""blur"",""3"",""132201""
""focus"",""3"",""132383""
""fullscreenenter"",""5"",""137857""
","""event"",""trial"",""time""
""blur"",""1"",""104035""
""blur"",""3"",""132201""
","""event"",""trial"",""time""
""focus"",""1"",""125269""
""focus"",""3"",""132383""
","""event"",""trial"",""time""
""fullscreenenter"",""5"",""137857""
","
","NaN","audio/tiger.mp3","","4","","","","","","","","","","","","","","","","","",""
"fullscreen","5","138836","0.0-5.0","959","862","17","Female","true","true","true","true","""event"",""trial"",""time""
""blur"",""1"",""104035""
""focus"",""1"",""125269""
""blur"",""3"",""132201""
""focus"",""3"",""132383""
""fullscreenenter"",""5"",""137857""
","""event"",""trial"",""time""
""blur"",""1"",""104035""
""blur"",""3"",""132201""
","""event"",""trial"",""time""
""focus"",""1"",""125269""
""focus"",""3"",""132383""
","""event"",""trial"",""time""
""fullscreenenter"",""5"",""137857""
","
","","","","","true","","","","","","","","","","","","","","","","",""
"d3-instructions","6","156896","0.0-6.0","959","862","17","Female","true","true","true","true","""event"",""trial"",""time""
""blur"",""1"",""104035""
""focus"",""1"",""125269""
""blur"",""3"",""132201""
""focus"",""3"",""132383""
""fullscreenenter"",""5"",""137857""
","""event"",""trial"",""time""
""blur"",""1"",""104035""
""blur"",""3"",""132201""
","""event"",""trial"",""time""
""focus"",""1"",""125269""
""focus"",""3"",""132383""
","""event"",""trial"",""time""
""fullscreenenter"",""5"",""137857""
","
","","","","","","","","","","","","","","","","","","","","","",""
"d3-instructions","7","165744","0.0-7.0","959","862","17","Female","true","true","true","true","""event"",""trial"",""time""
""blur"",""1"",""104035""
""focus"",""1"",""125269""
""blur"",""3"",""132201""
""focus"",""3"",""132383""
""fullscreenenter"",""5"",""137857""
","""event"",""trial"",""time""
""blur"",""1"",""104035""
""blur"",""3"",""132201""
","""event"",""trial"",""time""
""focus"",""1"",""125269""
""focus"",""3"",""132383""
","""event"",""trial"",""time""
""fullscreenenter"",""5"",""137857""
","
","","","","","","","","","","","","","","","","","","","","","",""
"d3-instructions","8","171999","0.0-8.0","959","862","17","Female","true","true","true","true","""event"",""trial"",""time""
""blur"",""1"",""104035""
""focus"",""1"",""125269""
""blur"",""3"",""132201""
""focus"",""3"",""132383""
""fullscreenenter"",""5"",""137857""
","""event"",""trial"",""time""
""blur"",""1"",""104035""
""blur"",""3"",""132201""
","""event"",""trial"",""time""
""focus"",""1"",""125269""
""focus"",""3"",""132383""
","""event"",""trial"",""time""
""fullscreenenter"",""5"",""137857""
","
","","","","","","","","","","","","","","","","","","","","","",""
"d3-instructions","9","183169","0.0-9.0","959","862","17","Female","true","true","true","true","""event"",""trial"",""time""
""blur"",""1"",""104035""
""focus"",""1"",""125269""
""blur"",""3"",""132201""
""focus"",""3"",""132383""
""fullscreenenter"",""5"",""137857""
","""event"",""trial"",""time""
""blur"",""1"",""104035""
""blur"",""3"",""132201""
","""event"",""trial"",""time""
""focus"",""1"",""125269""
""focus"",""3"",""132383""
","""event"",""trial"",""time""
""fullscreenenter"",""5"",""137857""
","
","","","","","","","","","","","","","","","","","","","","","",""
"d3-instructions","10","203703","0.0-10.0","959","862","17","Female","true","true","true","true","""event"",""trial"",""time""
""blur"",""1"",""104035""
""focus"",""1"",""125269""
""blur"",""3"",""132201""
""focus"",""3"",""132383""
""fullscreenenter"",""5"",""137857""
","""event"",""trial"",""time""
""blur"",""1"",""104035""
""blur"",""3"",""132201""
","""event"",""trial"",""time""
""focus"",""1"",""125269""
""focus"",""3"",""132383""
","""event"",""trial"",""time""
""fullscreenenter"",""5"",""137857""
","
","","","","","","","","","","","","","","","","","","","","","",""
"d3-animate-choice","11","207024","0.0-11.0","959","862","17","Female","true","true","true","true","""event"",""trial"",""time""
""blur"",""1"",""104035""
""focus"",""1"",""125269""
""blur"",""3"",""132201""
""focus"",""3"",""132383""
""fullscreenenter"",""5"",""137857""
","""event"",""trial"",""time""
""blur"",""1"",""104035""
""blur"",""3"",""132201""
","""event"",""trial"",""time""
""focus"",""1"",""125269""
""focus"",""3"",""132383""
","""event"",""trial"",""time""
""fullscreenenter"",""5"",""137857""
","
","1311.2999999970198","","49","","","3000","1","2604.6000000089407","48","images/tutgreenplanet.jpg","images/tutalien1","images/tutalien2","null","images/tutalien2","","NA","practice","null","","","",""
"d3-animate-choice","12","210420","0.0-12.0","959","862","17","Female","true","true","true","true","""event"",""trial"",""time""
""blur"",""1"",""104035""
""focus"",""1"",""125269""
""blur"",""3"",""132201""
""focus"",""3"",""132383""
""fullscreenenter"",""5"",""137857""
","""event"",""trial"",""time""
""blur"",""1"",""104035""
""blur"",""3"",""132201""
","""event"",""trial"",""time""
""focus"",""1"",""125269""
""focus"",""3"",""132383""
","""event"",""trial"",""time""
""fullscreenenter"",""5"",""137857""
","
","1385.9000000059605","","48","","","3000","1","","","images/tutgreenplanet.jpg","images/tutalien1","images/tutalien2","null","images/tutalien1","","NA","practice","null","","","",""
"d3-animate-choice","13","214651","0.0-13.0","959","862","17","Female","true","true","true","true","""event"",""trial"",""time""
""blur"",""1"",""104035""
""focus"",""1"",""125269""
""blur"",""3"",""132201""
""focus"",""3"",""132383""
""fullscreenenter"",""5"",""137857""
","""event"",""trial"",""time""
""blur"",""1"",""104035""
""blur"",""3"",""132201""
","""event"",""trial"",""time""
""focus"",""1"",""125269""
""focus"",""3"",""132383""
","""event"",""trial"",""time""
""fullscreenenter"",""5"",""137857""
","
","2219.8999999910593","","49","","","3000","1","","","images/tutgreenplanet.jpg","images/tutalien1","images/tutalien2","null","images/tutalien2","","NA","practice","null","","","",""
"d3-animate-choice","14","218304","0.0-14.0","959","862","17","Female","true","true","true","true","""event"",""trial"",""time""
""blur"",""1"",""104035""
""focus"",""1"",""125269""
""blur"",""3"",""132201""
""focus"",""3"",""132383""
""fullscreenenter"",""5"",""137857""
","""event"",""trial"",""time""
""blur"",""1"",""104035""
""blur"",""3"",""132201""
","""event"",""trial"",""time""
""focus"",""1"",""125269""
""focus"",""3"",""132383""
","""event"",""trial"",""time""
""fullscreenenter"",""5"",""137857""
","
","1640.5","","48","","","3000","1","","","images/tutgreenplanet.jpg","images/tutalien1","images/tutalien2","null","images/tutalien1","","NA","practice","null","","","",""
"d3-instructions","15","227687","0.0-15.0","959","862","17","Female","true","true","true","true","""event"",""trial"",""time""
""blur"",""1"",""104035""
""focus"",""1"",""125269""
""blur"",""3"",""132201""
""focus"",""3"",""132383""
""fullscreenenter"",""5"",""137857""
","""event"",""trial"",""time""
""blur"",""1"",""104035""
""blur"",""3"",""132201""
","""event"",""trial"",""time""
""focus"",""1"",""125269""
""focus"",""3"",""132383""
","""event"",""trial"",""time""
""fullscreenenter"",""5"",""137857""
","
","","","","","","","","","","","","","","","","","","","","","",""
"d3-instructions","16","234762","0.0-16.0","959","862","17","Female","true","true","true","true","""event"",""trial"",""time""
""blur"",""1"",""104035""
""focus"",""1"",""125269""
""blur"",""3"",""132201""
""focus"",""3"",""132383""
""fullscreenenter"",""5"",""137857""
","""event"",""trial"",""time""
""blur"",""1"",""104035""
""blur"",""3"",""132201""
","""event"",""trial"",""time""
""focus"",""1"",""125269""
""focus"",""3"",""132383""
","""event"",""trial"",""time""
""fullscreenenter"",""5"",""137857""
","
","","","","","","","","","","","","","","","","","","","","","",""
"d3-instructions","17","243835","0.0-17.0","959","862","17","Female","true","true","true","true","""event"",""trial"",""time""
""blur"",""1"",""104035""
""focus"",""1"",""125269""
""blur"",""3"",""132201""
""focus"",""3"",""132383""
""fullscreenenter"",""5"",""137857""
","""event"",""trial"",""time""
""blur"",""1"",""104035""
""blur"",""3"",""132201""
","""event"",""trial"",""time""
""focus"",""1"",""125269""
""focus"",""3"",""132383""
","""event"",""trial"",""time""
""fullscreenenter"",""5"",""137857""
","
","","","","","","","","","","","","","","","","","","","","","",""
"d3-instructions","18","257405","0.0-18.0","959","862","17","Female","true","true","true","true","""event"",""trial"",""time""
""blur"",""1"",""104035""
""focus"",""1"",""125269""
""blur"",""3"",""132201""
""focus"",""3"",""132383""
""fullscreenenter"",""5"",""137857""
","""event"",""trial"",""time""
""blur"",""1"",""104035""
""blur"",""3"",""132201""
","""event"",""trial"",""time""
""focus"",""1"",""125269""
""focus"",""3"",""132383""
","""event"",""trial"",""time""
""fullscreenenter"",""5"",""137857""
","
","","","","","","","","","","","","","","","","","","","","","",""
"d3-instructions","19","270492","0.0-19.0","959","862","17","Female","true","true","true","true","""event"",""trial"",""time""
""blur"",""1"",""104035""
""focus"",""1"",""125269""
""blur"",""3"",""132201""
""focus"",""3"",""132383""
""fullscreenenter"",""5"",""137857""
","""event"",""trial"",""time""
""blur"",""1"",""104035""
""blur"",""3"",""132201""
","""event"",""trial"",""time""
""focus"",""1"",""125269""
""focus"",""3"",""132383""
","""event"",""trial"",""time""
""fullscreenenter"",""5"",""137857""
","
","","","","","","","","","","","","","","","","","","","","","",""
"d3-animate-choice","20","273426","0.0-20.0","959","862","17","Female","true","true","true","true","""event"",""trial"",""time""
""blur"",""1"",""104035""
""focus"",""1"",""125269""
""blur"",""3"",""132201""
""focus"",""3"",""132383""
""fullscreenenter"",""5"",""137857""
","""event"",""trial"",""time""
""blur"",""1"",""104035""
""blur"",""3"",""132201""
","""event"",""trial"",""time""
""focus"",""1"",""125269""
""focus"",""3"",""132383""
","""event"",""trial"",""time""
""fullscreenenter"",""5"",""137857""
","
","924.6999999880791","","49","","","3000","1","","","images/tutyellowplanet.jpg","null","images/tutalien3","null","images/tutalien3","images/t.png","NA","practice","null","","","",""
"d3-animate-choice","21","275836","0.0-21.0","959","862","17","Female","true","true","true","true","""event"",""trial"",""time""
""blur"",""1"",""104035""
""focus"",""1"",""125269""
""blur"",""3"",""132201""
""focus"",""3"",""132383""
""fullscreenenter"",""5"",""137857""
","""event"",""trial"",""time""
""blur"",""1"",""104035""
""blur"",""3"",""132201""
","""event"",""trial"",""time""
""focus"",""1"",""125269""
""focus"",""3"",""132383""
","""event"",""trial"",""time""
""fullscreenenter"",""5"",""137857""
","
","399.79999999701977","","49","","","3000","1","2243.7000000029802","49","images/tutyellowplanet.jpg","null","images/tutalien3","null","images/tutalien3","images/t.png","NA","practice","null","","","",""
"d3-animate-choice","22","278990","0.0-22.0","959","862","17","Female","true","true","true","true","""event"",""trial"",""time""
""blur"",""1"",""104035""
""focus"",""1"",""125269""
""blur"",""3"",""132201""
""focus"",""3"",""132383""
""fullscreenenter"",""5"",""137857""
","""event"",""trial"",""time""
""blur"",""1"",""104035""
""blur"",""3"",""132201""
","""event"",""trial"",""time""
""focus"",""1"",""125269""
""focus"",""3"",""132383""
","""event"",""trial"",""time""
""fullscreenenter"",""5"",""137857""
","
","1143","","49","","","3000","1","","","images/tutyellowplanet.jpg","null","images/tutalien3","null","images/tutalien3","images/t.png","NA","practice","null","","","",""
"d3-animate-choice","23","281441","0.0-23.0","959","862","17","Female","true","true","true","true","""event"",""trial"",""time""
""blur"",""1"",""104035""
""focus"",""1"",""125269""
""blur"",""3"",""132201""
""focus"",""3"",""132383""
""fullscreenenter"",""5"",""137857""
","""event"",""trial"",""time""
""blur"",""1"",""104035""
""blur"",""3"",""132201""
","""event"",""trial"",""time""
""focus"",""1"",""125269""
""focus"",""3"",""132383""
","""event"",""trial"",""time""
""fullscreenenter"",""5"",""137857""
","
","443.09999999403954","","49","","","3000","1","","","images/tutyellowplanet.jpg","null","images/tutalien3","null","images/tutalien3","images/nothing.png","NA","practice","null","","","",""
"d3-animate-choice","24","283852","0.0-24.0","959","862","17","Female","true","true","true","true","""event"",""trial"",""time""
""blur"",""1"",""104035""
""focus"",""1"",""125269""
""blur"",""3"",""132201""
""focus"",""3"",""132383""
""fullscreenenter"",""5"",""137857""
","""event"",""trial"",""time""
""blur"",""1"",""104035""
""blur"",""3"",""132201""
","""event"",""trial"",""time""
""focus"",""1"",""125269""
""focus"",""3"",""132383""
","""event"",""trial"",""time""
""fullscreenenter"",""5"",""137857""
","
","399.40000000596046","","49","","","3000","1","","","images/tutyellowplanet.jpg","null","images/tutalien3","null","images/tutalien3","images/nothing.png","NA","practice","null","","","",""
"d3-animate-choice","25","286108","0.0-25.0","959","862","17","Female","true","true","true","true","""event"",""trial"",""time""
""blur"",""1"",""104035""
""focus"",""1"",""125269""
""blur"",""3"",""132201""
""focus"",""3"",""132383""
""fullscreenenter"",""5"",""137857""
","""event"",""trial"",""time""
""blur"",""1"",""104035""
""blur"",""3"",""132201""
","""event"",""trial"",""time""
""focus"",""1"",""125269""
""focus"",""3"",""132383""
","""event"",""trial"",""time""
""fullscreenenter"",""5"",""137857""
","
","248.79999999701977","","49","","","3000","1","","","images/tutyellowplanet.jpg","null","images/tutalien3","null","images/tutalien3","images/t.png","NA","practice","null","","","",""
"d3-animate-choice","26","288632","0.0-26.0","959","862","17","Female","true","true","true","true","""event"",""trial"",""time""
""blur"",""1"",""104035""
""focus"",""1"",""125269""
""blur"",""3"",""132201""
""focus"",""3"",""132383""
""fullscreenenter"",""5"",""137857""
","""event"",""trial"",""time""
""blur"",""1"",""104035""
""blur"",""3"",""132201""
","""event"",""trial"",""time""
""focus"",""1"",""125269""
""focus"",""3"",""132383""
","""event"",""trial"",""time""
""fullscreenenter"",""5"",""137857""
","
","515.5999999940395","","49","","","3000","1","","","images/tutyellowplanet.jpg","null","images/tutalien3","null","images/tutalien3","images/t.png","NA","practice","null","","","",""
"d3-animate-choice","27","291169","0.0-27.0","959","862","17","Female","true","true","true","true","""event"",""trial"",""time""
""blur"",""1"",""104035""
""focus"",""1"",""125269""
""blur"",""3"",""132201""
""focus"",""3"",""132383""
""fullscreenenter"",""5"",""137857""
","""event"",""trial"",""time""
""blur"",""1"",""104035""
""blur"",""3"",""132201""
","""event"",""trial"",""time""
""focus"",""1"",""125269""
""focus"",""3"",""132383""
","""event"",""trial"",""time""
""fullscreenenter"",""5"",""137857""
","
","529.6000000089407","","49","","","3000","1","","","images/tutyellowplanet.jpg","null","images/tutalien3","null","images/tutalien3","images/t.png","NA","practice","null","","","",""
"d3-animate-choice","28","293605","0.0-28.0","959","862","17","Female","true","true","true","true","""event"",""trial"",""time""
""blur"",""1"",""104035""
""focus"",""1"",""125269""
""blur"",""3"",""132201""
""focus"",""3"",""132383""
""fullscreenenter"",""5"",""137857""
","""event"",""trial"",""time""
""blur"",""1"",""104035""
""blur"",""3"",""132201""
","""event"",""trial"",""time""
""focus"",""1"",""125269""
""focus"",""3"",""132383""
","""event"",""trial"",""time""
""fullscreenenter"",""5"",""137857""
","
","429.40000000596046","","49","","","3000","1","","","images/tutyellowplanet.jpg","null","images/tutalien3","null","images/tutalien3","images/t.png","NA","practice","null","","","",""
"d3-animate-choice","29","295896","0.0-29.0","959","862","17","Female","true","true","true","true","""event"",""trial"",""time""
""blur"",""1"",""104035""
""focus"",""1"",""125269""
""blur"",""3"",""132201""
""focus"",""3"",""132383""
""fullscreenenter"",""5"",""137857""
","""event"",""trial"",""time""
""blur"",""1"",""104035""
""blur"",""3"",""132201""
","""event"",""trial"",""time""
""focus"",""1"",""125269""
""focus"",""3"",""132383""
","""event"",""trial"",""time""
""fullscreenenter"",""5"",""137857""
","
","283.8999999910593","","49","","","3000","1","","","images/tutyellowplanet.jpg","null","images/tutalien3","null","images/tutalien3","images/t.png","NA","practice","null","","","",""
"d3-instructions","30","303646","0.0-30.0","959","862","17","Female","true","true","true","true","""event"",""trial"",""time""
""blur"",""1"",""104035""
""focus"",""1"",""125269""
""blur"",""3"",""132201""
""focus"",""3"",""132383""
""fullscreenenter"",""5"",""137857""
","""event"",""trial"",""time""
""blur"",""1"",""104035""
""blur"",""3"",""132201""
","""event"",""trial"",""time""
""focus"",""1"",""125269""
""focus"",""3"",""132383""
","""event"",""trial"",""time""
""fullscreenenter"",""5"",""137857""
","
","","","","","","","","","","","","","","","","","","","","","",""
"d3-instructions","31","313415","0.0-31.0","959","862","17","Female","true","true","true","true","""event"",""trial"",""time""
""blur"",""1"",""104035""
""focus"",""1"",""125269""
""blur"",""3"",""132201""
""focus"",""3"",""132383""
""fullscreenenter"",""5"",""137857""
","""event"",""trial"",""time""
""blur"",""1"",""104035""
""blur"",""3"",""132201""
","""event"",""trial"",""time""
""focus"",""1"",""125269""
""focus"",""3"",""132383""
","""event"",""trial"",""time""
""fullscreenenter"",""5"",""137857""
","
","","","","","","","","","","","","","","","","","","","","","",""
"d3-instructions","32","321245","0.0-32.0","959","862","17","Female","true","true","true","true","""event"",""trial"",""time""
""blur"",""1"",""104035""
""focus"",""1"",""125269""
""blur"",""3"",""132201""
""focus"",""3"",""132383""
""fullscreenenter"",""5"",""137857""
","""event"",""trial"",""time""
""blur"",""1"",""104035""
""blur"",""3"",""132201""
","""event"",""trial"",""time""
""focus"",""1"",""125269""
""focus"",""3"",""132383""
","""event"",""trial"",""time""
""fullscreenenter"",""5"",""137857""
","
","","","","","","","","","","","","","","","","","","","","","",""
"d3-instructions","33","333956","0.0-33.0","959","862","17","Female","true","true","true","true","""event"",""trial"",""time""
""blur"",""1"",""104035""
""focus"",""1"",""125269""
""blur"",""3"",""132201""
""focus"",""3"",""132383""
""fullscreenenter"",""5"",""137857""
","""event"",""trial"",""time""
""blur"",""1"",""104035""
""blur"",""3"",""132201""
","""event"",""trial"",""time""
""focus"",""1"",""125269""
""focus"",""3"",""132383""
","""event"",""trial"",""time""
""fullscreenenter"",""5"",""137857""
","
","","","","","","","","","","","","","","","","","","","","","",""
"d3-animate-choice","34","340073","0.0-34.0","959","862","17","Female","true","true","true","true","""event"",""trial"",""time""
""blur"",""1"",""104035""
""focus"",""1"",""125269""
""blur"",""3"",""132201""
""focus"",""3"",""132383""
""fullscreenenter"",""5"",""137857""
","""event"",""trial"",""time""
""blur"",""1"",""104035""
""blur"",""3"",""132201""
","""event"",""trial"",""time""
""focus"",""1"",""125269""
""focus"",""3"",""132383""
","""event"",""trial"",""time""
""fullscreenenter"",""5"",""137857""
","
","4108.29999999702","","49","","","3000","1","","","images/tutgreenplanet.jpg","images/tutalien1","images/tutalien2","null","images/tutalien2","images/t.png","NA","practice","null","","","",""
"d3-animate-choice","35","343175","0.0-35.0","959","862","17","Female","true","true","true","true","""event"",""trial"",""time""
""blur"",""1"",""104035""
""focus"",""1"",""125269""
""blur"",""3"",""132201""
""focus"",""3"",""132383""
""fullscreenenter"",""5"",""137857""
","""event"",""trial"",""time""
""blur"",""1"",""104035""
""blur"",""3"",""132201""
","""event"",""trial"",""time""
""focus"",""1"",""125269""
""focus"",""3"",""132383""
","""event"",""trial"",""time""
""fullscreenenter"",""5"",""137857""
","
","1095.2000000029802","","48","","","3000","1","","","images/tutgreenplanet.jpg","images/tutalien1","images/tutalien2","null","images/tutalien1","images/nothing.png","NA","practice","null","","","",""
"d3-animate-choice","36","345728","0.0-36.0","959","862","17","Female","true","true","true","true","""event"",""trial"",""time""
""blur"",""1"",""104035""
""focus"",""1"",""125269""
""blur"",""3"",""132201""
""focus"",""3"",""132383""
""fullscreenenter"",""5"",""137857""
","""event"",""trial"",""time""
""blur"",""1"",""104035""
""blur"",""3"",""132201""
","""event"",""trial"",""time""
""focus"",""1"",""125269""
""focus"",""3"",""132383""
","""event"",""trial"",""time""
""fullscreenenter"",""5"",""137857""
","
","545.2999999970198","","49","","","3000","1","","","images/tutgreenplanet.jpg","images/tutalien1","images/tutalien2","null","images/tutalien2","images/t.png","NA","practice","null","","","",""
"d3-animate-choice","37","349643","0.0-37.0","959","862","17","Female","true","true","true","true","""event"",""trial"",""time""
""blur"",""1"",""104035""
""focus"",""1"",""125269""
""blur"",""3"",""132201""
""focus"",""3"",""132383""
""fullscreenenter"",""5"",""137857""
","""event"",""trial"",""time""
""blur"",""1"",""104035""
""blur"",""3"",""132201""
","""event"",""trial"",""time""
""focus"",""1"",""125269""
""focus"",""3"",""132383""
","""event"",""trial"",""time""
""fullscreenenter"",""5"",""137857""
","
","1907","","49","","","3000","1","","","images/tutgreenplanet.jpg","images/tutalien1","images/tutalien2","null","images/tutalien2","images/t.png","NA","practice","null","","","",""
"d3-animate-choice","38","352604","0.0-38.0","959","862","17","Female","true","true","true","true","""event"",""trial"",""time""
""blur"",""1"",""104035""
""focus"",""1"",""125269""
""blur"",""3"",""132201""
""focus"",""3"",""132383""
""fullscreenenter"",""5"",""137857""
","""event"",""trial"",""time""
""blur"",""1"",""104035""
""blur"",""3"",""132201""
","""event"",""trial"",""time""
""focus"",""1"",""125269""
""focus"",""3"",""132383""
","""event"",""trial"",""time""
""fullscreenenter"",""5"",""137857""
","
","953.2000000029802","","48","","","3000","1","","","images/tutgreenplanet.jpg","images/tutalien1","images/tutalien2","null","images/tutalien1","images/nothing.png","NA","practice","null","","","",""
"d3-animate-choice","39","356001","0.0-39.0","959","862","17","Female","true","true","true","true","""event"",""trial"",""time""
""blur"",""1"",""104035""
""focus"",""1"",""125269""
""blur"",""3"",""132201""
""focus"",""3"",""132383""
""fullscreenenter"",""5"",""137857""
","""event"",""trial"",""time""
""blur"",""1"",""104035""
""blur"",""3"",""132201""
","""event"",""trial"",""time""
""focus"",""1"",""125269""
""focus"",""3"",""132383""
","""event"",""trial"",""time""
""fullscreenenter"",""5"",""137857""
","
","1389","","49","","","3000","1","","","images/tutgreenplanet.jpg","images/tutalien1","images/tutalien2","null","images/tutalien2","images/nothing.png","NA","practice","null","","","",""
"d3-animate-choice","40","359838","0.0-40.0","959","862","17","Female","true","true","true","true","""event"",""trial"",""time""
""blur"",""1"",""104035""
""focus"",""1"",""125269""
""blur"",""3"",""132201""
""focus"",""3"",""132383""
""fullscreenenter"",""5"",""137857""
","""event"",""trial"",""time""
""blur"",""1"",""104035""
""blur"",""3"",""132201""
","""event"",""trial"",""time""
""focus"",""1"",""125269""
""focus"",""3"",""132383""
","""event"",""trial"",""time""
""fullscreenenter"",""5"",""137857""
","
","1830.2000000029802","","48","","","3000","1","","","images/tutgreenplanet.jpg","images/tutalien1","images/tutalien2","null","images/tutalien1","images/nothing.png","NA","practice","null","","","",""
"d3-animate-choice","41","362601","0.0-41.0","959","862","17","Female","true","true","true","true","""event"",""trial"",""time""
""blur"",""1"",""104035""
""focus"",""1"",""125269""
""blur"",""3"",""132201""
""focus"",""3"",""132383""
""fullscreenenter"",""5"",""137857""
","""event"",""trial"",""time""
""blur"",""1"",""104035""
""blur"",""3"",""132201""
","""event"",""trial"",""time""
""focus"",""1"",""125269""
""focus"",""3"",""132383""
","""event"",""trial"",""time""
""fullscreenenter"",""5"",""137857""
","
","753.5","","49","","","3000","1","","","images/tutgreenplanet.jpg","images/tutalien1","images/tutalien2","null","images/tutalien2","images/t.png","NA","practice","null","","","",""
"d3-animate-choice","42","365511","0.0-42.0","959","862","17","Female","true","true","true","true","""event"",""trial"",""time""
""blur"",""1"",""104035""
""focus"",""1"",""125269""
""blur"",""3"",""132201""
""focus"",""3"",""132383""
""fullscreenenter"",""5"",""137857""
","""event"",""trial"",""time""
""blur"",""1"",""104035""
""blur"",""3"",""132201""
","""event"",""trial"",""time""
""focus"",""1"",""125269""
""focus"",""3"",""132383""
","""event"",""trial"",""time""
""fullscreenenter"",""5"",""137857""
","
","901.2999999970198","","49","","","3000","1","","","images/tutgreenplanet.jpg","images/tutalien1","images/tutalien2","null","images/tutalien2","images/t.png","NA","practice","null","","","",""
"d3-animate-choice","43","368461","0.0-43.0","959","862","17","Female","true","true","true","true","""event"",""trial"",""time""
""blur"",""1"",""104035""
""focus"",""1"",""125269""
""blur"",""3"",""132201""
""focus"",""3"",""132383""
""fullscreenenter"",""5"",""137857""
","""event"",""trial"",""time""
""blur"",""1"",""104035""
""blur"",""3"",""132201""
","""event"",""trial"",""time""
""focus"",""1"",""125269""
""focus"",""3"",""132383""
","""event"",""trial"",""time""
""fullscreenenter"",""5"",""137857""
","
","939.7000000029802","","48","","","3000","1","","","images/tutgreenplanet.jpg","images/tutalien1","images/tutalien2","null","images/tutalien1","images/nothing.png","NA","practice","null","","","",""
"d3-instructions","44","383858","0.0-44.0","959","862","17","Female","true","true","true","true","""event"",""trial"",""time""
""blur"",""1"",""104035""
""focus"",""1"",""125269""
""blur"",""3"",""132201""
""focus"",""3"",""132383""
""fullscreenenter"",""5"",""137857""
","""event"",""trial"",""time""
""blur"",""1"",""104035""
""blur"",""3"",""132201""
","""event"",""trial"",""time""
""focus"",""1"",""125269""
""focus"",""3"",""132383""
","""event"",""trial"",""time""
""fullscreenenter"",""5"",""137857""
","
","","","","","","","","","","","","","","","","","","","","","",""
"d3-instructions","45","390508","0.0-45.0","959","862","17","Female","true","true","true","true","""event"",""trial"",""time""
""blur"",""1"",""104035""
""focus"",""1"",""125269""
""blur"",""3"",""132201""
""focus"",""3"",""132383""
""fullscreenenter"",""5"",""137857""
","""event"",""trial"",""time""
""blur"",""1"",""104035""
""blur"",""3"",""132201""
","""event"",""trial"",""time""
""focus"",""1"",""125269""
""focus"",""3"",""132383""
","""event"",""trial"",""time""
""fullscreenenter"",""5"",""137857""
","
","","","","","","","","","","","","","","","","","","","","","",""
"d3-instructions","46","392150","0.0-46.0","959","862","17","Female","true","true","true","true","""event"",""trial"",""time""
""blur"",""1"",""104035""
""focus"",""1"",""125269""
""blur"",""3"",""132201""
""focus"",""3"",""132383""
""fullscreenenter"",""5"",""137857""
","""event"",""trial"",""time""
""blur"",""1"",""104035""
""blur"",""3"",""132201""
","""event"",""trial"",""time""
""focus"",""1"",""125269""
""focus"",""3"",""132383""
","""event"",""trial"",""time""
""fullscreenenter"",""5"",""137857""
","
","","","","","","","","","","","","","","","","","","","","","",""
"d3-instructions","47","394049","0.0-47.0","959","862","17","Female","true","true","true","true","""event"",""trial"",""time""
""blur"",""1"",""104035""
""focus"",""1"",""125269""
""blur"",""3"",""132201""
""focus"",""3"",""132383""
""fullscreenenter"",""5"",""137857""
","""event"",""trial"",""time""
""blur"",""1"",""104035""
""blur"",""3"",""132201""
","""event"",""trial"",""time""
""focus"",""1"",""125269""
""focus"",""3"",""132383""
","""event"",""trial"",""time""
""fullscreenenter"",""5"",""137857""
","
","","","","","","","","","","","","","","","","","","","","","",""
"d3-instructions","48","395220","0.0-48.0","959","862","17","Female","true","true","true","true","""event"",""trial"",""time""
""blur"",""1"",""104035""
""focus"",""1"",""125269""
""blur"",""3"",""132201""
""focus"",""3"",""132383""
""fullscreenenter"",""5"",""137857""
","""event"",""trial"",""time""
""blur"",""1"",""104035""
""blur"",""3"",""132201""
","""event"",""trial"",""time""
""focus"",""1"",""125269""
""focus"",""3"",""132383""
","""event"",""trial"",""time""
""fullscreenenter"",""5"",""137857""
","
","","","","","","","","","","","","","","","","","","","","","",""
"d3-instructions","49","396697","0.0-49.0","959","862","17","Female","true","true","true","true","""event"",""trial"",""time""
""blur"",""1"",""104035""
""focus"",""1"",""125269""
""blur"",""3"",""132201""
""focus"",""3"",""132383""
""fullscreenenter"",""5"",""137857""
","""event"",""trial"",""time""
""blur"",""1"",""104035""
""blur"",""3"",""132201""
","""event"",""trial"",""time""
""focus"",""1"",""125269""
""focus"",""3"",""132383""
","""event"",""trial"",""time""
""fullscreenenter"",""5"",""137857""
","
","","","","","","","","","","","","","","","","","","","","","",""
"d3-instructions","50","398082","0.0-50.0","959","862","17","Female","true","true","true","true","""event"",""trial"",""time""
""blur"",""1"",""104035""
""focus"",""1"",""125269""
""blur"",""3"",""132201""
""focus"",""3"",""132383""
""fullscreenenter"",""5"",""137857""
","""event"",""trial"",""time""
""blur"",""1"",""104035""
""blur"",""3"",""132201""
","""event"",""trial"",""time""
""focus"",""1"",""125269""
""focus"",""3"",""132383""
","""event"",""trial"",""time""
""fullscreenenter"",""5"",""137857""
","
","","","","","","","","","","","","","","","","","","","","","",""
"d3-instructions","51","399313","0.0-51.0","959","862","17","Female","true","true","true","true","""event"",""trial"",""time""
""blur"",""1"",""104035""
""focus"",""1"",""125269""
""blur"",""3"",""132201""
""focus"",""3"",""132383""
""fullscreenenter"",""5"",""137857""
","""event"",""trial"",""time""
""blur"",""1"",""104035""
""blur"",""3"",""132201""
","""event"",""trial"",""time""
""focus"",""1"",""125269""
""focus"",""3"",""132383""
","""event"",""trial"",""time""
""fullscreenenter"",""5"",""137857""
","
","","","","","","","","","","","","","","","","","","","","","",""
"d3-instructions","52","400126","0.0-52.0","959","862","17","Female","true","true","true","true","""event"",""trial"",""time""
""blur"",""1"",""104035""
""focus"",""1"",""125269""
""blur"",""3"",""132201""
""focus"",""3"",""132383""
""fullscreenenter"",""5"",""137857""
","""event"",""trial"",""time""
""blur"",""1"",""104035""
""blur"",""3"",""132201""
","""event"",""trial"",""time""
""focus"",""1"",""125269""
""focus"",""3"",""132383""
","""event"",""trial"",""time""
""fullscreenenter"",""5"",""137857""
","
","","","","","","","","","","","","","","","","","","","","","",""
"d3-instructions","53","400955","0.0-53.0","959","862","17","Female","true","true","true","true","""event"",""trial"",""time""
""blur"",""1"",""104035""
""focus"",""1"",""125269""
""blur"",""3"",""132201""
""focus"",""3"",""132383""
""fullscreenenter"",""5"",""137857""
","""event"",""trial"",""time""
""blur"",""1"",""104035""
""blur"",""3"",""132201""
","""event"",""trial"",""time""
""focus"",""1"",""125269""
""focus"",""3"",""132383""
","""event"",""trial"",""time""
""fullscreenenter"",""5"",""137857""
","
","","","","","","","","","","","","","","","","","","","","","",""
"d3-instructions","54","414138","0.0-54.0","959","862","17","Female","true","true","true","true","""event"",""trial"",""time""
""blur"",""1"",""104035""
""focus"",""1"",""125269""
""blur"",""3"",""132201""
""focus"",""3"",""132383""
""fullscreenenter"",""5"",""137857""
","""event"",""trial"",""time""
""blur"",""1"",""104035""
""blur"",""3"",""132201""
","""event"",""trial"",""time""
""focus"",""1"",""125269""
""focus"",""3"",""132383""
","""event"",""trial"",""time""
""fullscreenenter"",""5"",""137857""
","
","","","","","","","","","","","","","","","","","","","","","",""
"d3-instructions","55","416610","0.0-55.0","959","862","17","Female","true","true","true","true","""event"",""trial"",""time""
""blur"",""1"",""104035""
""focus"",""1"",""125269""
""blur"",""3"",""132201""
""focus"",""3"",""132383""
""fullscreenenter"",""5"",""137857""
","""event"",""trial"",""time""
""blur"",""1"",""104035""
""blur"",""3"",""132201""
","""event"",""trial"",""time""
""focus"",""1"",""125269""
""focus"",""3"",""132383""
","""event"",""trial"",""time""
""fullscreenenter"",""5"",""137857""
","
","","","","","","","","","","","","","","","","","","","","","",""
"d3-instructions","56","418350","0.0-56.0","959","862","17","Female","true","true","true","true","""event"",""trial"",""time""
""blur"",""1"",""104035""
""focus"",""1"",""125269""
""blur"",""3"",""132201""
""focus"",""3"",""132383""
""fullscreenenter"",""5"",""137857""
","""event"",""trial"",""time""
""blur"",""1"",""104035""
""blur"",""3"",""132201""
","""event"",""trial"",""time""
""focus"",""1"",""125269""
""focus"",""3"",""132383""
","""event"",""trial"",""time""
""fullscreenenter"",""5"",""137857""
","
","","","","","","","","","","","","","","","","","","","","","",""
"d3-instructions","57","422354","0.0-57.0","959","862","17","Female","true","true","true","true","""event"",""trial"",""time""
""blur"",""1"",""104035""
""focus"",""1"",""125269""
""blur"",""3"",""132201""
""focus"",""3"",""132383""
""fullscreenenter"",""5"",""137857""
","""event"",""trial"",""time""
""blur"",""1"",""104035""
""blur"",""3"",""132201""
","""event"",""trial"",""time""
""focus"",""1"",""125269""
""focus"",""3"",""132383""
","""event"",""trial"",""time""
""fullscreenenter"",""5"",""137857""
","
","","","","","","","","","","","","","","","","","","","","","",""
"d3-instructions","58","424100","0.0-58.0","959","862","17","Female","true","true","true","true","""event"",""trial"",""time""
""blur"",""1"",""104035""
""focus"",""1"",""125269""
""blur"",""3"",""132201""
""focus"",""3"",""132383""
""fullscreenenter"",""5"",""137857""
","""event"",""trial"",""time""
""blur"",""1"",""104035""
""blur"",""3"",""132201""
","""event"",""trial"",""time""
""focus"",""1"",""125269""
""focus"",""3"",""132383""
","""event"",""trial"",""time""
""fullscreenenter"",""5"",""137857""
","
","","","","","","","","","","","","","","","","","","","","","",""
"d3-instructions","59","425380","0.0-59.0","959","862","17","Female","true","true","true","true","""event"",""trial"",""time""
""blur"",""1"",""104035""
""focus"",""1"",""125269""
""blur"",""3"",""132201""
""focus"",""3"",""132383""
""fullscreenenter"",""5"",""137857""
","""event"",""trial"",""time""
""blur"",""1"",""104035""
""blur"",""3"",""132201""
","""event"",""trial"",""time""
""focus"",""1"",""125269""
""focus"",""3"",""132383""
","""event"",""trial"",""time""
""fullscreenenter"",""5"",""137857""
","
","","","","","","","","","","","","","","","","","","","","","",""
"d3-instructions","60","427314","0.0-60.0","959","862","17","Female","true","true","true","true","""event"",""trial"",""time""
""blur"",""1"",""104035""
""focus"",""1"",""125269""
""blur"",""3"",""132201""
""focus"",""3"",""132383""
""fullscreenenter"",""5"",""137857""
","""event"",""trial"",""time""
""blur"",""1"",""104035""
""blur"",""3"",""132201""
","""event"",""trial"",""time""
""focus"",""1"",""125269""
""focus"",""3"",""132383""
","""event"",""trial"",""time""
""fullscreenenter"",""5"",""137857""
","
","","","","","","","","","","","","","","","","","","","","","",""
"d3-animate-choice","61","430188","0.0-61.0-0.0","959","862","17","Female","true","true","true","true","""event"",""trial"",""time""
""blur"",""1"",""104035""
""focus"",""1"",""125269""
""blur"",""3"",""132201""
""focus"",""3"",""132383""
""fullscreenenter"",""5"",""137857""
","""event"",""trial"",""time""
""blur"",""1"",""104035""
""blur"",""3"",""132201""
","""event"",""trial"",""time""
""focus"",""1"",""125269""
""focus"",""3"",""132383""
","""event"",""trial"",""time""
""fullscreenenter"",""5"",""137857""
","
","862.5999999940395","","48","","","3000","1","","","images/earth.jpg","images/tutrocket1","images/tutrocket2","null","images/tutrocket1","","1","practice","null","2","","",""
"d3-animate-choice","62","434173","0.0-61.0-1.0","959","862","17","Female","true","true","true","true","""event"",""trial"",""time""
""blur"",""1"",""104035""
""focus"",""1"",""125269""
""blur"",""3"",""132201""
""focus"",""3"",""132383""
""fullscreenenter"",""5"",""137857""
","""event"",""trial"",""time""
""blur"",""1"",""104035""
""blur"",""3"",""132201""
","""event"",""trial"",""time""
""focus"",""1"",""125269""
""focus"",""3"",""132383""
","""event"",""trial"",""time""
""fullscreenenter"",""5"",""137857""
","
","1976.0999999940395","","48","","","3000","1","","","images/tutgreenplanet.jpg","images/tutalien2","images/tutalien1","images/tutrocket1","images/tutalien2","images/nothing.png","2","practice","true","2","common","0","2022-02-27 04:28:39.590"
"two-step-fixation","63","435180","0.0-61.0-2.0","959","862","17","Female","true","true","true","true","""event"",""trial"",""time""
""blur"",""1"",""104035""
""focus"",""1"",""125269""
""blur"",""3"",""132201""
""focus"",""3"",""132383""
""fullscreenenter"",""5"",""137857""
","""event"",""trial"",""time""
""blur"",""1"",""104035""
""blur"",""3"",""132201""
","""event"",""trial"",""time""
""focus"",""1"",""125269""
""focus"",""3"",""132383""
","""event"",""trial"",""time""
""fullscreenenter"",""5"",""137857""
","
","","images/earth.jpg","","","","","","","","","","","","","","fixation","","","","","",""
"d3-animate-choice","64","437976","0.0-61.0-0.1","959","862","17","Female","true","true","true","true","""event"",""trial"",""time""
""blur"",""1"",""104035""
""focus"",""1"",""125269""
""blur"",""3"",""132201""
""focus"",""3"",""132383""
""fullscreenenter"",""5"",""137857""
","""event"",""trial"",""time""
""blur"",""1"",""104035""
""blur"",""3"",""132201""
","""event"",""trial"",""time""
""focus"",""1"",""125269""
""focus"",""3"",""132383""
","""event"",""trial"",""time""
""fullscreenenter"",""5"",""137857""
","
","786.4000000059605","","49","","","3000","1","","","images/earth.jpg","images/tutrocket1","images/tutrocket2","null","images/tutrocket2","","1","practice","null","1","","",""
"d3-animate-choice","65","440407","0.0-61.0-1.1","959","862","17","Female","true","true","true","true","""event"",""trial"",""time""
""blur"",""1"",""104035""
""focus"",""1"",""125269""
""blur"",""3"",""132201""
""focus"",""3"",""132383""
""fullscreenenter"",""5"",""137857""
","""event"",""trial"",""time""
""blur"",""1"",""104035""
""blur"",""3"",""132201""
","""event"",""trial"",""time""
""focus"",""1"",""125269""
""focus"",""3"",""132383""
","""event"",""trial"",""time""
""fullscreenenter"",""5"",""137857""
","
","419.19999998807907","","49","","","3000","1","","","images/tutyellowplanet.jpg","images/tutalien4","images/tutalien3","images/tutrocket2","images/tutalien3","images/nothing.png","2","practice","true","1","common","0","2022-02-27 04:28:45.823"
"two-step-fixation","66","441417","0.0-61.0-2.1","959","862","17","Female","true","true","true","true","""event"",""trial"",""time""
""blur"",""1"",""104035""
""focus"",""1"",""125269""
""blur"",""3"",""132201""
""focus"",""3"",""132383""
""fullscreenenter"",""5"",""137857""
","""event"",""trial"",""time""
""blur"",""1"",""104035""
""blur"",""3"",""132201""
","""event"",""trial"",""time""
""focus"",""1"",""125269""
""focus"",""3"",""132383""
","""event"",""trial"",""time""
""fullscreenenter"",""5"",""137857""
","
","","images/earth.jpg","","","","","","","","","","","","","","fixation","","","","","",""
"d3-animate-choice","67","444388","0.0-61.0-0.2","959","862","17","Female","true","true","true","true","""event"",""trial"",""time""
""blur"",""1"",""104035""
""focus"",""1"",""125269""
""blur"",""3"",""132201""
""focus"",""3"",""132383""
""fullscreenenter"",""5"",""137857""
","""event"",""trial"",""time""
""blur"",""1"",""104035""
""blur"",""3"",""132201""
","""event"",""trial"",""time""
""focus"",""1"",""125269""
""focus"",""3"",""132383""
","""event"",""trial"",""time""
""fullscreenenter"",""5"",""137857""
","
","961.7999999970198","","48","","","3000","1","","","images/earth.jpg","images/tutrocket1","images/tutrocket2","null","images/tutrocket1","","1","practice","null","2","","",""
"d3-animate-choice","68","446731","0.0-61.0-1.2","959","862","17","Female","true","true","true","true","""event"",""trial"",""time""
""blur"",""1"",""104035""
""focus"",""1"",""125269""
""blur"",""3"",""132201""
""focus"",""3"",""132383""
""fullscreenenter"",""5"",""137857""
","""event"",""trial"",""time""
""blur"",""1"",""104035""
""blur"",""3"",""132201""
","""event"",""trial"",""time""
""focus"",""1"",""125269""
""focus"",""3"",""132383""
","""event"",""trial"",""time""
""fullscreenenter"",""5"",""137857""
","
","336.70000000298023","","49","","","3000","1","","","images/tutgreenplanet.jpg","images/tutalien2","images/tutalien1","images/tutrocket1","images/tutalien1","images/nothing.png","2","practice","true","1","common","0","2022-02-27 04:28:52.147"
"two-step-fixation","69","447737","0.0-61.0-2.2","959","862","17","Female","true","true","true","true","""event"",""trial"",""time""
""blur"",""1"",""104035""
""focus"",""1"",""125269""
""blur"",""3"",""132201""
""focus"",""3"",""132383""
""fullscreenenter"",""5"",""137857""
","""event"",""trial"",""time""
""blur"",""1"",""104035""
""blur"",""3"",""132201""
","""event"",""trial"",""time""
""focus"",""1"",""125269""
""focus"",""3"",""132383""
","""event"",""trial"",""time""
""fullscreenenter"",""5"",""137857""
","
","","images/earth.jpg","","","","","","","","","","","","","","fixation","","","","","",""
"d3-animate-choice","70","450995","0.0-61.0-0.3","959","862","17","Female","true","true","true","true","""event"",""trial"",""time""
""blur"",""1"",""104035""
""focus"",""1"",""125269""
""blur"",""3"",""132201""
""focus"",""3"",""132383""
""fullscreenenter"",""5"",""137857""
","""event"",""trial"",""time""
""blur"",""1"",""104035""
""blur"",""3"",""132201""
","""event"",""trial"",""time""
""focus"",""1"",""125269""
""focus"",""3"",""132383""
","""event"",""trial"",""time""
""fullscreenenter"",""5"",""137857""
","
","1250.199999988079","","48","","","3000","1","","","images/earth.jpg","images/tutrocket1","images/tutrocket2","null","images/tutrocket1","","1","practice","null","2","","",""
"d3-animate-choice","71","453699","0.0-61.0-1.3","959","862","17","Female","true","true","true","true","""event"",""trial"",""time""
""blur"",""1"",""104035""
""focus"",""1"",""125269""
""blur"",""3"",""132201""
""focus"",""3"",""132383""
""fullscreenenter"",""5"",""137857""
","""event"",""trial"",""time""
""blur"",""1"",""104035""
""blur"",""3"",""132201""
","""event"",""trial"",""time""
""focus"",""1"",""125269""
""focus"",""3"",""132383""
","""event"",""trial"",""time""
""fullscreenenter"",""5"",""137857""
","
","697","","48","","","3000","1","","","images/tutgreenplanet.jpg","images/tutalien2","images/tutalien1","images/tutrocket1","images/tutalien2","images/nothing.png","2","practice","true","2","common","0","2022-02-27 04:28:59.115"
"two-step-fixation","72","454705","0.0-61.0-2.3","959","862","17","Female","true","true","true","true","""event"",""trial"",""time""
""blur"",""1"",""104035""
""focus"",""1"",""125269""
""blur"",""3"",""132201""
""focus"",""3"",""132383""
""fullscreenenter"",""5"",""137857""
","""event"",""trial"",""time""
""blur"",""1"",""104035""
""blur"",""3"",""132201""
","""event"",""trial"",""time""
""focus"",""1"",""125269""
""focus"",""3"",""132383""
","""event"",""trial"",""time""
""fullscreenenter"",""5"",""137857""
","
","","images/earth.jpg","","","","","","","","","","","","","","fixation","","","","","",""
"d3-animate-choice","73","456840","0.0-61.0-0.4","959","862","17","Female","true","true","true","true","""event"",""trial"",""time""
""blur"",""1"",""104035""
""focus"",""1"",""125269""
""blur"",""3"",""132201""
""focus"",""3"",""132383""
""fullscreenenter"",""5"",""137857""
","""event"",""trial"",""time""
""blur"",""1"",""104035""
""blur"",""3"",""132201""
","""event"",""trial"",""time""
""focus"",""1"",""125269""
""focus"",""3"",""132383""
","""event"",""trial"",""time""
""fullscreenenter"",""5"",""137857""
","
","128","","49","","","3000","1","","","images/earth.jpg","images/tutrocket1","images/tutrocket2","null","images/tutrocket2","","1","practice","null","1","","",""
"d3-animate-choice","74","459487","0.0-61.0-1.4","959","862","17","Female","true","true","true","true","""event"",""trial"",""time""
""blur"",""1"",""104035""
""focus"",""1"",""125269""
""blur"",""3"",""132201""
""focus"",""3"",""132383""
""fullscreenenter"",""5"",""137857""
","""event"",""trial"",""time""
""blur"",""1"",""104035""
""blur"",""3"",""132201""
","""event"",""trial"",""time""
""focus"",""1"",""125269""
""focus"",""3"",""132383""
","""event"",""trial"",""time""
""fullscreenenter"",""5"",""137857""
","
","635.5","","48","","","3000","1","","","images/tutyellowplanet.jpg","images/tutalien4","images/tutalien3","images/tutrocket2","images/tutalien4","images/nothing.png","2","practice","true","2","common","0","2022-02-27 04:29:04.903"
"two-step-fixation","75","460496","0.0-61.0-2.4","959","862","17","Female","true","true","true","true","""event"",""trial"",""time""
""blur"",""1"",""104035""
""focus"",""1"",""125269""
""blur"",""3"",""132201""
""focus"",""3"",""132383""
""fullscreenenter"",""5"",""137857""
","""event"",""trial"",""time""
""blur"",""1"",""104035""
""blur"",""3"",""132201""
","""event"",""trial"",""time""
""focus"",""1"",""125269""
""focus"",""3"",""132383""
","""event"",""trial"",""time""
""fullscreenenter"",""5"",""137857""
","
","","images/earth.jpg","","","","","","","","","","","","","","fixation","","","","","",""
"d3-animate-choice","76","462934","0.0-61.0-0.5","959","862","17","Female","true","true","true","true","""event"",""trial"",""time""
""blur"",""1"",""104035""
""focus"",""1"",""125269""
""blur"",""3"",""132201""
""focus"",""3"",""132383""
""fullscreenenter"",""5"",""137857""
","""event"",""trial"",""time""
""blur"",""1"",""104035""
""blur"",""3"",""132201""
","""event"",""trial"",""time""
""focus"",""1"",""125269""
""focus"",""3"",""132383""
","""event"",""trial"",""time""
""fullscreenenter"",""5"",""137857""
","
","426.8999999910593","","48","","","3000","1","","","images/earth.jpg","images/tutrocket1","images/tutrocket2","null","images/tutrocket1","","1","practice","null","2","","",""
"d3-animate-choice","77","465460","0.0-61.0-1.5","959","862","17","Female","true","true","true","true","""event"",""trial"",""time""
""blur"",""1"",""104035""
""focus"",""1"",""125269""
""blur"",""3"",""132201""
""focus"",""3"",""132383""
""fullscreenenter"",""5"",""137857""
","""event"",""trial"",""time""
""blur"",""1"",""104035""
""blur"",""3"",""132201""
","""event"",""trial"",""time""
""focus"",""1"",""125269""
""focus"",""3"",""132383""
","""event"",""trial"",""time""
""fullscreenenter"",""5"",""137857""
","
","514.7999999970198","","49","","","3000","1","","","images/tutyellowplanet.jpg","images/tutalien4","images/tutalien3","images/tutrocket1","images/tutalien3","images/t.png","2","practice","false","1","rare","1","2022-02-27 04:29:10.876"
"two-step-fixation","78","466470","0.0-61.0-2.5","959","862","17","Female","true","true","true","true","""event"",""trial"",""time""
""blur"",""1"",""104035""
""focus"",""1"",""125269""
""blur"",""3"",""132201""
""focus"",""3"",""132383""
""fullscreenenter"",""5"",""137857""
","""event"",""trial"",""time""
""blur"",""1"",""104035""
""blur"",""3"",""132201""
","""event"",""trial"",""time""
""focus"",""1"",""125269""
""focus"",""3"",""132383""
","""event"",""trial"",""time""
""fullscreenenter"",""5"",""137857""
","
","","images/earth.jpg","","","","","","","","","","","","","","fixation","","","","","",""
"d3-animate-choice","79","468773","0.0-61.0-0.6","959","862","17","Female","true","true","true","true","""event"",""trial"",""time""
""blur"",""1"",""104035""
""focus"",""1"",""125269""
""blur"",""3"",""132201""
""focus"",""3"",""132383""
""fullscreenenter"",""5"",""137857""
","""event"",""trial"",""time""
""blur"",""1"",""104035""
""blur"",""3"",""132201""
","""event"",""trial"",""time""
""focus"",""1"",""125269""
""focus"",""3"",""132383""
","""event"",""trial"",""time""
""fullscreenenter"",""5"",""137857""
","
","296.79999999701977","","48","","","3000","1","","","images/earth.jpg","images/tutrocket1","images/tutrocket2","null","images/tutrocket1","","1","practice","null","2","","",""
"d3-animate-choice","80","471340","0.0-61.0-1.6","959","862","17","Female","true","true","true","true","""event"",""trial"",""time""
""blur"",""1"",""104035""
""focus"",""1"",""125269""
""blur"",""3"",""132201""
""focus"",""3"",""132383""
""fullscreenenter"",""5"",""137857""
","""event"",""trial"",""time""
""blur"",""1"",""104035""
""blur"",""3"",""132201""
","""event"",""trial"",""time""
""focus"",""1"",""125269""
""focus"",""3"",""132383""
","""event"",""trial"",""time""
""fullscreenenter"",""5"",""137857""
","
","557.5999999940395","","49","","","3000","1","","","images/tutyellowplanet.jpg","images/tutalien4","images/tutalien3","images/tutrocket1","images/tutalien3","images/nothing.png","2","practice","false","1","rare","0","2022-02-27 04:29:16.756"
"two-step-fixation","81","472347","0.0-61.0-2.6","959","862","17","Female","true","true","true","true","""event"",""trial"",""time""
""blur"",""1"",""104035""
""focus"",""1"",""125269""
""blur"",""3"",""132201""
""focus"",""3"",""132383""
""fullscreenenter"",""5"",""137857""
","""event"",""trial"",""time""
""blur"",""1"",""104035""
""blur"",""3"",""132201""
","""event"",""trial"",""time""
""focus"",""1"",""125269""
""focus"",""3"",""132383""
","""event"",""trial"",""time""
""fullscreenenter"",""5"",""137857""
","
","","images/earth.jpg","","","","","","","","","","","","","","fixation","","","","","",""
"d3-animate-choice","82","474608","0.0-61.0-0.7","959","862","17","Female","true","true","true","true","""event"",""trial"",""time""
""blur"",""1"",""104035""
""focus"",""1"",""125269""
""blur"",""3"",""132201""
""focus"",""3"",""132383""
""fullscreenenter"",""5"",""137857""
","""event"",""trial"",""time""
""blur"",""1"",""104035""
""blur"",""3"",""132201""
","""event"",""trial"",""time""
""focus"",""1"",""125269""
""focus"",""3"",""132383""
","""event"",""trial"",""time""
""fullscreenenter"",""5"",""137857""
","
","255.1000000089407","","48","","","3000","1","","","images/earth.jpg","images/tutrocket1","images/tutrocket2","null","images/tutrocket1","","1","practice","null","2","","",""
"d3-animate-choice","83","477052","0.0-61.0-1.7","959","862","17","Female","true","true","true","true","""event"",""trial"",""time""
""blur"",""1"",""104035""
""focus"",""1"",""125269""
""blur"",""3"",""132201""
""focus"",""3"",""132383""
""fullscreenenter"",""5"",""137857""
","""event"",""trial"",""time""
""blur"",""1"",""104035""
""blur"",""3"",""132201""
","""event"",""trial"",""time""
""focus"",""1"",""125269""
""focus"",""3"",""132383""
","""event"",""trial"",""time""
""fullscreenenter"",""5"",""137857""
","
","435.79999999701977","","48","","","3000","1","","","images/tutyellowplanet.jpg","images/tutalien4","images/tutalien3","images/tutrocket1","images/tutalien4","images/t.png","2","practice","false","2","rare","1","2022-02-27 04:29:22.468"
"two-step-fixation","84","478059","0.0-61.0-2.7","959","862","17","Female","true","true","true","true","""event"",""trial"",""time""
""blur"",""1"",""104035""
""focus"",""1"",""125269""
""blur"",""3"",""132201""
""focus"",""3"",""132383""
""fullscreenenter"",""5"",""137857""
","""event"",""trial"",""time""
""blur"",""1"",""104035""
""blur"",""3"",""132201""
","""event"",""trial"",""time""
""focus"",""1"",""125269""
""focus"",""3"",""132383""
","""event"",""trial"",""time""
""fullscreenenter"",""5"",""137857""
","
","","images/earth.jpg","","","","","","","","","","","","","","fixation","","","","","",""
"d3-animate-choice","85","480483","0.0-61.0-0.8","959","862","17","Female","true","true","true","true","""event"",""trial"",""time""
""blur"",""1"",""104035""
""focus"",""1"",""125269""
""blur"",""3"",""132201""
""focus"",""3"",""132383""
""fullscreenenter"",""5"",""137857""
","""event"",""trial"",""time""
""blur"",""1"",""104035""
""blur"",""3"",""132201""
","""event"",""trial"",""time""
""focus"",""1"",""125269""
""focus"",""3"",""132383""
","""event"",""trial"",""time""
""fullscreenenter"",""5"",""137857""
","
","413.90000000596046","","49","","","3000","1","","","images/earth.jpg","images/tutrocket1","images/tutrocket2","null","images/tutrocket2","","1","practice","null","1","","",""
"d3-animate-choice","86","482792","0.0-61.0-1.8","959","862","17","Female","true","true","true","true","""event"",""trial"",""time""
""blur"",""1"",""104035""
""focus"",""1"",""125269""
""blur"",""3"",""132201""
""focus"",""3"",""132383""
""fullscreenenter"",""5"",""137857""
","""event"",""trial"",""time""
""blur"",""1"",""104035""
""blur"",""3"",""132201""
","""event"",""trial"",""time""
""focus"",""1"",""125269""
""focus"",""3"",""132383""
","""event"",""trial"",""time""
""fullscreenenter"",""5"",""137857""
","
","298.5","","49","","","3000","1","","","images/tutyellowplanet.jpg","images/tutalien4","images/tutalien3","images/tutrocket2","images/tutalien3","images/nothing.png","2","practice","true","1","common","0","2022-02-27 04:29:28.208"
"two-step-fixation","87","483803","0.0-61.0-2.8","959","862","17","Female","true","true","true","true","""event"",""trial"",""time""
""blur"",""1"",""104035""
""focus"",""1"",""125269""
""blur"",""3"",""132201""
""focus"",""3"",""132383""
""fullscreenenter"",""5"",""137857""
","""event"",""trial"",""time""
""blur"",""1"",""104035""
""blur"",""3"",""132201""
","""event"",""trial"",""time""
""focus"",""1"",""125269""
""focus"",""3"",""132383""
","""event"",""trial"",""time""
""fullscreenenter"",""5"",""137857""
","
","","images/earth.jpg","","","","","","","","","","","","","","fixation","","","","","",""
"d3-animate-choice","88","487483","0.0-61.0-0.9","959","862","17","Female","true","true","true","true","""event"",""trial"",""time""
""blur"",""1"",""104035""
""focus"",""1"",""125269""
""blur"",""3"",""132201""
""focus"",""3"",""132383""
""fullscreenenter"",""5"",""137857""
""blur"",""89"",""487786""
","""event"",""trial"",""time""
""blur"",""1"",""104035""
""blur"",""3"",""132201""
""blur"",""89"",""487786""
","""event"",""trial"",""time""
""focus"",""1"",""125269""
""focus"",""3"",""132383""
","""event"",""trial"",""time""
""fullscreenenter"",""5"",""137857""
","
","1668.8999999910593","","49","","","3000","1","","","images/earth.jpg","images/tutrocket1","images/tutrocket2","null","images/tutrocket2","","1","practice","null","1","","",""
"d3-animate-choice","89","492081","0.0-61.0-1.9","959","862","17","Female","true","true","true","true","""event"",""trial"",""time""
""blur"",""1"",""104035""
""focus"",""1"",""125269""
""blur"",""3"",""132201""
""focus"",""3"",""132383""
""fullscreenenter"",""5"",""137857""
""blur"",""89"",""487786""
","""event"",""trial"",""time""
""blur"",""1"",""104035""
""blur"",""3"",""132201""
""blur"",""89"",""487786""
","""event"",""trial"",""time""
""focus"",""1"",""125269""
""focus"",""3"",""132383""
","""event"",""trial"",""time""
""fullscreenenter"",""5"",""137857""
","
","null","","null","","","3000","0","","","images/tutyellowplanet.jpg","images/tutalien4","images/tutalien3","images/tutrocket2","","","2","practice","true","","common","0","2022-02-27 04:29:37.497"
"two-step-fixation","90","493281","0.0-61.0-2.9","959","862","17","Female","true","true","true","true","""event"",""trial"",""time""
""blur"",""1"",""104035""
""focus"",""1"",""125269""
""blur"",""3"",""132201""
""focus"",""3"",""132383""
""fullscreenenter"",""5"",""137857""
""blur"",""89"",""487786""
","""event"",""trial"",""time""
""blur"",""1"",""104035""
""blur"",""3"",""132201""
""blur"",""89"",""487786""
","""event"",""trial"",""time""
""focus"",""1"",""125269""
""focus"",""3"",""132383""
","""event"",""trial"",""time""
""fullscreenenter"",""5"",""137857""
","
","","images/earth.jpg","","","","","","","","","","","","","","fixation","","","","","",""
"d3-animate-choice","91","499275","0.0-61.0-0.10","959","862","17","Female","true","true","true","true","""event"",""trial"",""time""
""blur"",""1"",""104035""
""focus"",""1"",""125269""
""blur"",""3"",""132201""
""focus"",""3"",""132383""
""fullscreenenter"",""5"",""137857""
""blur"",""89"",""487786""
","""event"",""trial"",""time""
""blur"",""1"",""104035""
""blur"",""3"",""132201""
""blur"",""89"",""487786""
","""event"",""trial"",""time""
""focus"",""1"",""125269""
""focus"",""3"",""132383""
","""event"",""trial"",""time""
""fullscreenenter"",""5"",""137857""
","
","null","","null","","","3000","0","","","images/earth.jpg","images/tutrocket1","images/tutrocket2","null","","","1","practice","null","","","",""
"d3-animate-choice","92","502372","0.0-61.0-1.10","959","862","17","Female","true","true","true","true","""event"",""trial"",""time""
""blur"",""1"",""104035""
""focus"",""1"",""125269""
""blur"",""3"",""132201""
""focus"",""3"",""132383""
""fullscreenenter"",""5"",""137857""
""blur"",""89"",""487786""
","""event"",""trial"",""time""
""blur"",""1"",""104035""
""blur"",""3"",""132201""
""blur"",""89"",""487786""
","""event"",""trial"",""time""
""focus"",""1"",""125269""
""focus"",""3"",""132383""
","""event"",""trial"",""time""
""fullscreenenter"",""5"",""137857""
","
","null","","null","","","0","0","","","images/earth.jpg","images/tutrocket1","images/tutrocket2","null","","","2","practice","null","","","0","2022-02-27 04:29:47.789"
"two-step-fixation","93","504709","0.0-61.0-2.10","959","862","17","Female","true","true","true","true","""event"",""trial"",""time""
""blur"",""1"",""104035""
""focus"",""1"",""125269""
""blur"",""3"",""132201""
""focus"",""3"",""132383""
""fullscreenenter"",""5"",""137857""
""blur"",""89"",""487786""
","""event"",""trial"",""time""
""blur"",""1"",""104035""
""blur"",""3"",""132201""
""blur"",""89"",""487786""
","""event"",""trial"",""time""
""focus"",""1"",""125269""
""focus"",""3"",""132383""
","""event"",""trial"",""time""
""fullscreenenter"",""5"",""137857""
","
","","images/earth.jpg","","","","","","","","","","","","","","fixation","","","","","",""
"d3-animate-choice","94","510444","0.0-61.0-0.11","959","862","17","Female","true","true","true","true","""event"",""trial"",""time""
""blur"",""1"",""104035""
""focus"",""1"",""125269""
""blur"",""3"",""132201""
""focus"",""3"",""132383""
""fullscreenenter"",""5"",""137857""
""blur"",""89"",""487786""
","""event"",""trial"",""time""
""blur"",""1"",""104035""
""blur"",""3"",""132201""
""blur"",""89"",""487786""
","""event"",""trial"",""time""
""focus"",""1"",""125269""
""focus"",""3"",""132383""
","""event"",""trial"",""time""
""fullscreenenter"",""5"",""137857""
","
","null","","null","","","3000","0","","","images/earth.jpg","images/tutrocket1","images/tutrocket2","null","","","1","practice","null","","","",""
"d3-animate-choice","95","512316","0.0-61.0-1.11","959","862","17","Female","true","true","true","true","""event"",""trial"",""time""
""blur"",""1"",""104035""
""focus"",""1"",""125269""
""blur"",""3"",""132201""
""focus"",""3"",""132383""
""fullscreenenter"",""5"",""137857""
""blur"",""89"",""487786""
","""event"",""trial"",""time""
""blur"",""1"",""104035""
""blur"",""3"",""132201""
""blur"",""89"",""487786""
","""event"",""trial"",""time""
""focus"",""1"",""125269""
""focus"",""3"",""132383""
","""event"",""trial"",""time""
""fullscreenenter"",""5"",""137857""
","
","null","","null","","","0","0","","","images/earth.jpg","images/tutrocket1","images/tutrocket2","null","","","2","practice","null","","","0","2022-02-27 04:29:57.732"
"two-step-fixation","96","514150","0.0-61.0-2.11","959","862","17","Female","true","true","true","true","""event"",""trial"",""time""
""blur"",""1"",""104035""
""focus"",""1"",""125269""
""blur"",""3"",""132201""
""focus"",""3"",""132383""
""fullscreenenter"",""5"",""137857""
""blur"",""89"",""487786""
","""event"",""trial"",""time""
""blur"",""1"",""104035""
""blur"",""3"",""132201""
""blur"",""89"",""487786""
","""event"",""trial"",""time""
""focus"",""1"",""125269""
""focus"",""3"",""132383""
","""event"",""trial"",""time""
""fullscreenenter"",""5"",""137857""
","
","","images/earth.jpg","","","","","","","","","","","","","","fixation","","","","","",""
"d3-animate-choice","97","519127","0.0-61.0-0.12","959","862","17","Female","true","true","true","true","""event"",""trial"",""time""
""blur"",""1"",""104035""
""focus"",""1"",""125269""
""blur"",""3"",""132201""
""focus"",""3"",""132383""
""fullscreenenter"",""5"",""137857""
""blur"",""89"",""487786""
""focus"",""98"",""521428""
","""event"",""trial"",""time""
""blur"",""1"",""104035""
""blur"",""3"",""132201""
""blur"",""89"",""487786""
","""event"",""trial"",""time""
""focus"",""1"",""125269""
""focus"",""3"",""132383""
""focus"",""98"",""521428""
","""event"",""trial"",""time""
""fullscreenenter"",""5"",""137857""
","
","null","","null","","","3000","0","","","images/earth.jpg","images/tutrocket1","images/tutrocket2","null","","","1","practice","null","","","",""
"d3-animate-choice","98","521476","0.0-61.0-1.12","959","862","17","Female","true","true","true","true","""event"",""trial"",""time""
""blur"",""1"",""104035""
""focus"",""1"",""125269""
""blur"",""3"",""132201""
""focus"",""3"",""132383""
""fullscreenenter"",""5"",""137857""
""blur"",""89"",""487786""
""focus"",""98"",""521428""
","""event"",""trial"",""time""
""blur"",""1"",""104035""
""blur"",""3"",""132201""
""blur"",""89"",""487786""
","""event"",""trial"",""time""
""focus"",""1"",""125269""
""focus"",""3"",""132383""
""focus"",""98"",""521428""
","""event"",""trial"",""time""
""fullscreenenter"",""5"",""137857""
","
","null","","null","","","0","0","","","images/earth.jpg","images/tutrocket1","images/tutrocket2","null","","","2","practice","null","","","0","2022-02-27 04:30:06.892"
"two-step-fixation","99","522479","0.0-61.0-2.12","959","862","17","Female","true","true","true","true","""event"",""trial"",""time""
""blur"",""1"",""104035""
""focus"",""1"",""125269""
""blur"",""3"",""132201""
""focus"",""3"",""132383""
""fullscreenenter"",""5"",""137857""
""blur"",""89"",""487786""
""focus"",""98"",""521428""
","""event"",""trial"",""time""
""blur"",""1"",""104035""
""blur"",""3"",""132201""
""blur"",""89"",""487786""
","""event"",""trial"",""time""
""focus"",""1"",""125269""
""focus"",""3"",""132383""
""focus"",""98"",""521428""
","""event"",""trial"",""time""
""fullscreenenter"",""5"",""137857""
","
","","images/earth.jpg","","","","","","","","","","","","","","fixation","","","","","",""
"d3-animate-choice","100","525630","0.0-61.0-0.13","959","862","17","Female","true","true","true","true","""event"",""trial"",""time""
""blur"",""1"",""104035""
""focus"",""1"",""125269""
""blur"",""3"",""132201""
""focus"",""3"",""132383""
""fullscreenenter"",""5"",""137857""
""blur"",""89"",""487786""
""focus"",""98"",""521428""
","""event"",""trial"",""time""
""blur"",""1"",""104035""
""blur"",""3"",""132201""
""blur"",""89"",""487786""
","""event"",""trial"",""time""
""focus"",""1"",""125269""
""focus"",""3"",""132383""
""focus"",""98"",""521428""
","""event"",""trial"",""time""
""fullscreenenter"",""5"",""137857""
","
","1143.8999999910593","","48","","","3000","1","","","images/earth.jpg","images/tutrocket1","images/tutrocket2","null","images/tutrocket1","","1","practice","null","2","","",""
"d3-animate-choice","101","528475","0.0-61.0-1.13","959","862","17","Female","true","true","true","true","""event"",""trial"",""time""
""blur"",""1"",""104035""
""focus"",""1"",""125269""
""blur"",""3"",""132201""
""focus"",""3"",""132383""
""fullscreenenter"",""5"",""137857""
""blur"",""89"",""487786""
""focus"",""98"",""521428""
","""event"",""trial"",""time""
""blur"",""1"",""104035""
""blur"",""3"",""132201""
""blur"",""89"",""487786""
","""event"",""trial"",""time""
""focus"",""1"",""125269""
""focus"",""3"",""132383""
""focus"",""98"",""521428""
","""event"",""trial"",""time""
""fullscreenenter"",""5"",""137857""
","
","833.7000000029802","","48","","","3000","1","","","images/tutyellowplanet.jpg","images/tutalien4","images/tutalien3","images/tutrocket1","images/tutalien4","images/t.png","2","practice","false","2","rare","1","2022-02-27 04:30:13.892"
"two-step-fixation","102","529483","0.0-61.0-2.13","959","862","17","Female","true","true","true","true","""event"",""trial"",""time""
""blur"",""1"",""104035""
""focus"",""1"",""125269""
""blur"",""3"",""132201""
""focus"",""3"",""132383""
""fullscreenenter"",""5"",""137857""
""blur"",""89"",""487786""
""focus"",""98"",""521428""
","""event"",""trial"",""time""
""blur"",""1"",""104035""
""blur"",""3"",""132201""
""blur"",""89"",""487786""
","""event"",""trial"",""time""
""focus"",""1"",""125269""
""focus"",""3"",""132383""
""focus"",""98"",""521428""
","""event"",""trial"",""time""
""fullscreenenter"",""5"",""137857""
","
","","images/earth.jpg","","","","","","","","","","","","","","fixation","","","","","",""
"d3-animate-choice","103","533491","0.0-61.0-0.14","959","862","17","Female","true","true","true","true","""event"",""trial"",""time""
""blur"",""1"",""104035""
""focus"",""1"",""125269""
""blur"",""3"",""132201""
""focus"",""3"",""132383""
""fullscreenenter"",""5"",""137857""
""blur"",""89"",""487786""
""focus"",""98"",""521428""
","""event"",""trial"",""time""
""blur"",""1"",""104035""
""blur"",""3"",""132201""
""blur"",""89"",""487786""
","""event"",""trial"",""time""
""focus"",""1"",""125269""
""focus"",""3"",""132383""
""focus"",""98"",""521428""
","""event"",""trial"",""time""
""fullscreenenter"",""5"",""137857""
","
","2230.7999999970198","","48","","","3000","1","","","images/earth.jpg","images/tutrocket1","images/tutrocket2","null","images/tutrocket1","","1","practice","null","2","","",""
"d3-animate-choice","104","536417","0.0-61.0-1.14","959","862","17","Female","true","true","true","true","""event"",""trial"",""time""
""blur"",""1"",""104035""
""focus"",""1"",""125269""
""blur"",""3"",""132201""
""focus"",""3"",""132383""
""fullscreenenter"",""5"",""137857""
""blur"",""89"",""487786""
""focus"",""98"",""521428""
","""event"",""trial"",""time""
""blur"",""1"",""104035""
""blur"",""3"",""132201""
""blur"",""89"",""487786""
","""event"",""trial"",""time""
""focus"",""1"",""125269""
""focus"",""3"",""132383""
""focus"",""98"",""521428""
","""event"",""trial"",""time""
""fullscreenenter"",""5"",""137857""
","
","914.2000000029802","","48","","","3000","1","","","images/tutyellowplanet.jpg","images/tutalien4","images/tutalien3","images/tutrocket1","images/tutalien4","images/nothing.png","2","practice","false","2","rare","0","2022-02-27 04:30:21.833"
"two-step-fixation","105","537425","0.0-61.0-2.14","959","862","17","Female","true","true","true","true","""event"",""trial"",""time""
""blur"",""1"",""104035""
""focus"",""1"",""125269""
""blur"",""3"",""132201""
""focus"",""3"",""132383""
""fullscreenenter"",""5"",""137857""
""blur"",""89"",""487786""
""focus"",""98"",""521428""
","""event"",""trial"",""time""
""blur"",""1"",""104035""
""blur"",""3"",""132201""
""blur"",""89"",""487786""
","""event"",""trial"",""time""
""focus"",""1"",""125269""
""focus"",""3"",""132383""
""focus"",""98"",""521428""
","""event"",""trial"",""time""
""fullscreenenter"",""5"",""137857""
","
","","images/earth.jpg","","","","","","","","","","","","","","fixation","","","","","",""
"d3-animate-choice","106","539822","0.0-61.0-0.15","959","862","17","Female","true","true","true","true","""event"",""trial"",""time""
""blur"",""1"",""104035""
""focus"",""1"",""125269""
""blur"",""3"",""132201""
""focus"",""3"",""132383""
""fullscreenenter"",""5"",""137857""
""blur"",""89"",""487786""
""focus"",""98"",""521428""
","""event"",""trial"",""time""
""blur"",""1"",""104035""
""blur"",""3"",""132201""
""blur"",""89"",""487786""
","""event"",""trial"",""time""
""focus"",""1"",""125269""
""focus"",""3"",""132383""
""focus"",""98"",""521428""
","""event"",""trial"",""time""
""fullscreenenter"",""5"",""137857""
","
","390.90000000596046","","48","","","3000","1","","","images/earth.jpg","images/tutrocket1","images/tutrocket2","null","images/tutrocket1","","1","practice","null","2","","",""
"d3-animate-choice","107","542358","0.0-61.0-1.15","959","862","17","Female","true","true","true","true","""event"",""trial"",""time""
""blur"",""1"",""104035""
""focus"",""1"",""125269""
""blur"",""3"",""132201""
""focus"",""3"",""132383""
""fullscreenenter"",""5"",""137857""
""blur"",""89"",""487786""
""focus"",""98"",""521428""
","""event"",""trial"",""time""
""blur"",""1"",""104035""
""blur"",""3"",""132201""
""blur"",""89"",""487786""
","""event"",""trial"",""time""
""focus"",""1"",""125269""
""focus"",""3"",""132383""
""focus"",""98"",""521428""
","""event"",""trial"",""time""
""fullscreenenter"",""5"",""137857""
","
","526.3000000119209","","48","","","3000","1","","","images/tutgreenplanet.jpg","images/tutalien2","images/tutalien1","images/tutrocket1","images/tutalien2","images/t.png","2","practice","true","2","common","1","2022-02-27 04:30:27.774"
"two-step-fixation","108","543367","0.0-61.0-2.15","959","862","17","Female","true","true","true","true","""event"",""trial"",""time""
""blur"",""1"",""104035""
""focus"",""1"",""125269""
""blur"",""3"",""132201""
""focus"",""3"",""132383""
""fullscreenenter"",""5"",""137857""
""blur"",""89"",""487786""
""focus"",""98"",""521428""
","""event"",""trial"",""time""
""blur"",""1"",""104035""
""blur"",""3"",""132201""
""blur"",""89"",""487786""
","""event"",""trial"",""time""
""focus"",""1"",""125269""
""focus"",""3"",""132383""
""focus"",""98"",""521428""
","""event"",""trial"",""time""
""fullscreenenter"",""5"",""137857""
","
","","images/earth.jpg","","","","","","","","","","","","","","fixation","","","","","",""
"d3-animate-choice","109","547379","0.0-61.0-0.16","959","862","17","Female","true","true","true","true","""event"",""trial"",""time""
""blur"",""1"",""104035""
""focus"",""1"",""125269""
""blur"",""3"",""132201""
""focus"",""3"",""132383""
""fullscreenenter"",""5"",""137857""
""blur"",""89"",""487786""
""focus"",""98"",""521428""
","""event"",""trial"",""time""
""blur"",""1"",""104035""
""blur"",""3"",""132201""
""blur"",""89"",""487786""
","""event"",""trial"",""time""
""focus"",""1"",""125269""
""focus"",""3"",""132383""
""focus"",""98"",""521428""
","""event"",""trial"",""time""
""fullscreenenter"",""5"",""137857""
","
","2884","","48","","","3000","1","","","images/earth.jpg","images/tutrocket1","images/tutrocket2","null","images/tutrocket1","","1","practice","null","2","","",""
"d3-animate-choice","110","551325","0.0-61.0-1.16","959","862","17","Female","true","true","true","true","""event"",""trial"",""time""
""blur"",""1"",""104035""
""focus"",""1"",""125269""
""blur"",""3"",""132201""
""focus"",""3"",""132383""
""fullscreenenter"",""5"",""137857""
""blur"",""89"",""487786""
""focus"",""98"",""521428""
","""event"",""trial"",""time""
""blur"",""1"",""104035""
""blur"",""3"",""132201""
""blur"",""89"",""487786""
","""event"",""trial"",""time""
""focus"",""1"",""125269""
""focus"",""3"",""132383""
""focus"",""98"",""521428""
","""event"",""trial"",""time""
""fullscreenenter"",""5"",""137857""
","
","1937.5999999940395","","48","","","3000","1","","","images/tutyellowplanet.jpg","images/tutalien4","images/tutalien3","images/tutrocket1","images/tutalien4","images/nothing.png","2","practice","false","2","rare","0","2022-02-27 04:30:36.741"
"two-step-fixation","111","552332","0.0-61.0-2.16","959","862","17","Female","true","true","true","true","""event"",""trial"",""time""
""blur"",""1"",""104035""
""focus"",""1"",""125269""
""blur"",""3"",""132201""
""focus"",""3"",""132383""
""fullscreenenter"",""5"",""137857""
""blur"",""89"",""487786""
""focus"",""98"",""521428""
","""event"",""trial"",""time""
""blur"",""1"",""104035""
""blur"",""3"",""132201""
""blur"",""89"",""487786""
","""event"",""trial"",""time""
""focus"",""1"",""125269""
""focus"",""3"",""132383""
""focus"",""98"",""521428""
","""event"",""trial"",""time""
""fullscreenenter"",""5"",""137857""
","
","","images/earth.jpg","","","","","","","","","","","","","","fixation","","","","","",""
"d3-animate-choice","112","555510","0.0-61.0-0.17","959","862","17","Female","true","true","true","true","""event"",""trial"",""time""
""blur"",""1"",""104035""
""focus"",""1"",""125269""
""blur"",""3"",""132201""
""focus"",""3"",""132383""
""fullscreenenter"",""5"",""137857""
""blur"",""89"",""487786""
""focus"",""98"",""521428""
","""event"",""trial"",""time""
""blur"",""1"",""104035""
""blur"",""3"",""132201""
""blur"",""89"",""487786""
","""event"",""trial"",""time""
""focus"",""1"",""125269""
""focus"",""3"",""132383""
""focus"",""98"",""521428""
","""event"",""trial"",""time""
""fullscreenenter"",""5"",""137857""
","
","1167.3999999910593","","48","","","3000","1","","","images/earth.jpg","images/tutrocket1","images/tutrocket2","null","images/tutrocket1","","1","practice","null","2","","",""
"d3-animate-choice","113","558648","0.0-61.0-1.17","959","862","17","Female","true","true","true","true","""event"",""trial"",""time""
""blur"",""1"",""104035""
""focus"",""1"",""125269""
""blur"",""3"",""132201""
""focus"",""3"",""132383""
""fullscreenenter"",""5"",""137857""
""blur"",""89"",""487786""
""focus"",""98"",""521428""
","""event"",""trial"",""time""
""blur"",""1"",""104035""
""blur"",""3"",""132201""
""blur"",""89"",""487786""
","""event"",""trial"",""time""
""focus"",""1"",""125269""
""focus"",""3"",""132383""
""focus"",""98"",""521428""
","""event"",""trial"",""time""
""fullscreenenter"",""5"",""137857""
","
","1129.4000000059605","","48","","","3000","1","","","images/tutgreenplanet.jpg","images/tutalien2","images/tutalien1","images/tutrocket1","images/tutalien2","images/nothing.png","2","practice","true","2","common","0","2022-02-27 04:30:44.065"
"two-step-fixation","114","559658","0.0-61.0-2.17","959","862","17","Female","true","true","true","true","""event"",""trial"",""time""
""blur"",""1"",""104035""
""focus"",""1"",""125269""
""blur"",""3"",""132201""
""focus"",""3"",""132383""
""fullscreenenter"",""5"",""137857""
""blur"",""89"",""487786""
""focus"",""98"",""521428""
","""event"",""trial"",""time""
""blur"",""1"",""104035""
""blur"",""3"",""132201""
""blur"",""89"",""487786""
","""event"",""trial"",""time""
""focus"",""1"",""125269""
""focus"",""3"",""132383""
""focus"",""98"",""521428""
","""event"",""trial"",""time""
""fullscreenenter"",""5"",""137857""
","
","","images/earth.jpg","","","","","","","","","","","","","","fixation","","","","","",""
"d3-animate-choice","115","563672","0.0-61.0-0.18","959","862","17","Female","true","true","true","true","""event"",""trial"",""time""
""blur"",""1"",""104035""
""focus"",""1"",""125269""
""blur"",""3"",""132201""
""focus"",""3"",""132383""
""fullscreenenter"",""5"",""137857""
""blur"",""89"",""487786""
""focus"",""98"",""521428""
","""event"",""trial"",""time""
""blur"",""1"",""104035""
""blur"",""3"",""132201""
""blur"",""89"",""487786""
","""event"",""trial"",""time""
""focus"",""1"",""125269""
""focus"",""3"",""132383""
""focus"",""98"",""521428""
","""event"",""trial"",""time""
""fullscreenenter"",""5"",""137857""
","
","2136.6000000089407","","48","","","3000","1","","","images/earth.jpg","images/tutrocket1","images/tutrocket2","null","images/tutrocket1","","1","practice","null","2","","",""
"d3-animate-choice","116","567679","0.0-61.0-1.18","959","862","17","Female","true","true","true","true","""event"",""trial"",""time""
""blur"",""1"",""104035""
""focus"",""1"",""125269""
""blur"",""3"",""132201""
""focus"",""3"",""132383""
""fullscreenenter"",""5"",""137857""
""blur"",""89"",""487786""
""focus"",""98"",""521428""
","""event"",""trial"",""time""
""blur"",""1"",""104035""
""blur"",""3"",""132201""
""blur"",""89"",""487786""
","""event"",""trial"",""time""
""focus"",""1"",""125269""
""focus"",""3"",""132383""
""focus"",""98"",""521428""
","""event"",""trial"",""time""
""fullscreenenter"",""5"",""137857""
","
","3172.7999999970198","","48","","","3000","0","","","images/tutyellowplanet.jpg","images/tutalien4","images/tutalien3","images/tutrocket1","","","2","practice","false","2","rare","0","2022-02-27 04:30:53.095"
"two-step-fixation","117","568684","0.0-61.0-2.18","959","862","17","Female","true","true","true","true","""event"",""trial"",""time""
""blur"",""1"",""104035""
""focus"",""1"",""125269""
""blur"",""3"",""132201""
""focus"",""3"",""132383""
""fullscreenenter"",""5"",""137857""
""blur"",""89"",""487786""
""focus"",""98"",""521428""
","""event"",""trial"",""time""
""blur"",""1"",""104035""
""blur"",""3"",""132201""
""blur"",""89"",""487786""
","""event"",""trial"",""time""
""focus"",""1"",""125269""
""focus"",""3"",""132383""
""focus"",""98"",""521428""
","""event"",""trial"",""time""
""fullscreenenter"",""5"",""137857""
","
","","images/earth.jpg","","","","","","","","","","","","","","fixation","","","","","",""
"d3-animate-choice","118","572694","0.0-61.0-0.19","959","862","17","Female","true","true","true","true","""event"",""trial"",""time""
""blur"",""1"",""104035""
""focus"",""1"",""125269""
""blur"",""3"",""132201""
""focus"",""3"",""132383""
""fullscreenenter"",""5"",""137857""
""blur"",""89"",""487786""
""focus"",""98"",""521428""
","""event"",""trial"",""time""
""blur"",""1"",""104035""
""blur"",""3"",""132201""
""blur"",""89"",""487786""
","""event"",""trial"",""time""
""focus"",""1"",""125269""
""focus"",""3"",""132383""
""focus"",""98"",""521428""
","""event"",""trial"",""time""
""fullscreenenter"",""5"",""137857""
","
","2331.7000000029802","","48","","","3000","1","","","images/earth.jpg","images/tutrocket1","images/tutrocket2","null","images/tutrocket1","","1","practice","null","2","","",""
"d3-animate-choice","119","576376","0.0-61.0-1.19","959","862","17","Female","true","true","true","true","""event"",""trial"",""time""
""blur"",""1"",""104035""
""focus"",""1"",""125269""
""blur"",""3"",""132201""
""focus"",""3"",""132383""
""fullscreenenter"",""5"",""137857""
""blur"",""89"",""487786""
""focus"",""98"",""521428""
","""event"",""trial"",""time""
""blur"",""1"",""104035""
""blur"",""3"",""132201""
""blur"",""89"",""487786""
","""event"",""trial"",""time""
""focus"",""1"",""125269""
""focus"",""3"",""132383""
""focus"",""98"",""521428""
","""event"",""trial"",""time""
""fullscreenenter"",""5"",""137857""
","
","1673.7000000029802","","49","","","3000","1","","","images/tutgreenplanet.jpg","images/tutalien2","images/tutalien1","images/tutrocket1","images/tutalien1","images/nothing.png","2","practice","true","1","common","0","2022-02-27 04:31:01.793"
"two-step-fixation","120","577387","0.0-61.0-2.19","959","862","17","Female","true","true","true","true","""event"",""trial"",""time""
""blur"",""1"",""104035""
""focus"",""1"",""125269""
""blur"",""3"",""132201""
""focus"",""3"",""132383""
""fullscreenenter"",""5"",""137857""
""blur"",""89"",""487786""
""focus"",""98"",""521428""
","""event"",""trial"",""time""
""blur"",""1"",""104035""
""blur"",""3"",""132201""
""blur"",""89"",""487786""
","""event"",""trial"",""time""
""focus"",""1"",""125269""
""focus"",""3"",""132383""
""focus"",""98"",""521428""
","""event"",""trial"",""time""
""fullscreenenter"",""5"",""137857""
","
","","images/earth.jpg","","","","","","","","","","","","","","fixation","","","","","",""
"d3-instructions","121","581517","0.0-62.0","959","862","17","Female","true","true","true","true","""event"",""trial"",""time""
""blur"",""1"",""104035""
""focus"",""1"",""125269""
""blur"",""3"",""132201""
""focus"",""3"",""132383""
""fullscreenenter"",""5"",""137857""
""blur"",""89"",""487786""
""focus"",""98"",""521428""
","""event"",""trial"",""time""
""blur"",""1"",""104035""
""blur"",""3"",""132201""
""blur"",""89"",""487786""
","""event"",""trial"",""time""
""focus"",""1"",""125269""
""focus"",""3"",""132383""
""focus"",""98"",""521428""
","""event"",""trial"",""time""
""fullscreenenter"",""5"",""137857""
","
","","","","","","","","","","","","","","","","","","","","","",""
"audio-keyboard-response","122","588643","0.0-63.0","959","862","17","Female","true","true","true","true","""event"",""trial"",""time""
""blur"",""1"",""104035""
""focus"",""1"",""125269""
""blur"",""3"",""132201""
""focus"",""3"",""132383""
""fullscreenenter"",""5"",""137857""
""blur"",""89"",""487786""
""focus"",""98"",""521428""
","""event"",""trial"",""time""
""blur"",""1"",""104035""
""blur"",""3"",""132201""
""blur"",""89"",""487786""
","""event"",""trial"",""time""
""focus"",""1"",""125269""
""focus"",""3"",""132383""
""focus"",""98"",""521428""
","""event"",""trial"",""time""
""fullscreenenter"",""5"",""137857""
","
","7125","audio/instructions/treasure_feedback.wav","32","","","","","","","","","","","","","","","","","","",""
"d3-instructions","123","594116","0.0-64.0","959","862","17","Female","true","true","true","true","""event"",""trial"",""time""
""blur"",""1"",""104035""
""focus"",""1"",""125269""
""blur"",""3"",""132201""
""focus"",""3"",""132383""
""fullscreenenter"",""5"",""137857""
""blur"",""89"",""487786""
""focus"",""98"",""521428""
","""event"",""trial"",""time""
""blur"",""1"",""104035""
""blur"",""3"",""132201""
""blur"",""89"",""487786""
","""event"",""trial"",""time""
""focus"",""1"",""125269""
""focus"",""3"",""132383""
""focus"",""98"",""521428""
","""event"",""trial"",""time""
""fullscreenenter"",""5"",""137857""
","
","","","","","","","","","","","","","","","","","","","","","",""
"d3-instructions","124","596661","0.0-65.0","959","862","17","Female","true","true","true","true","""event"",""trial"",""time""
""blur"",""1"",""104035""
""focus"",""1"",""125269""
""blur"",""3"",""132201""
""focus"",""3"",""132383""
""fullscreenenter"",""5"",""137857""
""blur"",""89"",""487786""
""focus"",""98"",""521428""
","""event"",""trial"",""time""
""blur"",""1"",""104035""
""blur"",""3"",""132201""
""blur"",""89"",""487786""
","""event"",""trial"",""time""
""focus"",""1"",""125269""
""focus"",""3"",""132383""
""focus"",""98"",""521428""
","""event"",""trial"",""time""
""fullscreenenter"",""5"",""137857""
","
","","","","","","","","","","","","","","","","","","","","","",""
"d3-instructions","125","600498","0.0-66.0","959","862","17","Female","true","true","true","true","""event"",""trial"",""time""
""blur"",""1"",""104035""
""focus"",""1"",""125269""
""blur"",""3"",""132201""
""focus"",""3"",""132383""
""fullscreenenter"",""5"",""137857""
""blur"",""89"",""487786""
""focus"",""98"",""521428""
","""event"",""trial"",""time""
""blur"",""1"",""104035""
""blur"",""3"",""132201""
""blur"",""89"",""487786""
","""event"",""trial"",""time""
""focus"",""1"",""125269""
""focus"",""3"",""132383""
""focus"",""98"",""521428""
","""event"",""trial"",""time""
""fullscreenenter"",""5"",""137857""
","
","","","","","","","","","","","","","","","","","","","","","",""
"d3-instructions","126","602026","0.0-67.0","959","862","17","Female","true","true","true","true","""event"",""trial"",""time""
""blur"",""1"",""104035""
""focus"",""1"",""125269""
""blur"",""3"",""132201""
""focus"",""3"",""132383""
""fullscreenenter"",""5"",""137857""
""blur"",""89"",""487786""
""focus"",""98"",""521428""
","""event"",""trial"",""time""
""blur"",""1"",""104035""
""blur"",""3"",""132201""
""blur"",""89"",""487786""
","""event"",""trial"",""time""
""focus"",""1"",""125269""
""focus"",""3"",""132383""
""focus"",""98"",""521428""
","""event"",""trial"",""time""
""fullscreenenter"",""5"",""137857""
","
","","","","","","","","","","","","","","","","","","","","","",""
"d3-instructions","127","603565","0.0-68.0","959","862","17","Female","true","true","true","true","""event"",""trial"",""time""
""blur"",""1"",""104035""
""focus"",""1"",""125269""
""blur"",""3"",""132201""
""focus"",""3"",""132383""
""fullscreenenter"",""5"",""137857""
""blur"",""89"",""487786""
""focus"",""98"",""521428""
","""event"",""trial"",""time""
""blur"",""1"",""104035""
""blur"",""3"",""132201""
""blur"",""89"",""487786""
","""event"",""trial"",""time""
""focus"",""1"",""125269""
""focus"",""3"",""132383""
""focus"",""98"",""521428""
","""event"",""trial"",""time""
""fullscreenenter"",""5"",""137857""
","
","","","","","","","","","","","","","","","","","","","","","",""
"instructions-quiz","128","606560","0.0-69.0","959","862","17","Female","true","true","true","true","""event"",""trial"",""time""
""blur"",""1"",""104035""
""focus"",""1"",""125269""
""blur"",""3"",""132201""
""focus"",""3"",""132383""
""fullscreenenter"",""5"",""137857""
""blur"",""89"",""487786""
""focus"",""98"",""521428""
","""event"",""trial"",""time""
""blur"",""1"",""104035""
""blur"",""3"",""132201""
""blur"",""89"",""487786""
","""event"",""trial"",""time""
""focus"",""1"",""125269""
""focus"",""3"",""132383""
""focus"",""98"",""521428""
","""event"",""trial"",""time""
""fullscreenenter"",""5"",""137857""
","
","2990.5","audio/quiz/Q1_Prompt.wav","","1","","","","","","","","","","","","","","","","","",""
"audio-keyboard-response","129","607823","0.0-70.0","959","862","17","Female","true","true","true","true","""event"",""trial"",""time""
""blur"",""1"",""104035""
""focus"",""1"",""125269""
""blur"",""3"",""132201""
""focus"",""3"",""132383""
""fullscreenenter"",""5"",""137857""
""blur"",""89"",""487786""
""focus"",""98"",""521428""
","""event"",""trial"",""time""
""blur"",""1"",""104035""
""blur"",""3"",""132201""
""blur"",""89"",""487786""
","""event"",""trial"",""time""
""focus"",""1"",""125269""
""focus"",""3"",""132383""
""focus"",""98"",""521428""
","""event"",""trial"",""time""
""fullscreenenter"",""5"",""137857""
","
","1259","audio/quiz/Q1_Correct.wav","32","","","","","","","","","","","","","","","","","","",""
"instructions-quiz","130","610997","0.0-71.0","959","862","17","Female","true","true","true","true","""event"",""trial"",""time""
""blur"",""1"",""104035""
""focus"",""1"",""125269""
""blur"",""3"",""132201""
""focus"",""3"",""132383""
""fullscreenenter"",""5"",""137857""
""blur"",""89"",""487786""
""focus"",""98"",""521428""
","""event"",""trial"",""time""
""blur"",""1"",""104035""
""blur"",""3"",""132201""
""blur"",""89"",""487786""
","""event"",""trial"",""time""
""focus"",""1"",""125269""
""focus"",""3"",""132383""
""focus"",""98"",""521428""
","""event"",""trial"",""time""
""fullscreenenter"",""5"",""137857""
","
","3170.9000000059605","audio/quiz/Q2_Prompt.wav","","1","","","","","","","","","","","","","","","","","",""
"audio-keyboard-response","131","614634","0.0-72.0","959","862","17","Female","true","true","true","true","""event"",""trial"",""time""
""blur"",""1"",""104035""
""focus"",""1"",""125269""
""blur"",""3"",""132201""
""focus"",""3"",""132383""
""fullscreenenter"",""5"",""137857""
""blur"",""89"",""487786""
""focus"",""98"",""521428""
","""event"",""trial"",""time""
""blur"",""1"",""104035""
""blur"",""3"",""132201""
""blur"",""89"",""487786""
","""event"",""trial"",""time""
""focus"",""1"",""125269""
""focus"",""3"",""132383""
""focus"",""98"",""521428""
","""event"",""trial"",""time""
""fullscreenenter"",""5"",""137857""
","
","3637","audio/quiz/Q2_Incorrect.wav","32","","","","","","","","","","","","","","","","","","",""
"instructions-quiz","132","618216","0.0-73.0","959","862","17","Female","true","true","true","true","""event"",""trial"",""time""
""blur"",""1"",""104035""
""focus"",""1"",""125269""
""blur"",""3"",""132201""
""focus"",""3"",""132383""
""fullscreenenter"",""5"",""137857""
""blur"",""89"",""487786""
""focus"",""98"",""521428""
","""event"",""trial"",""time""
""blur"",""1"",""104035""
""blur"",""3"",""132201""
""blur"",""89"",""487786""
","""event"",""trial"",""time""
""focus"",""1"",""125269""
""focus"",""3"",""132383""
""focus"",""98"",""521428""
","""event"",""trial"",""time""
""fullscreenenter"",""5"",""137857""
","
","3579.7999999970198","audio/quiz/Q3_Prompt.wav","","1","","","","","","","","","","","","","","","","","",""
"audio-keyboard-response","133","619092","0.0-74.0","959","862","17","Female","true","true","true","true","""event"",""trial"",""time""
""blur"",""1"",""104035""
""focus"",""1"",""125269""
""blur"",""3"",""132201""
""focus"",""3"",""132383""
""fullscreenenter"",""5"",""137857""
""blur"",""89"",""487786""
""focus"",""98"",""521428""
","""event"",""trial"",""time""
""blur"",""1"",""104035""
""blur"",""3"",""132201""
""blur"",""89"",""487786""
","""event"",""trial"",""time""
""focus"",""1"",""125269""
""focus"",""3"",""132383""
""focus"",""98"",""521428""
","""event"",""trial"",""time""
""fullscreenenter"",""5"",""137857""
","
","875","audio/quiz/Q3_Correct.wav","32","","","","","","","","","","","","","","","","","","",""
"d3-instructions","134","622378","0.0-75.0","959","862","17","Female","true","true","true","true","""event"",""trial"",""time""
""blur"",""1"",""104035""
""focus"",""1"",""125269""
""blur"",""3"",""132201""
""focus"",""3"",""132383""
""fullscreenenter"",""5"",""137857""
""blur"",""89"",""487786""
""focus"",""98"",""521428""
","""event"",""trial"",""time""
""blur"",""1"",""104035""
""blur"",""3"",""132201""
""blur"",""89"",""487786""
","""event"",""trial"",""time""
""focus"",""1"",""125269""
""focus"",""3"",""132383""
""focus"",""98"",""521428""
","""event"",""trial"",""time""
""fullscreenenter"",""5"",""137857""
","
","","","","","","","","","","","","","","","","","","","","","",""
"d3-animate-choice","135","625593","0.0-76.0-0.0","959","862","17","Female","true","true","true","true","""event"",""trial"",""time""
""blur"",""1"",""104035""
""focus"",""1"",""125269""
""blur"",""3"",""132201""
""focus"",""3"",""132383""
""fullscreenenter"",""5"",""137857""
""blur"",""89"",""487786""
""focus"",""98"",""521428""
","""event"",""trial"",""time""
""blur"",""1"",""104035""
""blur"",""3"",""132201""
""blur"",""89"",""487786""
","""event"",""trial"",""time""
""focus"",""1"",""125269""
""focus"",""3"",""132383""
""focus"",""98"",""521428""
","""event"",""trial"",""time""
""fullscreenenter"",""5"",""137857""
","
","1206.8999999910593","","49","","","3000","1","","","images/earth.jpg","images/rocket2","images/rocket1","null","images/rocket1","","1","real","null","1","","",""
"d3-animate-choice","136","628572","0.0-76.0-1.0","959","862","17","Female","true","true","true","true","""event"",""trial"",""time""
""blur"",""1"",""104035""
""focus"",""1"",""125269""
""blur"",""3"",""132201""
""focus"",""3"",""132383""
""fullscreenenter"",""5"",""137857""
""blur"",""89"",""487786""
""focus"",""98"",""521428""
","""event"",""trial"",""time""
""blur"",""1"",""104035""
""blur"",""3"",""132201""
""blur"",""89"",""487786""
","""event"",""trial"",""time""
""focus"",""1"",""125269""
""focus"",""3"",""132383""
""focus"",""98"",""521428""
","""event"",""trial"",""time""
""fullscreenenter"",""5"",""137857""
","
","967.7000000029802","","49","","","3000","1","","","images/redplanet1.jpg","images/alien2","images/alien1","images/rocket1","images/alien1","images/nothing.png","2","real","true","1","common","0","2022-02-27 04:31:53.988"
"two-step-fixation","137","629581","0.0-76.0-2.0","959","862","17","Female","true","true","true","true","""event"",""trial"",""time""
""blur"",""1"",""104035""
""focus"",""1"",""125269""
""blur"",""3"",""132201""
""focus"",""3"",""132383""
""fullscreenenter"",""5"",""137857""
""blur"",""89"",""487786""
""focus"",""98"",""521428""
","""event"",""trial"",""time""
""blur"",""1"",""104035""
""blur"",""3"",""132201""
""blur"",""89"",""487786""
","""event"",""trial"",""time""
""focus"",""1"",""125269""
""focus"",""3"",""132383""
""focus"",""98"",""521428""
","""event"",""trial"",""time""
""fullscreenenter"",""5"",""137857""
","
","","images/earth.jpg","","","","","","","","","","","","","","fixation","","","","","",""
"d3-animate-choice","138","632086","0.0-76.0-0.1","959","862","17","Female","true","true","true","true","""event"",""trial"",""time""
""blur"",""1"",""104035""
""focus"",""1"",""125269""
""blur"",""3"",""132201""
""focus"",""3"",""132383""
""fullscreenenter"",""5"",""137857""
""blur"",""89"",""487786""
""focus"",""98"",""521428""
","""event"",""trial"",""time""
""blur"",""1"",""104035""
""blur"",""3"",""132201""
""blur"",""89"",""487786""
","""event"",""trial"",""time""
""focus"",""1"",""125269""
""focus"",""3"",""132383""
""focus"",""98"",""521428""
","""event"",""trial"",""time""
""fullscreenenter"",""5"",""137857""
","
","498.79999999701977","","48","","","3000","1","","","images/earth.jpg","images/rocket2","images/rocket1","null","images/rocket2","","1","real","null","2","","",""
"d3-animate-choice","139","634390","0.0-76.0-1.1","959","862","17","Female","true","true","true","true","""event"",""trial"",""time""
""blur"",""1"",""104035""
""focus"",""1"",""125269""
""blur"",""3"",""132201""
""focus"",""3"",""132383""
""fullscreenenter"",""5"",""137857""
""blur"",""89"",""487786""
""focus"",""98"",""521428""
","""event"",""trial"",""time""
""blur"",""1"",""104035""
""blur"",""3"",""132201""
""blur"",""89"",""487786""
","""event"",""trial"",""time""
""focus"",""1"",""125269""
""focus"",""3"",""132383""
""focus"",""98"",""521428""
","""event"",""trial"",""time""
""fullscreenenter"",""5"",""137857""
","
","294","","48","","","3000","1","","","images/redplanet1.jpg","images/alien2","images/alien1","images/rocket2","images/alien2","images/t.png","2","real","false","2","rare","1","2022-02-27 04:31:59.807"
"two-step-fixation","140","635396","0.0-76.0-2.1","959","862","17","Female","true","true","true","true","""event"",""trial"",""time""
""blur"",""1"",""104035""
""focus"",""1"",""125269""
""blur"",""3"",""132201""
""focus"",""3"",""132383""
""fullscreenenter"",""5"",""137857""
""blur"",""89"",""487786""
""focus"",""98"",""521428""
","""event"",""trial"",""time""
""blur"",""1"",""104035""
""blur"",""3"",""132201""
""blur"",""89"",""487786""
","""event"",""trial"",""time""
""focus"",""1"",""125269""
""focus"",""3"",""132383""
""focus"",""98"",""521428""
","""event"",""trial"",""time""
""fullscreenenter"",""5"",""137857""
","
","","images/earth.jpg","","","","","","","","","","","","","","fixation","","","","","",""
"d3-animate-choice","141","637709","0.0-76.0-0.2","959","862","17","Female","true","true","true","true","""event"",""trial"",""time""
""blur"",""1"",""104035""
""focus"",""1"",""125269""
""blur"",""3"",""132201""
""focus"",""3"",""132383""
""fullscreenenter"",""5"",""137857""
