"trial_type","trial_index","time_elapsed","internal_node_id","participant_id","subject_id","age","gender","rocket_sides","red_planet_first_rocket","red_display_order","purple_display_order","interactions","blur_events","focus_events","fullscreenenter_events","fullscreenexit_events","rt","stimulus","key_press","button_pressed","success","duration","valid_pressed","rts","keys","planet_text","right_text","left_text","center_text","chosen_text","reward_text","trial_stage","practice_trial","transition_type","choice","transition","reward","timestamp"
"pavlovia","0","6","0.0-0.0","179","819","20","Female","true","true","false","false","
","
","
","
","
","","","","","","","","","","","","","","","","","","","","","",""
"html-keyboard-response","1","4192","0.0-1.0","179","819","20","Female","true","true","false","false","
","
","
","
","
","4183.700000017881","Welcome! Press the space bar to begin.","32","","","","","","","","","","","","","","","","","","",""
"audio-keyboard-response","2","8873","0.0-2.0","179","819","20","Female","true","true","false","false","
","
","
","
","
","4224","audio/beep_loop.wav","32","","","","","","","","","","","","","","","","","","",""
"audio-button-response","3","11378","0.0-3.0","179","819","20","Female","true","true","false","false","
","
","
","
","
","NaN","audio/fish.mp3","","1","","","","","","","","","","","","","","","","","",""
"audio-button-response","4","14022","0.0-4.0","179","819","20","Female","true","true","false","false","""event"",""trial"",""time""
""fullscreenenter"",""5"",""16521""
","
","
","""event"",""trial"",""time""
""fullscreenenter"",""5"",""16521""
","
","NaN","audio/tiger.mp3","","4","","","","","","","","","","","","","","","","","",""
"fullscreen","5","17395","0.0-5.0","179","819","20","Female","true","true","false","false","""event"",""trial"",""time""
""fullscreenenter"",""5"",""16521""
","
","
","""event"",""trial"",""time""
""fullscreenenter"",""5"",""16521""
","
","","","","","true","","","","","","","","","","","","","","","","",""
"d3-instructions","6","31484","0.0-6.0","179","819","20","Female","true","true","false","false","""event"",""trial"",""time""
""fullscreenenter"",""5"",""16521""
","
","
","""event"",""trial"",""time""
""fullscreenenter"",""5"",""16521""
","
","","","","","","","","","","","","","","","","","","","","","",""
"d3-instructions","7","40212","0.0-7.0","179","819","20","Female","true","true","false","false","""event"",""trial"",""time""
""fullscreenenter"",""5"",""16521""
","
","
","""event"",""trial"",""time""
""fullscreenenter"",""5"",""16521""
","
","","","","","","","","","","","","","","","","","","","","","",""
"d3-instructions","8","51914","0.0-8.0","179","819","20","Female","true","true","false","false","""event"",""trial"",""time""
""fullscreenenter"",""5"",""16521""
","
","
","""event"",""trial"",""time""
""fullscreenenter"",""5"",""16521""
","
","","","","","","","","","","","","","","","","","","","","","",""
"d3-instructions","9","75700","0.0-9.0","179","819","20","Female","true","true","false","false","""event"",""trial"",""time""
""fullscreenenter"",""5"",""16521""
","
","
","""event"",""trial"",""time""
""fullscreenenter"",""5"",""16521""
","
","","","","","","","","","","","","","","","","","","","","","",""
"d3-instructions","10","107128","0.0-10.0","179","819","20","Female","true","true","false","false","""event"",""trial"",""time""
""fullscreenenter"",""5"",""16521""
","
","
","""event"",""trial"",""time""
""fullscreenenter"",""5"",""16521""
","
","","","","","","","","","","","","","","","","","","","","","",""
"d3-animate-choice","11","110535","0.0-11.0","179","819","20","Female","true","true","false","false","""event"",""trial"",""time""
""fullscreenenter"",""5"",""16521""
","
","
","""event"",""trial"",""time""
""fullscreenenter"",""5"",""16521""
","
","1395.4000000059605","","49","","","3000","1","","","images/tutgreenplanet.jpg","images/tutalien1","images/tutalien2","null","images/tutalien2","","NA","practice","null","","","",""
"d3-animate-choice","12","113569","0.0-12.0","179","819","20","Female","true","true","false","false","""event"",""trial"",""time""
""fullscreenenter"",""5"",""16521""
","
","
","""event"",""trial"",""time""
""fullscreenenter"",""5"",""16521""
","
","1027.800000011921","","48","","","3000","1","","","images/tutgreenplanet.jpg","images/tutalien1","images/tutalien2","null","images/tutalien1","","NA","practice","null","","","",""
"d3-animate-choice","13","116923","0.0-13.0","179","819","20","Female","true","true","false","false","""event"",""trial"",""time""
""fullscreenenter"",""5"",""16521""
","
","
","""event"",""trial"",""time""
""fullscreenenter"",""5"",""16521""
","
","1347.5999999940395","","48","","","3000","1","","","images/tutgreenplanet.jpg","images/tutalien1","images/tutalien2","null","images/tutalien1","","NA","practice","null","","","",""
"d3-animate-choice","14","119982","0.0-14.0","179","819","20","Female","true","true","false","false","""event"",""trial"",""time""
""fullscreenenter"",""5"",""16521""
","
","
","""event"",""trial"",""time""
""fullscreenenter"",""5"",""16521""
","
","1051.2000000178814","","49","","","3000","1","","","images/tutgreenplanet.jpg","images/tutalien1","images/tutalien2","null","images/tutalien2","","NA","practice","null","","","",""
"d3-instructions","15","127831","0.0-15.0","179","819","20","Female","true","true","false","false","""event"",""trial"",""time""
""fullscreenenter"",""5"",""16521""
","
","
","""event"",""trial"",""time""
""fullscreenenter"",""5"",""16521""
","
","","","","","","","","","","","","","","","","","","","","","",""
"d3-instructions","16","134311","0.0-16.0","179","819","20","Female","true","true","false","false","""event"",""trial"",""time""
""fullscreenenter"",""5"",""16521""
","
","
","""event"",""trial"",""time""
""fullscreenenter"",""5"",""16521""
","
","","","","","","","","","","","","","","","","","","","","","",""
"d3-instructions","17","142776","0.0-17.0","179","819","20","Female","true","true","false","false","""event"",""trial"",""time""
""fullscreenenter"",""5"",""16521""
","
","
","""event"",""trial"",""time""
""fullscreenenter"",""5"",""16521""
","
","","","","","","","","","","","","","","","","","","","","","",""
"d3-instructions","18","162820","0.0-18.0","179","819","20","Female","true","true","false","false","""event"",""trial"",""time""
""fullscreenenter"",""5"",""16521""
","
","
","""event"",""trial"",""time""
""fullscreenenter"",""5"",""16521""
","
","","","","","","","","","","","","","","","","","","","","","",""
"d3-instructions","19","170177","0.0-19.0","179","819","20","Female","true","true","false","false","""event"",""trial"",""time""
""fullscreenenter"",""5"",""16521""
","
","
","""event"",""trial"",""time""
""fullscreenenter"",""5"",""16521""
","
","","","","","","","","","","","","","","","","","","","","","",""
"d3-animate-choice","20","173011","0.0-20.0","179","819","20","Female","true","true","false","false","""event"",""trial"",""time""
""fullscreenenter"",""5"",""16521""
","
","
","""event"",""trial"",""time""
""fullscreenenter"",""5"",""16521""
","
","825.5999999940395","","49","","","3000","1","","","images/tutyellowplanet.jpg","null","images/tutalien3","null","images/tutalien3","images/t.png","NA","practice","null","","","",""
"d3-animate-choice","21","175673","0.0-21.0","179","819","20","Female","true","true","false","false","""event"",""trial"",""time""
""fullscreenenter"",""5"",""16521""
","
","
","""event"",""trial"",""time""
""fullscreenenter"",""5"",""16521""
","
","652.8000000119209","","49","","","3000","1","","","images/tutyellowplanet.jpg","null","images/tutalien3","null","images/tutalien3","images/t.png","NA","practice","null","","","",""
"d3-animate-choice","22","178117","0.0-22.0","179","819","20","Female","true","true","false","false","""event"",""trial"",""time""
""fullscreenenter"",""5"",""16521""
","
","
","""event"",""trial"",""time""
""fullscreenenter"",""5"",""16521""
","
","436.89999997615814","","49","","","3000","1","","","images/tutyellowplanet.jpg","null","images/tutalien3","null","images/tutalien3","images/t.png","NA","practice","null","","","",""
"d3-animate-choice","23","180419","0.0-23.0","179","819","20","Female","true","true","false","false","""event"",""trial"",""time""
""fullscreenenter"",""5"",""16521""
","
","
","""event"",""trial"",""time""
""fullscreenenter"",""5"",""16521""
","
","293.2999999821186","","49","","","3000","1","","","images/tutyellowplanet.jpg","null","images/tutalien3","null","images/tutalien3","images/t.png","NA","practice","null","","","",""
"d3-animate-choice","24","182869","0.0-24.0","179","819","20","Female","true","true","false","false","""event"",""trial"",""time""
""fullscreenenter"",""5"",""16521""
","
","
","""event"",""trial"",""time""
""fullscreenenter"",""5"",""16521""
","
","443","","49","","","3000","1","","","images/tutyellowplanet.jpg","null","images/tutalien3","null","images/tutalien3","images/t.png","NA","practice","null","","","",""
"d3-animate-choice","25","185166","0.0-25.0","179","819","20","Female","true","true","false","false","""event"",""trial"",""time""
""fullscreenenter"",""5"",""16521""
","
","
","""event"",""trial"",""time""
""fullscreenenter"",""5"",""16521""
","
","288.5","","49","","","3000","1","","","images/tutyellowplanet.jpg","null","images/tutalien3","null","images/tutalien3","images/t.png","NA","practice","null","","","",""
"d3-animate-choice","26","187392","0.0-26.0","179","819","20","Female","true","true","false","false","""event"",""trial"",""time""
""fullscreenenter"",""5"",""16521""
","
","
","""event"",""trial"",""time""
""fullscreenenter"",""5"",""16521""
","
","220","","49","","","3000","1","","","images/tutyellowplanet.jpg","null","images/tutalien3","null","images/tutalien3","images/t.png","NA","practice","null","","","",""
"d3-animate-choice","27","190299","0.0-27.0","179","819","20","Female","true","true","false","false","""event"",""trial"",""time""
""fullscreenenter"",""5"",""16521""
","
","
","""event"",""trial"",""time""
""fullscreenenter"",""5"",""16521""
","
","896.5","","49","","","3000","1","","","images/tutyellowplanet.jpg","null","images/tutalien3","null","images/tutalien3","images/t.png","NA","practice","null","","","",""
"d3-animate-choice","28","192566","0.0-28.0","179","819","20","Female","true","true","false","false","""event"",""trial"",""time""
""fullscreenenter"",""5"",""16521""
","
","
","""event"",""trial"",""time""
""fullscreenenter"",""5"",""16521""
","
","262.7000000178814","","49","","","3000","1","","","images/tutyellowplanet.jpg","null","images/tutalien3","null","images/tutalien3","images/t.png","NA","practice","null","","","",""
"d3-animate-choice","29","195107","0.0-29.0","179","819","20","Female","true","true","false","false","""event"",""trial"",""time""
""fullscreenenter"",""5"",""16521""
","
","
","""event"",""trial"",""time""
""fullscreenenter"",""5"",""16521""
","
","537.5999999940395","","49","","","3000","1","","","images/tutyellowplanet.jpg","null","images/tutalien3","null","images/tutalien3","images/t.png","NA","practice","null","","","",""
"d3-instructions","30","197921","0.0-30.0","179","819","20","Female","true","true","false","false","""event"",""trial"",""time""
""fullscreenenter"",""5"",""16521""
","
","
","""event"",""trial"",""time""
""fullscreenenter"",""5"",""16521""
","
","","","","","","","","","","","","","","","","","","","","","",""
"d3-instructions","31","202085","0.0-31.0","179","819","20","Female","true","true","false","false","""event"",""trial"",""time""
""fullscreenenter"",""5"",""16521""
","
","
","""event"",""trial"",""time""
""fullscreenenter"",""5"",""16521""
","
","","","","","","","","","","","","","","","","","","","","","",""
"d3-instructions","32","205797","0.0-32.0","179","819","20","Female","true","true","false","false","""event"",""trial"",""time""
""fullscreenenter"",""5"",""16521""
","
","
","""event"",""trial"",""time""
""fullscreenenter"",""5"",""16521""
","
","","","","","","","","","","","","","","","","","","","","","",""
"d3-instructions","33","207845","0.0-33.0","179","819","20","Female","true","true","false","false","""event"",""trial"",""time""
""fullscreenenter"",""5"",""16521""
","
","
","""event"",""trial"",""time""
""fullscreenenter"",""5"",""16521""
","
","","","","","","","","","","","","","","","","","","","","","",""
"d3-animate-choice","34","210815","0.0-34.0","179","819","20","Female","true","true","false","false","""event"",""trial"",""time""
""fullscreenenter"",""5"",""16521""
","
","
","""event"",""trial"",""time""
""fullscreenenter"",""5"",""16521""
","
","962.5999999940395","","48","","","3000","1","","","images/tutgreenplanet.jpg","images/tutalien1","images/tutalien2","null","images/tutalien1","images/nothing.png","NA","practice","null","","","",""
"d3-animate-choice","35","213222","0.0-35.0","179","819","20","Female","true","true","false","false","""event"",""trial"",""time""
""fullscreenenter"",""5"",""16521""
","
","
","""event"",""trial"",""time""
""fullscreenenter"",""5"",""16521""
","
","400.69999998807907","","49","","","3000","1","","","images/tutgreenplanet.jpg","images/tutalien1","images/tutalien2","null","images/tutalien2","images/t.png","NA","practice","null","","","",""
"d3-animate-choice","36","215425","0.0-36.0","179","819","20","Female","true","true","false","false","""event"",""trial"",""time""
""fullscreenenter"",""5"",""16521""
","
","
","""event"",""trial"",""time""
""fullscreenenter"",""5"",""16521""
","
","198.5","","49","","","3000","1","","","images/tutgreenplanet.jpg","images/tutalien1","images/tutalien2","null","images/tutalien2","images/t.png","NA","practice","null","","","",""
"d3-animate-choice","37","217519","0.0-37.0","179","819","20","Female","true","true","false","false","""event"",""trial"",""time""
""fullscreenenter"",""5"",""16521""
","
","
","""event"",""trial"",""time""
""fullscreenenter"",""5"",""16521""
","
","88.7000000178814","","49","","","3000","1","2070.300000011921","49","images/tutgreenplanet.jpg","images/tutalien1","images/tutalien2","null","images/tutalien2","images/t.png","NA","practice","null","","","",""
"d3-animate-choice","38","220155","0.0-38.0","179","819","20","Female","true","true","false","false","""event"",""trial"",""time""
""fullscreenenter"",""5"",""16521""
","
","
","""event"",""trial"",""time""
""fullscreenenter"",""5"",""16521""
","
","626.7000000178814","","49","","","3000","1","","","images/tutgreenplanet.jpg","images/tutalien1","images/tutalien2","null","images/tutalien2","images/t.png","NA","practice","null","","","",""
"d3-animate-choice","39","222425","0.0-39.0","179","819","20","Female","true","true","false","false","""event"",""trial"",""time""
""fullscreenenter"",""5"",""16521""
","
","
","""event"",""trial"",""time""
""fullscreenenter"",""5"",""16521""
","
","262.5","","49","","","3000","1","","","images/tutgreenplanet.jpg","images/tutalien1","images/tutalien2","null","images/tutalien2","images/t.png","NA","practice","null","","","",""
"d3-animate-choice","40","224493","0.0-40.0","179","819","20","Female","true","true","false","false","""event"",""trial"",""time""
""fullscreenenter"",""5"",""16521""
","
","
","""event"",""trial"",""time""
""fullscreenenter"",""5"",""16521""
","
","63.099999994039536","","49","","","3000","1","","","images/tutgreenplanet.jpg","images/tutalien1","images/tutalien2","null","images/tutalien2","images/t.png","NA","practice","null","","","",""
"d3-animate-choice","41","226501","0.0-41.0","179","819","20","Female","true","true","false","false","""event"",""trial"",""time""
""fullscreenenter"",""5"",""16521""
","
","
","""event"",""trial"",""time""
""fullscreenenter"",""5"",""16521""
","
","0.5","","49","","","3000","1","","","images/tutgreenplanet.jpg","images/tutalien1","images/tutalien2","null","images/tutalien2","images/t.png","NA","practice","null","","","",""
"d3-animate-choice","42","228545","0.0-42.0","179","819","20","Female","true","true","false","false","""event"",""trial"",""time""
""fullscreenenter"",""5"",""16521""
","
","
","""event"",""trial"",""time""
""fullscreenenter"",""5"",""16521""
","
","37.60000002384186","","49","","","3000","1","","","images/tutgreenplanet.jpg","images/tutalien1","images/tutalien2","null","images/tutalien2","images/t.png","NA","practice","null","","","",""
"d3-animate-choice","43","230550","0.0-43.0","179","819","20","Female","true","true","false","false","""event"",""trial"",""time""
""fullscreenenter"",""5"",""16521""
","
","
","""event"",""trial"",""time""
""fullscreenenter"",""5"",""16521""
","
","0.699999988079071","","49","","","3000","1","","","images/tutgreenplanet.jpg","images/tutalien1","images/tutalien2","null","images/tutalien2","images/t.png","NA","practice","null","","","",""
"d3-instructions","44","233789","0.0-44.0","179","819","20","Female","true","true","false","false","""event"",""trial"",""time""
""fullscreenenter"",""5"",""16521""
","
","
","""event"",""trial"",""time""
""fullscreenenter"",""5"",""16521""
","
","","","","","","","","","","","","","","","","","","","","","",""
"d3-instructions","45","236080","0.0-45.0","179","819","20","Female","true","true","false","false","""event"",""trial"",""time""
""fullscreenenter"",""5"",""16521""
","
","
","""event"",""trial"",""time""
""fullscreenenter"",""5"",""16521""
","
","","","","","","","","","","","","","","","","","","","","","",""
"d3-instructions","46","237793","0.0-46.0","179","819","20","Female","true","true","false","false","""event"",""trial"",""time""
""fullscreenenter"",""5"",""16521""
","
","
","""event"",""trial"",""time""
""fullscreenenter"",""5"",""16521""
","
","","","","","","","","","","","","","","","","","","","","","",""
"d3-instructions","47","242626","0.0-47.0","179","819","20","Female","true","true","false","false","""event"",""trial"",""time""
""fullscreenenter"",""5"",""16521""
","
","
","""event"",""trial"",""time""
""fullscreenenter"",""5"",""16521""
","
","","","","","","","","","","","","","","","","","","","","","",""
"d3-instructions","48","251608","0.0-48.0","179","819","20","Female","true","true","false","false","""event"",""trial"",""time""
""fullscreenenter"",""5"",""16521""
","
","
","""event"",""trial"",""time""
""fullscreenenter"",""5"",""16521""
","
","","","","","","","","","","","","","","","","","","","","","",""
"d3-instructions","49","257234","0.0-49.0","179","819","20","Female","true","true","false","false","""event"",""trial"",""time""
""fullscreenenter"",""5"",""16521""
","
","
","""event"",""trial"",""time""
""fullscreenenter"",""5"",""16521""
","
","","","","","","","","","","","","","","","","","","","","","",""
"d3-instructions","50","259573","0.0-50.0","179","819","20","Female","true","true","false","false","""event"",""trial"",""time""
""fullscreenenter"",""5"",""16521""
","
","
","""event"",""trial"",""time""
""fullscreenenter"",""5"",""16521""
","
","","","","","","","","","","","","","","","","","","","","","",""
"d3-instructions","51","261148","0.0-51.0","179","819","20","Female","true","true","false","false","""event"",""trial"",""time""
""fullscreenenter"",""5"",""16521""
","
","
","""event"",""trial"",""time""
""fullscreenenter"",""5"",""16521""
","
","","","","","","","","","","","","","","","","","","","","","",""
"d3-instructions","52","262181","0.0-52.0","179","819","20","Female","true","true","false","false","""event"",""trial"",""time""
""fullscreenenter"",""5"",""16521""
","
","
","""event"",""trial"",""time""
""fullscreenenter"",""5"",""16521""
","
","","","","","","","","","","","","","","","","","","","","","",""
"d3-instructions","53","267406","0.0-53.0","179","819","20","Female","true","true","false","false","""event"",""trial"",""time""
""fullscreenenter"",""5"",""16521""
","
","
","""event"",""trial"",""time""
""fullscreenenter"",""5"",""16521""
","
","","","","","","","","","","","","","","","","","","","","","",""
"d3-instructions","54","275774","0.0-54.0","179","819","20","Female","true","true","false","false","""event"",""trial"",""time""
""fullscreenenter"",""5"",""16521""
","
","
","""event"",""trial"",""time""
""fullscreenenter"",""5"",""16521""
","
","","","","","","","","","","","","","","","","","","","","","",""
"d3-instructions","55","278515","0.0-55.0","179","819","20","Female","true","true","false","false","""event"",""trial"",""time""
""fullscreenenter"",""5"",""16521""
","
","
","""event"",""trial"",""time""
""fullscreenenter"",""5"",""16521""
","
","","","","","","","","","","","","","","","","","","","","","",""
"d3-instructions","56","283244","0.0-56.0","179","819","20","Female","true","true","false","false","""event"",""trial"",""time""
""fullscreenenter"",""5"",""16521""
","
","
","""event"",""trial"",""time""
""fullscreenenter"",""5"",""16521""
","
","","","","","","","","","","","","","","","","","","","","","",""
"d3-instructions","57","288351","0.0-57.0","179","819","20","Female","true","true","false","false","""event"",""trial"",""time""
""fullscreenenter"",""5"",""16521""
","
","
","""event"",""trial"",""time""
""fullscreenenter"",""5"",""16521""
","
","","","","","","","","","","","","","","","","","","","","","",""
"d3-instructions","58","294702","0.0-58.0","179","819","20","Female","true","true","false","false","""event"",""trial"",""time""
""fullscreenenter"",""5"",""16521""
","
","
","""event"",""trial"",""time""
""fullscreenenter"",""5"",""16521""
","
","","","","","","","","","","","","","","","","","","","","","",""
"d3-instructions","59","296452","0.0-59.0","179","819","20","Female","true","true","false","false","""event"",""trial"",""time""
""fullscreenenter"",""5"",""16521""
","
","
","""event"",""trial"",""time""
""fullscreenenter"",""5"",""16521""
","
","","","","","","","","","","","","","","","","","","","","","",""
"d3-instructions","60","298478","0.0-60.0","179","819","20","Female","true","true","false","false","""event"",""trial"",""time""
""fullscreenenter"",""5"",""16521""
","
","
","""event"",""trial"",""time""
""fullscreenenter"",""5"",""16521""
","
","","","","","","","","","","","","","","","","","","","","","",""
"d3-animate-choice","61","301401","0.0-61.0-0.0","179","819","20","Female","true","true","false","false","""event"",""trial"",""time""
""fullscreenenter"",""5"",""16521""
","
","
","""event"",""trial"",""time""
""fullscreenenter"",""5"",""16521""
","
","915","","48","","","3000","1","","","images/earth.jpg","images/tutrocket1","images/tutrocket2","null","images/tutrocket1","","1","practice","null","2","","",""
"d3-animate-choice","62","304350","0.0-61.0-1.0","179","819","20","Female","true","true","false","false","""event"",""trial"",""time""
""fullscreenenter"",""5"",""16521""
","
","
","""event"",""trial"",""time""
""fullscreenenter"",""5"",""16521""
","
","939.4000000059605","","49","","","3000","1","","","images/tutyellowplanet.jpg","images/tutalien4","images/tutalien3","images/tutrocket1","images/tutalien3","images/nothing.png","2","practice","false","1","rare","0","2022-02-17 05:59:57.185"
"two-step-fixation","63","305361","0.0-61.0-2.0","179","819","20","Female","true","true","false","false","""event"",""trial"",""time""
""fullscreenenter"",""5"",""16521""
","
","
","""event"",""trial"",""time""
""fullscreenenter"",""5"",""16521""
","
","","images/earth.jpg","","","","","","","","","","","","","","fixation","","","","","",""
"d3-animate-choice","64","307798","0.0-61.0-0.1","179","819","20","Female","true","true","false","false","""event"",""trial"",""time""
""fullscreenenter"",""5"",""16521""
","
","
","""event"",""trial"",""time""
""fullscreenenter"",""5"",""16521""
","
","427.90000000596046","","49","","","3000","1","","","images/earth.jpg","images/tutrocket1","images/tutrocket2","null","images/tutrocket2","","1","practice","null","1","","",""
"d3-animate-choice","65","310223","0.0-61.0-1.1","179","819","20","Female","true","true","false","false","""event"",""trial"",""time""
""fullscreenenter"",""5"",""16521""
","
","
","""event"",""trial"",""time""
""fullscreenenter"",""5"",""16521""
","
","417.19999998807907","","49","","","3000","1","","","images/tutgreenplanet.jpg","images/tutalien2","images/tutalien1","images/tutrocket2","images/tutalien1","images/nothing.png","2","practice","false","1","rare","0","2022-02-17 06:00:03.058"
"two-step-fixation","66","311228","0.0-61.0-2.1","179","819","20","Female","true","true","false","false","""event"",""trial"",""time""
""fullscreenenter"",""5"",""16521""
","
","
","""event"",""trial"",""time""
""fullscreenenter"",""5"",""16521""
","
","","images/earth.jpg","","","","","","","","","","","","","","fixation","","","","","",""
"d3-animate-choice","67","313582","0.0-61.0-0.2","179","819","20","Female","true","true","false","false","""event"",""trial"",""time""
""fullscreenenter"",""5"",""16521""
","
","
","""event"",""trial"",""time""
""fullscreenenter"",""5"",""16521""
","
","348.09999999403954","","49","","","3000","1","","","images/earth.jpg","images/tutrocket1","images/tutrocket2","null","images/tutrocket2","","1","practice","null","1","","",""
"d3-animate-choice","68","316116","0.0-61.0-1.2","179","819","20","Female","true","true","false","false","""event"",""trial"",""time""
""fullscreenenter"",""5"",""16521""
","
","
","""event"",""trial"",""time""
""fullscreenenter"",""5"",""16521""
","
","527.5","","49","","","3000","1","","","images/tutgreenplanet.jpg","images/tutalien2","images/tutalien1","images/tutrocket2","images/tutalien1","images/nothing.png","2","practice","false","1","rare","0","2022-02-17 06:00:08.951"
"two-step-fixation","69","317122","0.0-61.0-2.2","179","819","20","Female","true","true","false","false","""event"",""trial"",""time""
""fullscreenenter"",""5"",""16521""
","
","
","""event"",""trial"",""time""
""fullscreenenter"",""5"",""16521""
","
","","images/earth.jpg","","","","","","","","","","","","","","fixation","","","","","",""
"d3-animate-choice","70","319471","0.0-61.0-0.3","179","819","20","Female","true","true","false","false","""event"",""trial"",""time""
""fullscreenenter"",""5"",""16521""
","
","
","""event"",""trial"",""time""
""fullscreenenter"",""5"",""16521""
","
","339.89999997615814","","49","","","3000","1","","","images/earth.jpg","images/tutrocket1","images/tutrocket2","null","images/tutrocket2","","1","practice","null","1","","",""
"d3-animate-choice","71","322394","0.0-61.0-1.3","179","819","20","Female","true","true","false","false","""event"",""trial"",""time""
""fullscreenenter"",""5"",""16521""
","
","
","""event"",""trial"",""time""
""fullscreenenter"",""5"",""16521""
","
","917.5999999940395","","48","","","3000","1","","","images/tutyellowplanet.jpg","images/tutalien4","images/tutalien3","images/tutrocket2","images/tutalien4","images/t.png","2","practice","true","2","common","1","2022-02-17 06:00:15.229"
"two-step-fixation","72","323400","0.0-61.0-2.3","179","819","20","Female","true","true","false","false","""event"",""trial"",""time""
""fullscreenenter"",""5"",""16521""
","
","
","""event"",""trial"",""time""
""fullscreenenter"",""5"",""16521""
","
","","images/earth.jpg","","","","","","","","","","","","","","fixation","","","","","",""
"d3-animate-choice","73","325726","0.0-61.0-0.4","179","819","20","Female","true","true","false","false","""event"",""trial"",""time""
""fullscreenenter"",""5"",""16521""
","
","
","""event"",""trial"",""time""
""fullscreenenter"",""5"",""16521""
","
","320.69999998807907","","49","","","3000","1","","","images/earth.jpg","images/tutrocket1","images/tutrocket2","null","images/tutrocket2","","1","practice","null","1","","",""
"d3-animate-choice","74","328271","0.0-61.0-1.4","179","819","20","Female","true","true","false","false","""event"",""trial"",""time""
""fullscreenenter"",""5"",""16521""
","
","
","""event"",""trial"",""time""
""fullscreenenter"",""5"",""16521""
","
","535.7999999821186","","48","","","3000","1","","","images/tutyellowplanet.jpg","images/tutalien4","images/tutalien3","images/tutrocket2","images/tutalien4","images/t.png","2","practice","true","2","common","1","2022-02-17 06:00:21.106"
"two-step-fixation","75","329275","0.0-61.0-2.4","179","819","20","Female","true","true","false","false","""event"",""trial"",""time""
""fullscreenenter"",""5"",""16521""
","
","
","""event"",""trial"",""time""
""fullscreenenter"",""5"",""16521""
","
","","images/earth.jpg","","","","","","","","","","","","","","fixation","","","","","",""
"d3-animate-choice","76","331618","0.0-61.0-0.5","179","819","20","Female","true","true","false","false","""event"",""trial"",""time""
""fullscreenenter"",""5"",""16521""
","
","
","""event"",""trial"",""time""
""fullscreenenter"",""5"",""16521""
","
","337.2000000178814","","48","","","3000","1","","","images/earth.jpg","images/tutrocket1","images/tutrocket2","null","images/tutrocket1","","1","practice","null","2","","",""
"d3-animate-choice","77","333983","0.0-61.0-1.5","179","819","20","Female","true","true","false","false","""event"",""trial"",""time""
""fullscreenenter"",""5"",""16521""
","
","
","""event"",""trial"",""time""
""fullscreenenter"",""5"",""16521""
","
","358.40000000596046","","48","","","3000","1","","","images/tutyellowplanet.jpg","images/tutalien4","images/tutalien3","images/tutrocket1","images/tutalien4","images/t.png","2","practice","false","2","rare","1","2022-02-17 06:00:26.818"
"two-step-fixation","78","334990","0.0-61.0-2.5","179","819","20","Female","true","true","false","false","""event"",""trial"",""time""
""fullscreenenter"",""5"",""16521""
","
","
","""event"",""trial"",""time""
""fullscreenenter"",""5"",""16521""
","
","","images/earth.jpg","","","","","","","","","","","","","","fixation","","","","","",""
"d3-animate-choice","79","337158","0.0-61.0-0.6","179","819","20","Female","true","true","false","false","""event"",""trial"",""time""
""fullscreenenter"",""5"",""16521""
","
","
","""event"",""trial"",""time""
""fullscreenenter"",""5"",""16521""
","
","160.40000000596046","","48","","","3000","1","","","images/earth.jpg","images/tutrocket1","images/tutrocket2","null","images/tutrocket1","","1","practice","null","2","","",""
"d3-animate-choice","80","339494","0.0-61.0-1.6","179","819","20","Female","true","true","false","false","""event"",""trial"",""time""
""fullscreenenter"",""5"",""16521""
","
","
","""event"",""trial"",""time""
""fullscreenenter"",""5"",""16521""
","
","330.59999999403954","","48","","","3000","1","","","images/tutgreenplanet.jpg","images/tutalien2","images/tutalien1","images/tutrocket1","images/tutalien2","images/nothing.png","2","practice","true","2","common","0","2022-02-17 06:00:32.329"
"two-step-fixation","81","340499","0.0-61.0-2.6","179","819","20","Female","true","true","false","false","""event"",""trial"",""time""
""fullscreenenter"",""5"",""16521""
","
","
","""event"",""trial"",""time""
""fullscreenenter"",""5"",""16521""
","
","","images/earth.jpg","","","","","","","","","","","","","","fixation","","","","","",""
"d3-animate-choice","82","342827","0.0-61.0-0.7","179","819","20","Female","true","true","false","false","""event"",""trial"",""time""
""fullscreenenter"",""5"",""16521""
","
","
","""event"",""trial"",""time""
""fullscreenenter"",""5"",""16521""
","
","320.5","","48","","","3000","1","","","images/earth.jpg","images/tutrocket1","images/tutrocket2","null","images/tutrocket1","","1","practice","null","2","","",""
"d3-animate-choice","83","345185","0.0-61.0-1.7","179","819","20","Female","true","true","false","false","""event"",""trial"",""time""
""fullscreenenter"",""5"",""16521""
","
","
","""event"",""trial"",""time""
""fullscreenenter"",""5"",""16521""
","
","351.5","","48","","","3000","1","","","images/tutyellowplanet.jpg","images/tutalien4","images/tutalien3","images/tutrocket1","images/tutalien4","images/t.png","2","practice","false","2","rare","1","2022-02-17 06:00:38.020"
"two-step-fixation","84","346190","0.0-61.0-2.7","179","819","20","Female","true","true","false","false","""event"",""trial"",""time""
""fullscreenenter"",""5"",""16521""
","
","
","""event"",""trial"",""time""
""fullscreenenter"",""5"",""16521""
","
","","images/earth.jpg","","","","","","","","","","","","","","fixation","","","","","",""
"d3-animate-choice","85","348246","0.0-61.0-0.8","179","819","20","Female","true","true","false","false","""event"",""trial"",""time""
""fullscreenenter"",""5"",""16521""
","
","
","""event"",""trial"",""time""
""fullscreenenter"",""5"",""16521""
","
","51","","48","","","3000","1","","","images/earth.jpg","images/tutrocket1","images/tutrocket2","null","images/tutrocket1","","1","practice","null","2","","",""
"d3-animate-choice","86","351196","0.0-61.0-1.8","179","819","20","Female","true","true","false","false","""event"",""trial"",""time""
""fullscreenenter"",""5"",""16521""
","
","
","""event"",""trial"",""time""
""fullscreenenter"",""5"",""16521""
","
","944.2999999821186","","49","","","3000","1","","","images/tutgreenplanet.jpg","images/tutalien2","images/tutalien1","images/tutrocket1","images/tutalien1","images/nothing.png","2","practice","true","1","common","0","2022-02-17 06:00:44.031"
"two-step-fixation","87","352204","0.0-61.0-2.8","179","819","20","Female","true","true","false","false","""event"",""trial"",""time""
""fullscreenenter"",""5"",""16521""
","
","
","""event"",""trial"",""time""
""fullscreenenter"",""5"",""16521""
","
","","images/earth.jpg","","","","","","","","","","","","","","fixation","","","","","",""
"d3-animate-choice","88","354568","0.0-61.0-0.9","179","819","20","Female","true","true","false","false","""event"",""trial"",""time""
""fullscreenenter"",""5"",""16521""
","
","
","""event"",""trial"",""time""
""fullscreenenter"",""5"",""16521""
","
","359.89999997615814","","48","","","3000","1","","","images/earth.jpg","images/tutrocket1","images/tutrocket2","null","images/tutrocket1","","1","practice","null","2","","",""
"d3-animate-choice","89","356913","0.0-61.0-1.9","179","819","20","Female","true","true","false","false","""event"",""trial"",""time""
""fullscreenenter"",""5"",""16521""
","
","
","""event"",""trial"",""time""
""fullscreenenter"",""5"",""16521""
","
","335.7999999821186","","48","","","3000","1","","","images/tutgreenplanet.jpg","images/tutalien2","images/tutalien1","images/tutrocket1","images/tutalien2","images/t.png","2","practice","true","2","common","1","2022-02-17 06:00:49.748"
"two-step-fixation","90","357921","0.0-61.0-2.9","179","819","20","Female","true","true","false","false","""event"",""trial"",""time""
""fullscreenenter"",""5"",""16521""
","
","
","""event"",""trial"",""time""
""fullscreenenter"",""5"",""16521""
","
","","images/earth.jpg","","","","","","","","","","","","","","fixation","","","","","",""
"d3-animate-choice","91","360353","0.0-61.0-0.10","179","819","20","Female","true","true","false","false","""event"",""trial"",""time""
""fullscreenenter"",""5"",""16521""
","
","
","""event"",""trial"",""time""
""fullscreenenter"",""5"",""16521""
","
","426.69999998807907","","48","","","3000","1","","","images/earth.jpg","images/tutrocket1","images/tutrocket2","null","images/tutrocket1","","1","practice","null","2","","",""
"d3-animate-choice","92","363143","0.0-61.0-1.10","179","819","20","Female","true","true","false","false","""event"",""trial"",""time""
""fullscreenenter"",""5"",""16521""
","
","
","""event"",""trial"",""time""
""fullscreenenter"",""5"",""16521""
","
","783.3999999761581","","48","","","3000","1","","","images/tutgreenplanet.jpg","images/tutalien2","images/tutalien1","images/tutrocket1","images/tutalien2","images/nothing.png","2","practice","true","2","common","0","2022-02-17 06:00:55.978"
"two-step-fixation","93","364150","0.0-61.0-2.10","179","819","20","Female","true","true","false","false","""event"",""trial"",""time""
""fullscreenenter"",""5"",""16521""
","
","
","""event"",""trial"",""time""
""fullscreenenter"",""5"",""16521""
","
","","images/earth.jpg","","","","","","","","","","","","","","fixation","","","","","",""
"d3-animate-choice","94","366338","0.0-61.0-0.11","179","819","20","Female","true","true","false","false","""event"",""trial"",""time""
""fullscreenenter"",""5"",""16521""
","
","
","""event"",""trial"",""time""
""fullscreenenter"",""5"",""16521""
","
","181.5","","48","","","3000","1","","","images/earth.jpg","images/tutrocket1","images/tutrocket2","null","images/tutrocket1","","1","practice","null","2","","",""
"d3-animate-choice","95","368790","0.0-61.0-1.11","179","819","20","Female","true","true","false","false","""event"",""trial"",""time""
""fullscreenenter"",""5"",""16521""
","
","
","""event"",""trial"",""time""
""fullscreenenter"",""5"",""16521""
","
","446.09999999403954","","48","","","3000","1","","","images/tutyellowplanet.jpg","images/tutalien4","images/tutalien3","images/tutrocket1","images/tutalien4","images/t.png","2","practice","false","2","rare","1","2022-02-17 06:01:01.625"
"two-step-fixation","96","369794","0.0-61.0-2.11","179","819","20","Female","true","true","false","false","""event"",""trial"",""time""
""fullscreenenter"",""5"",""16521""
","
","
","""event"",""trial"",""time""
""fullscreenenter"",""5"",""16521""
","
","","images/earth.jpg","","","","","","","","","","","","","","fixation","","","","","",""
"d3-animate-choice","97","372188","0.0-61.0-0.12","179","819","20","Female","true","true","false","false","""event"",""trial"",""time""
""fullscreenenter"",""5"",""16521""
","
","
","""event"",""trial"",""time""
""fullscreenenter"",""5"",""16521""
","
","388.40000000596046","","48","","","3000","1","","","images/earth.jpg","images/tutrocket1","images/tutrocket2","null","images/tutrocket1","","1","practice","null","2","","",""
"d3-animate-choice","98","374663","0.0-61.0-1.12","179","819","20","Female","true","true","false","false","""event"",""trial"",""time""
""fullscreenenter"",""5"",""16521""
","
","
","""event"",""trial"",""time""
""fullscreenenter"",""5"",""16521""
","
","469.09999999403954","","48","","","3000","1","","","images/tutgreenplanet.jpg","images/tutalien2","images/tutalien1","images/tutrocket1","images/tutalien2","images/nothing.png","2","practice","true","2","common","0","2022-02-17 06:01:07.498"
"two-step-fixation","99","375669","0.0-61.0-2.12","179","819","20","Female","true","true","false","false","""event"",""trial"",""time""
""fullscreenenter"",""5"",""16521""
","
","
","""event"",""trial"",""time""
""fullscreenenter"",""5"",""16521""
","
","","images/earth.jpg","","","","","","","","","","","","","","fixation","","","","","",""
"d3-animate-choice","100","378130","0.0-61.0-0.13","179","819","20","Female","true","true","false","false","""event"",""trial"",""time""
""fullscreenenter"",""5"",""16521""
","
","
","""event"",""trial"",""time""
""fullscreenenter"",""5"",""16521""
","
","451.90000000596046","","48","","","3000","1","721.9000000059605,901.2000000178814,1081.9000000059605","48,48,48","images/earth.jpg","images/tutrocket1","images/tutrocket2","null","images/tutrocket1","","1","practice","null","2","","",""
"d3-animate-choice","101","380471","0.0-61.0-1.13","179","819","20","Female","true","true","false","false","""event"",""trial"",""time""
""fullscreenenter"",""5"",""16521""
","
","
","""event"",""trial"",""time""
""fullscreenenter"",""5"",""16521""
","
","331.90000000596046","","48","","","3000","1","","","images/tutgreenplanet.jpg","images/tutalien2","images/tutalien1","images/tutrocket1","images/tutalien2","images/nothing.png","2","practice","true","2","common","0","2022-02-17 06:01:13.306"
"two-step-fixation","102","381476","0.0-61.0-2.13","179","819","20","Female","true","true","false","false","""event"",""trial"",""time""
""fullscreenenter"",""5"",""16521""
","
","
","""event"",""trial"",""time""
""fullscreenenter"",""5"",""16521""
","
","","images/earth.jpg","","","","","","","","","","","","","","fixation","","","","","",""
"d3-animate-choice","103","383847","0.0-61.0-0.14","179","819","20","Female","true","true","false","false","""event"",""trial"",""time""
""fullscreenenter"",""5"",""16521""
","
","
","""event"",""trial"",""time""
""fullscreenenter"",""5"",""16521""
","
","362.59999999403954","","48","","","3000","1","","","images/earth.jpg","images/tutrocket1","images/tutrocket2","null","images/tutrocket1","","1","practice","null","2","","",""
"d3-animate-choice","104","386951","0.0-61.0-1.14","179","819","20","Female","true","true","false","false","""event"",""trial"",""time""
""fullscreenenter"",""5"",""16521""
","
","
","""event"",""trial"",""time""
""fullscreenenter"",""5"",""16521""
","
","1095.5999999940395","","49","","","3000","1","1882.2999999821186","49","images/tutgreenplanet.jpg","images/tutalien2","images/tutalien1","images/tutrocket1","images/tutalien1","images/t.png","2","practice","true","1","common","1","2022-02-17 06:01:19.786"
"two-step-fixation","105","387959","0.0-61.0-2.14","179","819","20","Female","true","true","false","false","""event"",""trial"",""time""
""fullscreenenter"",""5"",""16521""
","
","
","""event"",""trial"",""time""
""fullscreenenter"",""5"",""16521""
","
","","images/earth.jpg","","","","","","","","","","","","","","fixation","","","","","",""
"d3-animate-choice","106","390346","0.0-61.0-0.15","179","819","20","Female","true","true","false","false","""event"",""trial"",""time""
""fullscreenenter"",""5"",""16521""
","
","
","""event"",""trial"",""time""
""fullscreenenter"",""5"",""16521""
","
","380.59999999403954","","48","","","3000","1","","","images/earth.jpg","images/tutrocket1","images/tutrocket2","null","images/tutrocket1","","1","practice","null","2","","",""
"d3-animate-choice","107","393383","0.0-61.0-1.15","179","819","20","Female","true","true","false","false","""event"",""trial"",""time""
""fullscreenenter"",""5"",""16521""
","
","
","""event"",""trial"",""time""
""fullscreenenter"",""5"",""16521""
","
","1031.800000011921","","49","","","3000","1","","","images/tutgreenplanet.jpg","images/tutalien2","images/tutalien1","images/tutrocket1","images/tutalien1","images/nothing.png","2","practice","true","1","common","0","2022-02-17 06:01:26.218"
"two-step-fixation","108","394388","0.0-61.0-2.15","179","819","20","Female","true","true","false","false","""event"",""trial"",""time""
""fullscreenenter"",""5"",""16521""
","
","
","""event"",""trial"",""time""
""fullscreenenter"",""5"",""16521""
","
","","images/earth.jpg","","","","","","","","","","","","","","fixation","","","","","",""
"d3-animate-choice","109","397101","0.0-61.0-0.16","179","819","20","Female","true","true","false","false","""event"",""trial"",""time""
""fullscreenenter"",""5"",""16521""
","
","
","""event"",""trial"",""time""
""fullscreenenter"",""5"",""16521""
","
","704.0999999940395","","49","","","3000","1","","","images/earth.jpg","images/tutrocket1","images/tutrocket2","null","images/tutrocket2","","1","practice","null","1","","",""
"d3-animate-choice","110","399527","0.0-61.0-1.16","179","819","20","Female","true","true","false","false","""event"",""trial"",""time""
""fullscreenenter"",""5"",""16521""
","
","
","""event"",""trial"",""time""
""fullscreenenter"",""5"",""16521""
","
","420.5","","48","","","3000","1","","","images/tutyellowplanet.jpg","images/tutalien4","images/tutalien3","images/tutrocket2","images/tutalien4","images/t.png","2","practice","true","2","common","1","2022-02-17 06:01:32.362"
"two-step-fixation","111","400533","0.0-61.0-2.16","179","819","20","Female","true","true","false","false","""event"",""trial"",""time""
""fullscreenenter"",""5"",""16521""
","
","
","""event"",""trial"",""time""
""fullscreenenter"",""5"",""16521""
","
","","images/earth.jpg","","","","","","","","","","","","","","fixation","","","","","",""
"d3-animate-choice","112","402543","0.0-61.0-0.17","179","819","20","Female","true","true","false","false","""event"",""trial"",""time""
""fullscreenenter"",""5"",""16521""
","
","
","""event"",""trial"",""time""
""fullscreenenter"",""5"",""16521""
","
","1.5","","48","","","3000","1","","","images/earth.jpg","images/tutrocket1","images/tutrocket2","null","images/tutrocket1","","1","practice","null","2","","",""
"d3-animate-choice","113","404908","0.0-61.0-1.17","179","819","20","Female","true","true","false","false","""event"",""trial"",""time""
""fullscreenenter"",""5"",""16521""
","
","
","""event"",""trial"",""time""
""fullscreenenter"",""5"",""16521""
","
","356.19999998807907","","48","","","3000","1","","","images/tutyellowplanet.jpg","images/tutalien4","images/tutalien3","images/tutrocket1","images/tutalien4","images/t.png","2","practice","false","2","rare","1","2022-02-17 06:01:37.743"
"two-step-fixation","114","405913","0.0-61.0-2.17","179","819","20","Female","true","true","false","false","""event"",""trial"",""time""
""fullscreenenter"",""5"",""16521""
","
","
","""event"",""trial"",""time""
""fullscreenenter"",""5"",""16521""
","
","","images/earth.jpg","","","","","","","","","","","","","","fixation","","","","","",""
"d3-animate-choice","115","408279","0.0-61.0-0.18","179","819","20","Female","true","true","false","false","""event"",""trial"",""time""
""fullscreenenter"",""5"",""16521""
","
","
","""event"",""trial"",""time""
""fullscreenenter"",""5"",""16521""
","
","361.7000000178814","","48","","","3000","1","","","images/earth.jpg","images/tutrocket1","images/tutrocket2","null","images/tutrocket1","","1","practice","null","2","","",""
"d3-animate-choice","116","411496","0.0-61.0-1.18","179","819","20","Female","true","true","false","false","""event"",""trial"",""time""
""fullscreenenter"",""5"",""16521""
","
","
","""event"",""trial"",""time""
""fullscreenenter"",""5"",""16521""
","
","1212.1000000238419","","49","","","3000","1","","","images/tutgreenplanet.jpg","images/tutalien2","images/tutalien1","images/tutrocket1","images/tutalien1","images/nothing.png","2","practice","true","1","common","0","2022-02-17 06:01:44.331"
"two-step-fixation","117","412503","0.0-61.0-2.18","179","819","20","Female","true","true","false","false","""event"",""trial"",""time""
""fullscreenenter"",""5"",""16521""
","
","
","""event"",""trial"",""time""
""fullscreenenter"",""5"",""16521""
","
","","images/earth.jpg","","","","","","","","","","","","","","fixation","","","","","",""
"d3-animate-choice","118","415453","0.0-61.0-0.19","179","819","20","Female","true","true","false","false","""event"",""trial"",""time""
""fullscreenenter"",""5"",""16521""
","
","
","""event"",""trial"",""time""
""fullscreenenter"",""5"",""16521""
","
","942.0999999940395","","48","","","3000","1","","","images/earth.jpg","images/tutrocket1","images/tutrocket2","null","images/tutrocket1","","1","practice","null","2","","",""
"d3-animate-choice","119","418445","0.0-61.0-1.19","179","819","20","Female","true","true","false","false","""event"",""trial"",""time""
""fullscreenenter"",""5"",""16521""
","
","
","""event"",""trial"",""time""
""fullscreenenter"",""5"",""16521""
","
","988.3000000119209","","49","","","3000","1","","","images/tutgreenplanet.jpg","images/tutalien2","images/tutalien1","images/tutrocket1","images/tutalien1","images/t.png","2","practice","true","1","common","1","2022-02-17 06:01:51.281"
"two-step-fixation","120","419451","0.0-61.0-2.19","179","819","20","Female","true","true","false","false","""event"",""trial"",""time""
""fullscreenenter"",""5"",""16521""
","
","
","""event"",""trial"",""time""
""fullscreenenter"",""5"",""16521""
","
","","images/earth.jpg","","","","","","","","","","","","","","fixation","","","","","",""
"d3-instructions","121","422995","0.0-62.0","179","819","20","Female","true","true","false","false","""event"",""trial"",""time""
""fullscreenenter"",""5"",""16521""
","
","
","""event"",""trial"",""time""
""fullscreenenter"",""5"",""16521""
","
","","","","","","","","","","","","","","","","","","","","","",""
"audio-keyboard-response","122","426750","0.0-63.0","179","819","20","Female","true","true","false","false","""event"",""trial"",""time""
""fullscreenenter"",""5"",""16521""
","
","
","""event"",""trial"",""time""
""fullscreenenter"",""5"",""16521""
","
","3749","audio/instructions/treasure_feedback.wav","32","","","","","","","","","","","","","","","","","","",""
"d3-instructions","123","432940","0.0-64.0","179","819","20","Female","true","true","false","false","""event"",""trial"",""time""
""fullscreenenter"",""5"",""16521""
","
","
","""event"",""trial"",""time""
""fullscreenenter"",""5"",""16521""
","
","","","","","","","","","","","","","","","","","","","","","",""
"d3-instructions","124","437757","0.0-65.0","179","819","20","Female","true","true","false","false","""event"",""trial"",""time""
""fullscreenenter"",""5"",""16521""
","
","
","""event"",""trial"",""time""
""fullscreenenter"",""5"",""16521""
","
","","","","","","","","","","","","","","","","","","","","","",""
"d3-instructions","125","458707","0.0-66.0","179","819","20","Female","true","true","false","false","""event"",""trial"",""time""
""fullscreenenter"",""5"",""16521""
","
","
","""event"",""trial"",""time""
""fullscreenenter"",""5"",""16521""
","
","","","","","","","","","","","","","","","","","","","","","",""
"d3-instructions","126","465004","0.0-67.0","179","819","20","Female","true","true","false","false","""event"",""trial"",""time""
""fullscreenenter"",""5"",""16521""
","
","
","""event"",""trial"",""time""
""fullscreenenter"",""5"",""16521""
","
","","","","","","","","","","","","","","","","","","","","","",""
"d3-instructions","127","467142","0.0-68.0","179","819","20","Female","true","true","false","false","""event"",""trial"",""time""
""fullscreenenter"",""5"",""16521""
","
","
","""event"",""trial"",""time""
""fullscreenenter"",""5"",""16521""
","
","","","","","","","","","","","","","","","","","","","","","",""
"instructions-quiz","128","469359","0.0-69.0","179","819","20","Female","true","true","false","false","""event"",""trial"",""time""
""fullscreenenter"",""5"",""16521""
","
","
","""event"",""trial"",""time""
""fullscreenenter"",""5"",""16521""
","
","2213.199999988079","audio/quiz/Q1_Prompt.wav","","1","","","","","","","","","","","","","","","","","",""
"audio-keyboard-response","129","470381","0.0-70.0","179","819","20","Female","true","true","false","false","""event"",""trial"",""time""
""fullscreenenter"",""5"",""16521""
","
","
","""event"",""trial"",""time""
""fullscreenenter"",""5"",""16521""
","
","1013","audio/quiz/Q1_Correct.wav","32","","","","","","","","","","","","","","","","","","",""
"instructions-quiz","130","472740","0.0-71.0","179","819","20","Female","true","true","false","false","""event"",""trial"",""time""
""fullscreenenter"",""5"",""16521""
","
","
","""event"",""trial"",""time""
""fullscreenenter"",""5"",""16521""
","
","2355.4000000059605","audio/quiz/Q2_Prompt.wav","","0","","","","","","","","","","","","","","","","","",""
"audio-keyboard-response","131","473104","0.0-72.0","179","819","20","Female","true","true","false","false","""event"",""trial"",""time""
""fullscreenenter"",""5"",""16521""
","
","
","""event"",""trial"",""time""
""fullscreenenter"",""5"",""16521""
","
","363","audio/quiz/Q2_Correct.wav","32","","","","","","","","","","","","","","","","","","",""
"instructions-quiz","132","474786","0.0-73.0","179","819","20","Female","true","true","false","false","""event"",""trial"",""time""
""fullscreenenter"",""5"",""16521""
","
","
","""event"",""trial"",""time""
""fullscreenenter"",""5"",""16521""
","
","1679.699999988079","audio/quiz/Q3_Prompt.wav","","1","","","","","","","","","","","","","","","","","",""
"audio-keyboard-response","133","475286","0.0-74.0","179","819","20","Female","true","true","false","false","""event"",""trial"",""time""
""fullscreenenter"",""5"",""16521""
","
","
","""event"",""trial"",""time""
""fullscreenenter"",""5"",""16521""
","
","496","audio/quiz/Q3_Correct.wav","32","","","","","","","","","","","","","","","","","","",""
"d3-instructions","134","477827","0.0-75.0","179","819","20","Female","true","true","false","false","""event"",""trial"",""time""
""fullscreenenter"",""5"",""16521""
","
","
","""event"",""trial"",""time""
""fullscreenenter"",""5"",""16521""
","
","","","","","","","","","","","","","","","","","","","","","",""
"d3-animate-choice","135","480933","0.0-76.0-0.0","179","819","20","Female","true","true","false","false","""event"",""trial"",""time""
""fullscreenenter"",""5"",""16521""
","
","
","""event"",""trial"",""time""
""fullscreenenter"",""5"",""16521""
","
","108.40000000596046","","32","","","3000","1","1096","49","images/earth.jpg","images/rocket2","images/rocket1","null","images/rocket1","","1","real","null","","","",""
"d3-animate-choice","136","483366","0.0-76.0-1.0","179","819","20","Female","true","true","false","false","""event"",""trial"",""time""
""fullscreenenter"",""5"",""16521""
","
","
","""event"",""trial"",""time""
""fullscreenenter"",""5"",""16521""
","
","425.80000001192093","","49","","","3000","1","","","images/redplanet1.jpg","images/alien2","images/alien1","images/rocket1","images/alien1","images/nothing.png","2","real","true","1","common","0","2022-02-17 06:02:56.201"
"two-step-fixation","137","484371","0.0-76.0-2.0","179","819","20","Female","true","true","false","false","""event"",""trial"",""time""
""fullscreenenter"",""5"",""16521""
","
","
","""event"",""trial"",""time""
""fullscreenenter"",""5"",""16521""
","
","","images/earth.jpg","","","","","","","","","","","","","","fixation","","","","","",""
"d3-animate-choice","138","486704","0.0-76.0-0.1","179","819","20","Female","true","true","false","false","""event"",""trial"",""time""
""fullscreenenter"",""5"",""16521""
","
","
","""event"",""trial"",""time""
""fullscreenenter"",""5"",""16521""
","
","324.09999999403954","","49","","","3000","1","","","images/earth.jpg","images/rocket2","images/rocket1","null","images/rocket1","","1","real","null","1","","",""
"d3-animate-choice","139","489210","0.0-76.0-1.1","179","819","20","Female","true","true","false","false","""event"",""trial"",""time""
""fullscreenenter"",""5"",""16521""
","
","
","""event"",""trial"",""time""
""fullscreenenter"",""5"",""16521""
","
","500","","48","","","3000","1","","","images/redplanet1.jpg","images/alien2","images/alien1","images/rocket1","images/alien2","images/nothing.png","2","real","true","2","common","0","2022-02-17 06:03:02.045"
"two-step-fixation","140","490214","0.0-76.0-2.1","179","819","20","Female","true","true","false","false","""event"",""trial"",""time""
""fullscreenenter"",""5"",""16521""
","
","
","""event"",""trial"",""time""
""fullscreenenter"",""5"",""16521""
","
","","images/earth.jpg","","","","","","","","","","","","","","fixation","","","","","",""
"d3-animate-choice","141","492614","0.0-76.0-0.2","179","819","20","Female","true","true","false","false","""event"",""trial"",""time""
""fullscreenenter"",""5"",""16521""
","
","
","""event"",""trial"",""time""
""fullscreenenter"",""5"",""16521""
","
","392.7000000178814","","48","","","3000","1","","","images/earth.jpg","images/rocket2","images/rocket1","null","images/rocket2","","1","real","null","2","","",""
"d3-animate-choice","142","495515","0.0-76.0-1.2","179","819","20","Female","true","true","false","false","""event"",""trial"",""time""
""fullscreenenter"",""5"",""16521""
","
","
","""event"",""trial"",""time""
""fullscreenenter"",""5"",""16521""
","
","896.3000000119209","","48","","","3000","1","","","images/redplanet1.jpg","images/alien2","images/alien1","images/rocket2","images/alien2","images/nothing.png","2","real","false","2","rare","0","2022-02-17 06:03:08.350"
"two-step-fixation","143","496521","0.0-76.0-2.2","179","819","20","Female","true","true","false","false","""event"",""trial"",""time""
""fullscreenenter"",""5"",""16521""
","
","
","""event"",""trial"",""time""
""fullscreenenter"",""5"",""16521""
","
","","images/earth.jpg","","","","","","","","","","","","","","fixation","","","","","",""
"d3-animate-choice","144","498934","0.0-76.0-0.3","179","819","20","Female","true","true","false","false","""event"",""trial"",""time""
""fullscreenenter"",""5"",""16521""
","
","
","""event"",""trial"",""time""
""fullscreenenter"",""5"",""16521""
","
","405.40000000596046","","48","","","3000","1","","","images/earth.jpg","images/rocket2","images/rocket1","null","images/rocket2","","1","real","null","2","","",""
"d3-animate-choice","145","501611","0.0-76.0-1.3","179","819","20","Female","true","true","false","false","""event"",""trial"",""time""
""fullscreenenter"",""5"",""16521""
","
","
","""event"",""trial"",""time""
""fullscreenenter"",""5"",""16521""
","
","670.6999999880791","","49","","","3000","1","","","images/purpleplanet.jpg","images/alien4","images/alien3","images/rocket2","images/alien3","images/nothing.png","2","real","true","1","common","0","2022-02-17 06:03:14.446"
"two-step-fixation","146","502616","0.0-76.0-2.3","179","819","20","Female","true","true","false","false","""event"",""trial"",""time""
""fullscreenenter"",""5"",""16521""
","
","
","""event"",""trial"",""time""
""fullscreenenter"",""5"",""16521""
","
","","images/earth.jpg","","","","","","","","","","","","","","fixation","","","","","",""
"d3-animate-choice","147","504923","0.0-76.0-0.4","179","819","20","Female","true","true","false","false","""event"",""trial"",""time""
""fullscreenenter"",""5"",""16521""
","
","
","""event"",""trial"",""time""
""fullscreenenter"",""5"",""16521""
","
","299.19999998807907","","48","","","3000","1","","","images/earth.jpg","images/rocket2","images/rocket1","null","images/rocket2","","1","real","null","2","","",""
"d3-animate-choice","148","507283","0.0-76.0-1.4","179","819","20","Female","true","true","false","false","""event"",""trial"",""time""
""fullscreenenter"",""5"",""16521""
","
","
","""event"",""trial"",""time""
""fullscreenenter"",""5"",""16521""
","
","354.09999999403954","","48","","","3000","1","","","images/purpleplanet.jpg","images/alien4","images/alien3","images/rocket2","images/alien4","images/t.png","2","real","true","2","common","1","2022-02-17 06:03:20.118"
"two-step-fixation","149","508287","0.0-76.0-2.4","179","819","20","Female","true","true","false","false","""event"",""trial"",""time""
""fullscreenenter"",""5"",""16521""
","
","
","""event"",""trial"",""time""
""fullscreenenter"",""5"",""16521""
","
","","images/earth.jpg","","","","","","","","","","","","","","fixation","","","","","",""
"d3-animate-choice","150","510790","0.0-76.0-0.5","179","819","20","Female","true","true","false","false","""event"",""trial"",""time""
""fullscreenenter"",""5"",""16521""
","
","
","""event"",""trial"",""time""
""fullscreenenter"",""5"",""16521""
","
","497.19999998807907","","48","","","3000","1","","","images/earth.jpg","images/rocket2","images/rocket1","null","images/rocket2","","1","real","null","2","","",""
"d3-animate-choice","151","513289","0.0-76.0-1.5","179","819","20","Female","true","true","false","false","""event"",""trial"",""time""
""fullscreenenter"",""5"",""16521""
","
","
","""event"",""trial"",""time""
""fullscreenenter"",""5"",""16521""
","
","493.60000002384186","","48","","","3000","1","","","images/purpleplanet.jpg","images/alien4","images/alien3","images/rocket2","images/alien4","images/t.png","2","real","true","2","common","1","2022-02-17 06:03:26.124"
"two-step-fixation","152","514295","0.0-76.0-2.5","179","819","20","Female","true","true","false","false","""event"",""trial"",""time""
""fullscreenenter"",""5"",""16521""
","
","
","""event"",""trial"",""time""
""fullscreenenter"",""5"",""16521""
","
","","images/earth.jpg","","","","","","","","","","","","","","fixation","","","","","",""
"d3-animate-choice","153","516487","0.0-76.0-0.6","179","819","20","Female","true","true","false","false","""event"",""trial"",""time""
""fullscreenenter"",""5"",""16521""
","
","
","""event"",""trial"",""time""
""fullscreenenter"",""5"",""16521""
","
","183.30000001192093","","48","","","3000","1","","","images/earth.jpg","images/rocket2","images/rocket1","null","images/rocket2","","1","real","null","2","","",""
"d3-animate-choice","154","519007","0.0-76.0-1.6","179","819","20","Female","true","true","false","false","""event"",""trial"",""time""
""fullscreenenter"",""5"",""16521""
","
","
","""event"",""trial"",""time""
""fullscreenenter"",""5"",""16521""
","
","512.7000000178814","","49","","","3000","1","","","images/redplanet1.jpg","images/alien2","images/alien1","images/rocket2","images/alien1","images/nothing.png","2","real","false","1","rare","0","2022-02-17 06:03:31.842"
"two-step-fixation","155","520015","0.0-76.0-2.6","179","819","20","Female","true","true","false","false","""event"",""trial"",""time""
""fullscreenenter"",""5"",""16521""
","
","
","""event"",""trial"",""time""
""fullscreenenter"",""5"",""16521""
","
","","images/earth.jpg","","","","","","","","","","","","","","fixation","","","","","",""
"d3-animate-choice","156","522356","0.0-76.0-0.7","179","819","20","Female","true","true","false","false","""event"",""trial"",""time""
""fullscreenenter"",""5"",""16521""
","
","
","""event"",""trial"",""time""
""fullscreenenter"",""5"",""16521""
","
","337.09999999403954","","48","","","3000","1","","","images/earth.jpg","images/rocket2","images/rocket1","null","images/rocket2","","1","real","null","2","","",""
"d3-animate-choice","157","524742","0.0-76.0-1.7","179","819","20","Female","true","true","false","false","""event"",""trial"",""time""
""fullscreenenter"",""5"",""16521""
","
","
","""event"",""trial"",""time""
""fullscreenenter"",""5"",""16521""
","
","380.7000000178814","","48","","","3000","1","","","images/purpleplanet.jpg","images/alien4","images/alien3","images/rocket2","images/alien4","images/nothing.png","2","real","true","2","common","0","2022-02-17 06:03:37.577"
"two-step-fixation","158","525747","0.0-76.0-2.7","179","819","20","Female","true","true","false","false","""event"",""trial"",""time""
""fullscreenenter"",""5"",""16521""
","
","
","""event"",""trial"",""time""
""fullscreenenter"",""5"",""16521""
","
","","images/earth.jpg","","","","","","","","","","","","","","fixation","","","","","",""
"d3-animate-choice","159","528118","0.0-76.0-0.8","179","819","20","Female","true","true","false","false","""event"",""trial"",""time""
""fullscreenenter"",""5"",""16521""
","
","
","""event"",""trial"",""time""
""fullscreenenter"",""5"",""16521""
","
","363","","48","","","3000","1","","","images/earth.jpg","images/rocket2","images/rocket1","null","images/rocket2","","1","real","null","2","","",""
"d3-animate-choice","160","530999","0.0-76.0-1.8","179","819","20","Female","true","true","false","false","""event"",""trial"",""time""
""fullscreenenter"",""5"",""16521""
","
","
","""event"",""trial"",""time""
""fullscreenenter"",""5"",""16521""
","
","874.7999999821186","","48","","","3000","1","","","images/redplanet1.jpg","images/alien2","images/alien1","images/rocket2","images/alien2","images/t.png","2","real","false","2","rare","1","2022-02-17 06:03:43.834"
"two-step-fixation","161","532003","0.0-76.0-2.8","179","819","20","Female","true","true","false","false","""event"",""trial"",""time""
""fullscreenenter"",""5"",""16521""
","
","
","""event"",""trial"",""time""
""fullscreenenter"",""5"",""16521""
","
","","images/earth.jpg","","","","","","","","","","","","","","fixation","","","","","",""
"d3-animate-choice","162","534327","0.0-76.0-0.9","179","819","20","Female","true","true","false","false","""event"",""trial"",""time""
""fullscreenenter"",""5"",""16521""
","
","
","""event"",""trial"",""time""
""fullscreenenter"",""5"",""16521""
","
","318","","48","","","3000","1","","","images/earth.jpg","images/rocket2","images/rocket1","null","images/rocket2","","1","real","null","2","","",""
"d3-animate-choice","163","537026","0.0-76.0-1.9","179","819","20","Female","true","true","false","false","""event"",""trial"",""time""
""fullscreenenter"",""5"",""16521""
","
","
","""event"",""trial"",""time""
""fullscreenenter"",""5"",""16521""
","
","695","","48","","","3000","1","","","images/redplanet1.jpg","images/alien2","images/alien1","images/rocket2","images/alien2","images/nothing.png","2","real","false","2","rare","0","2022-02-17 06:03:49.861"
"two-step-fixation","164","538032","0.0-76.0-2.9","179","819","20","Female","true","true","false","false","""event"",""trial"",""time""
""fullscreenenter"",""5"",""16521""
","
","
","""event"",""trial"",""time""
""fullscreenenter"",""5"",""16521""
","
","","images/earth.jpg","","","","","","","","","","","","","","fixation","","","","","",""
"d3-animate-choice","165","540450","0.0-76.0-0.10","179","819","20","Female","true","true","false","false","""event"",""trial"",""time""
""fullscreenenter"",""5"",""16521""
","
","
","""event"",""trial"",""time""
""fullscreenenter"",""5"",""16521""
","
","410","","48","","","3000","1","","","images/earth.jpg","images/rocket2","images/rocket1","null","images/rocket2","","1","real","null","2","","",""
"d3-animate-choice","166","542851","0.0-76.0-1.10","179","819","20","Female","true","true","false","false","""event"",""trial"",""time""
""fullscreenenter"",""5"",""16521""
","
","
","""event"",""trial"",""time""
""fullscreenenter"",""5"",""16521""
","
","398.2999999821186","","48","","","3000","1","","","images/purpleplanet.jpg","images/alien4","images/alien3","images/rocket2","images/alien4","images/t.png","2","real","true","2","common","1","2022-02-17 06:03:55.686"
"two-step-fixation","167","543855","0.0-76.0-2.10","179","819","20","Female","true","true","false","false","""event"",""trial"",""time""
""fullscreenenter"",""5"",""16521""
","
","
","""event"",""trial"",""time""
""fullscreenenter"",""5"",""16521""
","
","","images/earth.jpg","","","","","","","","","","","","","","fixation","","","","","",""
"d3-animate-choice","168","546232","0.0-76.0-0.11","179","819","20","Female","true","true","false","false","""event"",""trial"",""time""
""fullscreenenter"",""5"",""16521""
","
","
","""event"",""trial"",""time""
""fullscreenenter"",""5"",""16521""
","
","370","","48","","","3000","1","","","images/earth.jpg","images/rocket2","images/rocket1","null","images/rocket2","","1","real","null","2","","",""
"d3-animate-choice","169","548955","0.0-76.0-1.11","179","819","20","Female","true","true","false","false","""event"",""trial"",""time""
""fullscreenenter"",""5"",""16521""
","
","
","""event"",""trial"",""time""
""fullscreenenter"",""5"",""16521""
","
","715.5","","48","","","3000","1","","","images/redplanet1.jpg","images/alien2","images/alien1","images/rocket2","images/alien2","images/t.png","2","real","false","2","rare","1","2022-02-17 06:04:01.790"
"two-step-fixation","170","549960","0.0-76.0-2.11","179","819","20","Female","true","true","false","false","""event"",""trial"",""time""
""fullscreenenter"",""5"",""16521""
","
","
","""event"",""trial"",""time""
""fullscreenenter"",""5"",""16521""
","
","","images/earth.jpg","","","","","","","","","","","","","","fixation","","","","","",""
"d3-animate-choice","171","552427","0.0-76.0-0.12","179","819","20","Female","true","true","false","false","""event"",""trial"",""time""
""fullscreenenter"",""5"",""16521""
","
","
","""event"",""trial"",""time""
""fullscreenenter"",""5"",""16521""
","
","430.19999998807907","","48","","","3000","1","","","images/earth.jpg","images/rocket2","images/rocket1","null","images/rocket2","","1","real","null","2","","",""
"d3-animate-choice","172","554918","0.0-76.0-1.12","179","819","20","Female","true","true","false","false","""event"",""trial"",""time""
""fullscreenenter"",""5"",""16521""
","
","
","""event"",""trial"",""time""
""fullscreenenter"",""5"",""16521""
","
","485.2999999821186","","48","","","3000","1","","","images/purpleplanet.jpg","images/alien4","images/alien3","images/rocket2","images/alien4","images/t.png","2","real","true","2","common","1","2022-02-17 06:04:07.753"
"two-step-fixation","173","555922","0.0-76.0-2.12","179","819","20","Female","true","true","false","false","""event"",""trial"",""time""
""fullscreenenter"",""5"",""16521""
","
","
","""event"",""trial"",""time""
""fullscreenenter"",""5"",""16521""
","
","","images/earth.jpg","","","","","","","","","","","","","","fixation","","","","","",""
"d3-animate-choice","174","558429","0.0-76.0-0.13","179","819","20","Female","true","true","false","false","""event"",""trial"",""time""
""fullscreenenter"",""5"",""16521""
","
","
","""event"",""trial"",""time""
""fullscreenenter"",""5"",""16521""
","
","497.2999999821186","","48","","","3000","1","","","images/earth.jpg","images/rocket2","images/rocket1","null","images/rocket2","","1","real","null","2","","",""
"d3-animate-choice","175","560789","0.0-76.0-1.13","179","819","20","Female","true","true","false","false","""event"",""trial"",""time""
""fullscreenenter"",""5"",""16521""
","
","
","""event"",""trial"",""time""
""fullscreenenter"",""5"",""16521""
","
","355.69999998807907","","48","","","3000","1","","","images/purpleplanet.jpg","images/alien4","images/alien3","images/rocket2","images/alien4","images/nothing.png","2","real","true","2","common","0","2022-02-17 06:04:13.625"
"two-step-fixation","176","561795","0.0-76.0-2.13","179","819","20","Female","true","true","false","false","""event"",""trial"",""time""
""fullscreenenter"",""5"",""16521""
","
","
","""event"",""trial"",""time""
""fullscreenenter"",""5"",""16521""
","
","","images/earth.jpg","","","","","","","","","","","","","","fixation","","","","","",""
"d3-animate-choice","177","564273","0.0-76.0-0.14","179","819","20","Female","true","true","false","false","""event"",""trial"",""time""
""fullscreenenter"",""5"",""16521""
","
","
","""event"",""trial"",""time""
""fullscreenenter"",""5"",""16521""
","
","473.19999998807907","","48","","","3000","1","","","images/earth.jpg","images/rocket2","images/rocket1","null","images/rocket2","","1","real","null","2","","",""
"d3-animate-choice","178","567475","0.0-76.0-1.14","179","819","20","Female","true","true","false","false","""event"",""trial"",""time""
""fullscreenenter"",""5"",""16521""
","
","
","""event"",""trial"",""time""
""fullscreenenter"",""5"",""16521""
","
","1194.4000000059605","","48","","","3000","1","","","images/redplanet1.jpg","images/alien2","images/alien1","images/rocket2","images/alien2","images/nothing.png","2","real","false","2","rare","0","2022-02-17 06:04:20.310"
"two-step-fixation","179","568480","0.0-76.0-2.14","179","819","20","Female","true","true","false","false","""event"",""trial"",""time""
""fullscreenenter"",""5"",""16521""
","
","
","""event"",""trial"",""time""
""fullscreenenter"",""5"",""16521""
","
","","images/earth.jpg","","","","","","","","","","","","","","fixation","","","","","",""
"d3-animate-choice","180","571090","0.0-76.0-0.15","179","819","20","Female","true","true","false","false","""event"",""trial"",""time""
""fullscreenenter"",""5"",""16521""
","
","
","""event"",""trial"",""time""
""fullscreenenter"",""5"",""16521""
","
","605.0999999940395","","48","","","3000","1","","","images/earth.jpg","images/rocket2","images/rocket1","null","images/rocket2","","1","real","null","2","","",""
"d3-animate-choice","181","573569","0.0-76.0-1.15","179","819","20","Female","true","true","false","false","""event"",""trial"",""time""
""fullscreenenter"",""5"",""16521""
","
","
","""event"",""trial"",""time""
""fullscreenenter"",""5"",""16521""
","
","473.59999999403954","","48","","","3000","1","","","images/purpleplanet.jpg","images/alien4","images/alien3","images/rocket2","images/alien4","images/t.png","2","real","true","2","common","1","2022-02-17 06:04:26.404"
"two-step-fixation","182","574573","0.0-76.0-2.15","179","819","20","Female","true","true","false","false","""event"",""trial"",""time""
""fullscreenenter"",""5"",""16521""
","
","
","""event"",""trial"",""time""
""fullscreenenter"",""5"",""16521""
","
","","images/earth.jpg","","","","","","","","","","","","","","fixation","","","","","",""
"d3-animate-choice","183","576920","0.0-76.0-0.16","179","819","20","Female","true","true","false","false","""event"",""trial"",""time""
""fullscreenenter"",""5"",""16521""
","
","
","""event"",""trial"",""time""
""fullscreenenter"",""5"",""16521""
","
","342.30000001192093","","48","","","3000","1","","","images/earth.jpg","images/rocket2","images/rocket1","null","images/rocket2","","1","real","null","2","","",""
"d3-animate-choice","184","579485","0.0-76.0-1.16","179","819","20","Female","true","true","false","false","""event"",""trial"",""time""
""fullscreenenter"",""5"",""16521""
","
","
","""event"",""trial"",""time""
""fullscreenenter"",""5"",""16521""
","
","557.9000000059605","","48","","","3000","1","","","images/purpleplanet.jpg","images/alien4","images/alien3","images/rocket2","images/alien4","images/t.png","2","real","true","2","common","1","2022-02-17 06:04:32.320"
"two-step-fixation","185","580488","0.0-76.0-2.16","179","819","20","Female","true","true","false","false","""event"",""trial"",""time""
""fullscreenenter"",""5"",""16521""
","
","
","""event"",""trial"",""time""
""fullscreenenter"",""5"",""16521""
","
","","images/earth.jpg","","","","","","","","","","","","","","fixation","","","","","",""
"d3-animate-choice","186","582925","0.0-76.0-0.17","179","819","20","Female","true","true","false","false","""event"",""trial"",""time""
""fullscreenenter"",""5"",""16521""
","
","
","""event"",""trial"",""time""
""fullscreenenter"",""5"",""16521""
","
","433.39999997615814","","48","","","3000","1","","","images/earth.jpg","images/rocket2","images/rocket1","null","images/rocket2","","1","real","null","2","","",""
"d3-animate-choice","187","585401","0.0-76.0-1.17","179","819","20","Female","true","true","false","false","""event"",""trial"",""time""
""fullscreenenter"",""5"",""16521""
","
","
","""event"",""trial"",""time""
""fullscreenenter"",""5"",""16521""
","
","469.80000001192093","","48","","","3000","1","","","images/purpleplanet.jpg","images/alien4","images/alien3","images/rocket2","images/alien4","images/t.png","2","real","true","2","common","1","2022-02-17 06:04:38.236"
"two-step-fixation","188","586404","0.0-76.0-2.17","179","819","20","Female","true","true","false","false","""event"",""trial"",""time""
""fullscreenenter"",""5"",""16521""
","
","
","""event"",""trial"",""time""
""fullscreenenter"",""5"",""16521""
","
","","images/earth.jpg","","","","","","","","","","","","","","fixation","","","","","",""
"d3-animate-choice","189","588733","0.0-76.0-0.18","179","819","20","Female","true","true","false","false","""event"",""trial"",""time""
""fullscreenenter"",""5"",""16521""
","
","
","""event"",""trial"",""time""
""fullscreenenter"",""5"",""16521""
","
","323.90000000596046","","48","","","3000","1","","","images/earth.jpg","images/rocket2","images/rocket1","null","images/rocket2","","1","real","null","2","","",""
"d3-animate-choice","190","591209","0.0-76.0-1.18","179","819","20","Female","true","true","false","false","""event"",""trial"",""time""
""fullscreenenter"",""5"",""16521""
","
","
","""event"",""trial"",""time""
""fullscreenenter"",""5"",""16521""
","
","472.09999999403954","","48","","","3000","1","","","images/purpleplanet.jpg","images/alien4","images/alien3","images/rocket2","images/alien4","images/t.png","2","real","true","2","common","1","2022-02-17 06:04:44.044"
"two-step-fixation","191","592214","0.0-76.0-2.18","179","819","20","Female","true","true","false","false","""event"",""trial"",""time""
""fullscreenenter"",""5"",""16521""
","
","
","""event"",""trial"",""time""
""fullscreenenter"",""5"",""16521""
","
","","images/earth.jpg","","","","","","","","","","","","","","fixation","","","","","",""
"d3-animate-choice","192","594572","0.0-76.0-0.19","179","819","20","Female","true","true","false","false","""event"",""trial"",""time""
""fullscreenenter"",""5"",""16521""
","
","
","""event"",""trial"",""time""
""fullscreenenter"",""5"",""16521""
","
","352.30000001192093","","48","","","3000","1","","","images/earth.jpg","images/rocket2","images/rocket1","null","images/rocket2","","1","real","null","2","","",""
"d3-animate-choice","193","597081","0.0-76.0-1.19","179","819","20","Female","true","true","false","false","""event"",""trial"",""time""
""fullscreenenter"",""5"",""16521""
","
","
","""event"",""trial"",""time""
""fullscreenenter"",""5"",""16521""
","
","504.30000001192093","","48","","","3000","1","908.0999999940395","48","images/purpleplanet.jpg","images/alien4","images/alien3","images/rocket2","images/alien4","images/nothing.png","2","real","true","2","common","0","2022-02-17 06:04:49.917"
"two-step-fixation","194","598085","0.0-76.0-2.19","179","819","20","Female","true","true","false","false","""event"",""trial"",""time""
""fullscreenenter"",""5"",""16521""
","
","
","""event"",""trial"",""time""
""fullscreenenter"",""5"",""16521""
","
","","images/earth.jpg","","","","","","","","","","","","","","fixation","","","","","",""
"d3-animate-choice","195","600367","0.0-76.0-0.20","179","819","20","Female","true","true","false","false","""event"",""trial"",""time""
""fullscreenenter"",""5"",""16521""
","
","
","""event"",""trial"",""time""
""fullscreenenter"",""5"",""16521""
","
","275.59999999403954","","48","","","3000","1","","","images/earth.jpg","images/rocket2","images/rocket1","null","images/rocket2","","1","real","null","2","","",""
"d3-animate-choice","196","603490","0.0-76.0-1.20","179","819","20","Female","true","true","false","false","""event"",""trial"",""time""
""fullscreenenter"",""5"",""16521""
","
","
","""event"",""trial"",""time""
""fullscreenenter"",""5"",""16521""
","
","1118.300000011921","","48","","","3000","1","","","images/purpleplanet.jpg","images/alien4","images/alien3","images/rocket2","images/alien4","images/t.png","2","real","true","2","common","1","2022-02-17 06:04:56.325"
"two-step-fixation","197","604495","0.0-76.0-2.20","179","819","20","Female","true","true","false","false","""event"",""trial"",""time""
""fullscreenenter"",""5"",""16521""
","
","
","""event"",""trial"",""time""
""fullscreenenter"",""5"",""16521""
","
","","images/earth.jpg","","","","","","","","","","","","","","fixation","","","","","",""
"d3-animate-choice","198","606857","0.0-76.0-0.21","179","819","20","Female","true","true","false","false","""event"",""trial"",""time""
""fullscreenenter"",""5"",""16521""
","
","
","""event"",""trial"",""time""
""fullscreenenter"",""5"",""16521""
","
","341.2000000178814","","48","","","3000","1","","","images/earth.jpg","images/rocket2","images/rocket1","null","images/rocket2","","1","real","null","2","","",""
"d3-animate-choice","199","609277","0.0-76.0-1.21","179","819","20","Female","true","true","false","false","""event"",""trial"",""time""
""fullscreenenter"",""5"",""16521""
","
","
","""event"",""trial"",""time""
""fullscreenenter"",""5"",""16521""
","
","416.2000000178814","","48","","","3000","1","","","images/purpleplanet.jpg","images/alien4","images/alien3","images/rocket2","images/alien4","images/t.png","2","real","true","2","common","1","2022-02-17 06:05:02.112"
"two-step-fixation","200","610282","0.0-76.0-2.21","179","819","20","Female","true","true","false","false","""event"",""trial"",""time""
""fullscreenenter"",""5"",""16521""
","
","
","""event"",""trial"",""time""
""fullscreenenter"",""5"",""16521""
","
","","images/earth.jpg","","","","","","","","","","","","","","fixation","","","","","",""
"d3-animate-choice","201","612609","0.0-76.0-0.22","179","819","20","Female","true","true","false","false","""event"",""trial"",""time""
""fullscreenenter"",""5"",""16521""
","
","
","""event"",""trial"",""time""
""fullscreenenter"",""5"",""16521""
","
","321.90000000596046","","48","","","3000","1","","","images/earth.jpg","images/rocket2","images/rocket1","null","images/rocket2","","1","real","null","2","","",""
"d3-animate-choice","202","615216","0.0-76.0-1.22","179","819","20","Female","true","true","false","false","""event"",""trial"",""time""
""fullscreenenter"",""5"",""16521""
","
","
","""event"",""trial"",""time""
""fullscreenenter"",""5"",""16521""
","
","603.0999999940395","","48","","","3000","1","","","images/purpleplanet.jpg","images/alien4","images/alien3","images/rocket2","images/alien4","images/nothing.png","2","real","true","2","common","0","2022-02-17 06:05:08.052"
"two-step-fixation","203","616223","0.0-76.0-2.22","179","819","20","Female","true","true","false","false","""event"",""trial"",""time""
""fullscreenenter"",""5"",""16521""
","
","
","""event"",""trial"",""time""
""fullscreenenter"",""5"",""16521""
","
","","images/earth.jpg","","","","","","","","","","","","","","fixation","","","","","",""
"d3-animate-choice","204","618709","0.0-76.0-0.23","179","819","20","Female","true","true","false","false","""event"",""trial"",""time""
""fullscreenenter"",""5"",""16521""
","
","
","""event"",""trial"",""time""
""fullscreenenter"",""5"",""16521""
","
","477.59999999403954","","48","","","3000","1","","","images/earth.jpg","images/rocket2","images/rocket1","null","images/rocket2","","1","real","null","2","","",""
"d3-animate-choice","205","621160","0.0-76.0-1.23","179","819","20","Female","true","true","false","false","""event"",""trial"",""time""
""fullscreenenter"",""5"",""16521""
","
","
","""event"",""trial"",""time""
""fullscreenenter"",""5"",""16521""
","
","443","","48","","","3000","1","","","images/purpleplanet.jpg","images/alien4","images/alien3","images/rocket2","images/alien4","images/t.png","2","real","true","2","common","1","2022-02-17 06:05:13.995"
"two-step-fixation","206","622163","0.0-76.0-2.23","179","819","20","Female","true","true","false","false","""event"",""trial"",""time""
""fullscreenenter"",""5"",""16521""
","
","
","""event"",""trial"",""time""
""fullscreenenter"",""5"",""16521""
","
","","images/earth.jpg","","","","","","","","","","","","","","fixation","","","","","",""
"d3-animate-choice","207","624508","0.0-76.0-0.24","179","819","20","Female","true","true","false","false","""event"",""trial"",""time""
""fullscreenenter"",""5"",""16521""
","
","
","""event"",""trial"",""time""
""fullscreenenter"",""5"",""16521""
","
","340.5","","48","","","3000","1","","","images/earth.jpg","images/rocket2","images/rocket1","null","images/rocket2","","1","real","null","2","","",""
"d3-animate-choice","208","626896","0.0-76.0-1.24","179","819","20","Female","true","true","false","false","""event"",""trial"",""time""
""fullscreenenter"",""5"",""16521""
","
","
","""event"",""trial"",""time""
""fullscreenenter"",""5"",""16521""
","
","383","","48","","","3000","1","","","images/purpleplanet.jpg","images/alien4","images/alien3","images/rocket2","images/alien4","images/t.png","2","real","true","2","common","1","2022-02-17 06:05:19.731"
"two-step-fixation","209","627901","0.0-76.0-2.24","179","819","20","Female","true","true","false","false","""event"",""trial"",""time""
""fullscreenenter"",""5"",""16521""
","
","
","""event"",""trial"",""time""
""fullscreenenter"",""5"",""16521""
","
","","images/earth.jpg","","","","","","","","","","","","","","fixation","","","","","",""
"d3-animate-choice","210","630292","0.0-76.0-0.25","179","819","20","Female","true","true","false","false","""event"",""trial"",""time""
""fullscreenenter"",""5"",""16521""
","
","
","""event"",""trial"",""time""
""fullscreenenter"",""5"",""16521""
","
","386.40000000596046","","48","","","3000","1","","","images/earth.jpg","images/rocket2","images/rocket1","null","images/rocket2","","1","real","null","2","","",""
"d3-animate-choice","211","632970","0.0-76.0-1.25","179","819","20","Female","true","true","false","false","""event"",""trial"",""time""
""fullscreenenter"",""5"",""16521""
","
","
","""event"",""trial"",""time""
""fullscreenenter"",""5"",""16521""
","
","673.5999999940395","","48","","","3000","1","","","images/purpleplanet.jpg","images/alien4","images/alien3","images/rocket2","images/alien4","images/nothing.png","2","real","true","2","common","0","2022-02-17 06:05:25.805"
"two-step-fixation","212","633978","0.0-76.0-2.25","179","819","20","Female","true","true","false","false","""event"",""trial"",""time""
""fullscreenenter"",""5"",""16521""
","
","
","""event"",""trial"",""time""
""fullscreenenter"",""5"",""16521""
","
","","images/earth.jpg","","","","","","","","","","","","","","fixation","","","","","",""
"d3-animate-choice","213","636435","0.0-76.0-0.26","179","819","20","Female","true","true","false","false","""event"",""trial"",""time""
""fullscreenenter"",""5"",""16521""
","
","
","""event"",""trial"",""time""
""fullscreenenter"",""5"",""16521""
","
","450.90000000596046","","48","","","3000","1","","","images/earth.jpg","images/rocket2","images/rocket1","null","images/rocket2","","1","real","null","2","","",""
"d3-animate-choice","214","639697","0.0-76.0-1.26","179","819","20","Female","true","true","false","false","""event"",""trial"",""time""
""fullscreenenter"",""5"",""16521""
","
","
","""event"",""trial"",""time""
""fullscreenenter"",""5"",""16521""
","
","1257.800000011921","","48","","","3000","1","","","images/purpleplanet.jpg","images/alien4","images/alien3","images/rocket2","images/alien4","images/t.png","2","real","true","2","common","1","2022-02-17 06:05:32.532"
"two-step-fixation","215","640701","0.0-76.0-2.26","179","819","20","Female","true","true","false","false","""event"",""trial"",""time""
""fullscreenenter"",""5"",""16521""
","
","
","""event"",""trial"",""time""
""fullscreenenter"",""5"",""16521""
","
","","images/earth.jpg","","","","","","","","","","","","","","fixation","","","","","",""
"d3-animate-choice","216","643997","0.0-76.0-0.27","179","819","20","Female","true","true","false","false","""event"",""trial"",""time""
""fullscreenenter"",""5"",""16521""
","
","
","""event"",""trial"",""time""
""fullscreenenter"",""5"",""16521""
","
","1289.199999988079","","48","","","3000","1","","","images/earth.jpg","images/rocket2","images/rocket1","null","images/rocket2","","1","real","null","2","","",""
"d3-animate-choice","217","647082","0.0-76.0-1.27","179","819","20","Female","true","true","false","false","""event"",""trial"",""time""
""fullscreenenter"",""5"",""16521""
","
","
","""event"",""trial"",""time""
""fullscreenenter"",""5"",""16521""
","
","1077.2000000178814","","48","","","3000","1","","","images/purpleplanet.jpg","images/alien4","images/alien3","images/rocket2","images/alien4","images/t.png","2","real","true","2","common","1","2022-02-17 06:05:39.917"
"two-step-fixation","218","648086","0.0-76.0-2.27","179","819","20","Female","true","true","false","false","""event"",""trial"",""time""
""fullscreenenter"",""5"",""16521""
","
","
","""event"",""trial"",""time""
""fullscreenenter"",""5"",""16521""
","
","","images/earth.jpg","","","","","","","","","","","","","","fixation","","","","","",""
"d3-animate-choice","219","650949","0.0-76.0-0.28","179","819","20","Female","true","true","false","false","""event"",""trial"",""time""
""fullscreenenter"",""5"",""16521""
","
","
","""event"",""trial"",""time""
""fullscreenenter"",""5"",""16521""
","
","858","","48","","","3000","1","","","images/earth.jpg","images/rocket2","images/rocket1","null","images/rocket2","","1","real","null","2","","",""
"d3-animate-choice","220","653626","0.0-76.0-1.28","179","819","20","Female","true","true","false","false","""event"",""trial"",""time""
""fullscreenenter"",""5"",""16521""
","
","
","""event"",""trial"",""time""
""fullscreenenter"",""5"",""16521""
","
","672.9000000059605","","48","","","3000","1","","","images/purpleplanet.jpg","images/alien4","images/alien3","images/rocket2","images/alien4","images/nothing.png","2","real","true","2","common","0","2022-02-17 06:05:46.461"
"two-step-fixation","221","654630","0.0-76.0-2.28","179","819","20","Female","true","true","false","false","""event"",""trial"",""time""
""fullscreenenter"",""5"",""16521""
","
","
","""event"",""trial"",""time""
""fullscreenenter"",""5"",""16521""
","
","","images/earth.jpg","","","","","","","","","","","","","","fixation","","","","","",""
"d3-animate-choice","222","656976","0.0-76.0-0.29","179","819","20","Female","true","true","false","false","""event"",""trial"",""time""
""fullscreenenter"",""5"",""16521""
","
","
","""event"",""trial"",""time""
""fullscreenenter"",""5"",""16521""
","
","341.2999999821186","","48","","","3000","1","","","images/earth.jpg","images/rocket2","images/rocket1","null","images/rocket2","","1","real","null","2","","",""
"d3-animate-choice","223","659340","0.0-76.0-1.29","179","819","20","Female","true","true","false","false","""event"",""trial"",""time""
""fullscreenenter"",""5"",""16521""
","
","
","""event"",""trial"",""time""
""fullscreenenter"",""5"",""16521""
","
","358.40000000596046","","48","","","3000","1","","","images/purpleplanet.jpg","images/alien4","images/alien3","images/rocket2","images/alien4","images/t.png","2","real","true","2","common","1","2022-02-17 06:05:52.175"
"two-step-fixation","224","660345","0.0-76.0-2.29","179","819","20","Female","true","true","false","false","""event"",""trial"",""time""
""fullscreenenter"",""5"",""16521""
","
","
","""event"",""trial"",""time""
""fullscreenenter"",""5"",""16521""
","
","","images/earth.jpg","","","","","","","","","","","","","","fixation","","","","","",""
"d3-animate-choice","225","662694","0.0-76.0-0.30","179","819","20","Female","true","true","false","false","""event"",""trial"",""time""
""fullscreenenter"",""5"",""16521""
","
","
","""event"",""trial"",""time""
""fullscreenenter"",""5"",""16521""
","
","344","","48","","","3000","1","","","images/earth.jpg","images/rocket2","images/rocket1","null","images/rocket2","","1","real","null","2","","",""
"d3-animate-choice","226","665147","0.0-76.0-1.30","179","819","20","Female","true","true","false","false","""event"",""trial"",""time""
""fullscreenenter"",""5"",""16521""
","
","
","""event"",""trial"",""time""
""fullscreenenter"",""5"",""16521""
","
","447.59999999403954","","48","","","3000","1","","","images/purpleplanet.jpg","images/alien4","images/alien3","images/rocket2","images/alien4","images/t.png","2","real","true","2","common","1","2022-02-17 06:05:57.983"
"two-step-fixation","227","666155","0.0-76.0-2.30","179","819","20","Female","true","true","false","false","""event"",""trial"",""time""
""fullscreenenter"",""5"",""16521""
","
","
","""event"",""trial"",""time""
""fullscreenenter"",""5"",""16521""
","
","","images/earth.jpg","","","","","","","","","","","","","","fixation","","","","","",""
"d3-animate-choice","228","669356","0.0-76.0-0.31","179","819","20","Female","true","true","false","false","""event"",""trial"",""time""
""fullscreenenter"",""5"",""16521""
","
","
","""event"",""trial"",""time""
""fullscreenenter"",""5"",""16521""
","
","1192.9000000059605","","48","","","3000","1","","","images/earth.jpg","images/rocket2","images/rocket1","null","images/rocket2","","1","real","null","2","","",""
"d3-animate-choice","229","672664","0.0-76.0-1.31","179","819","20","Female","true","true","false","false","""event"",""trial"",""time""
""fullscreenenter"",""5"",""16521""
","
","
","""event"",""trial"",""time""
""fullscreenenter"",""5"",""16521""
","
","1302.7999999821186","","48","","","3000","1","","","images/redplanet1.jpg","images/alien2","images/alien1","images/rocket2","images/alien2","images/t.png","2","real","false","2","rare","1","2022-02-17 06:06:05.499"
"two-step-fixation","230","673670","0.0-76.0-2.31","179","819","20","Female","true","true","false","false","""event"",""trial"",""time""
""fullscreenenter"",""5"",""16521""
","
","
","""event"",""trial"",""time""
""fullscreenenter"",""5"",""16521""
","
","","images/earth.jpg","","","","","","","","","","","","","","fixation","","","","","",""
"d3-animate-choice","231","676126","0.0-76.0-0.32","179","819","20","Female","true","true","false","false","""event"",""trial"",""time""
""fullscreenenter"",""5"",""16521""
","
","
","""event"",""trial"",""time""
""fullscreenenter"",""5"",""16521""
","
","450.7999999821186","","48","","","3000","1","","","images/earth.jpg","images/rocket2","images/rocket1","null","images/rocket2","","1","real","null","2","","",""
"d3-animate-choice","232","678625","0.0-76.0-1.32","179","819","20","Female","true","true","false","false","""event"",""trial"",""time""
""fullscreenenter"",""5"",""16521""
","
","
","""event"",""trial"",""time""
""fullscreenenter"",""5"",""16521""
","
","494","","48","","","3000","1","","","images/purpleplanet.jpg","images/alien4","images/alien3","images/rocket2","images/alien4","images/t.png","2","real","true","2","common","1","2022-02-17 06:06:11.460"
"two-step-fixation","233","679629","0.0-76.0-2.32","179","819","20","Female","true","true","false","false","""event"",""trial"",""time""
""fullscreenenter"",""5"",""16521""
","
","
","""event"",""trial"",""time""
""fullscreenenter"",""5"",""16521""
","
","","images/earth.jpg","","","","","","","","","","","","","","fixation","","","","","",""
"d3-animate-choice","234","682045","0.0-76.0-0.33","179","819","20","Female","true","true","false","false","""event"",""trial"",""time""
""fullscreenenter"",""5"",""16521""
","
","
","""event"",""trial"",""time""
""fullscreenenter"",""5"",""16521""
","
","410.39999997615814","","48","","","3000","1","","","images/earth.jpg","images/rocket2","images/rocket1","null","images/rocket2","","1","real","null","2","","",""
"d3-animate-choice","235","684790","0.0-76.0-1.33","179","819","20","Female","true","true","false","false","""event"",""trial"",""time""
""fullscreenenter"",""5"",""16521""
","
","
","""event"",""trial"",""time""
""fullscreenenter"",""5"",""16521""
","
","736.5","","48","","","3000","1","","","images/redplanet1.jpg","images/alien2","images/alien1","images/rocket2","images/alien2","images/t.png","2","real","false","2","rare","1","2022-02-17 06:06:17.625"
"two-step-fixation","236","685795","0.0-76.0-2.33","179","819","20","Female","true","true","false","false","""event"",""trial"",""time""
""fullscreenenter"",""5"",""16521""
","
","
","""event"",""trial"",""time""
""fullscreenenter"",""5"",""16521""
","
","","images/earth.jpg","","","","","","","","","","","","","","fixation","","","","","",""
"d3-animate-choice","237","688118","0.0-76.0-0.34","179","819","20","Female","true","true","false","false","""event"",""trial"",""time""
""fullscreenenter"",""5"",""16521""
","
","
","""event"",""trial"",""time""
""fullscreenenter"",""5"",""16521""
","
","318.40000000596046","","48","","","3000","1","","","images/earth.jpg","images/rocket2","images/rocket1","null","images/rocket2","","1","real","null","2","","",""
"d3-animate-choice","238","690482","0.0-76.0-1.34","179","819","20","Female","true","true","false","false","""event"",""trial"",""time""
""fullscreenenter"",""5"",""16521""
","
","
","""event"",""trial"",""time""
""fullscreenenter"",""5"",""16521""
","
","357.40000000596046","","48","","","3000","1","","","images/purpleplanet.jpg","images/alien4","images/alien3","images/rocket2","images/alien4","images/t.png","2","real","true","2","common","1","2022-02-17 06:06:23.317"
"two-step-fixation","239","691488","0.0-76.0-2.34","179","819","20","Female","true","true","false","false","""event"",""trial"",""time""
""fullscreenenter"",""5"",""16521""
","
","
","""event"",""trial"",""time""
""fullscreenenter"",""5"",""16521""
","
","","images/earth.jpg","","","","","","","","","","","","","","fixation","","","","","",""
"d3-animate-choice","240","693766","0.0-76.0-0.35","179","819","20","Female","true","true","false","false","""event"",""trial"",""time""
""fullscreenenter"",""5"",""16521""
","
","
","""event"",""trial"",""time""
""fullscreenenter"",""5"",""16521""
","
","272.2999999821186","","48","","","3000","1","","","images/earth.jpg","images/rocket2","images/rocket1","null","images/rocket2","","1","real","null","2","","",""
"d3-animate-choice","241","696241","0.0-76.0-1.35","179","819","20","Female","true","true","false","false","""event"",""trial"",""time""
""fullscreenenter"",""5"",""16521""
","
","
","""event"",""trial"",""time""
""fullscreenenter"",""5"",""16521""
","
","469.90000000596046","","48","","","3000","1","","","images/purpleplanet.jpg","images/alien4","images/alien3","images/rocket2","images/alien4","images/nothing.png","2","real","true","2","common","0","2022-02-17 06:06:29.076"
"two-step-fixation","242","697248","0.0-76.0-2.35","179","819","20","Female","true","true","false","false","""event"",""trial"",""time""
""fullscreenenter"",""5"",""16521""
","
","
","""event"",""trial"",""time""
""fullscreenenter"",""5"",""16521""
","
","","images/earth.jpg","","","","","","","","","","","","","","fixation","","","","","",""
"d3-animate-choice","243","699505","0.0-76.0-0.36","179","819","20","Female","true","true","false","false","""event"",""trial"",""time""
""fullscreenenter"",""5"",""16521""
","
","
","""event"",""trial"",""time""
""fullscreenenter"",""5"",""16521""
","
","251","","48","","","3000","1","","","images/earth.jpg","images/rocket2","images/rocket1","null","images/rocket2","","1","real","null","2","","",""
"d3-animate-choice","244","702024","0.0-76.0-1.36","179","819","20","Female","true","true","false","false","""event"",""trial"",""time""
""fullscreenenter"",""5"",""16521""
","
","
","""event"",""trial"",""time""
""fullscreenenter"",""5"",""16521""
","
","513.1999999880791","","48","","","3000","1","","","images/purpleplanet.jpg","images/alien4","images/alien3","images/rocket2","images/alien4","images/nothing.png","2","real","true","2","common","0","2022-02-17 06:06:34.859"
"two-step-fixation","245","703029","0.0-76.0-2.36","179","819","20","Female","true","true","false","false","""event"",""trial"",""time""
""fullscreenenter"",""5"",""16521""
","
","
","""event"",""trial"",""time""
""fullscreenenter"",""5"",""16521""
","
","","images/earth.jpg","","","","","","","","","","","","","","fixation","","","","","",""
"d3-animate-choice","246","705557","0.0-76.0-0.37","179","819","20","Female","true","true","false","false","""event"",""trial"",""time""
""fullscreenenter"",""5"",""16521""
","
","
","""event"",""trial"",""time""
""fullscreenenter"",""5"",""16521""
","
