"trial_type","trial_index","time_elapsed","internal_node_id","participant_id","subject_id","age","gender","rocket_sides","red_planet_first_rocket","red_display_order","purple_display_order","interactions","blur_events","focus_events","fullscreenenter_events","fullscreenexit_events","rt","stimulus","key_press","button_pressed","success","duration","valid_pressed","rts","keys","planet_text","right_text","left_text","center_text","chosen_text","reward_text","trial_stage","practice_trial","transition_type","choice","transition","reward","timestamp"
"pavlovia","0","2","0.0-0.0","3387","6462","17","Female","true","true","false","true","
","
","
","
","
","","","","","","","","","","","","","","","","","","","","","",""
"html-keyboard-response","1","1404","0.0-1.0","3387","6462","17","Female","true","true","false","true","
","
","
","
","
","1400.5999999940395","Welcome! Press the space bar to begin.","32","","","","","","","","","","","","","","","","","","",""
"audio-keyboard-response","2","5813","0.0-2.0","3387","6462","17","Female","true","true","false","true","
","
","
","
","
","4280","audio/beep_loop.wav","32","","","","","","","","","","","","","","","","","","",""
"audio-button-response","3","8733","0.0-3.0","3387","6462","17","Female","true","true","false","true","
","
","
","
","
","NaN","audio/fish.mp3","","1","","","","","","","","","","","","","","","","","",""
"audio-button-response","4","11727","0.0-4.0","3387","6462","17","Female","true","true","false","true","""event"",""trial"",""time""
""fullscreenenter"",""5"",""14599""
","
","
","""event"",""trial"",""time""
""fullscreenenter"",""5"",""14599""
","
","NaN","audio/tiger.mp3","","4","","","","","","","","","","","","","","","","","",""
"fullscreen","5","15574","0.0-5.0","3387","6462","17","Female","true","true","false","true","""event"",""trial"",""time""
""fullscreenenter"",""5"",""14599""
","
","
","""event"",""trial"",""time""
""fullscreenenter"",""5"",""14599""
","
","","","","","true","","","","","","","","","","","","","","","","",""
"d3-instructions","6","27869","0.0-6.0","3387","6462","17","Female","true","true","false","true","""event"",""trial"",""time""
""fullscreenenter"",""5"",""14599""
","
","
","""event"",""trial"",""time""
""fullscreenenter"",""5"",""14599""
","
","","","","","","","","","","","","","","","","","","","","","",""
"d3-instructions","7","36342","0.0-7.0","3387","6462","17","Female","true","true","false","true","""event"",""trial"",""time""
""fullscreenenter"",""5"",""14599""
","
","
","""event"",""trial"",""time""
""fullscreenenter"",""5"",""14599""
","
","","","","","","","","","","","","","","","","","","","","","",""
"d3-instructions","8","43059","0.0-8.0","3387","6462","17","Female","true","true","false","true","""event"",""trial"",""time""
""fullscreenenter"",""5"",""14599""
","
","
","""event"",""trial"",""time""
""fullscreenenter"",""5"",""14599""
","
","","","","","","","","","","","","","","","","","","","","","",""
"d3-instructions","9","53967","0.0-9.0","3387","6462","17","Female","true","true","false","true","""event"",""trial"",""time""
""fullscreenenter"",""5"",""14599""
","
","
","""event"",""trial"",""time""
""fullscreenenter"",""5"",""14599""
","
","","","","","","","","","","","","","","","","","","","","","",""
"d3-instructions","10","73350","0.0-10.0","3387","6462","17","Female","true","true","false","true","""event"",""trial"",""time""
""fullscreenenter"",""5"",""14599""
","
","
","""event"",""trial"",""time""
""fullscreenenter"",""5"",""14599""
","
","","","","","","","","","","","","","","","","","","","","","",""
"d3-animate-choice","11","78117","0.0-11.0","3387","6462","17","Female","true","true","false","true","""event"",""trial"",""time""
""fullscreenenter"",""5"",""14599""
","
","
","""event"",""trial"",""time""
""fullscreenenter"",""5"",""14599""
","
","2758.2000000029802","","49","","","3000","1","","","images/tutgreenplanet.jpg","images/tutalien1","images/tutalien2","null","images/tutalien2","","NA","practice","null","","","",""
"d3-animate-choice","12","81243","0.0-12.0","3387","6462","17","Female","true","true","false","true","""event"",""trial"",""time""
""fullscreenenter"",""5"",""14599""
","
","
","""event"",""trial"",""time""
""fullscreenenter"",""5"",""14599""
","
","1119.9000000059605","","48","","","3000","1","","","images/tutgreenplanet.jpg","images/tutalien1","images/tutalien2","null","images/tutalien1","","NA","practice","null","","","",""
"d3-animate-choice","13","84902","0.0-13.0","3387","6462","17","Female","true","true","false","true","""event"",""trial"",""time""
""fullscreenenter"",""5"",""14599""
","
","
","""event"",""trial"",""time""
""fullscreenenter"",""5"",""14599""
","
","1653.8000000044703","","48","","","3000","1","","","images/tutgreenplanet.jpg","images/tutalien1","images/tutalien2","null","images/tutalien1","","NA","practice","null","","","",""
"d3-animate-choice","14","87425","0.0-14.0","3387","6462","17","Female","true","true","false","true","""event"",""trial"",""time""
""fullscreenenter"",""5"",""14599""
","
","
","""event"",""trial"",""time""
""fullscreenenter"",""5"",""14599""
","
","517.5","","49","","","3000","1","","","images/tutgreenplanet.jpg","images/tutalien1","images/tutalien2","null","images/tutalien2","","NA","practice","null","","","",""
"d3-instructions","15","93396","0.0-15.0","3387","6462","17","Female","true","true","false","true","""event"",""trial"",""time""
""fullscreenenter"",""5"",""14599""
","
","
","""event"",""trial"",""time""
""fullscreenenter"",""5"",""14599""
","
","","","","","","","","","","","","","","","","","","","","","",""
"d3-instructions","16","101472","0.0-16.0","3387","6462","17","Female","true","true","false","true","""event"",""trial"",""time""
""fullscreenenter"",""5"",""14599""
","
","
","""event"",""trial"",""time""
""fullscreenenter"",""5"",""14599""
","
","","","","","","","","","","","","","","","","","","","","","",""
"d3-instructions","17","109790","0.0-17.0","3387","6462","17","Female","true","true","false","true","""event"",""trial"",""time""
""fullscreenenter"",""5"",""14599""
","
","
","""event"",""trial"",""time""
""fullscreenenter"",""5"",""14599""
","
","","","","","","","","","","","","","","","","","","","","","",""
"d3-instructions","18","122193","0.0-18.0","3387","6462","17","Female","true","true","false","true","""event"",""trial"",""time""
""fullscreenenter"",""5"",""14599""
","
","
","""event"",""trial"",""time""
""fullscreenenter"",""5"",""14599""
","
","","","","","","","","","","","","","","","","","","","","","",""
"d3-instructions","19","135384","0.0-19.0","3387","6462","17","Female","true","true","false","true","""event"",""trial"",""time""
""fullscreenenter"",""5"",""14599""
","
","
","""event"",""trial"",""time""
""fullscreenenter"",""5"",""14599""
","
","","","","","","","","","","","","","","","","","","","","","",""
"d3-animate-choice","20","138447","0.0-20.0","3387","6462","17","Female","true","true","false","true","""event"",""trial"",""time""
""fullscreenenter"",""5"",""14599""
","
","
","""event"",""trial"",""time""
""fullscreenenter"",""5"",""14599""
","
","1056.1000000014901","","49","","","3000","1","1694.3999999985099,2491","49,49","images/tutyellowplanet.jpg","null","images/tutalien3","null","images/tutalien3","images/nothing.png","NA","practice","null","","","",""
"d3-animate-choice","21","141330","0.0-21.0","3387","6462","17","Female","true","true","false","true","""event"",""trial"",""time""
""fullscreenenter"",""5"",""14599""
","
","
","""event"",""trial"",""time""
""fullscreenenter"",""5"",""14599""
","
","879.2999999970198","","49","","","3000","1","","","images/tutyellowplanet.jpg","null","images/tutalien3","null","images/tutalien3","images/t.png","NA","practice","null","","","",""
"d3-animate-choice","22","144326","0.0-22.0","3387","6462","17","Female","true","true","false","true","""event"",""trial"",""time""
""fullscreenenter"",""5"",""14599""
","
","
","""event"",""trial"",""time""
""fullscreenenter"",""5"",""14599""
","
","994.7999999970198","","49","","","3000","1","","","images/tutyellowplanet.jpg","null","images/tutalien3","null","images/tutalien3","images/nothing.png","NA","practice","null","","","",""
"d3-animate-choice","23","146729","0.0-23.0","3387","6462","17","Female","true","true","false","true","""event"",""trial"",""time""
""fullscreenenter"",""5"",""14599""
","
","
","""event"",""trial"",""time""
""fullscreenenter"",""5"",""14599""
","
","397.70000000298023","","49","","","3000","1","","","images/tutyellowplanet.jpg","null","images/tutalien3","null","images/tutalien3","images/t.png","NA","practice","null","","","",""
"d3-animate-choice","24","149115","0.0-24.0","3387","6462","17","Female","true","true","false","true","""event"",""trial"",""time""
""fullscreenenter"",""5"",""14599""
","
","
","""event"",""trial"",""time""
""fullscreenenter"",""5"",""14599""
","
","383.79999999701977","","49","","","3000","1","","","images/tutyellowplanet.jpg","null","images/tutalien3","null","images/tutalien3","images/t.png","NA","practice","null","","","",""
"d3-animate-choice","25","151428","0.0-25.0","3387","6462","17","Female","true","true","false","true","""event"",""trial"",""time""
""fullscreenenter"",""5"",""14599""
","
","
","""event"",""trial"",""time""
""fullscreenenter"",""5"",""14599""
","
","308.6000000014901","","49","","","3000","1","","","images/tutyellowplanet.jpg","null","images/tutalien3","null","images/tutalien3","images/t.png","NA","practice","null","","","",""
"d3-animate-choice","26","153711","0.0-26.0","3387","6462","17","Female","true","true","false","true","""event"",""trial"",""time""
""fullscreenenter"",""5"",""14599""
","
","
","""event"",""trial"",""time""
""fullscreenenter"",""5"",""14599""
","
","280","","49","","","3000","1","","","images/tutyellowplanet.jpg","null","images/tutalien3","null","images/tutalien3","images/t.png","NA","practice","null","","","",""
"d3-animate-choice","27","156025","0.0-27.0","3387","6462","17","Female","true","true","false","true","""event"",""trial"",""time""
""fullscreenenter"",""5"",""14599""
","
","
","""event"",""trial"",""time""
""fullscreenenter"",""5"",""14599""
","
","309.69999999552965","","49","","","3000","1","1915.7999999970198","49","images/tutyellowplanet.jpg","null","images/tutalien3","null","images/tutalien3","images/nothing.png","NA","practice","null","","","",""
"d3-animate-choice","28","158350","0.0-28.0","3387","6462","17","Female","true","true","false","true","""event"",""trial"",""time""
""fullscreenenter"",""5"",""14599""
","
","
","""event"",""trial"",""time""
""fullscreenenter"",""5"",""14599""
","
","320","","49","","","3000","1","","","images/tutyellowplanet.jpg","null","images/tutalien3","null","images/tutalien3","images/t.png","NA","practice","null","","","",""
"d3-animate-choice","29","160608","0.0-29.0","3387","6462","17","Female","true","true","false","true","""event"",""trial"",""time""
""fullscreenenter"",""5"",""14599""
","
","
","""event"",""trial"",""time""
""fullscreenenter"",""5"",""14599""
","
","256","","49","","","3000","1","","","images/tutyellowplanet.jpg","null","images/tutalien3","null","images/tutalien3","images/t.png","NA","practice","null","","","",""
"d3-instructions","30","167680","0.0-30.0","3387","6462","17","Female","true","true","false","true","""event"",""trial"",""time""
""fullscreenenter"",""5"",""14599""
","
","
","""event"",""trial"",""time""
""fullscreenenter"",""5"",""14599""
","
","","","","","","","","","","","","","","","","","","","","","",""
"d3-instructions","31","177618","0.0-31.0","3387","6462","17","Female","true","true","false","true","""event"",""trial"",""time""
""fullscreenenter"",""5"",""14599""
","
","
","""event"",""trial"",""time""
""fullscreenenter"",""5"",""14599""
","
","","","","","","","","","","","","","","","","","","","","","",""
"d3-instructions","32","184937","0.0-32.0","3387","6462","17","Female","true","true","false","true","""event"",""trial"",""time""
""fullscreenenter"",""5"",""14599""
","
","
","""event"",""trial"",""time""
""fullscreenenter"",""5"",""14599""
","
","","","","","","","","","","","","","","","","","","","","","",""
"d3-instructions","33","192705","0.0-33.0","3387","6462","17","Female","true","true","false","true","""event"",""trial"",""time""
""fullscreenenter"",""5"",""14599""
","
","
","""event"",""trial"",""time""
""fullscreenenter"",""5"",""14599""
","
","","","","","","","","","","","","","","","","","","","","","",""
"d3-animate-choice","34","196707","0.0-34.0","3387","6462","17","Female","true","true","false","true","""event"",""trial"",""time""
""fullscreenenter"",""5"",""14599""
","
","
","""event"",""trial"",""time""
""fullscreenenter"",""5"",""14599""
","
","1995.8000000044703","","49","","","3000","1","","","images/tutgreenplanet.jpg","images/tutalien1","images/tutalien2","null","images/tutalien2","images/t.png","NA","practice","null","","","",""
"d3-animate-choice","35","199350","0.0-35.0","3387","6462","17","Female","true","true","false","true","""event"",""trial"",""time""
""fullscreenenter"",""5"",""14599""
","
","
","""event"",""trial"",""time""
""fullscreenenter"",""5"",""14599""
","
","637.9000000059605","","49","","","3000","1","","","images/tutgreenplanet.jpg","images/tutalien1","images/tutalien2","null","images/tutalien2","images/t.png","NA","practice","null","","","",""
"d3-animate-choice","36","201969","0.0-36.0","3387","6462","17","Female","true","true","false","true","""event"",""trial"",""time""
""fullscreenenter"",""5"",""14599""
","
","
","""event"",""trial"",""time""
""fullscreenenter"",""5"",""14599""
","
","614.5999999940395","","49","","","3000","1","","","images/tutgreenplanet.jpg","images/tutalien1","images/tutalien2","null","images/tutalien2","images/t.png","NA","practice","null","","","",""
"d3-animate-choice","37","204434","0.0-37.0","3387","6462","17","Female","true","true","false","true","""event"",""trial"",""time""
""fullscreenenter"",""5"",""14599""
","
","
","""event"",""trial"",""time""
""fullscreenenter"",""5"",""14599""
","
","462.5","","49","","","3000","1","","","images/tutgreenplanet.jpg","images/tutalien1","images/tutalien2","null","images/tutalien2","images/t.png","NA","practice","null","","","",""
"d3-animate-choice","38","206814","0.0-38.0","3387","6462","17","Female","true","true","false","true","""event"",""trial"",""time""
""fullscreenenter"",""5"",""14599""
","
","
","""event"",""trial"",""time""
""fullscreenenter"",""5"",""14599""
","
","374.79999999701977","","49","","","3000","1","","","images/tutgreenplanet.jpg","images/tutalien1","images/tutalien2","null","images/tutalien2","images/t.png","NA","practice","null","","","",""
"d3-animate-choice","39","209306","0.0-39.0","3387","6462","17","Female","true","true","false","true","""event"",""trial"",""time""
""fullscreenenter"",""5"",""14599""
","
","
","""event"",""trial"",""time""
""fullscreenenter"",""5"",""14599""
","
","487.40000000596046","","49","","","3000","1","","","images/tutgreenplanet.jpg","images/tutalien1","images/tutalien2","null","images/tutalien2","images/t.png","NA","practice","null","","","",""
"d3-animate-choice","40","211586","0.0-40.0","3387","6462","17","Female","true","true","false","true","""event"",""trial"",""time""
""fullscreenenter"",""5"",""14599""
","
","
","""event"",""trial"",""time""
""fullscreenenter"",""5"",""14599""
","
","274.6000000014901","","49","","","3000","1","","","images/tutgreenplanet.jpg","images/tutalien1","images/tutalien2","null","images/tutalien2","images/t.png","NA","practice","null","","","",""
"d3-animate-choice","41","213839","0.0-41.0","3387","6462","17","Female","true","true","false","true","""event"",""trial"",""time""
""fullscreenenter"",""5"",""14599""
","
","
","""event"",""trial"",""time""
""fullscreenenter"",""5"",""14599""
","
","249.10000000149012","","49","","","3000","1","","","images/tutgreenplanet.jpg","images/tutalien1","images/tutalien2","null","images/tutalien2","images/t.png","NA","practice","null","","","",""
"d3-animate-choice","42","216110","0.0-42.0","3387","6462","17","Female","true","true","false","true","""event"",""trial"",""time""
""fullscreenenter"",""5"",""14599""
","
","
","""event"",""trial"",""time""
""fullscreenenter"",""5"",""14599""
","
","266.80000000447035","","49","","","3000","1","","","images/tutgreenplanet.jpg","images/tutalien1","images/tutalien2","null","images/tutalien2","images/t.png","NA","practice","null","","","",""
"d3-animate-choice","43","218385","0.0-43.0","3387","6462","17","Female","true","true","false","true","""event"",""trial"",""time""
""fullscreenenter"",""5"",""14599""
","
","
","""event"",""trial"",""time""
""fullscreenenter"",""5"",""14599""
","
","270.29999999701977","","49","","","3000","1","","","images/tutgreenplanet.jpg","images/tutalien1","images/tutalien2","null","images/tutalien2","images/nothing.png","NA","practice","null","","","",""
"d3-instructions","44","230863","0.0-44.0","3387","6462","17","Female","true","true","false","true","""event"",""trial"",""time""
""fullscreenenter"",""5"",""14599""
","
","
","""event"",""trial"",""time""
""fullscreenenter"",""5"",""14599""
","
","","","","","","","","","","","","","","","","","","","","","",""
"d3-instructions","45","236798","0.0-45.0","3387","6462","17","Female","true","true","false","true","""event"",""trial"",""time""
""fullscreenenter"",""5"",""14599""
","
","
","""event"",""trial"",""time""
""fullscreenenter"",""5"",""14599""
","
","","","","","","","","","","","","","","","","","","","","","",""
"d3-instructions","46","241881","0.0-46.0","3387","6462","17","Female","true","true","false","true","""event"",""trial"",""time""
""fullscreenenter"",""5"",""14599""
","
","
","""event"",""trial"",""time""
""fullscreenenter"",""5"",""14599""
","
","","","","","","","","","","","","","","","","","","","","","",""
"d3-instructions","47","258750","0.0-47.0","3387","6462","17","Female","true","true","false","true","""event"",""trial"",""time""
""fullscreenenter"",""5"",""14599""
","
","
","""event"",""trial"",""time""
""fullscreenenter"",""5"",""14599""
","
","","","","","","","","","","","","","","","","","","","","","",""
"d3-instructions","48","268188","0.0-48.0","3387","6462","17","Female","true","true","false","true","""event"",""trial"",""time""
""fullscreenenter"",""5"",""14599""
","
","
","""event"",""trial"",""time""
""fullscreenenter"",""5"",""14599""
","
","","","","","","","","","","","","","","","","","","","","","",""
"d3-instructions","49","278898","0.0-49.0","3387","6462","17","Female","true","true","false","true","""event"",""trial"",""time""
""fullscreenenter"",""5"",""14599""
","
","
","""event"",""trial"",""time""
""fullscreenenter"",""5"",""14599""
","
","","","","","","","","","","","","","","","","","","","","","",""
"d3-instructions","50","287784","0.0-50.0","3387","6462","17","Female","true","true","false","true","""event"",""trial"",""time""
""fullscreenenter"",""5"",""14599""
","
","
","""event"",""trial"",""time""
""fullscreenenter"",""5"",""14599""
","
","","","","","","","","","","","","","","","","","","","","","",""
"d3-instructions","51","290825","0.0-51.0","3387","6462","17","Female","true","true","false","true","""event"",""trial"",""time""
""fullscreenenter"",""5"",""14599""
","
","
","""event"",""trial"",""time""
""fullscreenenter"",""5"",""14599""
","
","","","","","","","","","","","","","","","","","","","","","",""
"d3-instructions","52","293828","0.0-52.0","3387","6462","17","Female","true","true","false","true","""event"",""trial"",""time""
""fullscreenenter"",""5"",""14599""
","
","
","""event"",""trial"",""time""
""fullscreenenter"",""5"",""14599""
","
","","","","","","","","","","","","","","","","","","","","","",""
"d3-instructions","53","305805","0.0-53.0","3387","6462","17","Female","true","true","false","true","""event"",""trial"",""time""
""fullscreenenter"",""5"",""14599""
","
","
","""event"",""trial"",""time""
""fullscreenenter"",""5"",""14599""
","
","","","","","","","","","","","","","","","","","","","","","",""
"d3-instructions","54","318512","0.0-54.0","3387","6462","17","Female","true","true","false","true","""event"",""trial"",""time""
""fullscreenenter"",""5"",""14599""
","
","
","""event"",""trial"",""time""
""fullscreenenter"",""5"",""14599""
","
","","","","","","","","","","","","","","","","","","","","","",""
"d3-instructions","55","330138","0.0-55.0","3387","6462","17","Female","true","true","false","true","""event"",""trial"",""time""
""fullscreenenter"",""5"",""14599""
","
","
","""event"",""trial"",""time""
""fullscreenenter"",""5"",""14599""
","
","","","","","","","","","","","","","","","","","","","","","",""
"d3-instructions","56","338773","0.0-56.0","3387","6462","17","Female","true","true","false","true","""event"",""trial"",""time""
""fullscreenenter"",""5"",""14599""
","
","
","""event"",""trial"",""time""
""fullscreenenter"",""5"",""14599""
","
","","","","","","","","","","","","","","","","","","","","","",""
"d3-instructions","57","348837","0.0-57.0","3387","6462","17","Female","true","true","false","true","""event"",""trial"",""time""
""fullscreenenter"",""5"",""14599""
","
","
","""event"",""trial"",""time""
""fullscreenenter"",""5"",""14599""
","
","","","","","","","","","","","","","","","","","","","","","",""
"d3-instructions","58","360478","0.0-58.0","3387","6462","17","Female","true","true","false","true","""event"",""trial"",""time""
""fullscreenenter"",""5"",""14599""
","
","
","""event"",""trial"",""time""
""fullscreenenter"",""5"",""14599""
","
","","","","","","","","","","","","","","","","","","","","","",""
"d3-instructions","59","367687","0.0-59.0","3387","6462","17","Female","true","true","false","true","""event"",""trial"",""time""
""fullscreenenter"",""5"",""14599""
","
","
","""event"",""trial"",""time""
""fullscreenenter"",""5"",""14599""
","
","","","","","","","","","","","","","","","","","","","","","",""
"d3-instructions","60","373800","0.0-60.0","3387","6462","17","Female","true","true","false","true","""event"",""trial"",""time""
""fullscreenenter"",""5"",""14599""
","
","
","""event"",""trial"",""time""
""fullscreenenter"",""5"",""14599""
","
","","","","","","","","","","","","","","","","","","","","","",""
"d3-animate-choice","61","376827","0.0-61.0-0.0","3387","6462","17","Female","true","true","false","true","""event"",""trial"",""time""
""fullscreenenter"",""5"",""14599""
","
","
","""event"",""trial"",""time""
""fullscreenenter"",""5"",""14599""
","
","1020.5","","49","","","3000","1","","","images/earth.jpg","images/tutrocket2","images/tutrocket1","null","images/tutrocket1","","1","practice","null","1","","",""
"d3-animate-choice","62","380791","0.0-61.0-1.0","3387","6462","17","Female","true","true","false","true","""event"",""trial"",""time""
""fullscreenenter"",""5"",""14599""
","
","
","""event"",""trial"",""time""
""fullscreenenter"",""5"",""14599""
","
","1956.5","","49","","","3000","1","","","images/tutyellowplanet.jpg","images/tutalien4","images/tutalien3","images/tutrocket1","images/tutalien3","images/nothing.png","2","practice","false","1","rare","0","2023-02-24 18:31:27.396"
"two-step-fixation","63","381797","0.0-61.0-2.0","3387","6462","17","Female","true","true","false","true","""event"",""trial"",""time""
""fullscreenenter"",""5"",""14599""
","
","
","""event"",""trial"",""time""
""fullscreenenter"",""5"",""14599""
","
","","images/earth.jpg","","","","","","","","","","","","","","fixation","","","","","",""
"d3-animate-choice","64","385802","0.0-61.0-0.1","3387","6462","17","Female","true","true","false","true","""event"",""trial"",""time""
""fullscreenenter"",""5"",""14599""
","
","
","""event"",""trial"",""time""
""fullscreenenter"",""5"",""14599""
","
","2184","","48","","","3000","1","","","images/earth.jpg","images/tutrocket2","images/tutrocket1","null","images/tutrocket2","","1","practice","null","2","","",""
"d3-animate-choice","65","389326","0.0-61.0-1.1","3387","6462","17","Female","true","true","false","true","""event"",""trial"",""time""
""fullscreenenter"",""5"",""14599""
","
","
","""event"",""trial"",""time""
""fullscreenenter"",""5"",""14599""
","
","1517.6000000014901","","49","","","3000","1","","","images/tutgreenplanet.jpg","images/tutalien2","images/tutalien1","images/tutrocket2","images/tutalien1","images/nothing.png","2","practice","false","1","rare","0","2023-02-24 18:31:35.930"
"two-step-fixation","66","390332","0.0-61.0-2.1","3387","6462","17","Female","true","true","false","true","""event"",""trial"",""time""
""fullscreenenter"",""5"",""14599""
","
","
","""event"",""trial"",""time""
""fullscreenenter"",""5"",""14599""
","
","","images/earth.jpg","","","","","","","","","","","","","","fixation","","","","","",""
"d3-animate-choice","67","394011","0.0-61.0-0.2","3387","6462","17","Female","true","true","false","true","""event"",""trial"",""time""
""fullscreenenter"",""5"",""14599""
","
","
","""event"",""trial"",""time""
""fullscreenenter"",""5"",""14599""
","
","1671.7999999970198","","48","","","3000","1","","","images/earth.jpg","images/tutrocket2","images/tutrocket1","null","images/tutrocket2","","1","practice","null","2","","",""
"d3-animate-choice","68","397201","0.0-61.0-1.2","3387","6462","17","Female","true","true","false","true","""event"",""trial"",""time""
""fullscreenenter"",""5"",""14599""
","
","
","""event"",""trial"",""time""
""fullscreenenter"",""5"",""14599""
","
","1183.8999999985099","","48","","","3000","1","","","images/tutyellowplanet.jpg","images/tutalien4","images/tutalien3","images/tutrocket2","images/tutalien4","images/t.png","2","practice","true","2","common","1","2023-02-24 18:31:43.805"
"two-step-fixation","69","398207","0.0-61.0-2.2","3387","6462","17","Female","true","true","false","true","""event"",""trial"",""time""
""fullscreenenter"",""5"",""14599""
","
","
","""event"",""trial"",""time""
""fullscreenenter"",""5"",""14599""
","
","","images/earth.jpg","","","","","","","","","","","","","","fixation","","","","","",""
"d3-animate-choice","70","401531","0.0-61.0-0.3","3387","6462","17","Female","true","true","false","true","""event"",""trial"",""time""
""fullscreenenter"",""5"",""14599""
","
","
","""event"",""trial"",""time""
""fullscreenenter"",""5"",""14599""
","
","1316.3999999985099","","49","","","3000","1","","","images/earth.jpg","images/tutrocket2","images/tutrocket1","null","images/tutrocket1","","1","practice","null","1","","",""
"d3-animate-choice","71","404442","0.0-61.0-1.3","3387","6462","17","Female","true","true","false","true","""event"",""trial"",""time""
""fullscreenenter"",""5"",""14599""
","
","
","""event"",""trial"",""time""
""fullscreenenter"",""5"",""14599""
","
","904.8000000044703","","49","","","3000","1","","","images/tutgreenplanet.jpg","images/tutalien2","images/tutalien1","images/tutrocket1","images/tutalien1","images/nothing.png","2","practice","true","1","common","0","2023-02-24 18:31:51.046"
"two-step-fixation","72","405444","0.0-61.0-2.3","3387","6462","17","Female","true","true","false","true","""event"",""trial"",""time""
""fullscreenenter"",""5"",""14599""
","
","
","""event"",""trial"",""time""
""fullscreenenter"",""5"",""14599""
","
","","images/earth.jpg","","","","","","","","","","","","","","fixation","","","","","",""
"d3-animate-choice","73","408180","0.0-61.0-0.4","3387","6462","17","Female","true","true","false","true","""event"",""trial"",""time""
""fullscreenenter"",""5"",""14599""
","
","
","""event"",""trial"",""time""
""fullscreenenter"",""5"",""14599""
","
","729.5","","49","","","3000","1","","","images/earth.jpg","images/tutrocket2","images/tutrocket1","null","images/tutrocket1","","1","practice","null","1","","",""
"d3-animate-choice","74","411239","0.0-61.0-1.4","3387","6462","17","Female","true","true","false","true","""event"",""trial"",""time""
""fullscreenenter"",""5"",""14599""
","
","
","""event"",""trial"",""time""
""fullscreenenter"",""5"",""14599""
","
","1052.3000000044703","","48","","","3000","1","","","images/tutgreenplanet.jpg","images/tutalien2","images/tutalien1","images/tutrocket1","images/tutalien2","images/nothing.png","2","practice","true","2","common","0","2023-02-24 18:31:57.843"
"two-step-fixation","75","412243","0.0-61.0-2.4","3387","6462","17","Female","true","true","false","true","""event"",""trial"",""time""
""fullscreenenter"",""5"",""14599""
","
","
","""event"",""trial"",""time""
""fullscreenenter"",""5"",""14599""
","
","","images/earth.jpg","","","","","","","","","","","","","","fixation","","","","","",""
"d3-animate-choice","76","414984","0.0-61.0-0.5","3387","6462","17","Female","true","true","false","true","""event"",""trial"",""time""
""fullscreenenter"",""5"",""14599""
","
","
","""event"",""trial"",""time""
""fullscreenenter"",""5"",""14599""
","
","736.2999999970198","","48","","","3000","1","","","images/earth.jpg","images/tutrocket2","images/tutrocket1","null","images/tutrocket2","","1","practice","null","2","","",""
"d3-animate-choice","77","418042","0.0-61.0-1.5","3387","6462","17","Female","true","true","false","true","""event"",""trial"",""time""
""fullscreenenter"",""5"",""14599""
","
","
","""event"",""trial"",""time""
""fullscreenenter"",""5"",""14599""
","
","1055.1999999955297","","49","","","3000","1","","","images/tutgreenplanet.jpg","images/tutalien2","images/tutalien1","images/tutrocket2","images/tutalien1","images/nothing.png","2","practice","false","1","rare","0","2023-02-24 18:32:04.647"
"two-step-fixation","78","419049","0.0-61.0-2.5","3387","6462","17","Female","true","true","false","true","""event"",""trial"",""time""
""fullscreenenter"",""5"",""14599""
","
","
","""event"",""trial"",""time""
""fullscreenenter"",""5"",""14599""
","
","","images/earth.jpg","","","","","","","","","","","","","","fixation","","","","","",""
"d3-animate-choice","79","421428","0.0-61.0-0.6","3387","6462","17","Female","true","true","false","true","""event"",""trial"",""time""
""fullscreenenter"",""5"",""14599""
","
","
","""event"",""trial"",""time""
""fullscreenenter"",""5"",""14599""
","
","372.70000000298023","","48","","","3000","1","","","images/earth.jpg","images/tutrocket2","images/tutrocket1","null","images/tutrocket2","","1","practice","null","2","","",""
"d3-animate-choice","80","424436","0.0-61.0-1.6","3387","6462","17","Female","true","true","false","true","""event"",""trial"",""time""
""fullscreenenter"",""5"",""14599""
","
","
","""event"",""trial"",""time""
""fullscreenenter"",""5"",""14599""
","
","1005.2000000029802","","49","","","3000","1","","","images/tutyellowplanet.jpg","images/tutalien4","images/tutalien3","images/tutrocket2","images/tutalien3","images/nothing.png","2","practice","true","1","common","0","2023-02-24 18:32:11.040"
"two-step-fixation","81","425442","0.0-61.0-2.6","3387","6462","17","Female","true","true","false","true","""event"",""trial"",""time""
""fullscreenenter"",""5"",""14599""
","
","
","""event"",""trial"",""time""
""fullscreenenter"",""5"",""14599""
","
","","images/earth.jpg","","","","","","","","","","","","","","fixation","","","","","",""
"d3-animate-choice","82","428265","0.0-61.0-0.7","3387","6462","17","Female","true","true","false","true","""event"",""trial"",""time""
""fullscreenenter"",""5"",""14599""
","
","
","""event"",""trial"",""time""
""fullscreenenter"",""5"",""14599""
","
","816","","48","","","3000","1","","","images/earth.jpg","images/tutrocket2","images/tutrocket1","null","images/tutrocket2","","1","practice","null","2","","",""
"d3-animate-choice","83","432015","0.0-61.0-1.7","3387","6462","17","Female","true","true","false","true","""event"",""trial"",""time""
""fullscreenenter"",""5"",""14599""
","
","
","""event"",""trial"",""time""
""fullscreenenter"",""5"",""14599""
","
","1744.6000000014901","","49","","","3000","1","","","images/tutgreenplanet.jpg","images/tutalien2","images/tutalien1","images/tutrocket2","images/tutalien1","images/nothing.png","2","practice","false","1","rare","0","2023-02-24 18:32:18.619"
"two-step-fixation","84","433017","0.0-61.0-2.7","3387","6462","17","Female","true","true","false","true","""event"",""trial"",""time""
""fullscreenenter"",""5"",""14599""
","
","
","""event"",""trial"",""time""
""fullscreenenter"",""5"",""14599""
","
","","images/earth.jpg","","","","","","","","","","","","","","fixation","","","","","",""
"d3-animate-choice","85","435669","0.0-61.0-0.8","3387","6462","17","Female","true","true","false","true","""event"",""trial"",""time""
""fullscreenenter"",""5"",""14599""
","
","
","""event"",""trial"",""time""
""fullscreenenter"",""5"",""14599""
","
","649.2000000029802","","48","","","3000","1","","","images/earth.jpg","images/tutrocket2","images/tutrocket1","null","images/tutrocket2","","1","practice","null","2","","",""
"d3-animate-choice","86","438432","0.0-61.0-1.8","3387","6462","17","Female","true","true","false","true","""event"",""trial"",""time""
""fullscreenenter"",""5"",""14599""
","
","
","""event"",""trial"",""time""
""fullscreenenter"",""5"",""14599""
","
","757.2999999970198","","49","","","3000","1","","","images/tutgreenplanet.jpg","images/tutalien2","images/tutalien1","images/tutrocket2","images/tutalien1","images/nothing.png","2","practice","false","1","rare","0","2023-02-24 18:32:25.037"
"two-step-fixation","87","439437","0.0-61.0-2.8","3387","6462","17","Female","true","true","false","true","""event"",""trial"",""time""
""fullscreenenter"",""5"",""14599""
","
","
","""event"",""trial"",""time""
""fullscreenenter"",""5"",""14599""
","
","","images/earth.jpg","","","","","","","","","","","","","","fixation","","","","","",""
"d3-animate-choice","88","441735","0.0-61.0-0.9","3387","6462","17","Female","true","true","false","true","""event"",""trial"",""time""
""fullscreenenter"",""5"",""14599""
","
","
","""event"",""trial"",""time""
""fullscreenenter"",""5"",""14599""
","
","291.29999999701977","","48","","","3000","1","","","images/earth.jpg","images/tutrocket2","images/tutrocket1","null","images/tutrocket2","","1","practice","null","2","","",""
"d3-animate-choice","89","444071","0.0-61.0-1.9","3387","6462","17","Female","true","true","false","true","""event"",""trial"",""time""
""fullscreenenter"",""5"",""14599""
","
","
","""event"",""trial"",""time""
""fullscreenenter"",""5"",""14599""
","
","330.5","","48","","","3000","1","","","images/tutgreenplanet.jpg","images/tutalien2","images/tutalien1","images/tutrocket2","images/tutalien2","images/t.png","2","practice","false","2","rare","1","2023-02-24 18:32:30.676"
"two-step-fixation","90","445078","0.0-61.0-2.9","3387","6462","17","Female","true","true","false","true","""event"",""trial"",""time""
""fullscreenenter"",""5"",""14599""
","
","
","""event"",""trial"",""time""
""fullscreenenter"",""5"",""14599""
","
","","images/earth.jpg","","","","","","","","","","","","","","fixation","","","","","",""
"d3-animate-choice","91","447653","0.0-61.0-0.10","3387","6462","17","Female","true","true","false","true","""event"",""trial"",""time""
""fullscreenenter"",""5"",""14599""
","
","
","""event"",""trial"",""time""
""fullscreenenter"",""5"",""14599""
","
","569","","48","","","3000","1","","","images/earth.jpg","images/tutrocket2","images/tutrocket1","null","images/tutrocket2","","1","practice","null","2","","",""
"d3-animate-choice","92","451015","0.0-61.0-1.10","3387","6462","17","Female","true","true","false","true","""event"",""trial"",""time""
""fullscreenenter"",""5"",""14599""
","
","
","""event"",""trial"",""time""
""fullscreenenter"",""5"",""14599""
","
","1355.8999999985099","","48","","","3000","1","","","images/tutyellowplanet.jpg","images/tutalien4","images/tutalien3","images/tutrocket2","images/tutalien4","images/t.png","2","practice","true","2","common","1","2023-02-24 18:32:37.619"
"two-step-fixation","93","452018","0.0-61.0-2.10","3387","6462","17","Female","true","true","false","true","""event"",""trial"",""time""
""fullscreenenter"",""5"",""14599""
","
","
","""event"",""trial"",""time""
""fullscreenenter"",""5"",""14599""
","
","","images/earth.jpg","","","","","","","","","","","","","","fixation","","","","","",""
"d3-animate-choice","94","454488","0.0-61.0-0.11","3387","6462","17","Female","true","true","false","true","""event"",""trial"",""time""
""fullscreenenter"",""5"",""14599""
","
","
","""event"",""trial"",""time""
""fullscreenenter"",""5"",""14599""
","
","463.79999999701977","","48","","","3000","1","","","images/earth.jpg","images/tutrocket2","images/tutrocket1","null","images/tutrocket2","","1","practice","null","2","","",""
"d3-animate-choice","95","457213","0.0-61.0-1.11","3387","6462","17","Female","true","true","false","true","""event"",""trial"",""time""
""fullscreenenter"",""5"",""14599""
","
","
","""event"",""trial"",""time""
""fullscreenenter"",""5"",""14599""
","
","720.7000000029802","","48","","","3000","1","","","images/tutyellowplanet.jpg","images/tutalien4","images/tutalien3","images/tutrocket2","images/tutalien4","images/t.png","2","practice","true","2","common","1","2023-02-24 18:32:43.817"
"two-step-fixation","96","458218","0.0-61.0-2.11","3387","6462","17","Female","true","true","false","true","""event"",""trial"",""time""
""fullscreenenter"",""5"",""14599""
","
","
","""event"",""trial"",""time""
""fullscreenenter"",""5"",""14599""
","
","","images/earth.jpg","","","","","","","","","","","","","","fixation","","","","","",""
"d3-animate-choice","97","460546","0.0-61.0-0.12","3387","6462","17","Female","true","true","false","true","""event"",""trial"",""time""
""fullscreenenter"",""5"",""14599""
","
","
","""event"",""trial"",""time""
""fullscreenenter"",""5"",""14599""
","
","324.1000000014901","","48","","","3000","1","","","images/earth.jpg","images/tutrocket2","images/tutrocket1","null","images/tutrocket2","","1","practice","null","2","","",""
"d3-animate-choice","98","462952","0.0-61.0-1.12","3387","6462","17","Female","true","true","false","true","""event"",""trial"",""time""
""fullscreenenter"",""5"",""14599""
","
","
","""event"",""trial"",""time""
""fullscreenenter"",""5"",""14599""
","
","403.1000000014901","","48","","","3000","1","","","images/tutyellowplanet.jpg","images/tutalien4","images/tutalien3","images/tutrocket2","images/tutalien4","images/t.png","2","practice","true","2","common","1","2023-02-24 18:32:49.556"
"two-step-fixation","99","463959","0.0-61.0-2.12","3387","6462","17","Female","true","true","false","true","""event"",""trial"",""time""
""fullscreenenter"",""5"",""14599""
","
","
","""event"",""trial"",""time""
""fullscreenenter"",""5"",""14599""
","
","","images/earth.jpg","","","","","","","","","","","","","","fixation","","","","","",""
"d3-animate-choice","100","466370","0.0-61.0-0.13","3387","6462","17","Female","true","true","false","true","""event"",""trial"",""time""
""fullscreenenter"",""5"",""14599""
","
","
","""event"",""trial"",""time""
""fullscreenenter"",""5"",""14599""
","
","404.09999999403954","","48","","","3000","1","","","images/earth.jpg","images/tutrocket2","images/tutrocket1","null","images/tutrocket2","","1","practice","null","2","","",""
"d3-animate-choice","101","468813","0.0-61.0-1.13","3387","6462","17","Female","true","true","false","true","""event"",""trial"",""time""
""fullscreenenter"",""5"",""14599""
","
","
","""event"",""trial"",""time""
""fullscreenenter"",""5"",""14599""
","
","437.30000000447035","","48","","","3000","1","","","images/tutyellowplanet.jpg","images/tutalien4","images/tutalien3","images/tutrocket2","images/tutalien4","images/t.png","2","practice","true","2","common","1","2023-02-24 18:32:55.417"
"two-step-fixation","102","469818","0.0-61.0-2.13","3387","6462","17","Female","true","true","false","true","""event"",""trial"",""time""
""fullscreenenter"",""5"",""14599""
","
","
","""event"",""trial"",""time""
""fullscreenenter"",""5"",""14599""
","
","","images/earth.jpg","","","","","","","","","","","","","","fixation","","","","","",""
"d3-animate-choice","103","472320","0.0-61.0-0.14","3387","6462","17","Female","true","true","false","true","""event"",""trial"",""time""
""fullscreenenter"",""5"",""14599""
","
","
","""event"",""trial"",""time""
""fullscreenenter"",""5"",""14599""
","
","495.09999999403954","","48","","","3000","1","","","images/earth.jpg","images/tutrocket2","images/tutrocket1","null","images/tutrocket2","","1","practice","null","2","","",""
"d3-animate-choice","104","474853","0.0-61.0-1.14","3387","6462","17","Female","true","true","false","true","""event"",""trial"",""time""
""fullscreenenter"",""5"",""14599""
","
","
","""event"",""trial"",""time""
""fullscreenenter"",""5"",""14599""
","
","528.5","","48","","","3000","1","","","images/tutyellowplanet.jpg","images/tutalien4","images/tutalien3","images/tutrocket2","images/tutalien4","images/t.png","2","practice","true","2","common","1","2023-02-24 18:33:01.458"
"two-step-fixation","105","475859","0.0-61.0-2.14","3387","6462","17","Female","true","true","false","true","""event"",""trial"",""time""
""fullscreenenter"",""5"",""14599""
","
","
","""event"",""trial"",""time""
""fullscreenenter"",""5"",""14599""
","
","","images/earth.jpg","","","","","","","","","","","","","","fixation","","","","","",""
"d3-animate-choice","106","478136","0.0-61.0-0.15","3387","6462","17","Female","true","true","false","true","""event"",""trial"",""time""
""fullscreenenter"",""5"",""14599""
","
","
","""event"",""trial"",""time""
""fullscreenenter"",""5"",""14599""
","
","270.20000000298023","","48","","","3000","1","","","images/earth.jpg","images/tutrocket2","images/tutrocket1","null","images/tutrocket2","","1","practice","null","2","","",""
"d3-animate-choice","107","480531","0.0-61.0-1.15","3387","6462","17","Female","true","true","false","true","""event"",""trial"",""time""
""fullscreenenter"",""5"",""14599""
","
","
","""event"",""trial"",""time""
""fullscreenenter"",""5"",""14599""
","
","391.6000000014901","","48","","","3000","1","","","images/tutyellowplanet.jpg","images/tutalien4","images/tutalien3","images/tutrocket2","images/tutalien4","images/t.png","2","practice","true","2","common","1","2023-02-24 18:33:07.135"
"two-step-fixation","108","481539","0.0-61.0-2.15","3387","6462","17","Female","true","true","false","true","""event"",""trial"",""time""
""fullscreenenter"",""5"",""14599""
","
","
","""event"",""trial"",""time""
""fullscreenenter"",""5"",""14599""
","
","","images/earth.jpg","","","","","","","","","","","","","","fixation","","","","","",""
"d3-animate-choice","109","483908","0.0-61.0-0.16","3387","6462","17","Female","true","true","false","true","""event"",""trial"",""time""
""fullscreenenter"",""5"",""14599""
","
","
","""event"",""trial"",""time""
""fullscreenenter"",""5"",""14599""
","
","362","","48","","","3000","1","","","images/earth.jpg","images/tutrocket2","images/tutrocket1","null","images/tutrocket2","","1","practice","null","2","","",""
"d3-animate-choice","110","486322","0.0-61.0-1.16","3387","6462","17","Female","true","true","false","true","""event"",""trial"",""time""
""fullscreenenter"",""5"",""14599""
","
","
","""event"",""trial"",""time""
""fullscreenenter"",""5"",""14599""
","
","407.69999999552965","","48","","","3000","1","","","images/tutyellowplanet.jpg","images/tutalien4","images/tutalien3","images/tutrocket2","images/tutalien4","images/nothing.png","2","practice","true","2","common","0","2023-02-24 18:33:12.926"
"two-step-fixation","111","487328","0.0-61.0-2.16","3387","6462","17","Female","true","true","false","true","""event"",""trial"",""time""
""fullscreenenter"",""5"",""14599""
","
","
","""event"",""trial"",""time""
""fullscreenenter"",""5"",""14599""
","
","","images/earth.jpg","","","","","","","","","","","","","","fixation","","","","","",""
"d3-animate-choice","112","490649","0.0-61.0-0.17","3387","6462","17","Female","true","true","false","true","""event"",""trial"",""time""
""fullscreenenter"",""5"",""14599""
","
","
","""event"",""trial"",""time""
""fullscreenenter"",""5"",""14599""
","
","1314.9000000059605","","49","","","3000","1","","","images/earth.jpg","images/tutrocket2","images/tutrocket1","null","images/tutrocket1","","1","practice","null","1","","",""
"d3-animate-choice","113","493232","0.0-61.0-1.17","3387","6462","17","Female","true","true","false","true","""event"",""trial"",""time""
""fullscreenenter"",""5"",""14599""
","
","
","""event"",""trial"",""time""
""fullscreenenter"",""5"",""14599""
","
","578.1000000014901","","49","","","3000","1","","","images/tutgreenplanet.jpg","images/tutalien2","images/tutalien1","images/tutrocket1","images/tutalien1","images/t.png","2","practice","true","1","common","1","2023-02-24 18:33:19.836"
"two-step-fixation","114","494238","0.0-61.0-2.17","3387","6462","17","Female","true","true","false","true","""event"",""trial"",""time""
""fullscreenenter"",""5"",""14599""
","
","
","""event"",""trial"",""time""
""fullscreenenter"",""5"",""14599""
","
","","images/earth.jpg","","","","","","","","","","","","","","fixation","","","","","",""
"d3-animate-choice","115","496655","0.0-61.0-0.18","3387","6462","17","Female","true","true","false","true","""event"",""trial"",""time""
""fullscreenenter"",""5"",""14599""
","
","
","""event"",""trial"",""time""
""fullscreenenter"",""5"",""14599""
","
","410.3999999985099","","49","","","3000","1","","","images/earth.jpg","images/tutrocket2","images/tutrocket1","null","images/tutrocket1","","1","practice","null","1","","",""
"d3-animate-choice","116","499258","0.0-61.0-1.18","3387","6462","17","Female","true","true","false","true","""event"",""trial"",""time""
""fullscreenenter"",""5"",""14599""
","
","
","""event"",""trial"",""time""
""fullscreenenter"",""5"",""14599""
","
","597.5","","49","","","3000","1","","","images/tutgreenplanet.jpg","images/tutalien2","images/tutalien1","images/tutrocket1","images/tutalien1","images/nothing.png","2","practice","true","1","common","0","2023-02-24 18:33:25.862"
"two-step-fixation","117","500264","0.0-61.0-2.18","3387","6462","17","Female","true","true","false","true","""event"",""trial"",""time""
""fullscreenenter"",""5"",""14599""
","
","
","""event"",""trial"",""time""
""fullscreenenter"",""5"",""14599""
","
","","images/earth.jpg","","","","","","","","","","","","","","fixation","","","","","",""
"d3-animate-choice","118","502866","0.0-61.0-0.19","3387","6462","17","Female","true","true","false","true","""event"",""trial"",""time""
""fullscreenenter"",""5"",""14599""
","
","
","""event"",""trial"",""time""
""fullscreenenter"",""5"",""14599""
","
","596.6000000014901","","48","","","3000","1","","","images/earth.jpg","images/tutrocket2","images/tutrocket1","null","images/tutrocket2","","1","practice","null","2","","",""
"d3-animate-choice","119","505250","0.0-61.0-1.19","3387","6462","17","Female","true","true","false","true","""event"",""trial"",""time""
""fullscreenenter"",""5"",""14599""
","
","
","""event"",""trial"",""time""
""fullscreenenter"",""5"",""14599""
","
","378.8999999985099","","49","","","3000","1","","","images/tutyellowplanet.jpg","images/tutalien4","images/tutalien3","images/tutrocket2","images/tutalien3","images/nothing.png","2","practice","true","1","common","0","2023-02-24 18:33:31.854"
"two-step-fixation","120","506256","0.0-61.0-2.19","3387","6462","17","Female","true","true","false","true","""event"",""trial"",""time""
""fullscreenenter"",""5"",""14599""
","
","
","""event"",""trial"",""time""
""fullscreenenter"",""5"",""14599""
","
","","images/earth.jpg","","","","","","","","","","","","","","fixation","","","","","",""
"d3-instructions","121","509137","0.0-62.0","3387","6462","17","Female","true","true","false","true","""event"",""trial"",""time""
""fullscreenenter"",""5"",""14599""
","
","
","""event"",""trial"",""time""
""fullscreenenter"",""5"",""14599""
","
","","","","","","","","","","","","","","","","","","","","","",""
"audio-keyboard-response","122","512733","0.0-63.0","3387","6462","17","Female","true","true","false","true","""event"",""trial"",""time""
""fullscreenenter"",""5"",""14599""
","
","
","""event"",""trial"",""time""
""fullscreenenter"",""5"",""14599""
","
","3592","audio/instructions/treasure_feedback.wav","32","","","","","","","","","","","","","","","","","","",""
"d3-instructions","123","531880","0.0-64.0","3387","6462","17","Female","true","true","false","true","""event"",""trial"",""time""
""fullscreenenter"",""5"",""14599""
","
","
","""event"",""trial"",""time""
""fullscreenenter"",""5"",""14599""
","
","","","","","","","","","","","","","","","","","","","","","",""
"d3-instructions","124","545633","0.0-65.0","3387","6462","17","Female","true","true","false","true","""event"",""trial"",""time""
""fullscreenenter"",""5"",""14599""
","
","
","""event"",""trial"",""time""
""fullscreenenter"",""5"",""14599""
","
","","","","","","","","","","","","","","","","","","","","","",""
"d3-instructions","125","572323","0.0-66.0","3387","6462","17","Female","true","true","false","true","""event"",""trial"",""time""
""fullscreenenter"",""5"",""14599""
","
","
","""event"",""trial"",""time""
""fullscreenenter"",""5"",""14599""
","
","","","","","","","","","","","","","","","","","","","","","",""
"d3-instructions","126","588052","0.0-67.0","3387","6462","17","Female","true","true","false","true","""event"",""trial"",""time""
""fullscreenenter"",""5"",""14599""
","
","
","""event"",""trial"",""time""
""fullscreenenter"",""5"",""14599""
","
","","","","","","","","","","","","","","","","","","","","","",""
"d3-instructions","127","597220","0.0-68.0","3387","6462","17","Female","true","true","false","true","""event"",""trial"",""time""
""fullscreenenter"",""5"",""14599""
","
","
","""event"",""trial"",""time""
""fullscreenenter"",""5"",""14599""
","
","","","","","","","","","","","","","","","","","","","","","",""
"instructions-quiz","128","602166","0.0-69.0","3387","6462","17","Female","true","true","false","true","""event"",""trial"",""time""
""fullscreenenter"",""5"",""14599""
","
","
","""event"",""trial"",""time""
""fullscreenenter"",""5"",""14599""
","
","4941.9000000059605","audio/quiz/Q1_Prompt.wav","","1","","","","","","","","","","","","","","","","","",""
"audio-keyboard-response","129","611335","0.0-70.0","3387","6462","17","Female","true","true","false","true","""event"",""trial"",""time""
""fullscreenenter"",""5"",""14599""
","
","
","""event"",""trial"",""time""
""fullscreenenter"",""5"",""14599""
","
","null","audio/quiz/Q1_Correct.wav","null","","","","","","","","","","","","","","","","","","",""
"instructions-quiz","130","614505","0.0-71.0","3387","6462","17","Female","true","true","false","true","""event"",""trial"",""time""
""fullscreenenter"",""5"",""14599""
","
","
","""event"",""trial"",""time""
""fullscreenenter"",""5"",""14599""
","
","3167.2000000029802","audio/quiz/Q2_Prompt.wav","","0","","","","","","","","","","","","","","","","","",""
"audio-keyboard-response","131","627374","0.0-72.0","3387","6462","17","Female","true","true","false","true","""event"",""trial"",""time""
""fullscreenenter"",""5"",""14599""
","
","
","""event"",""trial"",""time""
""fullscreenenter"",""5"",""14599""
","
","null","audio/quiz/Q2_Correct.wav","null","","","","","","","","","","","","","","","","","","",""
"instructions-quiz","132","629983","0.0-73.0","3387","6462","17","Female","true","true","false","true","""event"",""trial"",""time""
""fullscreenenter"",""5"",""14599""
","
","
","""event"",""trial"",""time""
""fullscreenenter"",""5"",""14599""
","
","2608.2000000029802","audio/quiz/Q3_Prompt.wav","","1","","","","","","","","","","","","","","","","","",""
"audio-keyboard-response","133","635784","0.0-74.0","3387","6462","17","Female","true","true","false","true","""event"",""trial"",""time""
""fullscreenenter"",""5"",""14599""
","
","
","""event"",""trial"",""time""
""fullscreenenter"",""5"",""14599""
","
","null","audio/quiz/Q3_Correct.wav","null","","","","","","","","","","","","","","","","","","",""
"d3-instructions","134","639261","0.0-75.0","3387","6462","17","Female","true","true","false","true","""event"",""trial"",""time""
""fullscreenenter"",""5"",""14599""
","
","
","""event"",""trial"",""time""
""fullscreenenter"",""5"",""14599""
","
","","","","","","","","","","","","","","","","","","","","","",""
"pavlovia","135","639271","0.0-76.0","3387","6462","17","Female","true","true","false","true","""event"",""trial"",""time""
""fullscreenenter"",""5"",""14599""
","
","
","""event"",""trial"",""time""
""fullscreenenter"",""5"",""14599""
","
","","","","","","","","","","","","","","","","","","","","","",""
"d3-animate-choice","136","642398","0.0-77.0-0.0","3387","6462","17","Female","true","true","false","true","""event"",""trial"",""time""
""fullscreenenter"",""5"",""14599""
","
","
","""event"",""trial"",""time""
""fullscreenenter"",""5"",""14599""
","
","1121.7000000029802","","49","","","3000","1","","","images/earth.jpg","images/rocket2","images/rocket1","null","images/rocket1","","1","real","null","1","","",""
"d3-animate-choice","137","645261","0.0-77.0-1.0","3387","6462","17","Female","true","true","false","true","""event"",""trial"",""time""
""fullscreenenter"",""5"",""14599""
","
","
","""event"",""trial"",""time""
""fullscreenenter"",""5"",""14599""
","
","857.6000000014901","","49","","","3000","1","","","images/redplanet1.jpg","images/alien2","images/alien1","images/rocket1","images/alien1","images/t.png","2","real","true","1","common","1","2023-02-24 18:35:51.866"
"two-step-fixation","138","646268","0.0-77.0-2.0","3387","6462","17","Female","true","true","false","true","""event"",""trial"",""time""
""fullscreenenter"",""5"",""14599""
","
","
","""event"",""trial"",""time""
""fullscreenenter"",""5"",""14599""
","
","","images/earth.jpg","","","","","","","","","","","","","","fixation","","","","","",""
"d3-animate-choice","139","648721","0.0-77.0-0.1","3387","6462","17","Female","true","true","false","true","""event"",""trial"",""time""
""fullscreenenter"",""5"",""14599""
","
","
","""event"",""trial"",""time""
""fullscreenenter"",""5"",""14599""
","
","446.19999999552965","","49","","","3000","1","","","images/earth.jpg","images/rocket2","images/rocket1","null","images/rocket1","","1","real","null","1","","",""
"d3-animate-choice","140","651268","0.0-77.0-1.1","3387","6462","17","Female","true","true","false","true","""event"",""trial"",""time""
""fullscreenenter"",""5"",""14599""
","
","
","""event"",""trial"",""time""
""fullscreenenter"",""5"",""14599""
","
","541.9000000059605","","49","","","3000","1","","","images/redplanet1.jpg","images/alien2","images/alien1","images/rocket1","images/alien1","images/t.png","2","real","true","1","common","1","2023-02-24 18:35:57.873"
"two-step-fixation","141","652274","0.0-77.0-2.1","3387","6462","17","Female","true","true","false","true","""event"",""trial"",""time""
""fullscreenenter"",""5"",""14599""
","
","
","""event"",""trial"",""time""
""fullscreenenter"",""5"",""14599""
","
","","images/earth.jpg","","","","","","","","","","","","","","fixation","","","","","",""
"d3-animate-choice","142","654672","0.0-77.0-0.2","3387","6462","17","Female","true","true","false","true","""event"",""trial"",""time""
""fullscreenenter"",""5"",""14599""
","
","
","""event"",""trial"",""time""
""fullscreenenter"",""5"",""14599""
","
","391.30000000447035","","49","","","3000","1","","","images/earth.jpg","images/rocket2","images/rocket1","null","images/rocket1","","1","real","null","1","","",""
"d3-animate-choice","143","657263","0.0-77.0-1.2","3387","6462","17","Female","true","true","false","true","""event"",""trial"",""time""
""fullscreenenter"",""5"",""14599""
","
","
","""event"",""trial"",""time""
""fullscreenenter"",""5"",""14599""
","
","586.3999999985099","","49","","","3000","1","","","images/redplanet1.jpg","images/alien2","images/alien1","images/rocket1","images/alien1","images/t.png","2","real","true","1","common","1","2023-02-24 18:36:03.868"
"two-step-fixation","144","658269","0.0-77.0-2.2","3387","6462","17","Female","true","true","false","true","""event"",""trial"",""time""
""fullscreenenter"",""5"",""14599""
","
","
","""event"",""trial"",""time""
""fullscreenenter"",""5"",""14599""
","
","","images/earth.jpg","","","","","","","","","","","","","","fixation","","","","","",""
"d3-animate-choice","145","660548","0.0-77.0-0.3","3387","6462","17","Female","true","true","false","true","""event"",""trial"",""time""
""fullscreenenter"",""5"",""14599""
","
","
","""event"",""trial"",""time""
""fullscreenenter"",""5"",""14599""
","
","273.8999999985099","","49","","","3000","1","","","images/earth.jpg","images/rocket2","images/rocket1","null","images/rocket1","","1","real","null","1","","",""
"d3-animate-choice","146","663731","0.0-77.0-1.3","3387","6462","17","Female","true","true","false","true","""event"",""trial"",""time""
""fullscreenenter"",""5"",""14599""
","
","
","""event"",""trial"",""time""
""fullscreenenter"",""5"",""14599""
","
","1177.3999999985099","","49","","","3000","1","","","images/purpleplanet.jpg","images/alien4","images/alien3","images/rocket1","images/alien3","images/nothing.png","2","real","false","1","rare","0","2023-02-24 18:36:10.335"
"two-step-fixation","147","664737","0.0-77.0-2.3","3387","6462","17","Female","true","true","false","true","""event"",""trial"",""time""
""fullscreenenter"",""5"",""14599""
","
","
","""event"",""trial"",""time""
""fullscreenenter"",""5"",""14599""
","
","","images/earth.jpg","","","","","","","","","","","","","","fixation","","","","","",""
"d3-animate-choice","148","667806","0.0-77.0-0.4","3387","6462","17","Female","true","true","false","true","""event"",""trial"",""time""
""fullscreenenter"",""5"",""14599""
","
","
","""event"",""trial"",""time""
""fullscreenenter"",""5"",""14599""
","
","1062.5999999940395","","49","","","3000","1","","","images/earth.jpg","images/rocket2","images/rocket1","null","images/rocket1","","1","real","null","1","","",""
"d3-animate-choice","149","670929","0.0-77.0-1.4","3387","6462","17","Female","true","true","false","true","""event"",""trial"",""time""
""fullscreenenter"",""5"",""14599""
","
","
","""event"",""trial"",""time""
""fullscreenenter"",""5"",""14599""
","
","1116.7000000029802","","48","","","3000","1","","","images/purpleplanet.jpg","images/alien4","images/alien3","images/rocket1","images/alien4","images/t.png","2","real","false","2","rare","1","2023-02-24 18:36:17.533"
"two-step-fixation","150","671935","0.0-77.0-2.4","3387","6462","17","Female","true","true","false","true","""event"",""trial"",""time""
""fullscreenenter"",""5"",""14599""
","
","
","""event"",""trial"",""time""
""fullscreenenter"",""5"",""14599""
","
","","images/earth.jpg","","","","","","","","","","","","","","fixation","","","","","",""
"d3-animate-choice","151","674305","0.0-77.0-0.5","3387","6462","17","Female","true","true","false","true","""event"",""trial"",""time""
""fullscreenenter"",""5"",""14599""
","
","
","""event"",""trial"",""time""
""fullscreenenter"",""5"",""14599""
","
","363.80000000447035","","49","","","3000","1","","","images/earth.jpg","images/rocket2","images/rocket1","null","images/rocket1","","1","real","null","1","","",""
"d3-animate-choice","152","676920","0.0-77.0-1.5","3387","6462","17","Female","true","true","false","true","""event"",""trial"",""time""
""fullscreenenter"",""5"",""14599""
","
","
","""event"",""trial"",""time""
""fullscreenenter"",""5"",""14599""
","
","612.2000000029802","","48","","","3000","1","","","images/purpleplanet.jpg","images/alien4","images/alien3","images/rocket1","images/alien4","images/t.png","2","real","false","2","rare","1","2023-02-24 18:36:23.524"
"two-step-fixation","153","677922","0.0-77.0-2.5","3387","6462","17","Female","true","true","false","true","""event"",""trial"",""time""
""fullscreenenter"",""5"",""14599""
","
","
","""event"",""trial"",""time""
""fullscreenenter"",""5"",""14599""
","
","","images/earth.jpg","","","","","","","","","","","","","","fixation","","","","","",""
"d3-animate-choice","154","680235","0.0-77.0-0.6","3387","6462","17","Female","true","true","false","true","""event"",""trial"",""time""
""fullscreenenter"",""5"",""14599""
","
","
","""event"",""trial"",""time""
""fullscreenenter"",""5"",""14599""
","
","309.5","","49","","","3000","1","","","images/earth.jpg","images/rocket2","images/rocket1","null","images/rocket1","","1","real","null","1","","",""
"d3-animate-choice","155","682882","0.0-77.0-1.6","3387","6462","17","Female","true","true","false","true","""event"",""trial"",""time""
""fullscreenenter"",""5"",""14599""
","
","
","""event"",""trial"",""time""
""fullscreenenter"",""5"",""14599""
","
","641.1999999955297","","49","","","3000","1","","","images/redplanet1.jpg","images/alien2","images/alien1","images/rocket1","images/alien1","images/t.png","2","real","true","1","common","1","2023-02-24 18:36:29.486"
"two-step-fixation","156","683887","0.0-77.0-2.6","3387","6462","17","Female","true","true","false","true","""event"",""trial"",""time""
""fullscreenenter"",""5"",""14599""
","
","
","""event"",""trial"",""time""
""fullscreenenter"",""5"",""14599""
","
","","images/earth.jpg","","","","","","","","","","","","","","fixation","","","","","",""
"d3-animate-choice","157","686216","0.0-77.0-0.7","3387","6462","17","Female","true","true","false","true","""event"",""trial"",""time""
""fullscreenenter"",""5"",""14599""
","
","
","""event"",""trial"",""time""
""fullscreenenter"",""5"",""14599""
","
","321.80000000447035","","49","","","3000","1","","","images/earth.jpg","images/rocket2","images/rocket1","null","images/rocket1","","1","real","null","1","","",""
"d3-animate-choice","158","689003","0.0-77.0-1.7","3387","6462","17","Female","true","true","false","true","""event"",""trial"",""time""
""fullscreenenter"",""5"",""14599""
","
","
","""event"",""trial"",""time""
""fullscreenenter"",""5"",""14599""
","
","781.3999999985099","","49","","","3000","1","","","images/redplanet1.jpg","images/alien2","images/alien1","images/rocket1","images/alien1","images/t.png","2","real","true","1","common","1","2023-02-24 18:36:35.608"
"two-step-fixation","159","690009","0.0-77.0-2.7","3387","6462","17","Female","true","true","false","true","""event"",""trial"",""time""
""fullscreenenter"",""5"",""14599""
","
","
","""event"",""trial"",""time""
""fullscreenenter"",""5"",""14599""
","
","","images/earth.jpg","","","","","","","","","","","","","","fixation","","","","","",""
"d3-animate-choice","160","692334","0.0-77.0-0.8","3387","6462","17","Female","true","true","false","true","""event"",""trial"",""time""
""fullscreenenter"",""5"",""14599""
","
","
","""event"",""trial"",""time""
""fullscreenenter"",""5"",""14599""
","
","318.3999999985099","","49","","","3000","1","","","images/earth.jpg","images/rocket2","images/rocket1","null","images/rocket1","","1","real","null","1","","",""
"d3-animate-choice","161","694812","0.0-77.0-1.8","3387","6462","17","Female","true","true","false","true","""event"",""trial"",""time""
""fullscreenenter"",""5"",""14599""
","
","
","""event"",""trial"",""time""
""fullscreenenter"",""5"",""14599""
","
","472.79999999701977","","49","","","3000","1","","","images/redplanet1.jpg","images/alien2","images/alien1","images/rocket1","images/alien1","images/t.png","2","real","true","1","common","1","2023-02-24 18:36:41.417"
"two-step-fixation","162","695815","0.0-77.0-2.8","3387","6462","17","Female","true","true","false","true","""event"",""trial"",""time""
""fullscreenenter"",""5"",""14599""
","
","
","""event"",""trial"",""time""
""fullscreenenter"",""5"",""14599""
","
","","images/earth.jpg","","","","","","","","","","","","","","fixation","","","","","",""
"d3-animate-choice","163","698105","0.0-77.0-0.9","3387","6462","17","Female","true","true","false","true","""event"",""trial"",""time""
""fullscreenenter"",""5"",""14599""
","
","
","""event"",""trial"",""time""
""fullscreenenter"",""5"",""14599""
","
","284.59999999403954","","49","","","3000","1","","","images/earth.jpg","images/rocket2","images/rocket1","null","images/rocket1","","1","real","null","1","","",""
"d3-animate-choice","164","700577","0.0-77.0-1.9","3387","6462","17","Female","true","true","false","true","""event"",""trial"",""time""
""fullscreenenter"",""5"",""14599""
","
","
","""event"",""trial"",""time""
""fullscreenenter"",""5"",""14599""
","
","465.5","","49","","","3000","1","","","images/redplanet1.jpg","images/alien2","images/alien1","images/rocket1","images/alien1","images/t.png","2","real","true","1","common","1","2023-02-24 18:36:47.181"
"two-step-fixation","165","701583","0.0-77.0-2.9","3387","6462","17","Female","true","true","false","true","""event"",""trial"",""time""
""fullscreenenter"",""5"",""14599""
","
","
","""event"",""trial"",""time""
""fullscreenenter"",""5"",""14599""
","
","","images/earth.jpg","","","","","","","","","","","","","","fixation","","","","","",""
"d3-animate-choice","166","703855","0.0-77.0-0.10","3387","6462","17","Female","true","true","false","true","""event"",""trial"",""time""
""fullscreenenter"",""5"",""14599""
","
","
","""event"",""trial"",""time""
""fullscreenenter"",""5"",""14599""
","
","266.09999999403954","","49","","","3000","1","","","images/earth.jpg","images/rocket2","images/rocket1","null","images/rocket1","","1","real","null","1","","",""
"d3-animate-choice","167","706517","0.0-77.0-1.10","3387","6462","17","Female","true","true","false","true","""event"",""trial"",""time""
""fullscreenenter"",""5"",""14599""
","
","
","""event"",""trial"",""time""
""fullscreenenter"",""5"",""14599""
","
","656","","48","","","3000","1","","","images/purpleplanet.jpg","images/alien4","images/alien3","images/rocket1","images/alien4","images/nothing.png","2","real","false","2","rare","0","2023-02-24 18:36:53.121"
"two-step-fixation","168","707520","0.0-77.0-2.10","3387","6462","17","Female","true","true","false","true","""event"",""trial"",""time""
""fullscreenenter"",""5"",""14599""
","
","
","""event"",""trial"",""time""
""fullscreenenter"",""5"",""14599""
","
","","images/earth.jpg","","","","","","","","","","","","","","fixation","","","","","",""
"d3-animate-choice","169","710452","0.0-77.0-0.11","3387","6462","17","Female","true","true","false","true","""event"",""trial"",""time""
""fullscreenenter"",""5"",""14599""
","
","
","""event"",""trial"",""time""
""fullscreenenter"",""5"",""14599""
","
","928.1000000014901","","49","","","3000","1","","","images/earth.jpg","images/rocket2","images/rocket1","null","images/rocket1","","1","real","null","1","","",""
"d3-animate-choice","170","713000","0.0-77.0-1.11","3387","6462","17","Female","true","true","false","true","""event"",""trial"",""time""
""fullscreenenter"",""5"",""14599""
","
","
","""event"",""trial"",""time""
""fullscreenenter"",""5"",""14599""
","
","542.3999999985099","","49","","","3000","1","","","images/redplanet1.jpg","images/alien2","images/alien1","images/rocket1","images/alien1","images/t.png","2","real","true","1","common","1","2023-02-24 18:36:59.604"
"two-step-fixation","171","714006","0.0-77.0-2.11","3387","6462","17","Female","true","true","false","true","""event"",""trial"",""time""
""fullscreenenter"",""5"",""14599""
","
","
","""event"",""trial"",""time""
""fullscreenenter"",""5"",""14599""
","
","","images/earth.jpg","","","","","","","","","","","","","","fixation","","","","","",""
"d3-animate-choice","172","716285","0.0-77.0-0.12","3387","6462","17","Female","true","true","false","true","""event"",""trial"",""time""
""fullscreenenter"",""5"",""14599""
","
","
","""event"",""trial"",""time""
""fullscreenenter"",""5"",""14599""
","
","274.6000000014901","","49","","","3000","1","","","images/earth.jpg","images/rocket2","images/rocket1","null","images/rocket1","","1","real","null","1","","",""
"d3-animate-choice","173","718930","0.0-77.0-1.12","3387","6462","17","Female","true","true","false","true","""event"",""trial"",""time""
""fullscreenenter"",""5"",""14599""
","
","
","""event"",""trial"",""time""
""fullscreenenter"",""5"",""14599""
","
","641.1000000014901","","49","","","3000","1","","","images/redplanet1.jpg","images/alien2","images/alien1","images/rocket1","images/alien1","images/t.png","2","real","true","1","common","1","2023-02-24 18:37:05.534"
"two-step-fixation","174","719936","0.0-77.0-2.12","3387","6462","17","Female","true","true","false","true","""event"",""trial"",""time""
""fullscreenenter"",""5"",""14599""
","
","
","""event"",""trial"",""time""
""fullscreenenter"",""5"",""14599""
","
","","images/earth.jpg","","","","","","","","","","","","","","fixation","","","","","",""
"d3-animate-choice","175","722228","0.0-77.0-0.13","3387","6462","17","Female","true","true","false","true","""event"",""trial"",""time""
""fullscreenenter"",""5"",""14599""
","
","
","""event"",""trial"",""time""
""fullscreenenter"",""5"",""14599""
","
","285.29999999701977","","49","","","3000","1","","","images/earth.jpg","images/rocket2","images/rocket1","null","images/rocket1","","1","real","null","1","","",""
"d3-animate-choice","176","725190","0.0-77.0-1.13","3387","6462","17","Female","true","true","false","true","""event"",""trial"",""time""
""fullscreenenter"",""5"",""14599""
","
","
","""event"",""trial"",""time""
""fullscreenenter"",""5"",""14599""
","
","956.6000000014901","","49","","","3000","1","","","images/purpleplanet.jpg","images/alien4","images/alien3","images/rocket1","images/alien3","images/t.png","2","real","false","1","rare","1","2023-02-24 18:37:11.794"
"two-step-fixation","177","726196","0.0-77.0-2.13","3387","6462","17","Female","true","true","false","true","""event"",""trial"",""time""
""fullscreenenter"",""5"",""14599""
","
","
","""event"",""trial"",""time""
""fullscreenenter"",""5"",""14599""
","
","","images/earth.jpg","","","","","","","","","","","","","","fixation","","","","","",""
"d3-animate-choice","178","728477","0.0-77.0-0.14","3387","6462","17","Female","true","true","false","true","""event"",""trial"",""time""
""fullscreenenter"",""5"",""14599""
","
","
","""event"",""trial"",""time""
""fullscreenenter"",""5"",""14599""
","
","274","","49","","","3000","1","","","images/earth.jpg","images/rocket2","images/rocket1","null","images/rocket1","","1","real","null","1","","",""
"d3-animate-choice","179","731435","0.0-77.0-1.14","3387","6462","17","Female","true","true","false","true","""event"",""trial"",""time""
""fullscreenenter"",""5"",""14599""
","
","
","""event"",""trial"",""time""
""fullscreenenter"",""5"",""14599""
","
","953.1000000014901","","49","","","3000","1","","","images/purpleplanet.jpg","images/alien4","images/alien3","images/rocket1","images/alien3","images/nothing.png","2","real","false","1","rare","0","2023-02-24 18:37:18.039"
"two-step-fixation","180","732441","0.0-77.0-2.14","3387","6462","17","Female","true","true","false","true","""event"",""trial"",""time""
""fullscreenenter"",""5"",""14599""
","
","
","""event"",""trial"",""time""
""fullscreenenter"",""5"",""14599""
","
","","images/earth.jpg","","","","","","","","","","","","","","fixation","","","","","",""
"d3-animate-choice","181","735091","0.0-77.0-0.15","3387","6462","17","Female","true","true","false","true","""event"",""trial"",""time""
""fullscreenenter"",""5"",""14599""
","
","
","""event"",""trial"",""time""
""fullscreenenter"",""5"",""14599""
","
","646.5999999940395","","49","","","3000","1","","","images/earth.jpg","images/rocket2","images/rocket1","null","images/rocket1","","1","real","null","1","","",""
"d3-animate-choice","182","737954","0.0-77.0-1.15","3387","6462","17","Female","true","true","false","true","""event"",""trial"",""time""
""fullscreenenter"",""5"",""14599""
","
","
","""event"",""trial"",""time""
""fullscreenenter"",""5"",""14599""
","
","857.5","","49","","","3000","1","","","images/redplanet1.jpg","images/alien2","images/alien1","images/rocket1","images/alien1","images/nothing.png","2","real","true","1","common","0","2023-02-24 18:37:24.559"
"two-step-fixation","183","738960","0.0-77.0-2.15","3387","6462","17","Female","true","true","false","true","""event"",""trial"",""time""
""fullscreenenter"",""5"",""14599""
","
","
","""event"",""trial"",""time""
""fullscreenenter"",""5"",""14599""
","
","","images/earth.jpg","","","","","","","","","","","","","","fixation","","","","","",""
"d3-animate-choice","184","742219","0.0-77.0-0.16","3387","6462","17","Female","true","true","false","true","""event"",""trial"",""time""
""fullscreenenter"",""5"",""14599""
","
","
","""event"",""trial"",""time""
""fullscreenenter"",""5"",""14599""
","
","1256.2000000029802","","48","","","3000","1","","","images/earth.jpg","images/rocket2","images/rocket1","null","images/rocket2","","1","real","null","2","","",""
"d3-animate-choice","185","744943","0.0-77.0-1.16","3387","6462","17","Female","true","true","false","true","""event"",""trial"",""time""
""fullscreenenter"",""5"",""14599""
","
","
","""event"",""trial"",""time""
""fullscreenenter"",""5"",""14599""
","
","720.8999999985099","","49","","","3000","1","","","images/redplanet1.jpg","images/alien2","images/alien1","images/rocket2","images/alien1","images/nothing.png","2","real","false","1","rare","0","2023-02-24 18:37:31.547"
"two-step-fixation","186","745949","0.0-77.0-2.16","3387","6462","17","Female","true","true","false","true","""event"",""trial"",""time""
""fullscreenenter"",""5"",""14599""
","
","
","""event"",""trial"",""time""
""fullscreenenter"",""5"",""14599""
","
","","images/earth.jpg","","","","","","","","","","","","","","fixation","","","","","",""
"d3-animate-choice","187","748262","0.0-77.0-0.17","3387","6462","17","Female","true","true","false","true","""event"",""trial"",""time""
""fullscreenenter"",""5"",""14599""
","
","
","""event"",""trial"",""time""
""fullscreenenter"",""5"",""14599""
","
","307.40000000596046","","49","","","3000","1","","","images/earth.jpg","images/rocket2","images/rocket1","null","images/rocket1","","1","real","null","1","","",""
"d3-animate-choice","188","751284","0.0-77.0-1.17","3387","6462","17","Female","true","true","false","true","""event"",""trial"",""time""
""fullscreenenter"",""5"",""14599""
","
","
","""event"",""trial"",""time""
""fullscreenenter"",""5"",""14599""
","
","1015.2999999970198","","48","","","3000","1","","","images/redplanet1.jpg","images/alien2","images/alien1","images/rocket1","images/alien2","images/nothing.png","2","real","true","2","common","0","2023-02-24 18:37:37.888"
"two-step-fixation","189","752289","0.0-77.0-2.17","3387","6462","17","Female","true","true","false","true","""event"",""trial"",""time""
""fullscreenenter"",""5"",""14599""
","
","
","""event"",""trial"",""time""
""fullscreenenter"",""5"",""14599""
","
","","images/earth.jpg","","","","","","","","","","","","","","fixation","","","","","",""
"d3-animate-choice","190","754632","0.0-77.0-0.18","3387","6462","17","Female","true","true","false","true","""event"",""trial"",""time""
""fullscreenenter"",""5"",""14599""
","
","
","""event"",""trial"",""time""
""fullscreenenter"",""5"",""14599""
","
","337.20000000298023","","49","","","3000","1","","","images/earth.jpg","images/rocket2","images/rocket1","null","images/rocket1","","1","real","null","1","","",""
"d3-animate-choice","191","758313","0.0-77.0-1.18","3387","6462","17","Female","true","true","false","true","""event"",""trial"",""time""
""fullscreenenter"",""5"",""14599""
","
","
","""event"",""trial"",""time""
""fullscreenenter"",""5"",""14599""
","
","1676.3999999985099","","49","","","3000","1","","","images/purpleplanet.jpg","images/alien4","images/alien3","images/rocket1","images/alien3","images/nothing.png","2","real","false","1","rare","0","2023-02-24 18:37:44.918"
"two-step-fixation","192","759319","0.0-77.0-2.18","3387","6462","17","Female","true","true","false","true","""event"",""trial"",""time""
""fullscreenenter"",""5"",""14599""
","
","
","""event"",""trial"",""time""
""fullscreenenter"",""5"",""14599""
","
","","images/earth.jpg","","","","","","","","","","","","","","fixation","","","","","",""
"d3-animate-choice","193","761579","0.0-77.0-0.19","3387","6462","17","Female","true","true","false","true","""event"",""trial"",""time""
""fullscreenenter"",""5"",""14599""
","
","
","""event"",""trial"",""time""
""fullscreenenter"",""5"",""14599""
","
","252.59999999403954","","49","","","3000","1","","","images/earth.jpg","images/rocket2","images/rocket1","null","images/rocket1","","1","real","null","1","","",""
"d3-animate-choice","194","765146","0.0-77.0-1.19","3387","6462","17","Female","true","true","false","true","""event"",""trial"",""time""
""fullscreenenter"",""5"",""14599""
","
","
","""event"",""trial"",""time""
""fullscreenenter"",""5"",""14599""
","
","1565.2999999970198","","49","","","3000","1","","","images/redplanet1.jpg","images/alien2","images/alien1","images/rocket1","images/alien1","images/nothing.png","2","real","true","1","common","0","2023-02-24 18:37:51.750"
"two-step-fixation","195","766149","0.0-77.0-2.19","3387","6462","17","Female","true","true","false","true","""event"",""trial"",""time""
""fullscreenenter"",""5"",""14599""
","
","
","""event"",""trial"",""time""
""fullscreenenter"",""5"",""14599""
","
","","images/earth.jpg","","","","","","","","","","","","","","fixation","","","","","",""
"d3-animate-choice","196","768429","0.0-77.0-0.20","3387","6462","17","Female","true","true","false","true","""event"",""trial"",""time""
""fullscreenenter"",""5"",""14599""
","
","
","""event"",""trial"",""time""
""fullscreenenter"",""5"",""14599""
","
","272.79999999701977","","49","","","3000","1","","","images/earth.jpg","images/rocket2","images/rocket1","null","images/rocket1","","1","real","null","1","","",""
"d3-animate-choice","197","771283","0.0-77.0-1.20","3387","6462","17","Female","true","true","false","true","""event"",""trial"",""time""
""fullscreenenter"",""5"",""14599""
","
","
","""event"",""trial"",""time""
""fullscreenenter"",""5"",""14599""
","
","849.7999999970198","","48","","","3000","1","","","images/redplanet1.jpg","images/alien2","images/alien1","images/rocket1","images/alien2","images/nothing.png","2","real","true","2","common","0","2023-02-24 18:37:57.887"
"two-step-fixation","198","772289","0.0-77.0-2.20","3387","6462","17","Female","true","true","false","true","""event"",""trial"",""time""
""fullscreenenter"",""5"",""14599""
","
","
","""event"",""trial"",""time""
""fullscreenenter"",""5"",""14599""
","
","","images/earth.jpg","","","","","","","","","","","","","","fixation","","","","","",""
"d3-animate-choice","199","775013","0.0-77.0-0.21","3387","6462","17","Female","true","true","false","true","""event"",""trial"",""time""
""fullscreenenter"",""5"",""14599""
","
","
","""event"",""trial"",""time""
""fullscreenenter"",""5"",""14599""
","
","718.2999999970198","","49","","","3000","1","","","images/earth.jpg","images/rocket2","images/rocket1","null","images/rocket1","","1","real","null","1","","",""
"d3-animate-choice","200","777695","0.0-77.0-1.21","3387","6462","17","Female","true","true","false","true","""event"",""trial"",""time""
""fullscreenenter"",""5"",""14599""
","
","
","""event"",""trial"",""time""
""fullscreenenter"",""5"",""14599""
","
","680.2000000029802","","49","","","3000","1","","","images/redplanet1.jpg","images/alien2","images/alien1","images/rocket1","images/alien1","images/t.png","2","real","true","1","common","1","2023-02-24 18:38:04.300"
"two-step-fixation","201","778700","0.0-77.0-2.21","3387","6462","17","Female","true","true","false","true","""event"",""trial"",""time""
""fullscreenenter"",""5"",""14599""
","
","
","""event"",""trial"",""time""
""fullscreenenter"",""5"",""14599""
","
","","images/earth.jpg","","","","","","","","","","","","","","fixation","","","","","",""
"d3-animate-choice","202","781053","0.0-77.0-0.22","3387","6462","17","Female","true","true","false","true","""event"",""trial"",""time""
""fullscreenenter"",""5"",""14599""
","
","
","""event"",""trial"",""time""
""fullscreenenter"",""5"",""14599""
","
","346.5","","49","","","3000","1","","","images/earth.jpg","images/rocket2","images/rocket1","null","images/rocket1","","1","real","null","1","","",""
"d3-animate-choice","203","783517","0.0-77.0-1.22","3387","6462","17","Female","true","true","false","true","""event"",""trial"",""time""
""fullscreenenter"",""5"",""14599""
","
","
","""event"",""trial"",""time""
""fullscreenenter"",""5"",""14599""
","
","458.69999999552965","","49","","","3000","1","","","images/redplanet1.jpg","images/alien2","images/alien1","images/rocket1","images/alien1","images/nothing.png","2","real","true","1","common","0","2023-02-24 18:38:10.121"
"two-step-fixation","204","784519","0.0-77.0-2.22","3387","6462","17","Female","true","true","false","true","""event"",""trial"",""time""
""fullscreenenter"",""5"",""14599""
","
","
","""event"",""trial"",""time""
""fullscreenenter"",""5"",""14599""
","
","","images/earth.jpg","","","","","","","","","","","","","","fixation","","","","","",""
"d3-animate-choice","205","786769","0.0-77.0-0.23","3387","6462","17","Female","true","true","false","true","""event"",""trial"",""time""
""fullscreenenter"",""5"",""14599""
","
","
","""event"",""trial"",""time""
""fullscreenenter"",""5"",""14599""
","
","246.10000000149012","","49","","","3000","1","","","images/earth.jpg","images/rocket2","images/rocket1","null","images/rocket1","","1","real","null","1","","",""
"d3-animate-choice","206","789473","0.0-77.0-1.23","3387","6462","17","Female","true","true","false","true","""event"",""trial"",""time""
""fullscreenenter"",""5"",""14599""
","
","
","""event"",""trial"",""time""
""fullscreenenter"",""5"",""14599""
","
","698.3999999985099","","49","","","3000","1","","","images/redplanet1.jpg","images/alien2","images/alien1","images/rocket1","images/alien1","images/t.png","2","real","true","1","common","1","2023-02-24 18:38:16.077"
"two-step-fixation","207","790480","0.0-77.0-2.23","3387","6462","17","Female","true","true","false","true","""event"",""trial"",""time""
""fullscreenenter"",""5"",""14599""
","
","
","""event"",""trial"",""time""
""fullscreenenter"",""5"",""14599""
","
","","images/earth.jpg","","","","","","","","","","","","","","fixation","","","","","",""
"d3-animate-choice","208","792727","0.0-77.0-0.24","3387","6462","17","Female","true","true","false","true","""event"",""trial"",""time""
""fullscreenenter"",""5"",""14599""
","
","
","""event"",""trial"",""time""
""fullscreenenter"",""5"",""14599""
","
","239.10000000149012","","49","","","3000","1","","","images/earth.jpg","images/rocket2","images/rocket1","null","images/rocket1","","1","real","null","1","","",""
"d3-animate-choice","209","795989","0.0-77.0-1.24","3387","6462","17","Female","true","true","false","true","""event"",""trial"",""time""
""fullscreenenter"",""5"",""14599""
","
","
","""event"",""trial"",""time""
""fullscreenenter"",""5"",""14599""
","
","1257.9000000059605","","49","","","3000","1","","","images/redplanet1.jpg","images/alien2","images/alien1","images/rocket1","images/alien1","images/nothing.png","2","real","true","1","common","0","2023-02-24 18:38:22.593"
"two-step-fixation","210","796992","0.0-77.0-2.24","3387","6462","17","Female","true","true","false","true","""event"",""trial"",""time""
""fullscreenenter"",""5"",""14599""
","
","
","""event"",""trial"",""time""
""fullscreenenter"",""5"",""14599""
","
","","images/earth.jpg","","","","","","","","","","","","","","fixation","","","","","",""
"d3-animate-choice","211","799802","0.0-77.0-0.25","3387","6462","17","Female","true","true","false","true","""event"",""trial"",""time""
""fullscreenenter"",""5"",""14599""
","
","
","""event"",""trial"",""time""
""fullscreenenter"",""5"",""14599""
","
","804.2999999970198","","49","","","3000","1","","","images/earth.jpg","images/rocket2","images/rocket1","null","images/rocket1","","1","real","null","1","","",""
"d3-animate-choice","212","802768","0.0-77.0-1.25","3387","6462","17","Female","true","true","false","true","""event"",""trial"",""time""
""fullscreenenter"",""5"",""14599""
","
","
","""event"",""trial"",""time""
""fullscreenenter"",""5"",""14599""
","
","960.6999999955297","","49","","","3000","1","","","images/redplanet1.jpg","images/alien2","images/alien1","images/rocket1","images/alien1","images/t.png","2","real","true","1","common","1","2023-02-24 18:38:29.372"
"two-step-fixation","213","803774","0.0-77.0-2.25","3387","6462","17","Female","true","true","false","true","""event"",""trial"",""time""
""fullscreenenter"",""5"",""14599""
","
","
","""event"",""trial"",""time""
""fullscreenenter"",""5"",""14599""
","
","","images/earth.jpg","","","","","","","","","","","","","","fixation","","","","","",""
"d3-animate-choice","214","806105","0.0-77.0-0.26","3387","6462","17","Female","true","true","false","true","""event"",""trial"",""time""
""fullscreenenter"",""5"",""14599""
","
","
","""event"",""trial"",""time""
""fullscreenenter"",""5"",""14599""
","
","325.5","","49","","","3000","1","","","images/earth.jpg","images/rocket2","images/rocket1","null","images/rocket1","","1","real","null","1","","",""
"d3-animate-choice","215","808772","0.0-77.0-1.26","3387","6462","17","Female","true","true","false","true","""event"",""trial"",""time""
""fullscreenenter"",""5"",""14599""
","
","
","""event"",""trial"",""time""
""fullscreenenter"",""5"",""14599""
","
","661.7000000029802","","49","","","3000","1","","","images/redplanet1.jpg","images/alien2","images/alien1","images/rocket1","images/alien1","images/t.png","2","real","true","1","common","1","2023-02-24 18:38:35.376"
"two-step-fixation","216","809778","0.0-77.0-2.26","3387","6462","17","Female","true","true","false","true","""event"",""trial"",""time""
""fullscreenenter"",""5"",""14599""
","
","
","""event"",""trial"",""time""
""fullscreenenter"",""5"",""14599""
","
","","images/earth.jpg","","","","","","","","","","","","","","fixation","","","","","",""
"d3-animate-choice","217","812259","0.0-77.0-0.27","3387","6462","17","Female","true","true","false","true","""event"",""trial"",""time""
""fullscreenenter"",""5"",""14599""
","
","
","""event"",""trial"",""time""
""fullscreenenter"",""5"",""14599""
","
","474.19999999552965","","49","","","3000","1","","","images/earth.jpg","images/rocket2","images/rocket1","null","images/rocket1","","1","real","null","1","","",""
"d3-animate-choice","218","815438","0.0-77.0-1.27","3387","6462","17","Female","true","true","false","true","""event"",""trial"",""time""
""fullscreenenter"",""5"",""14599""
","
","
","""event"",""trial"",""time""
""fullscreenenter"",""5"",""14599""
","
","1173.6000000014901","","48","","","3000","1","","","images/purpleplanet.jpg","images/alien4","images/alien3","images/rocket1","images/alien4","images/t.png","2","real","false","2","rare","1","2023-02-24 18:38:42.042"
"two-step-fixation","219","816444","0.0-77.0-2.27","3387","6462","17","Female","true","true","false","true","""event"",""trial"",""time""
""fullscreenenter"",""5"",""14599""
","
","
","""event"",""trial"",""time""
""fullscreenenter"",""5"",""14599""
","
","","images/earth.jpg","","","","","","","","","","","","","","fixation","","","","","",""
"d3-animate-choice","220","818784","0.0-77.0-0.28","3387","6462","17","Female","true","true","false","true","""event"",""trial"",""time""
""fullscreenenter"",""5"",""14599""
","
","
","""event"",""trial"",""time""
""fullscreenenter"",""5"",""14599""
","
","333.3999999985099","","49","","","3000","1","","","images/earth.jpg","images/rocket2","images/rocket1","null","images/rocket1","","1","real","null","1","","",""
"d3-animate-choice","221","821338","0.0-77.0-1.28","3387","6462","17","Female","true","true","false","true","""event"",""trial"",""time""
""fullscreenenter"",""5"",""14599""
","
","
","""event"",""trial"",""time""
""fullscreenenter"",""5"",""14599""
","
","548.8000000044703","","48","","","3000","1","","","images/purpleplanet.jpg","images/alien4","images/alien3","images/rocket1","images/alien4","images/nothing.png","2","real","false","2","rare","0","2023-02-24 18:38:47.942"
"two-step-fixation","222","822343","0.0-77.0-2.28","3387","6462","17","Female","true","true","false","true","""event"",""trial"",""time""
""fullscreenenter"",""5"",""14599""
","
","
","""event"",""trial"",""time""
""fullscreenenter"",""5"",""14599""
","
","","images/earth.jpg","","","","","","","","","","","","","","fixation","","","","","",""
"d3-animate-choice","223","826041","0.0-77.0-0.29","3387","6462","17","Female","true","true","false","true","""event"",""trial"",""time""
""fullscreenenter"",""5"",""14599""
","
","
","""event"",""trial"",""time""
""fullscreenenter"",""5"",""14599""
","
","1691.1000000014901","","49","","","3000","1","","","images/earth.jpg","images/rocket2","images/rocket1","null","images/rocket1","","1","real","null","1","","",""
"d3-animate-choice","224","828894","0.0-77.0-1.29","3387","6462","17","Female","true","true","false","true","""event"",""trial"",""time""
""fullscreenenter"",""5"",""14599""
","
","
","""event"",""trial"",""time""
""fullscreenenter"",""5"",""14599""
","
","850.5","","48","","","3000","1","","","images/redplanet1.jpg","images/alien2","images/alien1","images/rocket1","images/alien2","images/t.png","2","real","true","2","common","1","2023-02-24 18:38:55.499"
"two-step-fixation","225","829896","0.0-77.0-2.29","3387","6462","17","Female","true","true","false","true","""event"",""trial"",""time""
""fullscreenenter"",""5"",""14599""
","
","
","""event"",""trial"",""time""
""fullscreenenter"",""5"",""14599""
","
","","images/earth.jpg","","","","","","","","","","","","","","fixation","","","","","",""
"d3-animate-choice","226","832336","0.0-77.0-0.30","3387","6462","17","Female","true","true","false","true","""event"",""trial"",""time""
""fullscreenenter"",""5"",""14599""
","
","
","""event"",""trial"",""time""
""fullscreenenter"",""5"",""14599""
","
","435.20000000298023","","49","","","3000","1","","","images/earth.jpg","images/rocket2","images/rocket1","null","images/rocket1","","1","real","null","1","","",""
"d3-animate-choice","227","835072","0.0-77.0-1.30","3387","6462","17","Female","true","true","false","true","""event"",""trial"",""time""
""fullscreenenter"",""5"",""14599""
","
","
","""event"",""trial"",""time""
""fullscreenenter"",""5"",""14599""
","
","731.5999999940395","","49","","","3000","1","","","images/redplanet1.jpg","images/alien2","images/alien1","images/rocket1","images/alien1","images/t.png","2","real","true","1","common","1","2023-02-24 18:39:01.677"
"two-step-fixation","228","836077","0.0-77.0-2.30","3387","6462","17","Female","true","true","false","true","""event"",""trial"",""time""
""fullscreenenter"",""5"",""14599""
","
","
","""event"",""trial"",""time""
""fullscreenenter"",""5"",""14599""
","
","","images/earth.jpg","","","","","","","","","","","","","","fixation","","","","","",""
"d3-animate-choice","229","838668","0.0-77.0-0.31","3387","6462","17","Female","true","true","false","true","""event"",""trial"",""time""
""fullscreenenter"",""5"",""14599""
","
","
","""event"",""trial"",""time""
""fullscreenenter"",""5"",""14599""
","
","584.1000000014901","","49","","","3000","1","","","images/earth.jpg","images/rocket2","images/rocket1","null","images/rocket1","","1","real","null","1","","",""
"d3-animate-choice","230","842674","0.0-77.0-1.31","3387","6462","17","Female","true","true","false","true","""event"",""trial"",""time""
""fullscreenenter"",""5"",""14599""
","
","
","""event"",""trial"",""time""
""fullscreenenter"",""5"",""14599""
","
","2101.5","","49","","","3000","1","","","images/redplanet1.jpg","images/alien2","images/alien1","images/rocket1","images/alien1","images/nothing.png","2","real","true","1","common","0","2023-02-24 18:39:09.278"
"two-step-fixation","231","843677","0.0-77.0-2.31","3387","6462","17","Female","true","true","false","true","""event"",""trial"",""time""
""fullscreenenter"",""5"",""14599""
","
","
","""event"",""trial"",""time""
""fullscreenenter"",""5"",""14599""
","
","","images/earth.jpg","","","","","","","","","","","","","","fixation","","","","","",""
"d3-animate-choice","232","845698","0.0-77.0-0.32","3387","6462","17","Female","true","true","false","true","""event"",""trial"",""time""
""fullscreenenter"",""5"",""14599""
","
","
","""event"",""trial"",""time""
""fullscreenenter"",""5"",""14599""
","
","18.600000001490116","","49","","","3000","1","","","images/earth.jpg","images/rocket2","images/rocket1","null","images/rocket1","","1","real","null","1","","",""
"d3-animate-choice","233","848948","0.0-77.0-1.32","3387","6462","17","Female","true","true","false","true","""event"",""trial"",""time""
""fullscreenenter"",""5"",""14599""
","
","
","""event"",""trial"",""time""
""fullscreenenter"",""5"",""14599""
","
","1245.7999999970198","","48","","","3000","1","","","images/redplanet1.jpg","images/alien2","images/alien1","images/rocket1","images/alien2","images/t.png","2","real","true","2","common","1","2023-02-24 18:39:15.552"
"two-step-fixation","234","849951","0.0-77.0-2.32","3387","6462","17","Female","true","true","false","true","""event"",""trial"",""time""
""fullscreenenter"",""5"",""14599""
","
","
","""event"",""trial"",""time""
""fullscreenenter"",""5"",""14599""
","
","","images/earth.jpg","","","","","","","","","","","","","","fixation","","","","","",""
"d3-animate-choice","235","852484","0.0-77.0-0.33","3387","6462","17","Female","true","true","false","true","""event"",""trial"",""time""
""fullscreenenter"",""5"",""14599""
","
","
","""event"",""trial"",""time""
""fullscreenenter"",""5"",""14599""
","
","529.2999999970198","","49","","","3000","1","","","images/earth.jpg","images/rocket2","images/rocket1","null","images/rocket1","","1","real","null","1","","",""
"d3-animate-choice","236","855178","0.0-77.0-1.33","3387","6462","17","Female","true","true","false","true","""event"",""trial"",""time""
""fullscreenenter"",""5"",""14599""
","
","
","""event"",""trial"",""time""
""fullscreenenter"",""5"",""14599""
","
","689.2000000029802","","48","","","3000","1","","","images/purpleplanet.jpg","images/alien4","images/alien3","images/rocket1","images/alien4","images/t.png","2","real","false","2","rare","1","2023-02-24 18:39:21.783"
"two-step-fixation","237","856183","0.0-77.0-2.33","3387","6462","17","Female","true","true","false","true","""event"",""trial"",""time""
""fullscreenenter"",""5"",""14599""
","
","
","""event"",""trial"",""time""
""fullscreenenter"",""5"",""14599""
","
","","images/earth.jpg","","","","","","","","","","","","","","fixation","","","","","",""
"d3-animate-choice","238","858573","0.0-77.0-0.34","3387","6462","17","Female","true","true","false","true","""event"",""trial"",""time""
""fullscreenenter"",""5"",""14599""
","
","
","""event"",""trial"",""time""
""fullscreenenter"",""5"",""14599""
","
","382.6000000014901","","49","","","3000","1","","","images/earth.jpg","images/rocket2","images/rocket1","null","images/rocket1","","1","real","null","1","","",""
"d3-animate-choice","239","861068","0.0-77.0-1.34","3387","6462","17","Female","true","true","false","true","""event"",""trial"",""time""
""fullscreenenter"",""5"",""14599""
","
","
","""event"",""trial"",""time""
""fullscreenenter"",""5"",""14599""
","
","490.79999999701977","","48","","","3000","1","","","images/purpleplanet.jpg","images/alien4","images/alien3","images/rocket1","images/alien4","images/t.png","2","real","false","2","rare","1","2023-02-24 18:39:27.673"
"two-step-fixation","240","862076","0.0-77.0-2.34","3387","6462","17","Female","true","true","false","true","""event"",""trial"",""time""
""fullscreenenter"",""5"",""14599""
","
","
","""event"",""trial"",""time""
""fullscreenenter"",""5"",""14599""
","
","","images/earth.jpg","","","","","","","","","","","","","","fixation","","","","","",""
"d3-animate-choice","241","864354","0.0-77.0-0.35","3387","6462","17","Female","true","true","false","true","""event"",""trial"",""time""
""fullscreenenter"",""5"",""14599""
","
","
","""event"",""trial"",""time""
""fullscreenenter"",""5"",""14599""
","
","271.5","","49","","","3000","1","","","images/earth.jpg","images/rocket2","images/rocket1","null","images/rocket1","","1","real","null","1","","",""
"d3-animate-choice","242","866782","0.0-77.0-1.35","3387","6462","17","Female","true","true","false","true","""event"",""trial"",""time""
""fullscreenenter"",""5"",""14599""
","
","
","""event"",""trial"",""time""
""fullscreenenter"",""5"",""14599""
","
","422.5","","48","","","3000","1","","","images/purpleplanet.jpg","images/alien4","images/alien3","images/rocket1","images/alien4","images/t.png","2","real","false","2","rare","1","2023-02-24 18:39:33.386"
"two-step-fixation","243","867788","0.0-77.0-2.35","3387","6462","17","Female","true","true","false","true","""event"",""trial"",""time""
""fullscreenenter"",""5"",""14599""
","
","
","""event"",""trial"",""time""
""fullscreenenter"",""5"",""14599""
","
","","images/earth.jpg","","","","","","","","","","","","","","fixation","","","","","",""
"d3-animate-choice","244","870149","0.0-77.0-0.36","3387","6462","17","Female","true","true","false","true","""event"",""trial"",""time""
""fullscreenenter"",""5"",""14599""
","
","
","""event"",""trial"",""time""
""fullscreenenter"",""5"",""14599""
","
","354.70000000298023","","49","","","3000","1","","","images/earth.jpg","images/rocket2","images/rocket1","null","images/rocket1","","1","real","null","1","","",""
"d3-animate-choice","245","873128","0.0-77.0-1.36","3387","6462","17","Female","true","true","false","true","""event"",""trial"",""time""
""fullscreenenter"",""5"",""14599""
","
","
","""event"",""trial"",""time""
""fullscreenenter"",""5"",""14599""
","
","973.3999999985099","","49","","","3000","1","","","images/redplanet1.jpg","images/alien2","images/alien1","images/rocket1","images/alien1","images/nothing.png","2","real","true","1","common","0","2023-02-24 18:39:39.732"
"two-step-fixation","246","874131","0.0-77.0-2.36","3387","6462","17","Female","true","true","false","true","""event"",""trial"",""time""
