"trial_type","trial_index","time_elapsed","internal_node_id","participant_id","subject_id","age","gender","rocket_sides","red_planet_first_rocket","red_display_order","purple_display_order","interactions","blur_events","focus_events","fullscreenenter_events","fullscreenexit_events","rt","stimulus","key_press","button_pressed","success","duration","valid_pressed","rts","keys","planet_text","right_text","left_text","center_text","chosen_text","reward_text","trial_stage","practice_trial","transition_type","choice","transition","reward","timestamp"
"pavlovia","0","3","0.0-0.0","233","645","17","Female","true","false","true","true","""event"",""trial"",""time""
""blur"",""1"",""113""
""focus"",""1"",""2302""
","""event"",""trial"",""time""
""blur"",""1"",""113""
","""event"",""trial"",""time""
""focus"",""1"",""2302""
","
","
","","","","","","","","","","","","","","","","","","","","","",""
"html-keyboard-response","1","2838","0.0-1.0","233","645","17","Female","true","false","true","true","""event"",""trial"",""time""
""blur"",""1"",""113""
""focus"",""1"",""2302""
""blur"",""2"",""4347""
""focus"",""2"",""5451""
","""event"",""trial"",""time""
""blur"",""1"",""113""
""blur"",""2"",""4347""
","""event"",""trial"",""time""
""focus"",""1"",""2302""
""focus"",""2"",""5451""
","
","
","2834.300000011921","Welcome! Press the space bar to begin.","32","","","","","","","","","","","","","","","","","","",""
"audio-keyboard-response","2","5770","0.0-2.0","233","645","17","Female","true","false","true","true","""event"",""trial"",""time""
""blur"",""1"",""113""
""focus"",""1"",""2302""
""blur"",""2"",""4347""
""focus"",""2"",""5451""
","""event"",""trial"",""time""
""blur"",""1"",""113""
""blur"",""2"",""4347""
","""event"",""trial"",""time""
""focus"",""1"",""2302""
""focus"",""2"",""5451""
","
","
","2932","audio/beep_loop.wav","32","","","","","","","","","","","","","","","","","","",""
"audio-button-response","3","7716","0.0-3.0","233","645","17","Female","true","false","true","true","""event"",""trial"",""time""
""blur"",""1"",""113""
""focus"",""1"",""2302""
""blur"",""2"",""4347""
""focus"",""2"",""5451""
","""event"",""trial"",""time""
""blur"",""1"",""113""
""blur"",""2"",""4347""
","""event"",""trial"",""time""
""focus"",""1"",""2302""
""focus"",""2"",""5451""
","
","
","NaN","audio/fish.mp3","","1","","","","","","","","","","","","","","","","","",""
"audio-button-response","4","10520","0.0-4.0","233","645","17","Female","true","false","true","true","""event"",""trial"",""time""
""blur"",""1"",""113""
""focus"",""1"",""2302""
""blur"",""2"",""4347""
""focus"",""2"",""5451""
""fullscreenenter"",""5"",""12937""
","""event"",""trial"",""time""
""blur"",""1"",""113""
""blur"",""2"",""4347""
","""event"",""trial"",""time""
""focus"",""1"",""2302""
""focus"",""2"",""5451""
","""event"",""trial"",""time""
""fullscreenenter"",""5"",""12937""
","
","NaN","audio/tiger.mp3","","4","","","","","","","","","","","","","","","","","",""
"fullscreen","5","13910","0.0-5.0","233","645","17","Female","true","false","true","true","""event"",""trial"",""time""
""blur"",""1"",""113""
""focus"",""1"",""2302""
""blur"",""2"",""4347""
""focus"",""2"",""5451""
""fullscreenenter"",""5"",""12937""
""fullscreenexit"",""6"",""15601""
","""event"",""trial"",""time""
""blur"",""1"",""113""
""blur"",""2"",""4347""
","""event"",""trial"",""time""
""focus"",""1"",""2302""
""focus"",""2"",""5451""
","""event"",""trial"",""time""
""fullscreenenter"",""5"",""12937""
","""event"",""trial"",""time""
""fullscreenexit"",""6"",""15601""
","","","","","true","","","","","","","","","","","","","","","","",""
"d3-instructions","6","23050","0.0-6.0","233","645","17","Female","true","false","true","true","""event"",""trial"",""time""
""blur"",""1"",""113""
""focus"",""1"",""2302""
""blur"",""2"",""4347""
""focus"",""2"",""5451""
""fullscreenenter"",""5"",""12937""
""fullscreenexit"",""6"",""15601""
","""event"",""trial"",""time""
""blur"",""1"",""113""
""blur"",""2"",""4347""
","""event"",""trial"",""time""
""focus"",""1"",""2302""
""focus"",""2"",""5451""
","""event"",""trial"",""time""
""fullscreenenter"",""5"",""12937""
","""event"",""trial"",""time""
""fullscreenexit"",""6"",""15601""
","","","","","","","","","","","","","","","","","","","","","",""
"d3-instructions","7","25506","0.0-7.0","233","645","17","Female","true","false","true","true","""event"",""trial"",""time""
""blur"",""1"",""113""
""focus"",""1"",""2302""
""blur"",""2"",""4347""
""focus"",""2"",""5451""
""fullscreenenter"",""5"",""12937""
""fullscreenexit"",""6"",""15601""
","""event"",""trial"",""time""
""blur"",""1"",""113""
""blur"",""2"",""4347""
","""event"",""trial"",""time""
""focus"",""1"",""2302""
""focus"",""2"",""5451""
","""event"",""trial"",""time""
""fullscreenenter"",""5"",""12937""
","""event"",""trial"",""time""
""fullscreenexit"",""6"",""15601""
","","","","","","","","","","","","","","","","","","","","","",""
"d3-instructions","8","27867","0.0-8.0","233","645","17","Female","true","false","true","true","""event"",""trial"",""time""
""blur"",""1"",""113""
""focus"",""1"",""2302""
""blur"",""2"",""4347""
""focus"",""2"",""5451""
""fullscreenenter"",""5"",""12937""
""fullscreenexit"",""6"",""15601""
","""event"",""trial"",""time""
""blur"",""1"",""113""
""blur"",""2"",""4347""
","""event"",""trial"",""time""
""focus"",""1"",""2302""
""focus"",""2"",""5451""
","""event"",""trial"",""time""
""fullscreenenter"",""5"",""12937""
","""event"",""trial"",""time""
""fullscreenexit"",""6"",""15601""
","","","","","","","","","","","","","","","","","","","","","",""
"d3-instructions","9","31263","0.0-9.0","233","645","17","Female","true","false","true","true","""event"",""trial"",""time""
""blur"",""1"",""113""
""focus"",""1"",""2302""
""blur"",""2"",""4347""
""focus"",""2"",""5451""
""fullscreenenter"",""5"",""12937""
""fullscreenexit"",""6"",""15601""
","""event"",""trial"",""time""
""blur"",""1"",""113""
""blur"",""2"",""4347""
","""event"",""trial"",""time""
""focus"",""1"",""2302""
""focus"",""2"",""5451""
","""event"",""trial"",""time""
""fullscreenenter"",""5"",""12937""
","""event"",""trial"",""time""
""fullscreenexit"",""6"",""15601""
","","","","","","","","","","","","","","","","","","","","","",""
"d3-instructions","10","38078","0.0-10.0","233","645","17","Female","true","false","true","true","""event"",""trial"",""time""
""blur"",""1"",""113""
""focus"",""1"",""2302""
""blur"",""2"",""4347""
""focus"",""2"",""5451""
""fullscreenenter"",""5"",""12937""
""fullscreenexit"",""6"",""15601""
","""event"",""trial"",""time""
""blur"",""1"",""113""
""blur"",""2"",""4347""
","""event"",""trial"",""time""
""focus"",""1"",""2302""
""focus"",""2"",""5451""
","""event"",""trial"",""time""
""fullscreenenter"",""5"",""12937""
","""event"",""trial"",""time""
""fullscreenexit"",""6"",""15601""
","","","","","","","","","","","","","","","","","","","","","",""
"d3-animate-choice","11","41396","0.0-11.0","233","645","17","Female","true","false","true","true","""event"",""trial"",""time""
""blur"",""1"",""113""
""focus"",""1"",""2302""
""blur"",""2"",""4347""
""focus"",""2"",""5451""
""fullscreenenter"",""5"",""12937""
""fullscreenexit"",""6"",""15601""
","""event"",""trial"",""time""
""blur"",""1"",""113""
""blur"",""2"",""4347""
","""event"",""trial"",""time""
""focus"",""1"",""2302""
""focus"",""2"",""5451""
","""event"",""trial"",""time""
""fullscreenenter"",""5"",""12937""
","""event"",""trial"",""time""
""fullscreenexit"",""6"",""15601""
","1306.8999999761581","","49","","","3000","1","1602.2999999523163,2050.899999976158,2290.199999988079,2831.399999976158","48,49,48,49","images/tutgreenplanet.jpg","images/tutalien1","images/tutalien2","null","images/tutalien2","","NA","practice","null","","","",""
"d3-animate-choice","12","43460","0.0-12.0","233","645","17","Female","true","false","true","true","""event"",""trial"",""time""
""blur"",""1"",""113""
""focus"",""1"",""2302""
""blur"",""2"",""4347""
""focus"",""2"",""5451""
""fullscreenenter"",""5"",""12937""
""fullscreenexit"",""6"",""15601""
""blur"",""13"",""45119""
","""event"",""trial"",""time""
""blur"",""1"",""113""
""blur"",""2"",""4347""
""blur"",""13"",""45119""
","""event"",""trial"",""time""
""focus"",""1"",""2302""
""focus"",""2"",""5451""
","""event"",""trial"",""time""
""fullscreenenter"",""5"",""12937""
","""event"",""trial"",""time""
""fullscreenexit"",""6"",""15601""
","55.69999998807907","","49","","","3000","1","166.80000001192093,299.30000001192093,406.30000001192093,507.39999997615814,611,709.3999999761581,820.1999999880791,913.3000000119209,1028,1219,1402,1566.1000000238419,1778.699999988079,1957.5","48,49,48,49,48,49,48,49,48,48,48,48,48,48","images/tutgreenplanet.jpg","images/tutalien1","images/tutalien2","null","images/tutalien2","","NA","practice","null","","","",""
"d3-animate-choice","13","45561","0.0-13.0","233","645","17","Female","true","false","true","true","""event"",""trial"",""time""
""blur"",""1"",""113""
""focus"",""1"",""2302""
""blur"",""2"",""4347""
""focus"",""2"",""5451""
""fullscreenenter"",""5"",""12937""
""fullscreenexit"",""6"",""15601""
""blur"",""13"",""45119""
""focus"",""14"",""47790""
","""event"",""trial"",""time""
""blur"",""1"",""113""
""blur"",""2"",""4347""
""blur"",""13"",""45119""
","""event"",""trial"",""time""
""focus"",""1"",""2302""
""focus"",""2"",""5451""
""focus"",""14"",""47790""
","""event"",""trial"",""time""
""fullscreenenter"",""5"",""12937""
","""event"",""trial"",""time""
""fullscreenexit"",""6"",""15601""
","93.59999996423721","","48","","","3000","1","279.5999999642372,456,610.6999999880791","48,48,48","images/tutgreenplanet.jpg","images/tutalien1","images/tutalien2","null","images/tutalien1","","NA","practice","null","","","",""
"d3-animate-choice","14","50325","0.0-14.0","233","645","17","Female","true","false","true","true","""event"",""trial"",""time""
""blur"",""1"",""113""
""focus"",""1"",""2302""
""blur"",""2"",""4347""
""focus"",""2"",""5451""
""fullscreenenter"",""5"",""12937""
""fullscreenexit"",""6"",""15601""
""blur"",""13"",""45119""
""focus"",""14"",""47790""
","""event"",""trial"",""time""
""blur"",""1"",""113""
""blur"",""2"",""4347""
""blur"",""13"",""45119""
","""event"",""trial"",""time""
""focus"",""1"",""2302""
""focus"",""2"",""5451""
""focus"",""14"",""47790""
","""event"",""trial"",""time""
""fullscreenenter"",""5"",""12937""
","""event"",""trial"",""time""
""fullscreenexit"",""6"",""15601""
","2757.699999988079","","48","","","3000","1","","","images/tutgreenplanet.jpg","images/tutalien1","images/tutalien2","null","images/tutalien1","","NA","practice","null","","","",""
"d3-instructions","15","53188","0.0-15.0","233","645","17","Female","true","false","true","true","""event"",""trial"",""time""
""blur"",""1"",""113""
""focus"",""1"",""2302""
""blur"",""2"",""4347""
""focus"",""2"",""5451""
""fullscreenenter"",""5"",""12937""
""fullscreenexit"",""6"",""15601""
""blur"",""13"",""45119""
""focus"",""14"",""47790""
","""event"",""trial"",""time""
""blur"",""1"",""113""
""blur"",""2"",""4347""
""blur"",""13"",""45119""
","""event"",""trial"",""time""
""focus"",""1"",""2302""
""focus"",""2"",""5451""
""focus"",""14"",""47790""
","""event"",""trial"",""time""
""fullscreenenter"",""5"",""12937""
","""event"",""trial"",""time""
""fullscreenexit"",""6"",""15601""
","","","","","","","","","","","","","","","","","","","","","",""
"d3-instructions","16","54466","0.0-16.0","233","645","17","Female","true","false","true","true","""event"",""trial"",""time""
""blur"",""1"",""113""
""focus"",""1"",""2302""
""blur"",""2"",""4347""
""focus"",""2"",""5451""
""fullscreenenter"",""5"",""12937""
""fullscreenexit"",""6"",""15601""
""blur"",""13"",""45119""
""focus"",""14"",""47790""
","""event"",""trial"",""time""
""blur"",""1"",""113""
""blur"",""2"",""4347""
""blur"",""13"",""45119""
","""event"",""trial"",""time""
""focus"",""1"",""2302""
""focus"",""2"",""5451""
""focus"",""14"",""47790""
","""event"",""trial"",""time""
""fullscreenenter"",""5"",""12937""
","""event"",""trial"",""time""
""fullscreenexit"",""6"",""15601""
","","","","","","","","","","","","","","","","","","","","","",""
"d3-instructions","17","56970","0.0-17.0","233","645","17","Female","true","false","true","true","""event"",""trial"",""time""
""blur"",""1"",""113""
""focus"",""1"",""2302""
""blur"",""2"",""4347""
""focus"",""2"",""5451""
""fullscreenenter"",""5"",""12937""
""fullscreenexit"",""6"",""15601""
""blur"",""13"",""45119""
""focus"",""14"",""47790""
","""event"",""trial"",""time""
""blur"",""1"",""113""
""blur"",""2"",""4347""
""blur"",""13"",""45119""
","""event"",""trial"",""time""
""focus"",""1"",""2302""
""focus"",""2"",""5451""
""focus"",""14"",""47790""
","""event"",""trial"",""time""
""fullscreenenter"",""5"",""12937""
","""event"",""trial"",""time""
""fullscreenexit"",""6"",""15601""
","","","","","","","","","","","","","","","","","","","","","",""
"d3-instructions","18","58723","0.0-18.0","233","645","17","Female","true","false","true","true","""event"",""trial"",""time""
""blur"",""1"",""113""
""focus"",""1"",""2302""
""blur"",""2"",""4347""
""focus"",""2"",""5451""
""fullscreenenter"",""5"",""12937""
""fullscreenexit"",""6"",""15601""
""blur"",""13"",""45119""
""focus"",""14"",""47790""
","""event"",""trial"",""time""
""blur"",""1"",""113""
""blur"",""2"",""4347""
""blur"",""13"",""45119""
","""event"",""trial"",""time""
""focus"",""1"",""2302""
""focus"",""2"",""5451""
""focus"",""14"",""47790""
","""event"",""trial"",""time""
""fullscreenenter"",""5"",""12937""
","""event"",""trial"",""time""
""fullscreenexit"",""6"",""15601""
","","","","","","","","","","","","","","","","","","","","","",""
"d3-instructions","19","64037","0.0-19.0","233","645","17","Female","true","false","true","true","""event"",""trial"",""time""
""blur"",""1"",""113""
""focus"",""1"",""2302""
""blur"",""2"",""4347""
""focus"",""2"",""5451""
""fullscreenenter"",""5"",""12937""
""fullscreenexit"",""6"",""15601""
""blur"",""13"",""45119""
""focus"",""14"",""47790""
""blur"",""20"",""66074""
","""event"",""trial"",""time""
""blur"",""1"",""113""
""blur"",""2"",""4347""
""blur"",""13"",""45119""
""blur"",""20"",""66074""
","""event"",""trial"",""time""
""focus"",""1"",""2302""
""focus"",""2"",""5451""
""focus"",""14"",""47790""
","""event"",""trial"",""time""
""fullscreenenter"",""5"",""12937""
","""event"",""trial"",""time""
""fullscreenexit"",""6"",""15601""
","","","","","","","","","","","","","","","","","","","","","",""
"d3-animate-choice","20","67036","0.0-20.0","233","645","17","Female","true","false","true","true","""event"",""trial"",""time""
""blur"",""1"",""113""
""focus"",""1"",""2302""
""blur"",""2"",""4347""
""focus"",""2"",""5451""
""fullscreenenter"",""5"",""12937""
""fullscreenexit"",""6"",""15601""
""blur"",""13"",""45119""
""focus"",""14"",""47790""
""blur"",""20"",""66074""
""focus"",""21"",""67385""
","""event"",""trial"",""time""
""blur"",""1"",""113""
""blur"",""2"",""4347""
""blur"",""13"",""45119""
""blur"",""20"",""66074""
","""event"",""trial"",""time""
""focus"",""1"",""2302""
""focus"",""2"",""5451""
""focus"",""14"",""47790""
""focus"",""21"",""67385""
","""event"",""trial"",""time""
""fullscreenenter"",""5"",""12937""
","""event"",""trial"",""time""
""fullscreenexit"",""6"",""15601""
","995.5","","49","","","3000","1","1211.699999988079,1400.0999999642372,1575.3999999761581,1764.3999999761581,1977.0999999642372","49,49,49,49,49","images/tutyellowplanet.jpg","null","images/tutalien3","null","images/tutalien3","images/t.png","NA","practice","null","","","",""
"d3-animate-choice","21","69707","0.0-21.0","233","645","17","Female","true","false","true","true","""event"",""trial"",""time""
""blur"",""1"",""113""
""focus"",""1"",""2302""
""blur"",""2"",""4347""
""focus"",""2"",""5451""
""fullscreenenter"",""5"",""12937""
""fullscreenexit"",""6"",""15601""
""blur"",""13"",""45119""
""focus"",""14"",""47790""
""blur"",""20"",""66074""
""focus"",""21"",""67385""
""blur"",""22"",""71916""
","""event"",""trial"",""time""
""blur"",""1"",""113""
""blur"",""2"",""4347""
""blur"",""13"",""45119""
""blur"",""20"",""66074""
""blur"",""22"",""71916""
","""event"",""trial"",""time""
""focus"",""1"",""2302""
""focus"",""2"",""5451""
""focus"",""14"",""47790""
""focus"",""21"",""67385""
","""event"",""trial"",""time""
""fullscreenenter"",""5"",""12937""
","""event"",""trial"",""time""
""fullscreenexit"",""6"",""15601""
","669.3000000119209","","49","","","3000","1","868.8000000119209,1080.800000011921,1312.4000000357628,1526.9000000357628,1745.4000000357628,1968.9000000357628,2184.199999988079,2418.300000011921,2669.400000035763","49,49,49,49,49,49,49,49,49","images/tutyellowplanet.jpg","null","images/tutalien3","null","images/tutalien3","images/t.png","NA","practice","null","","","",""
"d3-animate-choice","22","71975","0.0-22.0","233","645","17","Female","true","false","true","true","""event"",""trial"",""time""
""blur"",""1"",""113""
""focus"",""1"",""2302""
""blur"",""2"",""4347""
""focus"",""2"",""5451""
""fullscreenenter"",""5"",""12937""
""fullscreenexit"",""6"",""15601""
""blur"",""13"",""45119""
""focus"",""14"",""47790""
""blur"",""20"",""66074""
""focus"",""21"",""67385""
""blur"",""22"",""71916""
""focus"",""23"",""73224""
","""event"",""trial"",""time""
""blur"",""1"",""113""
""blur"",""2"",""4347""
""blur"",""13"",""45119""
""blur"",""20"",""66074""
""blur"",""22"",""71916""
","""event"",""trial"",""time""
""focus"",""1"",""2302""
""focus"",""2"",""5451""
""focus"",""14"",""47790""
""focus"",""21"",""67385""
""focus"",""23"",""73224""
","""event"",""trial"",""time""
""fullscreenenter"",""5"",""12937""
","""event"",""trial"",""time""
""fullscreenexit"",""6"",""15601""
","264.5","","49","","","3000","1","521.9000000357628,775,993.2000000476837,1214.7000000476837,1476.300000011921,1699.2000000476837","49,49,49,49,49,49","images/tutyellowplanet.jpg","null","images/tutalien3","null","images/tutalien3","images/nothing.png","NA","practice","null","","","",""
"d3-animate-choice","23","75318","0.0-23.0","233","645","17","Female","true","false","true","true","""event"",""trial"",""time""
""blur"",""1"",""113""
""focus"",""1"",""2302""
""blur"",""2"",""4347""
""focus"",""2"",""5451""
""fullscreenenter"",""5"",""12937""
""fullscreenexit"",""6"",""15601""
""blur"",""13"",""45119""
""focus"",""14"",""47790""
""blur"",""20"",""66074""
""focus"",""21"",""67385""
""blur"",""22"",""71916""
""focus"",""23"",""73224""
","""event"",""trial"",""time""
""blur"",""1"",""113""
""blur"",""2"",""4347""
""blur"",""13"",""45119""
""blur"",""20"",""66074""
""blur"",""22"",""71916""
","""event"",""trial"",""time""
""focus"",""1"",""2302""
""focus"",""2"",""5451""
""focus"",""14"",""47790""
""focus"",""21"",""67385""
""focus"",""23"",""73224""
","""event"",""trial"",""time""
""fullscreenenter"",""5"",""12937""
","""event"",""trial"",""time""
""fullscreenexit"",""6"",""15601""
","1339.8999999761581","","49","","","3000","1","1554.3999999761581,1775,1980.5,2180.199999988079,2399.199999988079,2612.699999988079,2852.899999976158,3142.699999988079","49,49,49,49,49,49,49,49","images/tutyellowplanet.jpg","null","images/tutalien3","null","images/tutalien3","images/t.png","NA","practice","null","","","",""
"d3-animate-choice","24","77418","0.0-24.0","233","645","17","Female","true","false","true","true","""event"",""trial"",""time""
""blur"",""1"",""113""
""focus"",""1"",""2302""
""blur"",""2"",""4347""
""focus"",""2"",""5451""
""fullscreenenter"",""5"",""12937""
""fullscreenexit"",""6"",""15601""
""blur"",""13"",""45119""
""focus"",""14"",""47790""
""blur"",""20"",""66074""
""focus"",""21"",""67385""
""blur"",""22"",""71916""
""focus"",""23"",""73224""
","""event"",""trial"",""time""
""blur"",""1"",""113""
""blur"",""2"",""4347""
""blur"",""13"",""45119""
""blur"",""20"",""66074""
""blur"",""22"",""71916""
","""event"",""trial"",""time""
""focus"",""1"",""2302""
""focus"",""2"",""5451""
""focus"",""14"",""47790""
""focus"",""21"",""67385""
""focus"",""23"",""73224""
","""event"",""trial"",""time""
""fullscreenenter"",""5"",""12937""
","""event"",""trial"",""time""
""fullscreenexit"",""6"",""15601""
","97.89999997615814","","49","","","3000","1","377.2999999523163,814.6999999880791,1067.5,1268.3999999761581,1498.7999999523163,1881.5999999642372","49,49,49,49,49,49","images/tutyellowplanet.jpg","null","images/tutalien3","null","images/tutalien3","images/t.png","NA","practice","null","","","",""
"d3-animate-choice","25","79575","0.0-25.0","233","645","17","Female","true","false","true","true","""event"",""trial"",""time""
""blur"",""1"",""113""
""focus"",""1"",""2302""
""blur"",""2"",""4347""
""focus"",""2"",""5451""
""fullscreenenter"",""5"",""12937""
""fullscreenexit"",""6"",""15601""
""blur"",""13"",""45119""
""focus"",""14"",""47790""
""blur"",""20"",""66074""
""focus"",""21"",""67385""
""blur"",""22"",""71916""
""focus"",""23"",""73224""
","""event"",""trial"",""time""
""blur"",""1"",""113""
""blur"",""2"",""4347""
""blur"",""13"",""45119""
""blur"",""20"",""66074""
""blur"",""22"",""71916""
","""event"",""trial"",""time""
""focus"",""1"",""2302""
""focus"",""2"",""5451""
""focus"",""14"",""47790""
""focus"",""21"",""67385""
""focus"",""23"",""73224""
","""event"",""trial"",""time""
""fullscreenenter"",""5"",""12937""
","""event"",""trial"",""time""
""fullscreenexit"",""6"",""15601""
","151.5","","49","","","3000","1","583.8999999761581,867.6999999880791,1097.3999999761581,1331.6000000238419,1599,1845.6000000238419,2067.899999976158","49,49,49,49,49,49,49","images/tutyellowplanet.jpg","null","images/tutalien3","null","images/tutalien3","images/t.png","NA","practice","null","","","",""
"d3-animate-choice","26","81698","0.0-26.0","233","645","17","Female","true","false","true","true","""event"",""trial"",""time""
""blur"",""1"",""113""
""focus"",""1"",""2302""
""blur"",""2"",""4347""
""focus"",""2"",""5451""
""fullscreenenter"",""5"",""12937""
""fullscreenexit"",""6"",""15601""
""blur"",""13"",""45119""
""focus"",""14"",""47790""
""blur"",""20"",""66074""
""focus"",""21"",""67385""
""blur"",""22"",""71916""
""focus"",""23"",""73224""
","""event"",""trial"",""time""
""blur"",""1"",""113""
""blur"",""2"",""4347""
""blur"",""13"",""45119""
""blur"",""20"",""66074""
""blur"",""22"",""71916""
","""event"",""trial"",""time""
""focus"",""1"",""2302""
""focus"",""2"",""5451""
""focus"",""14"",""47790""
""focus"",""21"",""67385""
""focus"",""23"",""73224""
","""event"",""trial"",""time""
""fullscreenenter"",""5"",""12937""
","""event"",""trial"",""time""
""fullscreenexit"",""6"",""15601""
","118.39999997615814","","49","","","3000","1","326.89999997615814,554.8999999761581,772.8999999761581,964.8999999761581,1149.199999988079,1349,1562.8999999761581,1760.699999988079,1981.5999999642372","49,49,49,49,49,49,49,49,49","images/tutyellowplanet.jpg","null","images/tutalien3","null","images/tutalien3","images/t.png","NA","practice","null","","","",""
"d3-animate-choice","27","83788","0.0-27.0","233","645","17","Female","true","false","true","true","""event"",""trial"",""time""
""blur"",""1"",""113""
""focus"",""1"",""2302""
""blur"",""2"",""4347""
""focus"",""2"",""5451""
""fullscreenenter"",""5"",""12937""
""fullscreenexit"",""6"",""15601""
""blur"",""13"",""45119""
""focus"",""14"",""47790""
""blur"",""20"",""66074""
""focus"",""21"",""67385""
""blur"",""22"",""71916""
""focus"",""23"",""73224""
","""event"",""trial"",""time""
""blur"",""1"",""113""
""blur"",""2"",""4347""
""blur"",""13"",""45119""
""blur"",""20"",""66074""
""blur"",""22"",""71916""
","""event"",""trial"",""time""
""focus"",""1"",""2302""
""focus"",""2"",""5451""
""focus"",""14"",""47790""
""focus"",""21"",""67385""
""focus"",""23"",""73224""
","""event"",""trial"",""time""
""fullscreenenter"",""5"",""12937""
","""event"",""trial"",""time""
""fullscreenexit"",""6"",""15601""
","86.5","","49","","","3000","1","285,486.2000000476837,674.6000000238419,900.9000000357628,1140.4000000357628,1368.1000000238419,1585.5,1799.2000000476837,2025.7000000476837","49,49,49,49,49,49,49,49,49","images/tutyellowplanet.jpg","null","images/tutalien3","null","images/tutalien3","images/t.png","NA","practice","null","","","",""
"d3-animate-choice","28","85953","0.0-28.0","233","645","17","Female","true","false","true","true","""event"",""trial"",""time""
""blur"",""1"",""113""
""focus"",""1"",""2302""
""blur"",""2"",""4347""
""focus"",""2"",""5451""
""fullscreenenter"",""5"",""12937""
""fullscreenexit"",""6"",""15601""
""blur"",""13"",""45119""
""focus"",""14"",""47790""
""blur"",""20"",""66074""
""focus"",""21"",""67385""
""blur"",""22"",""71916""
""focus"",""23"",""73224""
""blur"",""29"",""87118""
","""event"",""trial"",""time""
""blur"",""1"",""113""
""blur"",""2"",""4347""
""blur"",""13"",""45119""
""blur"",""20"",""66074""
""blur"",""22"",""71916""
""blur"",""29"",""87118""
","""event"",""trial"",""time""
""focus"",""1"",""2302""
""focus"",""2"",""5451""
""focus"",""14"",""47790""
""focus"",""21"",""67385""
""focus"",""23"",""73224""
","""event"",""trial"",""time""
""fullscreenenter"",""5"",""12937""
","""event"",""trial"",""time""
""fullscreenexit"",""6"",""15601""
","163","","49","","","3000","1","370.80000001192093,568.8999999761581,740.1000000238419,1299.8999999761581,1526.5,1849.6000000238419,2084.399999976158","49,49,49,49,49,49,49","images/tutyellowplanet.jpg","null","images/tutalien3","null","images/tutalien3","images/t.png","NA","practice","null","","","",""
"d3-animate-choice","29","88089","0.0-29.0","233","645","17","Female","true","false","true","true","""event"",""trial"",""time""
""blur"",""1"",""113""
""focus"",""1"",""2302""
""blur"",""2"",""4347""
""focus"",""2"",""5451""
""fullscreenenter"",""5"",""12937""
""fullscreenexit"",""6"",""15601""
""blur"",""13"",""45119""
""focus"",""14"",""47790""
""blur"",""20"",""66074""
""focus"",""21"",""67385""
""blur"",""22"",""71916""
""focus"",""23"",""73224""
""blur"",""29"",""87118""
""focus"",""30"",""94213""
""blur"",""30"",""94727""
""focus"",""30"",""95720""
","""event"",""trial"",""time""
""blur"",""1"",""113""
""blur"",""2"",""4347""
""blur"",""13"",""45119""
""blur"",""20"",""66074""
""blur"",""22"",""71916""
""blur"",""29"",""87118""
""blur"",""30"",""94727""
","""event"",""trial"",""time""
""focus"",""1"",""2302""
""focus"",""2"",""5451""
""focus"",""14"",""47790""
""focus"",""21"",""67385""
""focus"",""23"",""73224""
""focus"",""30"",""94213""
""focus"",""30"",""95720""
","""event"",""trial"",""time""
""fullscreenenter"",""5"",""12937""
","""event"",""trial"",""time""
""fullscreenexit"",""6"",""15601""
","133.10000002384186","","49","","","3000","1","363.10000002384186,588.9000000357628,829.2000000476837","49,49,49","images/tutyellowplanet.jpg","null","images/tutalien3","null","images/tutalien3","images/t.png","NA","practice","null","","","",""
"d3-instructions","30","97186","0.0-30.0","233","645","17","Female","true","false","true","true","""event"",""trial"",""time""
""blur"",""1"",""113""
""focus"",""1"",""2302""
""blur"",""2"",""4347""
""focus"",""2"",""5451""
""fullscreenenter"",""5"",""12937""
""fullscreenexit"",""6"",""15601""
""blur"",""13"",""45119""
""focus"",""14"",""47790""
""blur"",""20"",""66074""
""focus"",""21"",""67385""
""blur"",""22"",""71916""
""focus"",""23"",""73224""
""blur"",""29"",""87118""
""focus"",""30"",""94213""
""blur"",""30"",""94727""
""focus"",""30"",""95720""
","""event"",""trial"",""time""
""blur"",""1"",""113""
""blur"",""2"",""4347""
""blur"",""13"",""45119""
""blur"",""20"",""66074""
""blur"",""22"",""71916""
""blur"",""29"",""87118""
""blur"",""30"",""94727""
","""event"",""trial"",""time""
""focus"",""1"",""2302""
""focus"",""2"",""5451""
""focus"",""14"",""47790""
""focus"",""21"",""67385""
""focus"",""23"",""73224""
""focus"",""30"",""94213""
""focus"",""30"",""95720""
","""event"",""trial"",""time""
""fullscreenenter"",""5"",""12937""
","""event"",""trial"",""time""
""fullscreenexit"",""6"",""15601""
","","","","","","","","","","","","","","","","","","","","","",""
"d3-instructions","31","98174","0.0-31.0","233","645","17","Female","true","false","true","true","""event"",""trial"",""time""
""blur"",""1"",""113""
""focus"",""1"",""2302""
""blur"",""2"",""4347""
""focus"",""2"",""5451""
""fullscreenenter"",""5"",""12937""
""fullscreenexit"",""6"",""15601""
""blur"",""13"",""45119""
""focus"",""14"",""47790""
""blur"",""20"",""66074""
""focus"",""21"",""67385""
""blur"",""22"",""71916""
""focus"",""23"",""73224""
""blur"",""29"",""87118""
""focus"",""30"",""94213""
""blur"",""30"",""94727""
""focus"",""30"",""95720""
","""event"",""trial"",""time""
""blur"",""1"",""113""
""blur"",""2"",""4347""
""blur"",""13"",""45119""
""blur"",""20"",""66074""
""blur"",""22"",""71916""
""blur"",""29"",""87118""
""blur"",""30"",""94727""
","""event"",""trial"",""time""
""focus"",""1"",""2302""
""focus"",""2"",""5451""
""focus"",""14"",""47790""
""focus"",""21"",""67385""
""focus"",""23"",""73224""
""focus"",""30"",""94213""
""focus"",""30"",""95720""
","""event"",""trial"",""time""
""fullscreenenter"",""5"",""12937""
","""event"",""trial"",""time""
""fullscreenexit"",""6"",""15601""
","","","","","","","","","","","","","","","","","","","","","",""
"d3-instructions","32","98739","0.0-32.0","233","645","17","Female","true","false","true","true","""event"",""trial"",""time""
""blur"",""1"",""113""
""focus"",""1"",""2302""
""blur"",""2"",""4347""
""focus"",""2"",""5451""
""fullscreenenter"",""5"",""12937""
""fullscreenexit"",""6"",""15601""
""blur"",""13"",""45119""
""focus"",""14"",""47790""
""blur"",""20"",""66074""
""focus"",""21"",""67385""
""blur"",""22"",""71916""
""focus"",""23"",""73224""
""blur"",""29"",""87118""
""focus"",""30"",""94213""
""blur"",""30"",""94727""
""focus"",""30"",""95720""
","""event"",""trial"",""time""
""blur"",""1"",""113""
""blur"",""2"",""4347""
""blur"",""13"",""45119""
""blur"",""20"",""66074""
""blur"",""22"",""71916""
""blur"",""29"",""87118""
""blur"",""30"",""94727""
","""event"",""trial"",""time""
""focus"",""1"",""2302""
""focus"",""2"",""5451""
""focus"",""14"",""47790""
""focus"",""21"",""67385""
""focus"",""23"",""73224""
""focus"",""30"",""94213""
""focus"",""30"",""95720""
","""event"",""trial"",""time""
""fullscreenenter"",""5"",""12937""
","""event"",""trial"",""time""
""fullscreenexit"",""6"",""15601""
","","","","","","","","","","","","","","","","","","","","","",""
"d3-instructions","33","101191","0.0-33.0","233","645","17","Female","true","false","true","true","""event"",""trial"",""time""
""blur"",""1"",""113""
""focus"",""1"",""2302""
""blur"",""2"",""4347""
""focus"",""2"",""5451""
""fullscreenenter"",""5"",""12937""
""fullscreenexit"",""6"",""15601""
""blur"",""13"",""45119""
""focus"",""14"",""47790""
""blur"",""20"",""66074""
""focus"",""21"",""67385""
""blur"",""22"",""71916""
""focus"",""23"",""73224""
""blur"",""29"",""87118""
""focus"",""30"",""94213""
""blur"",""30"",""94727""
""focus"",""30"",""95720""
","""event"",""trial"",""time""
""blur"",""1"",""113""
""blur"",""2"",""4347""
""blur"",""13"",""45119""
""blur"",""20"",""66074""
""blur"",""22"",""71916""
""blur"",""29"",""87118""
""blur"",""30"",""94727""
","""event"",""trial"",""time""
""focus"",""1"",""2302""
""focus"",""2"",""5451""
""focus"",""14"",""47790""
""focus"",""21"",""67385""
""focus"",""23"",""73224""
""focus"",""30"",""94213""
""focus"",""30"",""95720""
","""event"",""trial"",""time""
""fullscreenenter"",""5"",""12937""
","""event"",""trial"",""time""
""fullscreenexit"",""6"",""15601""
","","","","","","","","","","","","","","","","","","","","","",""
"d3-animate-choice","34","104125","0.0-34.0","233","645","17","Female","true","false","true","true","""event"",""trial"",""time""
""blur"",""1"",""113""
""focus"",""1"",""2302""
""blur"",""2"",""4347""
""focus"",""2"",""5451""
""fullscreenenter"",""5"",""12937""
""fullscreenexit"",""6"",""15601""
""blur"",""13"",""45119""
""focus"",""14"",""47790""
""blur"",""20"",""66074""
""focus"",""21"",""67385""
""blur"",""22"",""71916""
""focus"",""23"",""73224""
""blur"",""29"",""87118""
""focus"",""30"",""94213""
""blur"",""30"",""94727""
""focus"",""30"",""95720""
","""event"",""trial"",""time""
""blur"",""1"",""113""
""blur"",""2"",""4347""
""blur"",""13"",""45119""
""blur"",""20"",""66074""
""blur"",""22"",""71916""
""blur"",""29"",""87118""
""blur"",""30"",""94727""
","""event"",""trial"",""time""
""focus"",""1"",""2302""
""focus"",""2"",""5451""
""focus"",""14"",""47790""
""focus"",""21"",""67385""
""focus"",""23"",""73224""
""focus"",""30"",""94213""
""focus"",""30"",""95720""
","""event"",""trial"",""time""
""fullscreenenter"",""5"",""12937""
","""event"",""trial"",""time""
""fullscreenexit"",""6"",""15601""
","927.2999999523163","","49","","","3000","1","","","images/tutgreenplanet.jpg","images/tutalien1","images/tutalien2","null","images/tutalien2","images/t.png","NA","practice","null","","","",""
"d3-animate-choice","35","106642","0.0-35.0","233","645","17","Female","true","false","true","true","""event"",""trial"",""time""
""blur"",""1"",""113""
""focus"",""1"",""2302""
""blur"",""2"",""4347""
""focus"",""2"",""5451""
""fullscreenenter"",""5"",""12937""
""fullscreenexit"",""6"",""15601""
""blur"",""13"",""45119""
""focus"",""14"",""47790""
""blur"",""20"",""66074""
""focus"",""21"",""67385""
""blur"",""22"",""71916""
""focus"",""23"",""73224""
""blur"",""29"",""87118""
""focus"",""30"",""94213""
""blur"",""30"",""94727""
""focus"",""30"",""95720""
","""event"",""trial"",""time""
""blur"",""1"",""113""
""blur"",""2"",""4347""
""blur"",""13"",""45119""
""blur"",""20"",""66074""
""blur"",""22"",""71916""
""blur"",""29"",""87118""
""blur"",""30"",""94727""
","""event"",""trial"",""time""
""focus"",""1"",""2302""
""focus"",""2"",""5451""
""focus"",""14"",""47790""
""focus"",""21"",""67385""
""focus"",""23"",""73224""
""focus"",""30"",""94213""
""focus"",""30"",""95720""
","""event"",""trial"",""time""
""fullscreenenter"",""5"",""12937""
","""event"",""trial"",""time""
""fullscreenexit"",""6"",""15601""
","510.89999997615814","","48","","","3000","1","","","images/tutgreenplanet.jpg","images/tutalien1","images/tutalien2","null","images/tutalien1","images/nothing.png","NA","practice","null","","","",""
"d3-animate-choice","36","109221","0.0-36.0","233","645","17","Female","true","false","true","true","""event"",""trial"",""time""
""blur"",""1"",""113""
""focus"",""1"",""2302""
""blur"",""2"",""4347""
""focus"",""2"",""5451""
""fullscreenenter"",""5"",""12937""
""fullscreenexit"",""6"",""15601""
""blur"",""13"",""45119""
""focus"",""14"",""47790""
""blur"",""20"",""66074""
""focus"",""21"",""67385""
""blur"",""22"",""71916""
""focus"",""23"",""73224""
""blur"",""29"",""87118""
""focus"",""30"",""94213""
""blur"",""30"",""94727""
""focus"",""30"",""95720""
","""event"",""trial"",""time""
""blur"",""1"",""113""
""blur"",""2"",""4347""
""blur"",""13"",""45119""
""blur"",""20"",""66074""
""blur"",""22"",""71916""
""blur"",""29"",""87118""
""blur"",""30"",""94727""
","""event"",""trial"",""time""
""focus"",""1"",""2302""
""focus"",""2"",""5451""
""focus"",""14"",""47790""
""focus"",""21"",""67385""
""focus"",""23"",""73224""
""focus"",""30"",""94213""
""focus"",""30"",""95720""
","""event"",""trial"",""time""
""fullscreenenter"",""5"",""12937""
","""event"",""trial"",""time""
""fullscreenexit"",""6"",""15601""
","541.0999999642372","","192","","","3000","1","573.1999999880791","49","images/tutgreenplanet.jpg","images/tutalien1","images/tutalien2","null","images/tutalien2","images/nothing.png","NA","practice","null","","","",""
"d3-animate-choice","37","111622","0.0-37.0","233","645","17","Female","true","false","true","true","""event"",""trial"",""time""
""blur"",""1"",""113""
""focus"",""1"",""2302""
""blur"",""2"",""4347""
""focus"",""2"",""5451""
""fullscreenenter"",""5"",""12937""
""fullscreenexit"",""6"",""15601""
""blur"",""13"",""45119""
""focus"",""14"",""47790""
""blur"",""20"",""66074""
""focus"",""21"",""67385""
""blur"",""22"",""71916""
""focus"",""23"",""73224""
""blur"",""29"",""87118""
""focus"",""30"",""94213""
""blur"",""30"",""94727""
""focus"",""30"",""95720""
","""event"",""trial"",""time""
""blur"",""1"",""113""
""blur"",""2"",""4347""
""blur"",""13"",""45119""
""blur"",""20"",""66074""
""blur"",""22"",""71916""
""blur"",""29"",""87118""
""blur"",""30"",""94727""
","""event"",""trial"",""time""
""focus"",""1"",""2302""
""focus"",""2"",""5451""
""focus"",""14"",""47790""
""focus"",""21"",""67385""
""focus"",""23"",""73224""
""focus"",""30"",""94213""
""focus"",""30"",""95720""
","""event"",""trial"",""time""
""fullscreenenter"",""5"",""12937""
","""event"",""trial"",""time""
""fullscreenexit"",""6"",""15601""
","397.30000001192093","","48","","","3000","1","","","images/tutgreenplanet.jpg","images/tutalien1","images/tutalien2","null","images/tutalien1","images/nothing.png","NA","practice","null","","","",""
"d3-animate-choice","38","114095","0.0-38.0","233","645","17","Female","true","false","true","true","""event"",""trial"",""time""
""blur"",""1"",""113""
""focus"",""1"",""2302""
""blur"",""2"",""4347""
""focus"",""2"",""5451""
""fullscreenenter"",""5"",""12937""
""fullscreenexit"",""6"",""15601""
""blur"",""13"",""45119""
""focus"",""14"",""47790""
""blur"",""20"",""66074""
""focus"",""21"",""67385""
""blur"",""22"",""71916""
""focus"",""23"",""73224""
""blur"",""29"",""87118""
""focus"",""30"",""94213""
""blur"",""30"",""94727""
""focus"",""30"",""95720""
","""event"",""trial"",""time""
""blur"",""1"",""113""
""blur"",""2"",""4347""
""blur"",""13"",""45119""
""blur"",""20"",""66074""
""blur"",""22"",""71916""
""blur"",""29"",""87118""
""blur"",""30"",""94727""
","""event"",""trial"",""time""
""focus"",""1"",""2302""
""focus"",""2"",""5451""
""focus"",""14"",""47790""
""focus"",""21"",""67385""
""focus"",""23"",""73224""
""focus"",""30"",""94213""
""focus"",""30"",""95720""
","""event"",""trial"",""time""
""fullscreenenter"",""5"",""12937""
","""event"",""trial"",""time""
""fullscreenexit"",""6"",""15601""
","467.69999998807907","","49","","","3000","1","2009","49","images/tutgreenplanet.jpg","images/tutalien1","images/tutalien2","null","images/tutalien2","images/t.png","NA","practice","null","","","",""
"d3-animate-choice","39","116236","0.0-39.0","233","645","17","Female","true","false","true","true","""event"",""trial"",""time""
""blur"",""1"",""113""
""focus"",""1"",""2302""
""blur"",""2"",""4347""
""focus"",""2"",""5451""
""fullscreenenter"",""5"",""12937""
""fullscreenexit"",""6"",""15601""
""blur"",""13"",""45119""
""focus"",""14"",""47790""
""blur"",""20"",""66074""
""focus"",""21"",""67385""
""blur"",""22"",""71916""
""focus"",""23"",""73224""
""blur"",""29"",""87118""
""focus"",""30"",""94213""
""blur"",""30"",""94727""
""focus"",""30"",""95720""
","""event"",""trial"",""time""
""blur"",""1"",""113""
""blur"",""2"",""4347""
""blur"",""13"",""45119""
""blur"",""20"",""66074""
""blur"",""22"",""71916""
""blur"",""29"",""87118""
""blur"",""30"",""94727""
","""event"",""trial"",""time""
""focus"",""1"",""2302""
""focus"",""2"",""5451""
""focus"",""14"",""47790""
""focus"",""21"",""67385""
""focus"",""23"",""73224""
""focus"",""30"",""94213""
""focus"",""30"",""95720""
","""event"",""trial"",""time""
""fullscreenenter"",""5"",""12937""
","""event"",""trial"",""time""
""fullscreenexit"",""6"",""15601""
","138.9000000357628","","49","","","3000","1","500.80000001192093,732.1000000238419,878.3000000119209,1054.6000000238419,1202.5,1390.300000011921,1557,1775.800000011921,1965.9000000357628","49,49,49,49,49,49,49,49,49","images/tutgreenplanet.jpg","images/tutalien1","images/tutalien2","null","images/tutalien2","images/t.png","NA","practice","null","","","",""
"d3-animate-choice","40","118253","0.0-40.0","233","645","17","Female","true","false","true","true","""event"",""trial"",""time""
""blur"",""1"",""113""
""focus"",""1"",""2302""
""blur"",""2"",""4347""
""focus"",""2"",""5451""
""fullscreenenter"",""5"",""12937""
""fullscreenexit"",""6"",""15601""
""blur"",""13"",""45119""
""focus"",""14"",""47790""
""blur"",""20"",""66074""
""focus"",""21"",""67385""
""blur"",""22"",""71916""
""focus"",""23"",""73224""
""blur"",""29"",""87118""
""focus"",""30"",""94213""
""blur"",""30"",""94727""
""focus"",""30"",""95720""
","""event"",""trial"",""time""
""blur"",""1"",""113""
""blur"",""2"",""4347""
""blur"",""13"",""45119""
""blur"",""20"",""66074""
""blur"",""22"",""71916""
""blur"",""29"",""87118""
""blur"",""30"",""94727""
","""event"",""trial"",""time""
""focus"",""1"",""2302""
""focus"",""2"",""5451""
""focus"",""14"",""47790""
""focus"",""21"",""67385""
""focus"",""23"",""73224""
""focus"",""30"",""94213""
""focus"",""30"",""95720""
","""event"",""trial"",""time""
""fullscreenenter"",""5"",""12937""
","""event"",""trial"",""time""
""fullscreenexit"",""6"",""15601""
","14.199999988079071","","49","","","3000","1","225.10000002384186,436.19999998807907,626.6000000238419,827.3000000119209,1002.3999999761581,1199.199999988079,1388.300000011921,1578.5,1781.5,1957.699999988079","49,49,49,49,49,49,49,49,49,49","images/tutgreenplanet.jpg","images/tutalien1","images/tutalien2","null","images/tutalien2","images/t.png","NA","practice","null","","","",""
"d3-animate-choice","41","120388","0.0-41.0","233","645","17","Female","true","false","true","true","""event"",""trial"",""time""
""blur"",""1"",""113""
""focus"",""1"",""2302""
""blur"",""2"",""4347""
""focus"",""2"",""5451""
""fullscreenenter"",""5"",""12937""
""fullscreenexit"",""6"",""15601""
""blur"",""13"",""45119""
""focus"",""14"",""47790""
""blur"",""20"",""66074""
""focus"",""21"",""67385""
""blur"",""22"",""71916""
""focus"",""23"",""73224""
""blur"",""29"",""87118""
""focus"",""30"",""94213""
""blur"",""30"",""94727""
""focus"",""30"",""95720""
","""event"",""trial"",""time""
""blur"",""1"",""113""
""blur"",""2"",""4347""
""blur"",""13"",""45119""
""blur"",""20"",""66074""
""blur"",""22"",""71916""
""blur"",""29"",""87118""
""blur"",""30"",""94727""
","""event"",""trial"",""time""
""focus"",""1"",""2302""
""focus"",""2"",""5451""
""focus"",""14"",""47790""
""focus"",""21"",""67385""
""focus"",""23"",""73224""
""focus"",""30"",""94213""
""focus"",""30"",""95720""
","""event"",""trial"",""time""
""fullscreenenter"",""5"",""12937""
","""event"",""trial"",""time""
""fullscreenexit"",""6"",""15601""
","129.9000000357628","","49","","","3000","1","312.4000000357628,511.80000001192093,707.1000000238419,919.4000000357628,1116.199999988079,1310.300000011921,1508.9000000357628,1695.4000000357628,1886.6000000238419,2073.300000011921","49,49,49,49,49,49,49,49,49,49","images/tutgreenplanet.jpg","images/tutalien1","images/tutalien2","null","images/tutalien2","images/t.png","NA","practice","null","","","",""
"d3-animate-choice","42","122522","0.0-42.0","233","645","17","Female","true","false","true","true","""event"",""trial"",""time""
""blur"",""1"",""113""
""focus"",""1"",""2302""
""blur"",""2"",""4347""
""focus"",""2"",""5451""
""fullscreenenter"",""5"",""12937""
""fullscreenexit"",""6"",""15601""
""blur"",""13"",""45119""
""focus"",""14"",""47790""
""blur"",""20"",""66074""
""focus"",""21"",""67385""
""blur"",""22"",""71916""
""focus"",""23"",""73224""
""blur"",""29"",""87118""
""focus"",""30"",""94213""
""blur"",""30"",""94727""
""focus"",""30"",""95720""
","""event"",""trial"",""time""
""blur"",""1"",""113""
""blur"",""2"",""4347""
""blur"",""13"",""45119""
""blur"",""20"",""66074""
""blur"",""22"",""71916""
""blur"",""29"",""87118""
""blur"",""30"",""94727""
","""event"",""trial"",""time""
""focus"",""1"",""2302""
""focus"",""2"",""5451""
""focus"",""14"",""47790""
""focus"",""21"",""67385""
""focus"",""23"",""73224""
""focus"",""30"",""94213""
""focus"",""30"",""95720""
","""event"",""trial"",""time""
""fullscreenenter"",""5"",""12937""
","""event"",""trial"",""time""
""fullscreenexit"",""6"",""15601""
","130.89999997615814","","49","","","3000","1","327.0999999642372,538.6999999880791,731.3000000119209,925.6999999880791,1114.199999988079,1307.699999988079,1725.199999988079,1925.800000011921,2131.099999964237","49,49,49,49,49,49,49,49,49","images/tutgreenplanet.jpg","images/tutalien1","images/tutalien2","null","images/tutalien2","images/nothing.png","NA","practice","null","","","",""
"d3-animate-choice","43","124710","0.0-43.0","233","645","17","Female","true","false","true","true","""event"",""trial"",""time""
""blur"",""1"",""113""
""focus"",""1"",""2302""
""blur"",""2"",""4347""
""focus"",""2"",""5451""
""fullscreenenter"",""5"",""12937""
""fullscreenexit"",""6"",""15601""
""blur"",""13"",""45119""
""focus"",""14"",""47790""
""blur"",""20"",""66074""
""focus"",""21"",""67385""
""blur"",""22"",""71916""
""focus"",""23"",""73224""
""blur"",""29"",""87118""
""focus"",""30"",""94213""
""blur"",""30"",""94727""
""focus"",""30"",""95720""
","""event"",""trial"",""time""
""blur"",""1"",""113""
""blur"",""2"",""4347""
""blur"",""13"",""45119""
""blur"",""20"",""66074""
""blur"",""22"",""71916""
""blur"",""29"",""87118""
""blur"",""30"",""94727""
","""event"",""trial"",""time""
""focus"",""1"",""2302""
""focus"",""2"",""5451""
""focus"",""14"",""47790""
""focus"",""21"",""67385""
""focus"",""23"",""73224""
""focus"",""30"",""94213""
""focus"",""30"",""95720""
","""event"",""trial"",""time""
""fullscreenenter"",""5"",""12937""
","""event"",""trial"",""time""
""fullscreenexit"",""6"",""15601""
","181.10000002384186","","49","","","3000","1","381.19999998807907,592.1000000238419,793.1000000238419,1014.6999999880791,1227,1426.800000011921,1649.5,1846,2061.699999988079","49,49,49,49,49,49,49,49,49","images/tutgreenplanet.jpg","images/tutalien1","images/tutalien2","null","images/tutalien2","images/t.png","NA","practice","null","","","",""
"d3-instructions","44","127236","0.0-44.0","233","645","17","Female","true","false","true","true","""event"",""trial"",""time""
""blur"",""1"",""113""
""focus"",""1"",""2302""
""blur"",""2"",""4347""
""focus"",""2"",""5451""
""fullscreenenter"",""5"",""12937""
""fullscreenexit"",""6"",""15601""
""blur"",""13"",""45119""
""focus"",""14"",""47790""
""blur"",""20"",""66074""
""focus"",""21"",""67385""
""blur"",""22"",""71916""
""focus"",""23"",""73224""
""blur"",""29"",""87118""
""focus"",""30"",""94213""
""blur"",""30"",""94727""
""focus"",""30"",""95720""
","""event"",""trial"",""time""
""blur"",""1"",""113""
""blur"",""2"",""4347""
""blur"",""13"",""45119""
""blur"",""20"",""66074""
""blur"",""22"",""71916""
""blur"",""29"",""87118""
""blur"",""30"",""94727""
","""event"",""trial"",""time""
""focus"",""1"",""2302""
""focus"",""2"",""5451""
""focus"",""14"",""47790""
""focus"",""21"",""67385""
""focus"",""23"",""73224""
""focus"",""30"",""94213""
""focus"",""30"",""95720""
","""event"",""trial"",""time""
""fullscreenenter"",""5"",""12937""
","""event"",""trial"",""time""
""fullscreenexit"",""6"",""15601""
","","","","","","","","","","","","","","","","","","","","","",""
"d3-instructions","45","129098","0.0-45.0","233","645","17","Female","true","false","true","true","""event"",""trial"",""time""
""blur"",""1"",""113""
""focus"",""1"",""2302""
""blur"",""2"",""4347""
""focus"",""2"",""5451""
""fullscreenenter"",""5"",""12937""
""fullscreenexit"",""6"",""15601""
""blur"",""13"",""45119""
""focus"",""14"",""47790""
""blur"",""20"",""66074""
""focus"",""21"",""67385""
""blur"",""22"",""71916""
""focus"",""23"",""73224""
""blur"",""29"",""87118""
""focus"",""30"",""94213""
""blur"",""30"",""94727""
""focus"",""30"",""95720""
","""event"",""trial"",""time""
""blur"",""1"",""113""
""blur"",""2"",""4347""
""blur"",""13"",""45119""
""blur"",""20"",""66074""
""blur"",""22"",""71916""
""blur"",""29"",""87118""
""blur"",""30"",""94727""
","""event"",""trial"",""time""
""focus"",""1"",""2302""
""focus"",""2"",""5451""
""focus"",""14"",""47790""
""focus"",""21"",""67385""
""focus"",""23"",""73224""
""focus"",""30"",""94213""
""focus"",""30"",""95720""
","""event"",""trial"",""time""
""fullscreenenter"",""5"",""12937""
","""event"",""trial"",""time""
""fullscreenexit"",""6"",""15601""
","","","","","","","","","","","","","","","","","","","","","",""
"d3-instructions","46","130227","0.0-46.0","233","645","17","Female","true","false","true","true","""event"",""trial"",""time""
""blur"",""1"",""113""
""focus"",""1"",""2302""
""blur"",""2"",""4347""
""focus"",""2"",""5451""
""fullscreenenter"",""5"",""12937""
""fullscreenexit"",""6"",""15601""
""blur"",""13"",""45119""
""focus"",""14"",""47790""
""blur"",""20"",""66074""
""focus"",""21"",""67385""
""blur"",""22"",""71916""
""focus"",""23"",""73224""
""blur"",""29"",""87118""
""focus"",""30"",""94213""
""blur"",""30"",""94727""
""focus"",""30"",""95720""
","""event"",""trial"",""time""
""blur"",""1"",""113""
""blur"",""2"",""4347""
""blur"",""13"",""45119""
""blur"",""20"",""66074""
""blur"",""22"",""71916""
""blur"",""29"",""87118""
""blur"",""30"",""94727""
","""event"",""trial"",""time""
""focus"",""1"",""2302""
""focus"",""2"",""5451""
""focus"",""14"",""47790""
""focus"",""21"",""67385""
""focus"",""23"",""73224""
""focus"",""30"",""94213""
""focus"",""30"",""95720""
","""event"",""trial"",""time""
""fullscreenenter"",""5"",""12937""
","""event"",""trial"",""time""
""fullscreenexit"",""6"",""15601""
","","","","","","","","","","","","","","","","","","","","","",""
"d3-instructions","47","131622","0.0-47.0","233","645","17","Female","true","false","true","true","""event"",""trial"",""time""
""blur"",""1"",""113""
""focus"",""1"",""2302""
""blur"",""2"",""4347""
""focus"",""2"",""5451""
""fullscreenenter"",""5"",""12937""
""fullscreenexit"",""6"",""15601""
""blur"",""13"",""45119""
""focus"",""14"",""47790""
""blur"",""20"",""66074""
""focus"",""21"",""67385""
""blur"",""22"",""71916""
""focus"",""23"",""73224""
""blur"",""29"",""87118""
""focus"",""30"",""94213""
""blur"",""30"",""94727""
""focus"",""30"",""95720""
","""event"",""trial"",""time""
""blur"",""1"",""113""
""blur"",""2"",""4347""
""blur"",""13"",""45119""
""blur"",""20"",""66074""
""blur"",""22"",""71916""
""blur"",""29"",""87118""
""blur"",""30"",""94727""
","""event"",""trial"",""time""
""focus"",""1"",""2302""
""focus"",""2"",""5451""
""focus"",""14"",""47790""
""focus"",""21"",""67385""
""focus"",""23"",""73224""
""focus"",""30"",""94213""
""focus"",""30"",""95720""
","""event"",""trial"",""time""
""fullscreenenter"",""5"",""12937""
","""event"",""trial"",""time""
""fullscreenexit"",""6"",""15601""
","","","","","","","","","","","","","","","","","","","","","",""
"d3-instructions","48","132635","0.0-48.0","233","645","17","Female","true","false","true","true","""event"",""trial"",""time""
""blur"",""1"",""113""
""focus"",""1"",""2302""
""blur"",""2"",""4347""
""focus"",""2"",""5451""
""fullscreenenter"",""5"",""12937""
""fullscreenexit"",""6"",""15601""
""blur"",""13"",""45119""
""focus"",""14"",""47790""
""blur"",""20"",""66074""
""focus"",""21"",""67385""
""blur"",""22"",""71916""
""focus"",""23"",""73224""
""blur"",""29"",""87118""
""focus"",""30"",""94213""
""blur"",""30"",""94727""
""focus"",""30"",""95720""
","""event"",""trial"",""time""
""blur"",""1"",""113""
""blur"",""2"",""4347""
""blur"",""13"",""45119""
""blur"",""20"",""66074""
""blur"",""22"",""71916""
""blur"",""29"",""87118""
""blur"",""30"",""94727""
","""event"",""trial"",""time""
""focus"",""1"",""2302""
""focus"",""2"",""5451""
""focus"",""14"",""47790""
""focus"",""21"",""67385""
""focus"",""23"",""73224""
""focus"",""30"",""94213""
""focus"",""30"",""95720""
","""event"",""trial"",""time""
""fullscreenenter"",""5"",""12937""
","""event"",""trial"",""time""
""fullscreenexit"",""6"",""15601""
","","","","","","","","","","","","","","","","","","","","","",""
"d3-instructions","49","133914","0.0-49.0","233","645","17","Female","true","false","true","true","""event"",""trial"",""time""
""blur"",""1"",""113""
""focus"",""1"",""2302""
""blur"",""2"",""4347""
""focus"",""2"",""5451""
""fullscreenenter"",""5"",""12937""
""fullscreenexit"",""6"",""15601""
""blur"",""13"",""45119""
""focus"",""14"",""47790""
""blur"",""20"",""66074""
""focus"",""21"",""67385""
""blur"",""22"",""71916""
""focus"",""23"",""73224""
""blur"",""29"",""87118""
""focus"",""30"",""94213""
""blur"",""30"",""94727""
""focus"",""30"",""95720""
","""event"",""trial"",""time""
""blur"",""1"",""113""
""blur"",""2"",""4347""
""blur"",""13"",""45119""
""blur"",""20"",""66074""
""blur"",""22"",""71916""
""blur"",""29"",""87118""
""blur"",""30"",""94727""
","""event"",""trial"",""time""
""focus"",""1"",""2302""
""focus"",""2"",""5451""
""focus"",""14"",""47790""
""focus"",""21"",""67385""
""focus"",""23"",""73224""
""focus"",""30"",""94213""
""focus"",""30"",""95720""
","""event"",""trial"",""time""
""fullscreenenter"",""5"",""12937""
","""event"",""trial"",""time""
""fullscreenexit"",""6"",""15601""
","","","","","","","","","","","","","","","","","","","","","",""
"d3-instructions","50","135657","0.0-50.0","233","645","17","Female","true","false","true","true","""event"",""trial"",""time""
""blur"",""1"",""113""
""focus"",""1"",""2302""
""blur"",""2"",""4347""
""focus"",""2"",""5451""
""fullscreenenter"",""5"",""12937""
""fullscreenexit"",""6"",""15601""
""blur"",""13"",""45119""
""focus"",""14"",""47790""
""blur"",""20"",""66074""
""focus"",""21"",""67385""
""blur"",""22"",""71916""
""focus"",""23"",""73224""
""blur"",""29"",""87118""
""focus"",""30"",""94213""
""blur"",""30"",""94727""
""focus"",""30"",""95720""
","""event"",""trial"",""time""
""blur"",""1"",""113""
""blur"",""2"",""4347""
""blur"",""13"",""45119""
""blur"",""20"",""66074""
""blur"",""22"",""71916""
""blur"",""29"",""87118""
""blur"",""30"",""94727""
","""event"",""trial"",""time""
""focus"",""1"",""2302""
""focus"",""2"",""5451""
""focus"",""14"",""47790""
""focus"",""21"",""67385""
""focus"",""23"",""73224""
""focus"",""30"",""94213""
""focus"",""30"",""95720""
","""event"",""trial"",""time""
""fullscreenenter"",""5"",""12937""
","""event"",""trial"",""time""
""fullscreenexit"",""6"",""15601""
","","","","","","","","","","","","","","","","","","","","","",""
"d3-instructions","51","136637","0.0-51.0","233","645","17","Female","true","false","true","true","""event"",""trial"",""time""
""blur"",""1"",""113""
""focus"",""1"",""2302""
""blur"",""2"",""4347""
""focus"",""2"",""5451""
""fullscreenenter"",""5"",""12937""
""fullscreenexit"",""6"",""15601""
""blur"",""13"",""45119""
""focus"",""14"",""47790""
""blur"",""20"",""66074""
""focus"",""21"",""67385""
""blur"",""22"",""71916""
""focus"",""23"",""73224""
""blur"",""29"",""87118""
""focus"",""30"",""94213""
""blur"",""30"",""94727""
""focus"",""30"",""95720""
","""event"",""trial"",""time""
""blur"",""1"",""113""
""blur"",""2"",""4347""
""blur"",""13"",""45119""
""blur"",""20"",""66074""
""blur"",""22"",""71916""
""blur"",""29"",""87118""
""blur"",""30"",""94727""
","""event"",""trial"",""time""
""focus"",""1"",""2302""
""focus"",""2"",""5451""
""focus"",""14"",""47790""
""focus"",""21"",""67385""
""focus"",""23"",""73224""
""focus"",""30"",""94213""
""focus"",""30"",""95720""
","""event"",""trial"",""time""
""fullscreenenter"",""5"",""12937""
","""event"",""trial"",""time""
""fullscreenexit"",""6"",""15601""
","","","","","","","","","","","","","","","","","","","","","",""
"d3-instructions","52","137444","0.0-52.0","233","645","17","Female","true","false","true","true","""event"",""trial"",""time""
""blur"",""1"",""113""
""focus"",""1"",""2302""
""blur"",""2"",""4347""
""focus"",""2"",""5451""
""fullscreenenter"",""5"",""12937""
""fullscreenexit"",""6"",""15601""
""blur"",""13"",""45119""
""focus"",""14"",""47790""
""blur"",""20"",""66074""
""focus"",""21"",""67385""
""blur"",""22"",""71916""
""focus"",""23"",""73224""
""blur"",""29"",""87118""
""focus"",""30"",""94213""
""blur"",""30"",""94727""
""focus"",""30"",""95720""
","""event"",""trial"",""time""
""blur"",""1"",""113""
""blur"",""2"",""4347""
""blur"",""13"",""45119""
""blur"",""20"",""66074""
""blur"",""22"",""71916""
""blur"",""29"",""87118""
""blur"",""30"",""94727""
","""event"",""trial"",""time""
""focus"",""1"",""2302""
""focus"",""2"",""5451""
""focus"",""14"",""47790""
""focus"",""21"",""67385""
""focus"",""23"",""73224""
""focus"",""30"",""94213""
""focus"",""30"",""95720""
","""event"",""trial"",""time""
""fullscreenenter"",""5"",""12937""
","""event"",""trial"",""time""
""fullscreenexit"",""6"",""15601""
","","","","","","","","","","","","","","","","","","","","","",""
"d3-instructions","53","140133","0.0-53.0","233","645","17","Female","true","false","true","true","""event"",""trial"",""time""
""blur"",""1"",""113""
""focus"",""1"",""2302""
""blur"",""2"",""4347""
""focus"",""2"",""5451""
""fullscreenenter"",""5"",""12937""
""fullscreenexit"",""6"",""15601""
""blur"",""13"",""45119""
""focus"",""14"",""47790""
""blur"",""20"",""66074""
""focus"",""21"",""67385""
""blur"",""22"",""71916""
""focus"",""23"",""73224""
""blur"",""29"",""87118""
""focus"",""30"",""94213""
""blur"",""30"",""94727""
""focus"",""30"",""95720""
","""event"",""trial"",""time""
""blur"",""1"",""113""
""blur"",""2"",""4347""
""blur"",""13"",""45119""
""blur"",""20"",""66074""
""blur"",""22"",""71916""
""blur"",""29"",""87118""
""blur"",""30"",""94727""
","""event"",""trial"",""time""
""focus"",""1"",""2302""
""focus"",""2"",""5451""
""focus"",""14"",""47790""
""focus"",""21"",""67385""
""focus"",""23"",""73224""
""focus"",""30"",""94213""
""focus"",""30"",""95720""
","""event"",""trial"",""time""
""fullscreenenter"",""5"",""12937""
","""event"",""trial"",""time""
""fullscreenexit"",""6"",""15601""
","","","","","","","","","","","","","","","","","","","","","",""
"d3-instructions","54","143798","0.0-54.0","233","645","17","Female","true","false","true","true","""event"",""trial"",""time""
""blur"",""1"",""113""
""focus"",""1"",""2302""
""blur"",""2"",""4347""
""focus"",""2"",""5451""
""fullscreenenter"",""5"",""12937""
""fullscreenexit"",""6"",""15601""
""blur"",""13"",""45119""
""focus"",""14"",""47790""
""blur"",""20"",""66074""
""focus"",""21"",""67385""
""blur"",""22"",""71916""
""focus"",""23"",""73224""
""blur"",""29"",""87118""
""focus"",""30"",""94213""
""blur"",""30"",""94727""
""focus"",""30"",""95720""
","""event"",""trial"",""time""
""blur"",""1"",""113""
""blur"",""2"",""4347""
""blur"",""13"",""45119""
""blur"",""20"",""66074""
""blur"",""22"",""71916""
""blur"",""29"",""87118""
""blur"",""30"",""94727""
","""event"",""trial"",""time""
""focus"",""1"",""2302""
""focus"",""2"",""5451""
""focus"",""14"",""47790""
""focus"",""21"",""67385""
""focus"",""23"",""73224""
""focus"",""30"",""94213""
""focus"",""30"",""95720""
","""event"",""trial"",""time""
""fullscreenenter"",""5"",""12937""
","""event"",""trial"",""time""
""fullscreenexit"",""6"",""15601""
","","","","","","","","","","","","","","","","","","","","","",""
"d3-instructions","55","146567","0.0-55.0","233","645","17","Female","true","false","true","true","""event"",""trial"",""time""
""blur"",""1"",""113""
""focus"",""1"",""2302""
""blur"",""2"",""4347""
""focus"",""2"",""5451""
""fullscreenenter"",""5"",""12937""
""fullscreenexit"",""6"",""15601""
""blur"",""13"",""45119""
""focus"",""14"",""47790""
""blur"",""20"",""66074""
""focus"",""21"",""67385""
""blur"",""22"",""71916""
""focus"",""23"",""73224""
""blur"",""29"",""87118""
""focus"",""30"",""94213""
""blur"",""30"",""94727""
""focus"",""30"",""95720""
","""event"",""trial"",""time""
""blur"",""1"",""113""
""blur"",""2"",""4347""
""blur"",""13"",""45119""
""blur"",""20"",""66074""
""blur"",""22"",""71916""
""blur"",""29"",""87118""
""blur"",""30"",""94727""
","""event"",""trial"",""time""
""focus"",""1"",""2302""
""focus"",""2"",""5451""
""focus"",""14"",""47790""
""focus"",""21"",""67385""
""focus"",""23"",""73224""
""focus"",""30"",""94213""
""focus"",""30"",""95720""
","""event"",""trial"",""time""
""fullscreenenter"",""5"",""12937""
","""event"",""trial"",""time""
""fullscreenexit"",""6"",""15601""
","","","","","","","","","","","","","","","","","","","","","",""
"d3-instructions","56","147987","0.0-56.0","233","645","17","Female","true","false","true","true","""event"",""trial"",""time""
""blur"",""1"",""113""
""focus"",""1"",""2302""
""blur"",""2"",""4347""
""focus"",""2"",""5451""
""fullscreenenter"",""5"",""12937""
""fullscreenexit"",""6"",""15601""
""blur"",""13"",""45119""
""focus"",""14"",""47790""
""blur"",""20"",""66074""
""focus"",""21"",""67385""
""blur"",""22"",""71916""
""focus"",""23"",""73224""
""blur"",""29"",""87118""
""focus"",""30"",""94213""
""blur"",""30"",""94727""
""focus"",""30"",""95720""
","""event"",""trial"",""time""
""blur"",""1"",""113""
""blur"",""2"",""4347""
""blur"",""13"",""45119""
""blur"",""20"",""66074""
""blur"",""22"",""71916""
""blur"",""29"",""87118""
""blur"",""30"",""94727""
","""event"",""trial"",""time""
""focus"",""1"",""2302""
""focus"",""2"",""5451""
""focus"",""14"",""47790""
""focus"",""21"",""67385""
""focus"",""23"",""73224""
""focus"",""30"",""94213""
""focus"",""30"",""95720""
","""event"",""trial"",""time""
""fullscreenenter"",""5"",""12937""
","""event"",""trial"",""time""
""fullscreenexit"",""6"",""15601""
","","","","","","","","","","","","","","","","","","","","","",""
"d3-instructions","57","151118","0.0-57.0","233","645","17","Female","true","false","true","true","""event"",""trial"",""time""
""blur"",""1"",""113""
""focus"",""1"",""2302""
""blur"",""2"",""4347""
""focus"",""2"",""5451""
""fullscreenenter"",""5"",""12937""
""fullscreenexit"",""6"",""15601""
""blur"",""13"",""45119""
""focus"",""14"",""47790""
""blur"",""20"",""66074""
""focus"",""21"",""67385""
""blur"",""22"",""71916""
""focus"",""23"",""73224""
""blur"",""29"",""87118""
""focus"",""30"",""94213""
""blur"",""30"",""94727""
""focus"",""30"",""95720""
","""event"",""trial"",""time""
""blur"",""1"",""113""
""blur"",""2"",""4347""
""blur"",""13"",""45119""
""blur"",""20"",""66074""
""blur"",""22"",""71916""
""blur"",""29"",""87118""
""blur"",""30"",""94727""
","""event"",""trial"",""time""
""focus"",""1"",""2302""
""focus"",""2"",""5451""
""focus"",""14"",""47790""
""focus"",""21"",""67385""
""focus"",""23"",""73224""
""focus"",""30"",""94213""
""focus"",""30"",""95720""
","""event"",""trial"",""time""
""fullscreenenter"",""5"",""12937""
","""event"",""trial"",""time""
""fullscreenexit"",""6"",""15601""
","","","","","","","","","","","","","","","","","","","","","",""
"d3-instructions","58","152284","0.0-58.0","233","645","17","Female","true","false","true","true","""event"",""trial"",""time""
""blur"",""1"",""113""
""focus"",""1"",""2302""
""blur"",""2"",""4347""
""focus"",""2"",""5451""
""fullscreenenter"",""5"",""12937""
""fullscreenexit"",""6"",""15601""
""blur"",""13"",""45119""
""focus"",""14"",""47790""
""blur"",""20"",""66074""
""focus"",""21"",""67385""
""blur"",""22"",""71916""
""focus"",""23"",""73224""
""blur"",""29"",""87118""
""focus"",""30"",""94213""
""blur"",""30"",""94727""
""focus"",""30"",""95720""
","""event"",""trial"",""time""
""blur"",""1"",""113""
""blur"",""2"",""4347""
""blur"",""13"",""45119""
""blur"",""20"",""66074""
""blur"",""22"",""71916""
""blur"",""29"",""87118""
""blur"",""30"",""94727""
","""event"",""trial"",""time""
""focus"",""1"",""2302""
""focus"",""2"",""5451""
""focus"",""14"",""47790""
""focus"",""21"",""67385""
""focus"",""23"",""73224""
""focus"",""30"",""94213""
""focus"",""30"",""95720""
","""event"",""trial"",""time""
""fullscreenenter"",""5"",""12937""
","""event"",""trial"",""time""
""fullscreenexit"",""6"",""15601""
","","","","","","","","","","","","","","","","","","","","","",""
"d3-instructions","59","153072","0.0-59.0","233","645","17","Female","true","false","true","true","""event"",""trial"",""time""
""blur"",""1"",""113""
""focus"",""1"",""2302""
""blur"",""2"",""4347""
""focus"",""2"",""5451""
""fullscreenenter"",""5"",""12937""
""fullscreenexit"",""6"",""15601""
""blur"",""13"",""45119""
""focus"",""14"",""47790""
""blur"",""20"",""66074""
""focus"",""21"",""67385""
""blur"",""22"",""71916""
""focus"",""23"",""73224""
""blur"",""29"",""87118""
""focus"",""30"",""94213""
""blur"",""30"",""94727""
""focus"",""30"",""95720""
","""event"",""trial"",""time""
""blur"",""1"",""113""
""blur"",""2"",""4347""
""blur"",""13"",""45119""
""blur"",""20"",""66074""
""blur"",""22"",""71916""
""blur"",""29"",""87118""
""blur"",""30"",""94727""
","""event"",""trial"",""time""
""focus"",""1"",""2302""
""focus"",""2"",""5451""
""focus"",""14"",""47790""
""focus"",""21"",""67385""
""focus"",""23"",""73224""
""focus"",""30"",""94213""
""focus"",""30"",""95720""
","""event"",""trial"",""time""
""fullscreenenter"",""5"",""12937""
","""event"",""trial"",""time""
""fullscreenexit"",""6"",""15601""
","","","","","","","","","","","","","","","","","","","","","",""
"d3-instructions","60","154038","0.0-60.0","233","645","17","Female","true","false","true","true","""event"",""trial"",""time""
""blur"",""1"",""113""
""focus"",""1"",""2302""
""blur"",""2"",""4347""
""focus"",""2"",""5451""
""fullscreenenter"",""5"",""12937""
""fullscreenexit"",""6"",""15601""
""blur"",""13"",""45119""
""focus"",""14"",""47790""
""blur"",""20"",""66074""
""focus"",""21"",""67385""
""blur"",""22"",""71916""
""focus"",""23"",""73224""
""blur"",""29"",""87118""
""focus"",""30"",""94213""
""blur"",""30"",""94727""
""focus"",""30"",""95720""
","""event"",""trial"",""time""
""blur"",""1"",""113""
""blur"",""2"",""4347""
""blur"",""13"",""45119""
""blur"",""20"",""66074""
""blur"",""22"",""71916""
""blur"",""29"",""87118""
""blur"",""30"",""94727""
","""event"",""trial"",""time""
""focus"",""1"",""2302""
""focus"",""2"",""5451""
""focus"",""14"",""47790""
""focus"",""21"",""67385""
""focus"",""23"",""73224""
""focus"",""30"",""94213""
""focus"",""30"",""95720""
","""event"",""trial"",""time""
""fullscreenenter"",""5"",""12937""
","""event"",""trial"",""time""
""fullscreenexit"",""6"",""15601""
","","","","","","","","","","","","","","","","","","","","","",""
"d3-animate-choice","61","156860","0.0-61.0-0.0","233","645","17","Female","true","false","true","true","""event"",""trial"",""time""
""blur"",""1"",""113""
""focus"",""1"",""2302""
""blur"",""2"",""4347""
""focus"",""2"",""5451""
""fullscreenenter"",""5"",""12937""
""fullscreenexit"",""6"",""15601""
""blur"",""13"",""45119""
""focus"",""14"",""47790""
""blur"",""20"",""66074""
""focus"",""21"",""67385""
""blur"",""22"",""71916""
""focus"",""23"",""73224""
""blur"",""29"",""87118""
""focus"",""30"",""94213""
""blur"",""30"",""94727""
""focus"",""30"",""95720""
","""event"",""trial"",""time""
""blur"",""1"",""113""
""blur"",""2"",""4347""
""blur"",""13"",""45119""
""blur"",""20"",""66074""
""blur"",""22"",""71916""
""blur"",""29"",""87118""
""blur"",""30"",""94727""
","""event"",""trial"",""time""
""focus"",""1"",""2302""
""focus"",""2"",""5451""
""focus"",""14"",""47790""
""focus"",""21"",""67385""
""focus"",""23"",""73224""
""focus"",""30"",""94213""
""focus"",""30"",""95720""
","""event"",""trial"",""time""
""fullscreenenter"",""5"",""12937""
","""event"",""trial"",""time""
""fullscreenexit"",""6"",""15601""
","819","","49","","","3000","1","","","images/earth.jpg","images/tutrocket1","images/tutrocket2","null","images/tutrocket2","","1","practice","null","1","","",""
"d3-animate-choice","62","159649","0.0-61.0-1.0","233","645","17","Female","true","false","true","true","""event"",""trial"",""time""
""blur"",""1"",""113""
""focus"",""1"",""2302""
""blur"",""2"",""4347""
""focus"",""2"",""5451""
""fullscreenenter"",""5"",""12937""
""fullscreenexit"",""6"",""15601""
""blur"",""13"",""45119""
""focus"",""14"",""47790""
""blur"",""20"",""66074""
""focus"",""21"",""67385""
""blur"",""22"",""71916""
""focus"",""23"",""73224""
""blur"",""29"",""87118""
""focus"",""30"",""94213""
""blur"",""30"",""94727""
""focus"",""30"",""95720""
","""event"",""trial"",""time""
""blur"",""1"",""113""
""blur"",""2"",""4347""
""blur"",""13"",""45119""
""blur"",""20"",""66074""
""blur"",""22"",""71916""
""blur"",""29"",""87118""
""blur"",""30"",""94727""
","""event"",""trial"",""time""
""focus"",""1"",""2302""
""focus"",""2"",""5451""
""focus"",""14"",""47790""
""focus"",""21"",""67385""
""focus"",""23"",""73224""
""focus"",""30"",""94213""
""focus"",""30"",""95720""
","""event"",""trial"",""time""
""fullscreenenter"",""5"",""12937""
","""event"",""trial"",""time""
""fullscreenexit"",""6"",""15601""
","775.1999999880791","","48","","","3000","1","","","images/tutgreenplanet.jpg","images/tutalien2","images/tutalien1","images/tutrocket2","images/tutalien2","images/nothing.png","2","practice","true","2","common","0","2022-02-06 07:19:07.626"
"two-step-fixation","63","160659","0.0-61.0-2.0","233","645","17","Female","true","false","true","true","""event"",""trial"",""time""
""blur"",""1"",""113""
""focus"",""1"",""2302""
""blur"",""2"",""4347""
""focus"",""2"",""5451""
""fullscreenenter"",""5"",""12937""
""fullscreenexit"",""6"",""15601""
""blur"",""13"",""45119""
""focus"",""14"",""47790""
""blur"",""20"",""66074""
""focus"",""21"",""67385""
""blur"",""22"",""71916""
""focus"",""23"",""73224""
""blur"",""29"",""87118""
""focus"",""30"",""94213""
""blur"",""30"",""94727""
""focus"",""30"",""95720""
","""event"",""trial"",""time""
""blur"",""1"",""113""
""blur"",""2"",""4347""
""blur"",""13"",""45119""
""blur"",""20"",""66074""
""blur"",""22"",""71916""
""blur"",""29"",""87118""
""blur"",""30"",""94727""
","""event"",""trial"",""time""
""focus"",""1"",""2302""
""focus"",""2"",""5451""
""focus"",""14"",""47790""
""focus"",""21"",""67385""
""focus"",""23"",""73224""
""focus"",""30"",""94213""
""focus"",""30"",""95720""
","""event"",""trial"",""time""
""fullscreenenter"",""5"",""12937""
","""event"",""trial"",""time""
""fullscreenexit"",""6"",""15601""
","","images/earth.jpg","","","","","","","","","","","","","","fixation","","","","","",""
"d3-animate-choice","64","163067","0.0-61.0-0.1","233","645","17","Female","true","false","true","true","""event"",""trial"",""time""
""blur"",""1"",""113""
""focus"",""1"",""2302""
""blur"",""2"",""4347""
""focus"",""2"",""5451""
""fullscreenenter"",""5"",""12937""
""fullscreenexit"",""6"",""15601""
""blur"",""13"",""45119""
""focus"",""14"",""47790""
""blur"",""20"",""66074""
""focus"",""21"",""67385""
""blur"",""22"",""71916""
""focus"",""23"",""73224""
""blur"",""29"",""87118""
""focus"",""30"",""94213""
""blur"",""30"",""94727""
""focus"",""30"",""95720""
","""event"",""trial"",""time""
""blur"",""1"",""113""
""blur"",""2"",""4347""
""blur"",""13"",""45119""
""blur"",""20"",""66074""
""blur"",""22"",""71916""
""blur"",""29"",""87118""
""blur"",""30"",""94727""
","""event"",""trial"",""time""
""focus"",""1"",""2302""
""focus"",""2"",""5451""
""focus"",""14"",""47790""
""focus"",""21"",""67385""
""focus"",""23"",""73224""
""focus"",""30"",""94213""
""focus"",""30"",""95720""
","""event"",""trial"",""time""
""fullscreenenter"",""5"",""12937""
","""event"",""trial"",""time""
""fullscreenexit"",""6"",""15601""
","400.39999997615814","","48","","","3000","1","","","images/earth.jpg","images/tutrocket1","images/tutrocket2","null","images/tutrocket1","","1","practice","null","2","","",""
"d3-animate-choice","65","165318","0.0-61.0-1.1","233","645","17","Female","true","false","true","true","""event"",""trial"",""time""
""blur"",""1"",""113""
""focus"",""1"",""2302""
""blur"",""2"",""4347""
""focus"",""2"",""5451""
""fullscreenenter"",""5"",""12937""
""fullscreenexit"",""6"",""15601""
""blur"",""13"",""45119""
""focus"",""14"",""47790""
""blur"",""20"",""66074""
""focus"",""21"",""67385""
""blur"",""22"",""71916""
""focus"",""23"",""73224""
""blur"",""29"",""87118""
""focus"",""30"",""94213""
""blur"",""30"",""94727""
""focus"",""30"",""95720""
","""event"",""trial"",""time""
""blur"",""1"",""113""
""blur"",""2"",""4347""
""blur"",""13"",""45119""
""blur"",""20"",""66074""
""blur"",""22"",""71916""
""blur"",""29"",""87118""
""blur"",""30"",""94727""
","""event"",""trial"",""time""
""focus"",""1"",""2302""
""focus"",""2"",""5451""
""focus"",""14"",""47790""
""focus"",""21"",""67385""
""focus"",""23"",""73224""
""focus"",""30"",""94213""
""focus"",""30"",""95720""
","""event"",""trial"",""time""
""fullscreenenter"",""5"",""12937""
","""event"",""trial"",""time""
""fullscreenexit"",""6"",""15601""
","248.5","","49","","","3000","1","531.8000000119209","49","images/tutyellowplanet.jpg","images/tutalien4","images/tutalien3","images/tutrocket1","images/tutalien3","images/nothing.png","2","practice","true","1","common","0","2022-02-06 07:19:13.295"
"two-step-fixation","66","166322","0.0-61.0-2.1","233","645","17","Female","true","false","true","true","""event"",""trial"",""time""
""blur"",""1"",""113""
""focus"",""1"",""2302""
""blur"",""2"",""4347""
""focus"",""2"",""5451""
""fullscreenenter"",""5"",""12937""
""fullscreenexit"",""6"",""15601""
""blur"",""13"",""45119""
""focus"",""14"",""47790""
""blur"",""20"",""66074""
""focus"",""21"",""67385""
""blur"",""22"",""71916""
""focus"",""23"",""73224""
""blur"",""29"",""87118""
""focus"",""30"",""94213""
""blur"",""30"",""94727""
""focus"",""30"",""95720""
","""event"",""trial"",""time""
""blur"",""1"",""113""
""blur"",""2"",""4347""
""blur"",""13"",""45119""
""blur"",""20"",""66074""
""blur"",""22"",""71916""
""blur"",""29"",""87118""
""blur"",""30"",""94727""
","""event"",""trial"",""time""
""focus"",""1"",""2302""
""focus"",""2"",""5451""
""focus"",""14"",""47790""
""focus"",""21"",""67385""
""focus"",""23"",""73224""
""focus"",""30"",""94213""
""focus"",""30"",""95720""
","""event"",""trial"",""time""
""fullscreenenter"",""5"",""12937""
","""event"",""trial"",""time""
""fullscreenexit"",""6"",""15601""
","","images/earth.jpg","","","","","","","","","","","","","","fixation","","","","","",""
"d3-animate-choice","67","168769","0.0-61.0-0.2","233","645","17","Female","true","false","true","true","""event"",""trial"",""time""
""blur"",""1"",""113""
""focus"",""1"",""2302""
""blur"",""2"",""4347""
""focus"",""2"",""5451""
""fullscreenenter"",""5"",""12937""
""fullscreenexit"",""6"",""15601""
""blur"",""13"",""45119""
""focus"",""14"",""47790""
""blur"",""20"",""66074""
""focus"",""21"",""67385""
""blur"",""22"",""71916""
""focus"",""23"",""73224""
""blur"",""29"",""87118""
""focus"",""30"",""94213""
""blur"",""30"",""94727""
""focus"",""30"",""95720""
","""event"",""trial"",""time""
""blur"",""1"",""113""
""blur"",""2"",""4347""
""blur"",""13"",""45119""
""blur"",""20"",""66074""
""blur"",""22"",""71916""
""blur"",""29"",""87118""
""blur"",""30"",""94727""
","""event"",""trial"",""time""
""focus"",""1"",""2302""
""focus"",""2"",""5451""
""focus"",""14"",""47790""
""focus"",""21"",""67385""
""focus"",""23"",""73224""
""focus"",""30"",""94213""
""focus"",""30"",""95720""
","""event"",""trial"",""time""
""fullscreenenter"",""5"",""12937""
","""event"",""trial"",""time""
""fullscreenexit"",""6"",""15601""
","443.0999999642372","","49","","","3000","1","","","images/earth.jpg","images/tutrocket1","images/tutrocket2","null","images/tutrocket2","","1","practice","null","1","","",""
"d3-animate-choice","68","171221","0.0-61.0-1.2","233","645","17","Female","true","false","true","true","""event"",""trial"",""time""
""blur"",""1"",""113""
""focus"",""1"",""2302""
""blur"",""2"",""4347""
""focus"",""2"",""5451""
""fullscreenenter"",""5"",""12937""
""fullscreenexit"",""6"",""15601""
""blur"",""13"",""45119""
""focus"",""14"",""47790""
""blur"",""20"",""66074""
""focus"",""21"",""67385""
""blur"",""22"",""71916""
""focus"",""23"",""73224""
""blur"",""29"",""87118""
""focus"",""30"",""94213""
""blur"",""30"",""94727""
""focus"",""30"",""95720""
","""event"",""trial"",""time""
""blur"",""1"",""113""
""blur"",""2"",""4347""
""blur"",""13"",""45119""
""blur"",""20"",""66074""
""blur"",""22"",""71916""
""blur"",""29"",""87118""
""blur"",""30"",""94727""
","""event"",""trial"",""time""
""focus"",""1"",""2302""
""focus"",""2"",""5451""
""focus"",""14"",""47790""
""focus"",""21"",""67385""
""focus"",""23"",""73224""
""focus"",""30"",""94213""
""focus"",""30"",""95720""
","""event"",""trial"",""time""
""fullscreenenter"",""5"",""12937""
","""event"",""trial"",""time""
""fullscreenexit"",""6"",""15601""
","447.60000002384186","","48","","","3000","1","","","images/tutgreenplanet.jpg","images/tutalien2","images/tutalien1","images/tutrocket2","images/tutalien2","images/t.png","2","practice","true","2","common","1","2022-02-06 07:19:19.198"
"two-step-fixation","69","172227","0.0-61.0-2.2","233","645","17","Female","true","false","true","true","""event"",""trial"",""time""
""blur"",""1"",""113""
""focus"",""1"",""2302""
""blur"",""2"",""4347""
""focus"",""2"",""5451""
""fullscreenenter"",""5"",""12937""
""fullscreenexit"",""6"",""15601""
""blur"",""13"",""45119""
""focus"",""14"",""47790""
""blur"",""20"",""66074""
""focus"",""21"",""67385""
""blur"",""22"",""71916""
""focus"",""23"",""73224""
""blur"",""29"",""87118""
""focus"",""30"",""94213""
""blur"",""30"",""94727""
""focus"",""30"",""95720""
","""event"",""trial"",""time""
""blur"",""1"",""113""
""blur"",""2"",""4347""
""blur"",""13"",""45119""
""blur"",""20"",""66074""
""blur"",""22"",""71916""
""blur"",""29"",""87118""
""blur"",""30"",""94727""
","""event"",""trial"",""time""
""focus"",""1"",""2302""
""focus"",""2"",""5451""
""focus"",""14"",""47790""
""focus"",""21"",""67385""
""focus"",""23"",""73224""
""focus"",""30"",""94213""
""focus"",""30"",""95720""
","""event"",""trial"",""time""
""fullscreenenter"",""5"",""12937""
","""event"",""trial"",""time""
""fullscreenexit"",""6"",""15601""
","","images/earth.jpg","","","","","","","","","","","","","","fixation","","","","","",""
"d3-animate-choice","70","174642","0.0-61.0-0.3","233","645","17","Female","true","false","true","true","""event"",""trial"",""time""
""blur"",""1"",""113""
""focus"",""1"",""2302""
""blur"",""2"",""4347""
""focus"",""2"",""5451""
""fullscreenenter"",""5"",""12937""
""fullscreenexit"",""6"",""15601""
""blur"",""13"",""45119""
""focus"",""14"",""47790""
""blur"",""20"",""66074""
""focus"",""21"",""67385""
""blur"",""22"",""71916""
""focus"",""23"",""73224""
""blur"",""29"",""87118""
""focus"",""30"",""94213""
""blur"",""30"",""94727""
""focus"",""30"",""95720""
","""event"",""trial"",""time""
""blur"",""1"",""113""
""blur"",""2"",""4347""
""blur"",""13"",""45119""
""blur"",""20"",""66074""
""blur"",""22"",""71916""
""blur"",""29"",""87118""
""blur"",""30"",""94727""
","""event"",""trial"",""time""
""focus"",""1"",""2302""
""focus"",""2"",""5451""
""focus"",""14"",""47790""
""focus"",""21"",""67385""
""focus"",""23"",""73224""
""focus"",""30"",""94213""
""focus"",""30"",""95720""
","""event"",""trial"",""time""
""fullscreenenter"",""5"",""12937""
","""event"",""trial"",""time""
""fullscreenexit"",""6"",""15601""
","410.69999998807907","","48","","","3000","1","","","images/earth.jpg","images/tutrocket1","images/tutrocket2","null","images/tutrocket1","","1","practice","null","2","","",""
"d3-animate-choice","71","176992","0.0-61.0-1.3","233","645","17","Female","true","false","true","true","""event"",""trial"",""time""
""blur"",""1"",""113""
""focus"",""1"",""2302""
""blur"",""2"",""4347""
""focus"",""2"",""5451""
""fullscreenenter"",""5"",""12937""
""fullscreenexit"",""6"",""15601""
""blur"",""13"",""45119""
""focus"",""14"",""47790""
""blur"",""20"",""66074""
""focus"",""21"",""67385""
""blur"",""22"",""71916""
""focus"",""23"",""73224""
""blur"",""29"",""87118""
""focus"",""30"",""94213""
""blur"",""30"",""94727""
""focus"",""30"",""95720""
","""event"",""trial"",""time""
""blur"",""1"",""113""
""blur"",""2"",""4347""
""blur"",""13"",""45119""
""blur"",""20"",""66074""
""blur"",""22"",""71916""
""blur"",""29"",""87118""
""blur"",""30"",""94727""
","""event"",""trial"",""time""
""focus"",""1"",""2302""
""focus"",""2"",""5451""
""focus"",""14"",""47790""
""focus"",""21"",""67385""
""focus"",""23"",""73224""
""focus"",""30"",""94213""
""focus"",""30"",""95720""
","""event"",""trial"",""time""
""fullscreenenter"",""5"",""12937""
","""event"",""trial"",""time""
""fullscreenexit"",""6"",""15601""
","344","","48","","","3000","1","","","images/tutyellowplanet.jpg","images/tutalien4","images/tutalien3","images/tutrocket1","images/tutalien4","images/nothing.png","2","practice","true","2","common","0","2022-02-06 07:19:24.969"
"two-step-fixation","72","177997","0.0-61.0-2.3","233","645","17","Female","true","false","true","true","""event"",""trial"",""time""
""blur"",""1"",""113""
""focus"",""1"",""2302""
""blur"",""2"",""4347""
""focus"",""2"",""5451""
""fullscreenenter"",""5"",""12937""
""fullscreenexit"",""6"",""15601""
""blur"",""13"",""45119""
""focus"",""14"",""47790""
""blur"",""20"",""66074""
""focus"",""21"",""67385""
""blur"",""22"",""71916""
""focus"",""23"",""73224""
""blur"",""29"",""87118""
""focus"",""30"",""94213""
""blur"",""30"",""94727""
""focus"",""30"",""95720""
","""event"",""trial"",""time""
""blur"",""1"",""113""
""blur"",""2"",""4347""
""blur"",""13"",""45119""
""blur"",""20"",""66074""
""blur"",""22"",""71916""
""blur"",""29"",""87118""
""blur"",""30"",""94727""
","""event"",""trial"",""time""
""focus"",""1"",""2302""
""focus"",""2"",""5451""
""focus"",""14"",""47790""
""focus"",""21"",""67385""
""focus"",""23"",""73224""
""focus"",""30"",""94213""
""focus"",""30"",""95720""
","""event"",""trial"",""time""
""fullscreenenter"",""5"",""12937""
","""event"",""trial"",""time""
""fullscreenexit"",""6"",""15601""
","","images/earth.jpg","","","","","","","","","","","","","","fixation","","","","","",""
"d3-animate-choice","73","180068","0.0-61.0-0.4","233","645","17","Female","true","false","true","true","""event"",""trial"",""time""
""blur"",""1"",""113""
""focus"",""1"",""2302""
""blur"",""2"",""4347""
""focus"",""2"",""5451""
""fullscreenenter"",""5"",""12937""
""fullscreenexit"",""6"",""15601""
""blur"",""13"",""45119""
""focus"",""14"",""47790""
""blur"",""20"",""66074""
""focus"",""21"",""67385""
""blur"",""22"",""71916""
""focus"",""23"",""73224""
""blur"",""29"",""87118""
""focus"",""30"",""94213""
""blur"",""30"",""94727""
""focus"",""30"",""95720""
","""event"",""trial"",""time""
""blur"",""1"",""113""
""blur"",""2"",""4347""
""blur"",""13"",""45119""
""blur"",""20"",""66074""
""blur"",""22"",""71916""
""blur"",""29"",""87118""
""blur"",""30"",""94727""
","""event"",""trial"",""time""
""focus"",""1"",""2302""
""focus"",""2"",""5451""
""focus"",""14"",""47790""
""focus"",""21"",""67385""
""focus"",""23"",""73224""
""focus"",""30"",""94213""
""focus"",""30"",""95720""
","""event"",""trial"",""time""
""fullscreenenter"",""5"",""12937""
","""event"",""trial"",""time""
""fullscreenexit"",""6"",""15601""
","66.90000003576279","","49","","","3000","1","159.5,264.80000001192093,367.60000002384186,474,588,691.8000000119209,795.3000000119209,919.1000000238419,1002.8000000119209,1174,1237.800000011921,1401.1000000238419,1473.6000000238419,1649.9000000357628,1704.300000011921,1863.5,1955.5","48,49,48,49,48,49,48,49,48,49,48,49,48,49,48,49,48","images/earth.jpg","images/tutrocket1","images/tutrocket2","null","images/tutrocket2","","1","practice","null","1","","",""
"d3-animate-choice","74","182121","0.0-61.0-1.4","233","645","17","Female","true","false","true","true","""event"",""trial"",""time""
""blur"",""1"",""113""
""focus"",""1"",""2302""
""blur"",""2"",""4347""
""focus"",""2"",""5451""
""fullscreenenter"",""5"",""12937""
""fullscreenexit"",""6"",""15601""
""blur"",""13"",""45119""
""focus"",""14"",""47790""
""blur"",""20"",""66074""
""focus"",""21"",""67385""
""blur"",""22"",""71916""
""focus"",""23"",""73224""
""blur"",""29"",""87118""
""focus"",""30"",""94213""
""blur"",""30"",""94727""
""focus"",""30"",""95720""
","""event"",""trial"",""time""
""blur"",""1"",""113""
""blur"",""2"",""4347""
""blur"",""13"",""45119""
""blur"",""20"",""66074""
""blur"",""22"",""71916""
""blur"",""29"",""87118""
""blur"",""30"",""94727""
","""event"",""trial"",""time""
""focus"",""1"",""2302""
""focus"",""2"",""5451""
""focus"",""14"",""47790""
""focus"",""21"",""67385""
""focus"",""23"",""73224""
""focus"",""30"",""94213""
""focus"",""30"",""95720""
","""event"",""trial"",""time""
""fullscreenenter"",""5"",""12937""
","""event"",""trial"",""time""
""fullscreenexit"",""6"",""15601""
","47.5","","49","","","3000","1","114.80000001192093,281.80000001192093,369.5,529.8999999761581,605.8000000119209,783.3000000119209,849.6999999880791,1046.199999988079,1083,1287.699999988079,1299.300000011921,1490,1569,1711.8999999761581,1818.199999988079,1917","48,49,48,49,48,49,48,49,48,49,48,48,49,48,49,48","images/tutgreenplanet.jpg","images/tutalien2","images/tutalien1","images/tutrocket2","images/tutalien1","images/nothing.png","2","practice","true","1","common","0","2022-02-06 07:19:30.098"
"two-step-fixation","75","183127","0.0-61.0-2.4","233","645","17","Female","true","false","true","true","""event"",""trial"",""time""
""blur"",""1"",""113""
""focus"",""1"",""2302""
""blur"",""2"",""4347""
""focus"",""2"",""5451""
""fullscreenenter"",""5"",""12937""
""fullscreenexit"",""6"",""15601""
""blur"",""13"",""45119""
""focus"",""14"",""47790""
""blur"",""20"",""66074""
""focus"",""21"",""67385""
""blur"",""22"",""71916""
""focus"",""23"",""73224""
""blur"",""29"",""87118""
""focus"",""30"",""94213""
""blur"",""30"",""94727""
""focus"",""30"",""95720""
","""event"",""trial"",""time""
""blur"",""1"",""113""
""blur"",""2"",""4347""
""blur"",""13"",""45119""
""blur"",""20"",""66074""
""blur"",""22"",""71916""
""blur"",""29"",""87118""
""blur"",""30"",""94727""
","""event"",""trial"",""time""
""focus"",""1"",""2302""
""focus"",""2"",""5451""
""focus"",""14"",""47790""
""focus"",""21"",""67385""
""focus"",""23"",""73224""
""focus"",""30"",""94213""
""focus"",""30"",""95720""
","""event"",""trial"",""time""
""fullscreenenter"",""5"",""12937""
","""event"",""trial"",""time""
""fullscreenexit"",""6"",""15601""
","","images/earth.jpg","","","","","","","","","","","","","","fixation","","","","","",""
"d3-animate-choice","76","185156","0.0-61.0-0.5","233","645","17","Female","true","false","true","true","""event"",""trial"",""time""
""blur"",""1"",""113""
""focus"",""1"",""2302""
""blur"",""2"",""4347""
""focus"",""2"",""5451""
""fullscreenenter"",""5"",""12937""
""fullscreenexit"",""6"",""15601""
""blur"",""13"",""45119""
""focus"",""14"",""47790""
""blur"",""20"",""66074""
""focus"",""21"",""67385""
""blur"",""22"",""71916""
""focus"",""23"",""73224""
""blur"",""29"",""87118""
""focus"",""30"",""94213""
""blur"",""30"",""94727""
""focus"",""30"",""95720""
","""event"",""trial"",""time""
""blur"",""1"",""113""
""blur"",""2"",""4347""
""blur"",""13"",""45119""
""blur"",""20"",""66074""
""blur"",""22"",""71916""
""blur"",""29"",""87118""
""blur"",""30"",""94727""
","""event"",""trial"",""time""
""focus"",""1"",""2302""
""focus"",""2"",""5451""
""focus"",""14"",""47790""
""focus"",""21"",""67385""
""focus"",""23"",""73224""
""focus"",""30"",""94213""
""focus"",""30"",""95720""
","""event"",""trial"",""time""
""fullscreenenter"",""5"",""12937""
","""event"",""trial"",""time""
""fullscreenexit"",""6"",""15601""
","25.80000001192093","","48","","","3000","1","154.80000001192093,237.9000000357628,376.80000001192093,422.30000001192093,604.8000000119209,621.6999999880791,822.3000000119209,843.8000000119209,1057,1057.300000011921,1272.800000011921,1287.800000011921,1487.5,1523.800000011921,1696.800000011921,1772.1000000238419,1917.800000011921,2019.199999988079","49,48,49,48,49,48,49,48,49,48,49,48,48,49,48,49,48,49","images/earth.jpg","images/tutrocket1","images/tutrocket2","null","images/tutrocket1","","1","practice","null","2","","",""
"d3-animate-choice","77","187264","0.0-61.0-1.5","233","645","17","Female","true","false","true","true","""event"",""trial"",""time""
""blur"",""1"",""113""
""focus"",""1"",""2302""
""blur"",""2"",""4347""
""focus"",""2"",""5451""
""fullscreenenter"",""5"",""12937""
""fullscreenexit"",""6"",""15601""
""blur"",""13"",""45119""
""focus"",""14"",""47790""
""blur"",""20"",""66074""
""focus"",""21"",""67385""
""blur"",""22"",""71916""
""focus"",""23"",""73224""
""blur"",""29"",""87118""
""focus"",""30"",""94213""
""blur"",""30"",""94727""
""focus"",""30"",""95720""
","""event"",""trial"",""time""
""blur"",""1"",""113""
""blur"",""2"",""4347""
""blur"",""13"",""45119""
""blur"",""20"",""66074""
""blur"",""22"",""71916""
""blur"",""29"",""87118""
""blur"",""30"",""94727""
","""event"",""trial"",""time""
""focus"",""1"",""2302""
""focus"",""2"",""5451""
""focus"",""14"",""47790""
""focus"",""21"",""67385""
""focus"",""23"",""73224""
""focus"",""30"",""94213""
""focus"",""30"",""95720""
","""event"",""trial"",""time""
""fullscreenenter"",""5"",""12937""
","""event"",""trial"",""time""
""fullscreenexit"",""6"",""15601""
","102.19999998807907","","48","","","3000","1","229.30000001192093,317.60000002384186,442.80000001192093,536,659.6000000238419,762.3000000119209,881.6999999880791,963.1000000238419,1100.800000011921,1159,1346.6000000238419,1360,1562.300000011921,1580.6000000238419,1783.1000000238419,1843.6000000238419,1996,2080.100000023842","49,48,49,48,49,48,49,48,49,48,49,48,48,49,48,49,48,49","images/tutyellowplanet.jpg","images/tutalien4","images/tutalien3","images/tutrocket1","images/tutalien4","images/t.png","2","practice","true","2","common","1","2022-02-06 07:19:35.241"
"two-step-fixation","78","188266","0.0-61.0-2.5","233","645","17","Female","true","false","true","true","""event"",""trial"",""time""
""blur"",""1"",""113""
""focus"",""1"",""2302""
""blur"",""2"",""4347""
""focus"",""2"",""5451""
""fullscreenenter"",""5"",""12937""
""fullscreenexit"",""6"",""15601""
""blur"",""13"",""45119""
""focus"",""14"",""47790""
""blur"",""20"",""66074""
""focus"",""21"",""67385""
""blur"",""22"",""71916""
""focus"",""23"",""73224""
""blur"",""29"",""87118""
""focus"",""30"",""94213""
""blur"",""30"",""94727""
""focus"",""30"",""95720""
","""event"",""trial"",""time""
""blur"",""1"",""113""
""blur"",""2"",""4347""
""blur"",""13"",""45119""
""blur"",""20"",""66074""
""blur"",""22"",""71916""
""blur"",""29"",""87118""
""blur"",""30"",""94727""
","""event"",""trial"",""time""
""focus"",""1"",""2302""
""focus"",""2"",""5451""
""focus"",""14"",""47790""
""focus"",""21"",""67385""
""focus"",""23"",""73224""
""focus"",""30"",""94213""
""focus"",""30"",""95720""
","""event"",""trial"",""time""
""fullscreenenter"",""5"",""12937""
","""event"",""trial"",""time""
""fullscreenexit"",""6"",""15601""
","","images/earth.jpg","","","","","","","","","","","","","","fixation","","","","","",""
"d3-animate-choice","79","190324","0.0-61.0-0.6","233","645","17","Female","true","false","true","true","""event"",""trial"",""time""
""blur"",""1"",""113""
""focus"",""1"",""2302""
""blur"",""2"",""4347""
""focus"",""2"",""5451""
""fullscreenenter"",""5"",""12937""
""fullscreenexit"",""6"",""15601""
""blur"",""13"",""45119""
""focus"",""14"",""47790""
""blur"",""20"",""66074""
""focus"",""21"",""67385""
""blur"",""22"",""71916""
""focus"",""23"",""73224""
""blur"",""29"",""87118""
""focus"",""30"",""94213""
""blur"",""30"",""94727""
""focus"",""30"",""95720""
","""event"",""trial"",""time""
""blur"",""1"",""113""
""blur"",""2"",""4347""
""blur"",""13"",""45119""
""blur"",""20"",""66074""
""blur"",""22"",""71916""
""blur"",""29"",""87118""
""blur"",""30"",""94727""
","""event"",""trial"",""time""
""focus"",""1"",""2302""
""focus"",""2"",""5451""
""focus"",""14"",""47790""
""focus"",""21"",""67385""
""focus"",""23"",""73224""
""focus"",""30"",""94213""
""focus"",""30"",""95720""
","""event"",""trial"",""time""
""fullscreenenter"",""5"",""12937""
","""event"",""trial"",""time""
""fullscreenexit"",""6"",""15601""
","54","","49","","","3000","1","150.19999998807907,291.69999998807907,384.80000001192093,549.3999999761581,615.5,813.8999999761581,825.8000000119209,1061.699999988079,1383.5,1557.0999999642372,1651.699999988079,1827.800000011921,1964.800000011921","48,49,48,49,48,49,48,49,48,49,48,49,48","images/earth.jpg","images/tutrocket1","images/tutrocket2","null","images/tutrocket2","","1","practice","null","1","","",""
"d3-animate-choice","80","192370","0.0-61.0-1.6","233","645","17","Female","true","false","true","true","""event"",""trial"",""time""
""blur"",""1"",""113""
""focus"",""1"",""2302""
""blur"",""2"",""4347""
""focus"",""2"",""5451""
""fullscreenenter"",""5"",""12937""
""fullscreenexit"",""6"",""15601""
""blur"",""13"",""45119""
""focus"",""14"",""47790""
""blur"",""20"",""66074""
""focus"",""21"",""67385""
""blur"",""22"",""71916""
""focus"",""23"",""73224""
""blur"",""29"",""87118""
""focus"",""30"",""94213""
""blur"",""30"",""94727""
""focus"",""30"",""95720""
","""event"",""trial"",""time""
""blur"",""1"",""113""
""blur"",""2"",""4347""
""blur"",""13"",""45119""
""blur"",""20"",""66074""
""blur"",""22"",""71916""
""blur"",""29"",""87118""
""blur"",""30"",""94727""
","""event"",""trial"",""time""
""focus"",""1"",""2302""
""focus"",""2"",""5451""
""focus"",""14"",""47790""
""focus"",""21"",""67385""
""focus"",""23"",""73224""
""focus"",""30"",""94213""
""focus"",""30"",""95720""
","""event"",""trial"",""time""
""fullscreenenter"",""5"",""12937""
","""event"",""trial"",""time""
""fullscreenexit"",""6"",""15601""
","43.19999998807907","","49","","","3000","1","171.39999997615814,310.39999997615814,590.5,669.8000000119209,871.6999999880791,946.5,1143.5,1175.8999999761581,1416.8999999761581,1665.800000011921,1859.1000000238419,2006.800000011921","48,49,49,48,49,48,49,48,48,49,48,49","images/tutyellowplanet.jpg","images/tutalien4","images/tutalien3","images/tutrocket2","images/tutalien3","images/nothing.png","2","practice","false","1","rare","0","2022-02-06 07:19:40.347"
"two-step-fixation","81","193376","0.0-61.0-2.6","233","645","17","Female","true","false","true","true","""event"",""trial"",""time""
""blur"",""1"",""113""
""focus"",""1"",""2302""
""blur"",""2"",""4347""
""focus"",""2"",""5451""
""fullscreenenter"",""5"",""12937""
""fullscreenexit"",""6"",""15601""
""blur"",""13"",""45119""
""focus"",""14"",""47790""
""blur"",""20"",""66074""
""focus"",""21"",""67385""
""blur"",""22"",""71916""
""focus"",""23"",""73224""
""blur"",""29"",""87118""
""focus"",""30"",""94213""
""blur"",""30"",""94727""
""focus"",""30"",""95720""
","""event"",""trial"",""time""
""blur"",""1"",""113""
""blur"",""2"",""4347""
""blur"",""13"",""45119""
""blur"",""20"",""66074""
""blur"",""22"",""71916""
""blur"",""29"",""87118""
""blur"",""30"",""94727""
","""event"",""trial"",""time""
""focus"",""1"",""2302""
""focus"",""2"",""5451""
""focus"",""14"",""47790""
""focus"",""21"",""67385""
""focus"",""23"",""73224""
""focus"",""30"",""94213""
""focus"",""30"",""95720""
","""event"",""trial"",""time""
""fullscreenenter"",""5"",""12937""
","""event"",""trial"",""time""
""fullscreenexit"",""6"",""15601""
","","images/earth.jpg","","","","","","","","","","","","","","fixation","","","","","",""
"d3-animate-choice","82","195401","0.0-61.0-0.7","233","645","17","Female","true","false","true","true","""event"",""trial"",""time""
""blur"",""1"",""113""
""focus"",""1"",""2302""
""blur"",""2"",""4347""
""focus"",""2"",""5451""
""fullscreenenter"",""5"",""12937""
""fullscreenexit"",""6"",""15601""
""blur"",""13"",""45119""
""focus"",""14"",""47790""
""blur"",""20"",""66074""
""focus"",""21"",""67385""
""blur"",""22"",""71916""
""focus"",""23"",""73224""
""blur"",""29"",""87118""
""focus"",""30"",""94213""
""blur"",""30"",""94727""
""focus"",""30"",""95720""
","""event"",""trial"",""time""
""blur"",""1"",""113""
""blur"",""2"",""4347""
""blur"",""13"",""45119""
""blur"",""20"",""66074""
""blur"",""22"",""71916""
""blur"",""29"",""87118""
""blur"",""30"",""94727""
","""event"",""trial"",""time""
""focus"",""1"",""2302""
""focus"",""2"",""5451""
""focus"",""14"",""47790""
""focus"",""21"",""67385""
""focus"",""23"",""73224""
""focus"",""30"",""94213""
""focus"",""30"",""95720""
","""event"",""trial"",""time""
""fullscreenenter"",""5"",""12937""
","""event"",""trial"",""time""
""fullscreenexit"",""6"",""15601""
","22.80000001192093","","48","","","3000","1","207,227.80000001192093,475.5,479.30000001192093,726.5,861.4000000357628,971.4000000357628,1146.1000000238419,1251.5,1410.800000011921,1496.199999988079,1644.9000000357628,1740,1919.300000011921,1984.699999988079","49,48,48,49,48,49,48,49,48,49,48,49,48,49,48","images/earth.jpg","images/tutrocket1","images/tutrocket2","null","images/tutrocket1","","1","practice","null","2","","",""
"d3-animate-choice","83","197577","0.0-61.0-1.7","233","645","17","Female","true","false","true","true","""event"",""trial"",""time""
""blur"",""1"",""113""
""focus"",""1"",""2302""
""blur"",""2"",""4347""
""focus"",""2"",""5451""
""fullscreenenter"",""5"",""12937""
""fullscreenexit"",""6"",""15601""
""blur"",""13"",""45119""
""focus"",""14"",""47790""
""blur"",""20"",""66074""
""focus"",""21"",""67385""
""blur"",""22"",""71916""
""focus"",""23"",""73224""
""blur"",""29"",""87118""
""focus"",""30"",""94213""
""blur"",""30"",""94727""
""focus"",""30"",""95720""
","""event"",""trial"",""time""
""blur"",""1"",""113""
""blur"",""2"",""4347""
""blur"",""13"",""45119""
""blur"",""20"",""66074""
""blur"",""22"",""71916""
""blur"",""29"",""87118""
