"trial_type","trial_index","time_elapsed","internal_node_id","participant_id","subject_id","age","gender","rocket_sides","red_planet_first_rocket","red_display_order","purple_display_order","interactions","blur_events","focus_events","fullscreenenter_events","fullscreenexit_events","rt","stimulus","key_press","button_pressed","success","duration","valid_pressed","rts","keys","planet_text","right_text","left_text","center_text","chosen_text","reward_text","trial_stage","practice_trial","transition_type","choice","transition","reward","timestamp"
"pavlovia","0","4","0.0-0.0","2040","3246","11","Female","true","false","true","false","
","
","
","
","
","","","","","","","","","","","","","","","","","","","","","",""
"html-keyboard-response","1","1006","0.0-1.0","2040","3246","11","Female","true","false","true","false","
","
","
","
","
","1001","Welcome! Press the space bar to begin.","32","","","","","","","","","","","","","","","","","","",""
"audio-keyboard-response","2","4310","0.0-2.0","2040","3246","11","Female","true","false","true","false","""event"",""trial"",""time""
""blur"",""3"",""9532""
""focus"",""3"",""9533""
""blur"",""3"",""9534""
""focus"",""3"",""9708""
","""event"",""trial"",""time""
""blur"",""3"",""9532""
""blur"",""3"",""9534""
","""event"",""trial"",""time""
""focus"",""3"",""9533""
""focus"",""3"",""9708""
","
","
","3248","audio/beep_loop.wav","32","","","","","","","","","","","","","","","","","","",""
"audio-button-response","3","10063","0.0-3.0","2040","3246","11","Female","true","false","true","false","""event"",""trial"",""time""
""blur"",""3"",""9532""
""focus"",""3"",""9533""
""blur"",""3"",""9534""
""focus"",""3"",""9708""
","""event"",""trial"",""time""
""blur"",""3"",""9532""
""blur"",""3"",""9534""
","""event"",""trial"",""time""
""focus"",""3"",""9533""
""focus"",""3"",""9708""
","
","
","NaN","audio/fish.mp3","","1","","","","","","","","","","","","","","","","","",""
"audio-button-response","4","12912","0.0-4.0","2040","3246","11","Female","true","false","true","false","""event"",""trial"",""time""
""blur"",""3"",""9532""
""focus"",""3"",""9533""
""blur"",""3"",""9534""
""focus"",""3"",""9708""
""fullscreenenter"",""5"",""15282""
","""event"",""trial"",""time""
""blur"",""3"",""9532""
""blur"",""3"",""9534""
","""event"",""trial"",""time""
""focus"",""3"",""9533""
""focus"",""3"",""9708""
","""event"",""trial"",""time""
""fullscreenenter"",""5"",""15282""
","
","NaN","audio/tiger.mp3","","4","","","","","","","","","","","","","","","","","",""
"fullscreen","5","16271","0.0-5.0","2040","3246","11","Female","true","false","true","false","""event"",""trial"",""time""
""blur"",""3"",""9532""
""focus"",""3"",""9533""
""blur"",""3"",""9534""
""focus"",""3"",""9708""
""fullscreenenter"",""5"",""15282""
","""event"",""trial"",""time""
""blur"",""3"",""9532""
""blur"",""3"",""9534""
","""event"",""trial"",""time""
""focus"",""3"",""9533""
""focus"",""3"",""9708""
","""event"",""trial"",""time""
""fullscreenenter"",""5"",""15282""
","
","","","","","true","","","","","","","","","","","","","","","","",""
"d3-instructions","6","27812","0.0-6.0","2040","3246","11","Female","true","false","true","false","""event"",""trial"",""time""
""blur"",""3"",""9532""
""focus"",""3"",""9533""
""blur"",""3"",""9534""
""focus"",""3"",""9708""
""fullscreenenter"",""5"",""15282""
","""event"",""trial"",""time""
""blur"",""3"",""9532""
""blur"",""3"",""9534""
","""event"",""trial"",""time""
""focus"",""3"",""9533""
""focus"",""3"",""9708""
","""event"",""trial"",""time""
""fullscreenenter"",""5"",""15282""
","
","","","","","","","","","","","","","","","","","","","","","",""
"d3-instructions","7","34460","0.0-7.0","2040","3246","11","Female","true","false","true","false","""event"",""trial"",""time""
""blur"",""3"",""9532""
""focus"",""3"",""9533""
""blur"",""3"",""9534""
""focus"",""3"",""9708""
""fullscreenenter"",""5"",""15282""
","""event"",""trial"",""time""
""blur"",""3"",""9532""
""blur"",""3"",""9534""
","""event"",""trial"",""time""
""focus"",""3"",""9533""
""focus"",""3"",""9708""
","""event"",""trial"",""time""
""fullscreenenter"",""5"",""15282""
","
","","","","","","","","","","","","","","","","","","","","","",""
"d3-instructions","8","40599","0.0-8.0","2040","3246","11","Female","true","false","true","false","""event"",""trial"",""time""
""blur"",""3"",""9532""
""focus"",""3"",""9533""
""blur"",""3"",""9534""
""focus"",""3"",""9708""
""fullscreenenter"",""5"",""15282""
","""event"",""trial"",""time""
""blur"",""3"",""9532""
""blur"",""3"",""9534""
","""event"",""trial"",""time""
""focus"",""3"",""9533""
""focus"",""3"",""9708""
","""event"",""trial"",""time""
""fullscreenenter"",""5"",""15282""
","
","","","","","","","","","","","","","","","","","","","","","",""
"d3-instructions","9","51099","0.0-9.0","2040","3246","11","Female","true","false","true","false","""event"",""trial"",""time""
""blur"",""3"",""9532""
""focus"",""3"",""9533""
""blur"",""3"",""9534""
""focus"",""3"",""9708""
""fullscreenenter"",""5"",""15282""
","""event"",""trial"",""time""
""blur"",""3"",""9532""
""blur"",""3"",""9534""
","""event"",""trial"",""time""
""focus"",""3"",""9533""
""focus"",""3"",""9708""
","""event"",""trial"",""time""
""fullscreenenter"",""5"",""15282""
","
","","","","","","","","","","","","","","","","","","","","","",""
"d3-instructions","10","70768","0.0-10.0","2040","3246","11","Female","true","false","true","false","""event"",""trial"",""time""
""blur"",""3"",""9532""
""focus"",""3"",""9533""
""blur"",""3"",""9534""
""focus"",""3"",""9708""
""fullscreenenter"",""5"",""15282""
","""event"",""trial"",""time""
""blur"",""3"",""9532""
""blur"",""3"",""9534""
","""event"",""trial"",""time""
""focus"",""3"",""9533""
""focus"",""3"",""9708""
","""event"",""trial"",""time""
""fullscreenenter"",""5"",""15282""
","
","","","","","","","","","","","","","","","","","","","","","",""
"d3-animate-choice","11","73796","0.0-11.0","2040","3246","11","Female","true","false","true","false","""event"",""trial"",""time""
""blur"",""3"",""9532""
""focus"",""3"",""9533""
""blur"",""3"",""9534""
""focus"",""3"",""9708""
""fullscreenenter"",""5"",""15282""
","""event"",""trial"",""time""
""blur"",""3"",""9532""
""blur"",""3"",""9534""
","""event"",""trial"",""time""
""focus"",""3"",""9533""
""focus"",""3"",""9708""
","""event"",""trial"",""time""
""fullscreenenter"",""5"",""15282""
","
","1016.8999999985099","","49","","","3000","1","","","images/tutgreenplanet.jpg","images/tutalien1","images/tutalien2","null","images/tutalien2","","NA","practice","null","","","",""
"d3-animate-choice","12","76631","0.0-12.0","2040","3246","11","Female","true","false","true","false","""event"",""trial"",""time""
""blur"",""3"",""9532""
""focus"",""3"",""9533""
""blur"",""3"",""9534""
""focus"",""3"",""9708""
""fullscreenenter"",""5"",""15282""
","""event"",""trial"",""time""
""blur"",""3"",""9532""
""blur"",""3"",""9534""
","""event"",""trial"",""time""
""focus"",""3"",""9533""
""focus"",""3"",""9708""
","""event"",""trial"",""time""
""fullscreenenter"",""5"",""15282""
","
","829.6000000014901","","48","","","3000","1","","","images/tutgreenplanet.jpg","images/tutalien1","images/tutalien2","null","images/tutalien1","","NA","practice","null","","","",""
"d3-animate-choice","13","79476","0.0-13.0","2040","3246","11","Female","true","false","true","false","""event"",""trial"",""time""
""blur"",""3"",""9532""
""focus"",""3"",""9533""
""blur"",""3"",""9534""
""focus"",""3"",""9708""
""fullscreenenter"",""5"",""15282""
","""event"",""trial"",""time""
""blur"",""3"",""9532""
""blur"",""3"",""9534""
","""event"",""trial"",""time""
""focus"",""3"",""9533""
""focus"",""3"",""9708""
","""event"",""trial"",""time""
""fullscreenenter"",""5"",""15282""
","
","839.8999999985099","","49","","","3000","1","","","images/tutgreenplanet.jpg","images/tutalien1","images/tutalien2","null","images/tutalien2","","NA","practice","null","","","",""
"d3-animate-choice","14","81886","0.0-14.0","2040","3246","11","Female","true","false","true","false","""event"",""trial"",""time""
""blur"",""3"",""9532""
""focus"",""3"",""9533""
""blur"",""3"",""9534""
""focus"",""3"",""9708""
""fullscreenenter"",""5"",""15282""
","""event"",""trial"",""time""
""blur"",""3"",""9532""
""blur"",""3"",""9534""
","""event"",""trial"",""time""
""focus"",""3"",""9533""
""focus"",""3"",""9708""
","""event"",""trial"",""time""
""fullscreenenter"",""5"",""15282""
","
","404.79999999701977","","49","","","3000","1","","","images/tutgreenplanet.jpg","images/tutalien1","images/tutalien2","null","images/tutalien2","","NA","practice","null","","","",""
"d3-instructions","15","87766","0.0-15.0","2040","3246","11","Female","true","false","true","false","""event"",""trial"",""time""
""blur"",""3"",""9532""
""focus"",""3"",""9533""
""blur"",""3"",""9534""
""focus"",""3"",""9708""
""fullscreenenter"",""5"",""15282""
","""event"",""trial"",""time""
""blur"",""3"",""9532""
""blur"",""3"",""9534""
","""event"",""trial"",""time""
""focus"",""3"",""9533""
""focus"",""3"",""9708""
","""event"",""trial"",""time""
""fullscreenenter"",""5"",""15282""
","
","","","","","","","","","","","","","","","","","","","","","",""
"d3-instructions","16","90547","0.0-16.0","2040","3246","11","Female","true","false","true","false","""event"",""trial"",""time""
""blur"",""3"",""9532""
""focus"",""3"",""9533""
""blur"",""3"",""9534""
""focus"",""3"",""9708""
""fullscreenenter"",""5"",""15282""
","""event"",""trial"",""time""
""blur"",""3"",""9532""
""blur"",""3"",""9534""
","""event"",""trial"",""time""
""focus"",""3"",""9533""
""focus"",""3"",""9708""
","""event"",""trial"",""time""
""fullscreenenter"",""5"",""15282""
","
","","","","","","","","","","","","","","","","","","","","","",""
"d3-instructions","17","99734","0.0-17.0","2040","3246","11","Female","true","false","true","false","""event"",""trial"",""time""
""blur"",""3"",""9532""
""focus"",""3"",""9533""
""blur"",""3"",""9534""
""focus"",""3"",""9708""
""fullscreenenter"",""5"",""15282""
","""event"",""trial"",""time""
""blur"",""3"",""9532""
""blur"",""3"",""9534""
","""event"",""trial"",""time""
""focus"",""3"",""9533""
""focus"",""3"",""9708""
","""event"",""trial"",""time""
""fullscreenenter"",""5"",""15282""
","
","","","","","","","","","","","","","","","","","","","","","",""
"d3-instructions","18","111858","0.0-18.0","2040","3246","11","Female","true","false","true","false","""event"",""trial"",""time""
""blur"",""3"",""9532""
""focus"",""3"",""9533""
""blur"",""3"",""9534""
""focus"",""3"",""9708""
""fullscreenenter"",""5"",""15282""
","""event"",""trial"",""time""
""blur"",""3"",""9532""
""blur"",""3"",""9534""
","""event"",""trial"",""time""
""focus"",""3"",""9533""
""focus"",""3"",""9708""
","""event"",""trial"",""time""
""fullscreenenter"",""5"",""15282""
","
","","","","","","","","","","","","","","","","","","","","","",""
"d3-instructions","19","125928","0.0-19.0","2040","3246","11","Female","true","false","true","false","""event"",""trial"",""time""
""blur"",""3"",""9532""
""focus"",""3"",""9533""
""blur"",""3"",""9534""
""focus"",""3"",""9708""
""fullscreenenter"",""5"",""15282""
","""event"",""trial"",""time""
""blur"",""3"",""9532""
""blur"",""3"",""9534""
","""event"",""trial"",""time""
""focus"",""3"",""9533""
""focus"",""3"",""9708""
","""event"",""trial"",""time""
""fullscreenenter"",""5"",""15282""
","
","","","","","","","","","","","","","","","","","","","","","",""
"d3-animate-choice","20","128457","0.0-20.0","2040","3246","11","Female","true","false","true","false","""event"",""trial"",""time""
""blur"",""3"",""9532""
""focus"",""3"",""9533""
""blur"",""3"",""9534""
""focus"",""3"",""9708""
""fullscreenenter"",""5"",""15282""
","""event"",""trial"",""time""
""blur"",""3"",""9532""
""blur"",""3"",""9534""
","""event"",""trial"",""time""
""focus"",""3"",""9533""
""focus"",""3"",""9708""
","""event"",""trial"",""time""
""fullscreenenter"",""5"",""15282""
","
","520.3999999985099","","49","","","3000","1","973.5","49","images/tutyellowplanet.jpg","null","images/tutalien3","null","images/tutalien3","images/nothing.png","NA","practice","null","","","",""
"d3-animate-choice","21","130841","0.0-21.0","2040","3246","11","Female","true","false","true","false","""event"",""trial"",""time""
""blur"",""3"",""9532""
""focus"",""3"",""9533""
""blur"",""3"",""9534""
""focus"",""3"",""9708""
""fullscreenenter"",""5"",""15282""
","""event"",""trial"",""time""
""blur"",""3"",""9532""
""blur"",""3"",""9534""
","""event"",""trial"",""time""
""focus"",""3"",""9533""
""focus"",""3"",""9708""
","""event"",""trial"",""time""
""fullscreenenter"",""5"",""15282""
","
","378.19999999552965","","49","","","3000","1","","","images/tutyellowplanet.jpg","null","images/tutalien3","null","images/tutalien3","images/t.png","NA","practice","null","","","",""
"d3-animate-choice","22","133140","0.0-22.0","2040","3246","11","Female","true","false","true","false","""event"",""trial"",""time""
""blur"",""3"",""9532""
""focus"",""3"",""9533""
""blur"",""3"",""9534""
""focus"",""3"",""9708""
""fullscreenenter"",""5"",""15282""
","""event"",""trial"",""time""
""blur"",""3"",""9532""
""blur"",""3"",""9534""
","""event"",""trial"",""time""
""focus"",""3"",""9533""
""focus"",""3"",""9708""
","""event"",""trial"",""time""
""fullscreenenter"",""5"",""15282""
","
","295.19999999552965","","49","","","3000","1","","","images/tutyellowplanet.jpg","null","images/tutalien3","null","images/tutalien3","images/t.png","NA","practice","null","","","",""
"d3-animate-choice","23","135528","0.0-23.0","2040","3246","11","Female","true","false","true","false","""event"",""trial"",""time""
""blur"",""3"",""9532""
""focus"",""3"",""9533""
""blur"",""3"",""9534""
""focus"",""3"",""9708""
""fullscreenenter"",""5"",""15282""
","""event"",""trial"",""time""
""blur"",""3"",""9532""
""blur"",""3"",""9534""
","""event"",""trial"",""time""
""focus"",""3"",""9533""
""focus"",""3"",""9708""
","""event"",""trial"",""time""
""fullscreenenter"",""5"",""15282""
","
","384.19999999552965","","49","","","3000","1","","","images/tutyellowplanet.jpg","null","images/tutalien3","null","images/tutalien3","images/t.png","NA","practice","null","","","",""
"d3-animate-choice","24","137868","0.0-24.0","2040","3246","11","Female","true","false","true","false","""event"",""trial"",""time""
""blur"",""3"",""9532""
""focus"",""3"",""9533""
""blur"",""3"",""9534""
""focus"",""3"",""9708""
""fullscreenenter"",""5"",""15282""
","""event"",""trial"",""time""
""blur"",""3"",""9532""
""blur"",""3"",""9534""
","""event"",""trial"",""time""
""focus"",""3"",""9533""
""focus"",""3"",""9708""
","""event"",""trial"",""time""
""fullscreenenter"",""5"",""15282""
","
","333.3999999985099","","49","","","3000","1","2282.5","49","images/tutyellowplanet.jpg","null","images/tutalien3","null","images/tutalien3","images/nothing.png","NA","practice","null","","","",""
"d3-animate-choice","25","140387","0.0-25.0","2040","3246","11","Female","true","false","true","false","""event"",""trial"",""time""
""blur"",""3"",""9532""
""focus"",""3"",""9533""
""blur"",""3"",""9534""
""focus"",""3"",""9708""
""fullscreenenter"",""5"",""15282""
","""event"",""trial"",""time""
""blur"",""3"",""9532""
""blur"",""3"",""9534""
","""event"",""trial"",""time""
""focus"",""3"",""9533""
""focus"",""3"",""9708""
","""event"",""trial"",""time""
""fullscreenenter"",""5"",""15282""
","
","513.3999999985099","","49","","","3000","1","","","images/tutyellowplanet.jpg","null","images/tutalien3","null","images/tutalien3","images/t.png","NA","practice","null","","","",""
"d3-animate-choice","26","142702","0.0-26.0","2040","3246","11","Female","true","false","true","false","""event"",""trial"",""time""
""blur"",""3"",""9532""
""focus"",""3"",""9533""
""blur"",""3"",""9534""
""focus"",""3"",""9708""
""fullscreenenter"",""5"",""15282""
","""event"",""trial"",""time""
""blur"",""3"",""9532""
""blur"",""3"",""9534""
","""event"",""trial"",""time""
""focus"",""3"",""9533""
""focus"",""3"",""9708""
","""event"",""trial"",""time""
""fullscreenenter"",""5"",""15282""
","
","308.69999999552965","","49","","","3000","1","","","images/tutyellowplanet.jpg","null","images/tutalien3","null","images/tutalien3","images/nothing.png","NA","practice","null","","","",""
"d3-animate-choice","27","145012","0.0-27.0","2040","3246","11","Female","true","false","true","false","""event"",""trial"",""time""
""blur"",""3"",""9532""
""focus"",""3"",""9533""
""blur"",""3"",""9534""
""focus"",""3"",""9708""
""fullscreenenter"",""5"",""15282""
","""event"",""trial"",""time""
""blur"",""3"",""9532""
""blur"",""3"",""9534""
","""event"",""trial"",""time""
""focus"",""3"",""9533""
""focus"",""3"",""9708""
","""event"",""trial"",""time""
""fullscreenenter"",""5"",""15282""
","
","305.29999999701977","","49","","","3000","1","","","images/tutyellowplanet.jpg","null","images/tutalien3","null","images/tutalien3","images/t.png","NA","practice","null","","","",""
"d3-animate-choice","28","147316","0.0-28.0","2040","3246","11","Female","true","false","true","false","""event"",""trial"",""time""
""blur"",""3"",""9532""
""focus"",""3"",""9533""
""blur"",""3"",""9534""
""focus"",""3"",""9708""
""fullscreenenter"",""5"",""15282""
","""event"",""trial"",""time""
""blur"",""3"",""9532""
""blur"",""3"",""9534""
","""event"",""trial"",""time""
""focus"",""3"",""9533""
""focus"",""3"",""9708""
","""event"",""trial"",""time""
""fullscreenenter"",""5"",""15282""
","
","301","","49","","","3000","1","","","images/tutyellowplanet.jpg","null","images/tutalien3","null","images/tutalien3","images/nothing.png","NA","practice","null","","","",""
"d3-animate-choice","29","149621","0.0-29.0","2040","3246","11","Female","true","false","true","false","""event"",""trial"",""time""
""blur"",""3"",""9532""
""focus"",""3"",""9533""
""blur"",""3"",""9534""
""focus"",""3"",""9708""
""fullscreenenter"",""5"",""15282""
","""event"",""trial"",""time""
""blur"",""3"",""9532""
""blur"",""3"",""9534""
","""event"",""trial"",""time""
""focus"",""3"",""9533""
""focus"",""3"",""9708""
","""event"",""trial"",""time""
""fullscreenenter"",""5"",""15282""
","
","301.30000000447035","","49","","","3000","1","","","images/tutyellowplanet.jpg","null","images/tutalien3","null","images/tutalien3","images/nothing.png","NA","practice","null","","","",""
"d3-instructions","30","152386","0.0-30.0","2040","3246","11","Female","true","false","true","false","""event"",""trial"",""time""
""blur"",""3"",""9532""
""focus"",""3"",""9533""
""blur"",""3"",""9534""
""focus"",""3"",""9708""
""fullscreenenter"",""5"",""15282""
","""event"",""trial"",""time""
""blur"",""3"",""9532""
""blur"",""3"",""9534""
","""event"",""trial"",""time""
""focus"",""3"",""9533""
""focus"",""3"",""9708""
","""event"",""trial"",""time""
""fullscreenenter"",""5"",""15282""
","
","","","","","","","","","","","","","","","","","","","","","",""
"d3-instructions","31","160260","0.0-31.0","2040","3246","11","Female","true","false","true","false","""event"",""trial"",""time""
""blur"",""3"",""9532""
""focus"",""3"",""9533""
""blur"",""3"",""9534""
""focus"",""3"",""9708""
""fullscreenenter"",""5"",""15282""
","""event"",""trial"",""time""
""blur"",""3"",""9532""
""blur"",""3"",""9534""
","""event"",""trial"",""time""
""focus"",""3"",""9533""
""focus"",""3"",""9708""
","""event"",""trial"",""time""
""fullscreenenter"",""5"",""15282""
","
","","","","","","","","","","","","","","","","","","","","","",""
"d3-instructions","32","165291","0.0-32.0","2040","3246","11","Female","true","false","true","false","""event"",""trial"",""time""
""blur"",""3"",""9532""
""focus"",""3"",""9533""
""blur"",""3"",""9534""
""focus"",""3"",""9708""
""fullscreenenter"",""5"",""15282""
","""event"",""trial"",""time""
""blur"",""3"",""9532""
""blur"",""3"",""9534""
","""event"",""trial"",""time""
""focus"",""3"",""9533""
""focus"",""3"",""9708""
","""event"",""trial"",""time""
""fullscreenenter"",""5"",""15282""
","
","","","","","","","","","","","","","","","","","","","","","",""
"d3-instructions","33","167954","0.0-33.0","2040","3246","11","Female","true","false","true","false","""event"",""trial"",""time""
""blur"",""3"",""9532""
""focus"",""3"",""9533""
""blur"",""3"",""9534""
""focus"",""3"",""9708""
""fullscreenenter"",""5"",""15282""
","""event"",""trial"",""time""
""blur"",""3"",""9532""
""blur"",""3"",""9534""
","""event"",""trial"",""time""
""focus"",""3"",""9533""
""focus"",""3"",""9708""
","""event"",""trial"",""time""
""fullscreenenter"",""5"",""15282""
","
","","","","","","","","","","","","","","","","","","","","","",""
"d3-animate-choice","34","170687","0.0-34.0","2040","3246","11","Female","true","false","true","false","""event"",""trial"",""time""
""blur"",""3"",""9532""
""focus"",""3"",""9533""
""blur"",""3"",""9534""
""focus"",""3"",""9708""
""fullscreenenter"",""5"",""15282""
","""event"",""trial"",""time""
""blur"",""3"",""9532""
""blur"",""3"",""9534""
","""event"",""trial"",""time""
""focus"",""3"",""9533""
""focus"",""3"",""9708""
","""event"",""trial"",""time""
""fullscreenenter"",""5"",""15282""
","
","724.3999999985099","","49","","","3000","1","2207.89999999851","48","images/tutgreenplanet.jpg","images/tutalien1","images/tutalien2","null","images/tutalien2","images/t.png","NA","practice","null","","","",""
"d3-animate-choice","35","173006","0.0-35.0","2040","3246","11","Female","true","false","true","false","""event"",""trial"",""time""
""blur"",""3"",""9532""
""focus"",""3"",""9533""
""blur"",""3"",""9534""
""focus"",""3"",""9708""
""fullscreenenter"",""5"",""15282""
","""event"",""trial"",""time""
""blur"",""3"",""9532""
""blur"",""3"",""9534""
","""event"",""trial"",""time""
""focus"",""3"",""9533""
""focus"",""3"",""9708""
","""event"",""trial"",""time""
""fullscreenenter"",""5"",""15282""
","
","311.90000000596046","","48","","","3000","1","","","images/tutgreenplanet.jpg","images/tutalien1","images/tutalien2","null","images/tutalien1","images/nothing.png","NA","practice","null","","","",""
"d3-animate-choice","36","175274","0.0-36.0","2040","3246","11","Female","true","false","true","false","""event"",""trial"",""time""
""blur"",""3"",""9532""
""focus"",""3"",""9533""
""blur"",""3"",""9534""
""focus"",""3"",""9708""
""fullscreenenter"",""5"",""15282""
","""event"",""trial"",""time""
""blur"",""3"",""9532""
""blur"",""3"",""9534""
","""event"",""trial"",""time""
""focus"",""3"",""9533""
""focus"",""3"",""9708""
","""event"",""trial"",""time""
""fullscreenenter"",""5"",""15282""
","
","263.70000000298023","","49","","","3000","1","","","images/tutgreenplanet.jpg","images/tutalien1","images/tutalien2","null","images/tutalien2","images/nothing.png","NA","practice","null","","","",""
"d3-animate-choice","37","177599","0.0-37.0","2040","3246","11","Female","true","false","true","false","""event"",""trial"",""time""
""blur"",""3"",""9532""
""focus"",""3"",""9533""
""blur"",""3"",""9534""
""focus"",""3"",""9708""
""fullscreenenter"",""5"",""15282""
","""event"",""trial"",""time""
""blur"",""3"",""9532""
""blur"",""3"",""9534""
","""event"",""trial"",""time""
""focus"",""3"",""9533""
""focus"",""3"",""9708""
","""event"",""trial"",""time""
""fullscreenenter"",""5"",""15282""
","
","320.70000000298023","","48","","","3000","1","","","images/tutgreenplanet.jpg","images/tutalien1","images/tutalien2","null","images/tutalien1","images/nothing.png","NA","practice","null","","","",""
"d3-animate-choice","38","179865","0.0-38.0","2040","3246","11","Female","true","false","true","false","""event"",""trial"",""time""
""blur"",""3"",""9532""
""focus"",""3"",""9533""
""blur"",""3"",""9534""
""focus"",""3"",""9708""
""fullscreenenter"",""5"",""15282""
","""event"",""trial"",""time""
""blur"",""3"",""9532""
""blur"",""3"",""9534""
","""event"",""trial"",""time""
""focus"",""3"",""9533""
""focus"",""3"",""9708""
","""event"",""trial"",""time""
""fullscreenenter"",""5"",""15282""
","
","259.19999999552965","","49","","","3000","1","","","images/tutgreenplanet.jpg","images/tutalien1","images/tutalien2","null","images/tutalien2","images/t.png","NA","practice","null","","","",""
"d3-animate-choice","39","182127","0.0-39.0","2040","3246","11","Female","true","false","true","false","""event"",""trial"",""time""
""blur"",""3"",""9532""
""focus"",""3"",""9533""
""blur"",""3"",""9534""
""focus"",""3"",""9708""
""fullscreenenter"",""5"",""15282""
","""event"",""trial"",""time""
""blur"",""3"",""9532""
""blur"",""3"",""9534""
","""event"",""trial"",""time""
""focus"",""3"",""9533""
""focus"",""3"",""9708""
","""event"",""trial"",""time""
""fullscreenenter"",""5"",""15282""
","
","255.29999999701977","","49","","","3000","1","","","images/tutgreenplanet.jpg","images/tutalien1","images/tutalien2","null","images/tutalien2","images/t.png","NA","practice","null","","","",""
"d3-animate-choice","40","184399","0.0-40.0","2040","3246","11","Female","true","false","true","false","""event"",""trial"",""time""
""blur"",""3"",""9532""
""focus"",""3"",""9533""
""blur"",""3"",""9534""
""focus"",""3"",""9708""
""fullscreenenter"",""5"",""15282""
","""event"",""trial"",""time""
""blur"",""3"",""9532""
""blur"",""3"",""9534""
","""event"",""trial"",""time""
""focus"",""3"",""9533""
""focus"",""3"",""9708""
","""event"",""trial"",""time""
""fullscreenenter"",""5"",""15282""
","
","264.30000000447035","","49","","","3000","1","1786.1000000014901","49","images/tutgreenplanet.jpg","images/tutalien1","images/tutalien2","null","images/tutalien2","images/t.png","NA","practice","null","","","",""
"d3-animate-choice","41","186642","0.0-41.0","2040","3246","11","Female","true","false","true","false","""event"",""trial"",""time""
""blur"",""3"",""9532""
""focus"",""3"",""9533""
""blur"",""3"",""9534""
""focus"",""3"",""9708""
""fullscreenenter"",""5"",""15282""
","""event"",""trial"",""time""
""blur"",""3"",""9532""
""blur"",""3"",""9534""
","""event"",""trial"",""time""
""focus"",""3"",""9533""
""focus"",""3"",""9708""
","""event"",""trial"",""time""
""fullscreenenter"",""5"",""15282""
","
","239.60000000149012","","49","","","3000","1","","","images/tutgreenplanet.jpg","images/tutalien1","images/tutalien2","null","images/tutalien2","images/t.png","NA","practice","null","","","",""
"d3-animate-choice","42","188928","0.0-42.0","2040","3246","11","Female","true","false","true","false","""event"",""trial"",""time""
""blur"",""3"",""9532""
""focus"",""3"",""9533""
""blur"",""3"",""9534""
""focus"",""3"",""9708""
""fullscreenenter"",""5"",""15282""
","""event"",""trial"",""time""
""blur"",""3"",""9532""
""blur"",""3"",""9534""
","""event"",""trial"",""time""
""focus"",""3"",""9533""
""focus"",""3"",""9708""
","""event"",""trial"",""time""
""fullscreenenter"",""5"",""15282""
","
","282.1000000014901","","49","","","3000","1","","","images/tutgreenplanet.jpg","images/tutalien1","images/tutalien2","null","images/tutalien2","images/t.png","NA","practice","null","","","",""
"d3-animate-choice","43","191210","0.0-43.0","2040","3246","11","Female","true","false","true","false","""event"",""trial"",""time""
""blur"",""3"",""9532""
""focus"",""3"",""9533""
""blur"",""3"",""9534""
""focus"",""3"",""9708""
""fullscreenenter"",""5"",""15282""
","""event"",""trial"",""time""
""blur"",""3"",""9532""
""blur"",""3"",""9534""
","""event"",""trial"",""time""
""focus"",""3"",""9533""
""focus"",""3"",""9708""
","""event"",""trial"",""time""
""fullscreenenter"",""5"",""15282""
","
","275.5","","49","","","3000","1","","","images/tutgreenplanet.jpg","images/tutalien1","images/tutalien2","null","images/tutalien2","images/t.png","NA","practice","null","","","",""
"d3-instructions","44","203956","0.0-44.0","2040","3246","11","Female","true","false","true","false","""event"",""trial"",""time""
""blur"",""3"",""9532""
""focus"",""3"",""9533""
""blur"",""3"",""9534""
""focus"",""3"",""9708""
""fullscreenenter"",""5"",""15282""
","""event"",""trial"",""time""
""blur"",""3"",""9532""
""blur"",""3"",""9534""
","""event"",""trial"",""time""
""focus"",""3"",""9533""
""focus"",""3"",""9708""
","""event"",""trial"",""time""
""fullscreenenter"",""5"",""15282""
","
","","","","","","","","","","","","","","","","","","","","","",""
"d3-instructions","45","208231","0.0-45.0","2040","3246","11","Female","true","false","true","false","""event"",""trial"",""time""
""blur"",""3"",""9532""
""focus"",""3"",""9533""
""blur"",""3"",""9534""
""focus"",""3"",""9708""
""fullscreenenter"",""5"",""15282""
","""event"",""trial"",""time""
""blur"",""3"",""9532""
""blur"",""3"",""9534""
","""event"",""trial"",""time""
""focus"",""3"",""9533""
""focus"",""3"",""9708""
","""event"",""trial"",""time""
""fullscreenenter"",""5"",""15282""
","
","","","","","","","","","","","","","","","","","","","","","",""
"d3-instructions","46","211043","0.0-46.0","2040","3246","11","Female","true","false","true","false","""event"",""trial"",""time""
""blur"",""3"",""9532""
""focus"",""3"",""9533""
""blur"",""3"",""9534""
""focus"",""3"",""9708""
""fullscreenenter"",""5"",""15282""
","""event"",""trial"",""time""
""blur"",""3"",""9532""
""blur"",""3"",""9534""
","""event"",""trial"",""time""
""focus"",""3"",""9533""
""focus"",""3"",""9708""
","""event"",""trial"",""time""
""fullscreenenter"",""5"",""15282""
","
","","","","","","","","","","","","","","","","","","","","","",""
"d3-instructions","47","224508","0.0-47.0","2040","3246","11","Female","true","false","true","false","""event"",""trial"",""time""
""blur"",""3"",""9532""
""focus"",""3"",""9533""
""blur"",""3"",""9534""
""focus"",""3"",""9708""
""fullscreenenter"",""5"",""15282""
","""event"",""trial"",""time""
""blur"",""3"",""9532""
""blur"",""3"",""9534""
","""event"",""trial"",""time""
""focus"",""3"",""9533""
""focus"",""3"",""9708""
","""event"",""trial"",""time""
""fullscreenenter"",""5"",""15282""
","
","","","","","","","","","","","","","","","","","","","","","",""
"d3-instructions","48","230398","0.0-48.0","2040","3246","11","Female","true","false","true","false","""event"",""trial"",""time""
""blur"",""3"",""9532""
""focus"",""3"",""9533""
""blur"",""3"",""9534""
""focus"",""3"",""9708""
""fullscreenenter"",""5"",""15282""
","""event"",""trial"",""time""
""blur"",""3"",""9532""
""blur"",""3"",""9534""
","""event"",""trial"",""time""
""focus"",""3"",""9533""
""focus"",""3"",""9708""
","""event"",""trial"",""time""
""fullscreenenter"",""5"",""15282""
","
","","","","","","","","","","","","","","","","","","","","","",""
"d3-instructions","49","240505","0.0-49.0","2040","3246","11","Female","true","false","true","false","""event"",""trial"",""time""
""blur"",""3"",""9532""
""focus"",""3"",""9533""
""blur"",""3"",""9534""
""focus"",""3"",""9708""
""fullscreenenter"",""5"",""15282""
","""event"",""trial"",""time""
""blur"",""3"",""9532""
""blur"",""3"",""9534""
","""event"",""trial"",""time""
""focus"",""3"",""9533""
""focus"",""3"",""9708""
","""event"",""trial"",""time""
""fullscreenenter"",""5"",""15282""
","
","","","","","","","","","","","","","","","","","","","","","",""
"d3-instructions","50","244920","0.0-50.0","2040","3246","11","Female","true","false","true","false","""event"",""trial"",""time""
""blur"",""3"",""9532""
""focus"",""3"",""9533""
""blur"",""3"",""9534""
""focus"",""3"",""9708""
""fullscreenenter"",""5"",""15282""
","""event"",""trial"",""time""
""blur"",""3"",""9532""
""blur"",""3"",""9534""
","""event"",""trial"",""time""
""focus"",""3"",""9533""
""focus"",""3"",""9708""
","""event"",""trial"",""time""
""fullscreenenter"",""5"",""15282""
","
","","","","","","","","","","","","","","","","","","","","","",""
"d3-instructions","51","246874","0.0-51.0","2040","3246","11","Female","true","false","true","false","""event"",""trial"",""time""
""blur"",""3"",""9532""
""focus"",""3"",""9533""
""blur"",""3"",""9534""
""focus"",""3"",""9708""
""fullscreenenter"",""5"",""15282""
","""event"",""trial"",""time""
""blur"",""3"",""9532""
""blur"",""3"",""9534""
","""event"",""trial"",""time""
""focus"",""3"",""9533""
""focus"",""3"",""9708""
","""event"",""trial"",""time""
""fullscreenenter"",""5"",""15282""
","
","","","","","","","","","","","","","","","","","","","","","",""
"d3-instructions","52","248329","0.0-52.0","2040","3246","11","Female","true","false","true","false","""event"",""trial"",""time""
""blur"",""3"",""9532""
""focus"",""3"",""9533""
""blur"",""3"",""9534""
""focus"",""3"",""9708""
""fullscreenenter"",""5"",""15282""
","""event"",""trial"",""time""
""blur"",""3"",""9532""
""blur"",""3"",""9534""
","""event"",""trial"",""time""
""focus"",""3"",""9533""
""focus"",""3"",""9708""
","""event"",""trial"",""time""
""fullscreenenter"",""5"",""15282""
","
","","","","","","","","","","","","","","","","","","","","","",""
"d3-instructions","53","259518","0.0-53.0","2040","3246","11","Female","true","false","true","false","""event"",""trial"",""time""
""blur"",""3"",""9532""
""focus"",""3"",""9533""
""blur"",""3"",""9534""
""focus"",""3"",""9708""
""fullscreenenter"",""5"",""15282""
","""event"",""trial"",""time""
""blur"",""3"",""9532""
""blur"",""3"",""9534""
","""event"",""trial"",""time""
""focus"",""3"",""9533""
""focus"",""3"",""9708""
","""event"",""trial"",""time""
""fullscreenenter"",""5"",""15282""
","
","","","","","","","","","","","","","","","","","","","","","",""
"d3-instructions","54","271788","0.0-54.0","2040","3246","11","Female","true","false","true","false","""event"",""trial"",""time""
""blur"",""3"",""9532""
""focus"",""3"",""9533""
""blur"",""3"",""9534""
""focus"",""3"",""9708""
""fullscreenenter"",""5"",""15282""
","""event"",""trial"",""time""
""blur"",""3"",""9532""
""blur"",""3"",""9534""
","""event"",""trial"",""time""
""focus"",""3"",""9533""
""focus"",""3"",""9708""
","""event"",""trial"",""time""
""fullscreenenter"",""5"",""15282""
","
","","","","","","","","","","","","","","","","","","","","","",""
"d3-instructions","55","282501","0.0-55.0","2040","3246","11","Female","true","false","true","false","""event"",""trial"",""time""
""blur"",""3"",""9532""
""focus"",""3"",""9533""
""blur"",""3"",""9534""
""focus"",""3"",""9708""
""fullscreenenter"",""5"",""15282""
","""event"",""trial"",""time""
""blur"",""3"",""9532""
""blur"",""3"",""9534""
","""event"",""trial"",""time""
""focus"",""3"",""9533""
""focus"",""3"",""9708""
","""event"",""trial"",""time""
""fullscreenenter"",""5"",""15282""
","
","","","","","","","","","","","","","","","","","","","","","",""
"d3-instructions","56","286858","0.0-56.0","2040","3246","11","Female","true","false","true","false","""event"",""trial"",""time""
""blur"",""3"",""9532""
""focus"",""3"",""9533""
""blur"",""3"",""9534""
""focus"",""3"",""9708""
""fullscreenenter"",""5"",""15282""
","""event"",""trial"",""time""
""blur"",""3"",""9532""
""blur"",""3"",""9534""
","""event"",""trial"",""time""
""focus"",""3"",""9533""
""focus"",""3"",""9708""
","""event"",""trial"",""time""
""fullscreenenter"",""5"",""15282""
","
","","","","","","","","","","","","","","","","","","","","","",""
"d3-instructions","57","292924","0.0-57.0","2040","3246","11","Female","true","false","true","false","""event"",""trial"",""time""
""blur"",""3"",""9532""
""focus"",""3"",""9533""
""blur"",""3"",""9534""
""focus"",""3"",""9708""
""fullscreenenter"",""5"",""15282""
","""event"",""trial"",""time""
""blur"",""3"",""9532""
""blur"",""3"",""9534""
","""event"",""trial"",""time""
""focus"",""3"",""9533""
""focus"",""3"",""9708""
","""event"",""trial"",""time""
""fullscreenenter"",""5"",""15282""
","
","","","","","","","","","","","","","","","","","","","","","",""
"d3-instructions","58","297287","0.0-58.0","2040","3246","11","Female","true","false","true","false","""event"",""trial"",""time""
""blur"",""3"",""9532""
""focus"",""3"",""9533""
""blur"",""3"",""9534""
""focus"",""3"",""9708""
""fullscreenenter"",""5"",""15282""
","""event"",""trial"",""time""
""blur"",""3"",""9532""
""blur"",""3"",""9534""
","""event"",""trial"",""time""
""focus"",""3"",""9533""
""focus"",""3"",""9708""
","""event"",""trial"",""time""
""fullscreenenter"",""5"",""15282""
","
","","","","","","","","","","","","","","","","","","","","","",""
"d3-instructions","59","299352","0.0-59.0","2040","3246","11","Female","true","false","true","false","""event"",""trial"",""time""
""blur"",""3"",""9532""
""focus"",""3"",""9533""
""blur"",""3"",""9534""
""focus"",""3"",""9708""
""fullscreenenter"",""5"",""15282""
","""event"",""trial"",""time""
""blur"",""3"",""9532""
""blur"",""3"",""9534""
","""event"",""trial"",""time""
""focus"",""3"",""9533""
""focus"",""3"",""9708""
","""event"",""trial"",""time""
""fullscreenenter"",""5"",""15282""
","
","","","","","","","","","","","","","","","","","","","","","",""
"d3-instructions","60","301033","0.0-60.0","2040","3246","11","Female","true","false","true","false","""event"",""trial"",""time""
""blur"",""3"",""9532""
""focus"",""3"",""9533""
""blur"",""3"",""9534""
""focus"",""3"",""9708""
""fullscreenenter"",""5"",""15282""
","""event"",""trial"",""time""
""blur"",""3"",""9532""
""blur"",""3"",""9534""
","""event"",""trial"",""time""
""focus"",""3"",""9533""
""focus"",""3"",""9708""
","""event"",""trial"",""time""
""fullscreenenter"",""5"",""15282""
","
","","","","","","","","","","","","","","","","","","","","","",""
"d3-animate-choice","61","303691","0.0-61.0-0.0","2040","3246","11","Female","true","false","true","false","""event"",""trial"",""time""
""blur"",""3"",""9532""
""focus"",""3"",""9533""
""blur"",""3"",""9534""
""focus"",""3"",""9708""
""fullscreenenter"",""5"",""15282""
","""event"",""trial"",""time""
""blur"",""3"",""9532""
""blur"",""3"",""9534""
","""event"",""trial"",""time""
""focus"",""3"",""9533""
""focus"",""3"",""9708""
","""event"",""trial"",""time""
""fullscreenenter"",""5"",""15282""
","
","652.6000000014901","","49","","","3000","1","","","images/earth.jpg","images/tutrocket2","images/tutrocket1","null","images/tutrocket1","","1","practice","null","1","","",""
"d3-animate-choice","62","306936","0.0-61.0-1.0","2040","3246","11","Female","true","false","true","false","""event"",""trial"",""time""
""blur"",""3"",""9532""
""focus"",""3"",""9533""
""blur"",""3"",""9534""
""focus"",""3"",""9708""
""fullscreenenter"",""5"",""15282""
","""event"",""trial"",""time""
""blur"",""3"",""9532""
""blur"",""3"",""9534""
","""event"",""trial"",""time""
""focus"",""3"",""9533""
""focus"",""3"",""9708""
","""event"",""trial"",""time""
""fullscreenenter"",""5"",""15282""
","
","1234.5999999940395","","49","","","3000","1","","","images/tutyellowplanet.jpg","images/tutalien4","images/tutalien3","images/tutrocket1","images/tutalien3","images/t.png","2","practice","true","1","common","1","2022-10-22 13:50:07.612"
"two-step-fixation","63","307945","0.0-61.0-2.0","2040","3246","11","Female","true","false","true","false","""event"",""trial"",""time""
""blur"",""3"",""9532""
""focus"",""3"",""9533""
""blur"",""3"",""9534""
""focus"",""3"",""9708""
""fullscreenenter"",""5"",""15282""
","""event"",""trial"",""time""
""blur"",""3"",""9532""
""blur"",""3"",""9534""
","""event"",""trial"",""time""
""focus"",""3"",""9533""
""focus"",""3"",""9708""
","""event"",""trial"",""time""
""fullscreenenter"",""5"",""15282""
","
","","images/earth.jpg","","","","","","","","","","","","","","fixation","","","","","",""
"d3-animate-choice","64","310318","0.0-61.0-0.1","2040","3246","11","Female","true","false","true","false","""event"",""trial"",""time""
""blur"",""3"",""9532""
""focus"",""3"",""9533""
""blur"",""3"",""9534""
""focus"",""3"",""9708""
""fullscreenenter"",""5"",""15282""
","""event"",""trial"",""time""
""blur"",""3"",""9532""
""blur"",""3"",""9534""
","""event"",""trial"",""time""
""focus"",""3"",""9533""
""focus"",""3"",""9708""
","""event"",""trial"",""time""
""fullscreenenter"",""5"",""15282""
","
","368","","48","","","3000","1","","","images/earth.jpg","images/tutrocket2","images/tutrocket1","null","images/tutrocket2","","1","practice","null","2","","",""
"d3-animate-choice","65","312950","0.0-61.0-1.1","2040","3246","11","Female","true","false","true","false","""event"",""trial"",""time""
""blur"",""3"",""9532""
""focus"",""3"",""9533""
""blur"",""3"",""9534""
""focus"",""3"",""9708""
""fullscreenenter"",""5"",""15282""
","""event"",""trial"",""time""
""blur"",""3"",""9532""
""blur"",""3"",""9534""
","""event"",""trial"",""time""
""focus"",""3"",""9533""
""focus"",""3"",""9708""
","""event"",""trial"",""time""
""fullscreenenter"",""5"",""15282""
","
","627.6000000014901","","49","","","3000","1","","","images/tutgreenplanet.jpg","images/tutalien2","images/tutalien1","images/tutrocket2","images/tutalien1","images/t.png","2","practice","true","1","common","1","2022-10-22 13:50:13.626"
"two-step-fixation","66","313956","0.0-61.0-2.1","2040","3246","11","Female","true","false","true","false","""event"",""trial"",""time""
""blur"",""3"",""9532""
""focus"",""3"",""9533""
""blur"",""3"",""9534""
""focus"",""3"",""9708""
""fullscreenenter"",""5"",""15282""
","""event"",""trial"",""time""
""blur"",""3"",""9532""
""blur"",""3"",""9534""
","""event"",""trial"",""time""
""focus"",""3"",""9533""
""focus"",""3"",""9708""
","""event"",""trial"",""time""
""fullscreenenter"",""5"",""15282""
","
","","images/earth.jpg","","","","","","","","","","","","","","fixation","","","","","",""
"d3-animate-choice","67","316354","0.0-61.0-0.2","2040","3246","11","Female","true","false","true","false","""event"",""trial"",""time""
""blur"",""3"",""9532""
""focus"",""3"",""9533""
""blur"",""3"",""9534""
""focus"",""3"",""9708""
""fullscreenenter"",""5"",""15282""
","""event"",""trial"",""time""
""blur"",""3"",""9532""
""blur"",""3"",""9534""
","""event"",""trial"",""time""
""focus"",""3"",""9533""
""focus"",""3"",""9708""
","""event"",""trial"",""time""
""fullscreenenter"",""5"",""15282""
","
","393.3999999985099","","49","","","3000","1","","","images/earth.jpg","images/tutrocket2","images/tutrocket1","null","images/tutrocket1","","1","practice","null","1","","",""
"d3-animate-choice","68","319279","0.0-61.0-1.2","2040","3246","11","Female","true","false","true","false","""event"",""trial"",""time""
""blur"",""3"",""9532""
""focus"",""3"",""9533""
""blur"",""3"",""9534""
""focus"",""3"",""9708""
""fullscreenenter"",""5"",""15282""
","""event"",""trial"",""time""
""blur"",""3"",""9532""
""blur"",""3"",""9534""
","""event"",""trial"",""time""
""focus"",""3"",""9533""
""focus"",""3"",""9708""
","""event"",""trial"",""time""
""fullscreenenter"",""5"",""15282""
","
","916.6000000014901","","48","","","3000","1","","","images/tutgreenplanet.jpg","images/tutalien2","images/tutalien1","images/tutrocket1","images/tutalien2","images/nothing.png","2","practice","false","2","rare","0","2022-10-22 13:50:19.955"
"two-step-fixation","69","320287","0.0-61.0-2.2","2040","3246","11","Female","true","false","true","false","""event"",""trial"",""time""
""blur"",""3"",""9532""
""focus"",""3"",""9533""
""blur"",""3"",""9534""
""focus"",""3"",""9708""
""fullscreenenter"",""5"",""15282""
","""event"",""trial"",""time""
""blur"",""3"",""9532""
""blur"",""3"",""9534""
","""event"",""trial"",""time""
""focus"",""3"",""9533""
""focus"",""3"",""9708""
","""event"",""trial"",""time""
""fullscreenenter"",""5"",""15282""
","
","","images/earth.jpg","","","","","","","","","","","","","","fixation","","","","","",""
"d3-animate-choice","70","322486","0.0-61.0-0.3","2040","3246","11","Female","true","false","true","false","""event"",""trial"",""time""
""blur"",""3"",""9532""
""focus"",""3"",""9533""
""blur"",""3"",""9534""
""focus"",""3"",""9708""
""fullscreenenter"",""5"",""15282""
","""event"",""trial"",""time""
""blur"",""3"",""9532""
""blur"",""3"",""9534""
","""event"",""trial"",""time""
""focus"",""3"",""9533""
""focus"",""3"",""9708""
","""event"",""trial"",""time""
""fullscreenenter"",""5"",""15282""
","
","194.60000000149012","","49","","","3000","1","","","images/earth.jpg","images/tutrocket2","images/tutrocket1","null","images/tutrocket1","","1","practice","null","1","","",""
"d3-animate-choice","71","326497","0.0-61.0-1.3","2040","3246","11","Female","true","false","true","false","""event"",""trial"",""time""
""blur"",""3"",""9532""
""focus"",""3"",""9533""
""blur"",""3"",""9534""
""focus"",""3"",""9708""
""fullscreenenter"",""5"",""15282""
","""event"",""trial"",""time""
""blur"",""3"",""9532""
""blur"",""3"",""9534""
","""event"",""trial"",""time""
""focus"",""3"",""9533""
""focus"",""3"",""9708""
","""event"",""trial"",""time""
""fullscreenenter"",""5"",""15282""
","
","3543.2000000029802","","48","","","3000","0","","","images/tutgreenplanet.jpg","images/tutalien2","images/tutalien1","images/tutrocket1","","","2","practice","false","2","rare","0","2022-10-22 13:50:27.173"
"two-step-fixation","72","327500","0.0-61.0-2.3","2040","3246","11","Female","true","false","true","false","""event"",""trial"",""time""
""blur"",""3"",""9532""
""focus"",""3"",""9533""
""blur"",""3"",""9534""
""focus"",""3"",""9708""
""fullscreenenter"",""5"",""15282""
","""event"",""trial"",""time""
""blur"",""3"",""9532""
""blur"",""3"",""9534""
","""event"",""trial"",""time""
""focus"",""3"",""9533""
""focus"",""3"",""9708""
","""event"",""trial"",""time""
""fullscreenenter"",""5"",""15282""
","
","","images/earth.jpg","","","","","","","","","","","","","","fixation","","","","","",""
"d3-animate-choice","73","329510","0.0-61.0-0.4","2040","3246","11","Female","true","false","true","false","""event"",""trial"",""time""
""blur"",""3"",""9532""
""focus"",""3"",""9533""
""blur"",""3"",""9534""
""focus"",""3"",""9708""
""fullscreenenter"",""5"",""15282""
","""event"",""trial"",""time""
""blur"",""3"",""9532""
""blur"",""3"",""9534""
","""event"",""trial"",""time""
""focus"",""3"",""9533""
""focus"",""3"",""9708""
","""event"",""trial"",""time""
""fullscreenenter"",""5"",""15282""
","
","5.399999998509884","","48","","","3000","1","203.10000000149012","48","images/earth.jpg","images/tutrocket2","images/tutrocket1","null","images/tutrocket2","","1","practice","null","2","","",""
"d3-animate-choice","74","331858","0.0-61.0-1.4","2040","3246","11","Female","true","false","true","false","""event"",""trial"",""time""
""blur"",""3"",""9532""
""focus"",""3"",""9533""
""blur"",""3"",""9534""
""focus"",""3"",""9708""
""fullscreenenter"",""5"",""15282""
","""event"",""trial"",""time""
""blur"",""3"",""9532""
""blur"",""3"",""9534""
","""event"",""trial"",""time""
""focus"",""3"",""9533""
""focus"",""3"",""9708""
","""event"",""trial"",""time""
""fullscreenenter"",""5"",""15282""
","
","342.30000000447035","","49","","","3000","1","","","images/tutgreenplanet.jpg","images/tutalien2","images/tutalien1","images/tutrocket2","images/tutalien1","images/t.png","2","practice","true","1","common","1","2022-10-22 13:50:32.534"
"two-step-fixation","75","332866","0.0-61.0-2.4","2040","3246","11","Female","true","false","true","false","""event"",""trial"",""time""
""blur"",""3"",""9532""
""focus"",""3"",""9533""
""blur"",""3"",""9534""
""focus"",""3"",""9708""
""fullscreenenter"",""5"",""15282""
","""event"",""trial"",""time""
""blur"",""3"",""9532""
""blur"",""3"",""9534""
","""event"",""trial"",""time""
""focus"",""3"",""9533""
""focus"",""3"",""9708""
","""event"",""trial"",""time""
""fullscreenenter"",""5"",""15282""
","
","","images/earth.jpg","","","","","","","","","","","","","","fixation","","","","","",""
"d3-animate-choice","76","335330","0.0-61.0-0.5","2040","3246","11","Female","true","false","true","false","""event"",""trial"",""time""
""blur"",""3"",""9532""
""focus"",""3"",""9533""
""blur"",""3"",""9534""
""focus"",""3"",""9708""
""fullscreenenter"",""5"",""15282""
","""event"",""trial"",""time""
""blur"",""3"",""9532""
""blur"",""3"",""9534""
","""event"",""trial"",""time""
""focus"",""3"",""9533""
""focus"",""3"",""9708""
","""event"",""trial"",""time""
""fullscreenenter"",""5"",""15282""
","
","456.30000000447035","","48","","","3000","1","","","images/earth.jpg","images/tutrocket2","images/tutrocket1","null","images/tutrocket2","","1","practice","null","2","","",""
"d3-animate-choice","77","337818","0.0-61.0-1.5","2040","3246","11","Female","true","false","true","false","""event"",""trial"",""time""
""blur"",""3"",""9532""
""focus"",""3"",""9533""
""blur"",""3"",""9534""
""focus"",""3"",""9708""
""fullscreenenter"",""5"",""15282""
","""event"",""trial"",""time""
""blur"",""3"",""9532""
""blur"",""3"",""9534""
","""event"",""trial"",""time""
""focus"",""3"",""9533""
""focus"",""3"",""9708""
","""event"",""trial"",""time""
""fullscreenenter"",""5"",""15282""
","
","482.19999999552965","","49","","","3000","1","","","images/tutgreenplanet.jpg","images/tutalien2","images/tutalien1","images/tutrocket2","images/tutalien1","images/nothing.png","2","practice","true","1","common","0","2022-10-22 13:50:38.494"
"two-step-fixation","78","338823","0.0-61.0-2.5","2040","3246","11","Female","true","false","true","false","""event"",""trial"",""time""
""blur"",""3"",""9532""
""focus"",""3"",""9533""
""blur"",""3"",""9534""
""focus"",""3"",""9708""
""fullscreenenter"",""5"",""15282""
","""event"",""trial"",""time""
""blur"",""3"",""9532""
""blur"",""3"",""9534""
","""event"",""trial"",""time""
""focus"",""3"",""9533""
""focus"",""3"",""9708""
","""event"",""trial"",""time""
""fullscreenenter"",""5"",""15282""
","
","","images/earth.jpg","","","","","","","","","","","","","","fixation","","","","","",""
"d3-animate-choice","79","340956","0.0-61.0-0.6","2040","3246","11","Female","true","false","true","false","""event"",""trial"",""time""
""blur"",""3"",""9532""
""focus"",""3"",""9533""
""blur"",""3"",""9534""
""focus"",""3"",""9708""
""fullscreenenter"",""5"",""15282""
","""event"",""trial"",""time""
""blur"",""3"",""9532""
""blur"",""3"",""9534""
","""event"",""trial"",""time""
""focus"",""3"",""9533""
""focus"",""3"",""9708""
","""event"",""trial"",""time""
""fullscreenenter"",""5"",""15282""
","
","125.79999999701977","","48","","","3000","1","","","images/earth.jpg","images/tutrocket2","images/tutrocket1","null","images/tutrocket2","","1","practice","null","2","","",""
"d3-animate-choice","80","343335","0.0-61.0-1.6","2040","3246","11","Female","true","false","true","false","""event"",""trial"",""time""
""blur"",""3"",""9532""
""focus"",""3"",""9533""
""blur"",""3"",""9534""
""focus"",""3"",""9708""
""fullscreenenter"",""5"",""15282""
","""event"",""trial"",""time""
""blur"",""3"",""9532""
""blur"",""3"",""9534""
","""event"",""trial"",""time""
""focus"",""3"",""9533""
""focus"",""3"",""9708""
","""event"",""trial"",""time""
""fullscreenenter"",""5"",""15282""
","
","376.1000000014901","","49","","","3000","1","","","images/tutgreenplanet.jpg","images/tutalien2","images/tutalien1","images/tutrocket2","images/tutalien1","images/t.png","2","practice","true","1","common","1","2022-10-22 13:50:44.011"
"two-step-fixation","81","344343","0.0-61.0-2.6","2040","3246","11","Female","true","false","true","false","""event"",""trial"",""time""
""blur"",""3"",""9532""
""focus"",""3"",""9533""
""blur"",""3"",""9534""
""focus"",""3"",""9708""
""fullscreenenter"",""5"",""15282""
","""event"",""trial"",""time""
""blur"",""3"",""9532""
""blur"",""3"",""9534""
","""event"",""trial"",""time""
""focus"",""3"",""9533""
""focus"",""3"",""9708""
","""event"",""trial"",""time""
""fullscreenenter"",""5"",""15282""
","
","","images/earth.jpg","","","","","","","","","","","","","","fixation","","","","","",""
"d3-animate-choice","82","346423","0.0-61.0-0.7","2040","3246","11","Female","true","false","true","false","""event"",""trial"",""time""
""blur"",""3"",""9532""
""focus"",""3"",""9533""
""blur"",""3"",""9534""
""focus"",""3"",""9708""
""fullscreenenter"",""5"",""15282""
","""event"",""trial"",""time""
""blur"",""3"",""9532""
""blur"",""3"",""9534""
","""event"",""trial"",""time""
""focus"",""3"",""9533""
""focus"",""3"",""9708""
","""event"",""trial"",""time""
""fullscreenenter"",""5"",""15282""
","
","75.5","","48","","","3000","1","","","images/earth.jpg","images/tutrocket2","images/tutrocket1","null","images/tutrocket2","","1","practice","null","2","","",""
"d3-animate-choice","83","348802","0.0-61.0-1.7","2040","3246","11","Female","true","false","true","false","""event"",""trial"",""time""
""blur"",""3"",""9532""
""focus"",""3"",""9533""
""blur"",""3"",""9534""
""focus"",""3"",""9708""
""fullscreenenter"",""5"",""15282""
","""event"",""trial"",""time""
""blur"",""3"",""9532""
""blur"",""3"",""9534""
","""event"",""trial"",""time""
""focus"",""3"",""9533""
""focus"",""3"",""9708""
","""event"",""trial"",""time""
""fullscreenenter"",""5"",""15282""
","
","373.6000000014901","","49","","","3000","1","","","images/tutgreenplanet.jpg","images/tutalien2","images/tutalien1","images/tutrocket2","images/tutalien1","images/nothing.png","2","practice","true","1","common","0","2022-10-22 13:50:49.478"
"two-step-fixation","84","349809","0.0-61.0-2.7","2040","3246","11","Female","true","false","true","false","""event"",""trial"",""time""
""blur"",""3"",""9532""
""focus"",""3"",""9533""
""blur"",""3"",""9534""
""focus"",""3"",""9708""
""fullscreenenter"",""5"",""15282""
","""event"",""trial"",""time""
""blur"",""3"",""9532""
""blur"",""3"",""9534""
","""event"",""trial"",""time""
""focus"",""3"",""9533""
""focus"",""3"",""9708""
","""event"",""trial"",""time""
""fullscreenenter"",""5"",""15282""
","
","","images/earth.jpg","","","","","","","","","","","","","","fixation","","","","","",""
"d3-animate-choice","85","352564","0.0-61.0-0.8","2040","3246","11","Female","true","false","true","false","""event"",""trial"",""time""
""blur"",""3"",""9532""
""focus"",""3"",""9533""
""blur"",""3"",""9534""
""focus"",""3"",""9708""
""fullscreenenter"",""5"",""15282""
","""event"",""trial"",""time""
""blur"",""3"",""9532""
""blur"",""3"",""9534""
","""event"",""trial"",""time""
""focus"",""3"",""9533""
""focus"",""3"",""9708""
","""event"",""trial"",""time""
""fullscreenenter"",""5"",""15282""
","
","750.7999999970198","","49","","","3000","1","","","images/earth.jpg","images/tutrocket2","images/tutrocket1","null","images/tutrocket1","","1","practice","null","1","","",""
"d3-animate-choice","86","354930","0.0-61.0-1.8","2040","3246","11","Female","true","false","true","false","""event"",""trial"",""time""
""blur"",""3"",""9532""
""focus"",""3"",""9533""
""blur"",""3"",""9534""
""focus"",""3"",""9708""
""fullscreenenter"",""5"",""15282""
","""event"",""trial"",""time""
""blur"",""3"",""9532""
""blur"",""3"",""9534""
","""event"",""trial"",""time""
""focus"",""3"",""9533""
""focus"",""3"",""9708""
","""event"",""trial"",""time""
""fullscreenenter"",""5"",""15282""
","
","362.8999999985099","","49","","","3000","1","","","images/tutyellowplanet.jpg","images/tutalien4","images/tutalien3","images/tutrocket1","images/tutalien3","images/nothing.png","2","practice","true","1","common","0","2022-10-22 13:50:55.607"
"two-step-fixation","87","355938","0.0-61.0-2.8","2040","3246","11","Female","true","false","true","false","""event"",""trial"",""time""
""blur"",""3"",""9532""
""focus"",""3"",""9533""
""blur"",""3"",""9534""
""focus"",""3"",""9708""
""fullscreenenter"",""5"",""15282""
","""event"",""trial"",""time""
""blur"",""3"",""9532""
""blur"",""3"",""9534""
","""event"",""trial"",""time""
""focus"",""3"",""9533""
""focus"",""3"",""9708""
","""event"",""trial"",""time""
""fullscreenenter"",""5"",""15282""
","
","","images/earth.jpg","","","","","","","","","","","","","","fixation","","","","","",""
"d3-animate-choice","88","358408","0.0-61.0-0.9","2040","3246","11","Female","true","false","true","false","""event"",""trial"",""time""
""blur"",""3"",""9532""
""focus"",""3"",""9533""
""blur"",""3"",""9534""
""focus"",""3"",""9708""
""fullscreenenter"",""5"",""15282""
","""event"",""trial"",""time""
""blur"",""3"",""9532""
""blur"",""3"",""9534""
","""event"",""trial"",""time""
""focus"",""3"",""9533""
""focus"",""3"",""9708""
","""event"",""trial"",""time""
""fullscreenenter"",""5"",""15282""
","
","464.3999999985099","","49","","","3000","1","","","images/earth.jpg","images/tutrocket2","images/tutrocket1","null","images/tutrocket1","","1","practice","null","1","","",""
"d3-animate-choice","89","360792","0.0-61.0-1.9","2040","3246","11","Female","true","false","true","false","""event"",""trial"",""time""
""blur"",""3"",""9532""
""focus"",""3"",""9533""
""blur"",""3"",""9534""
""focus"",""3"",""9708""
""fullscreenenter"",""5"",""15282""
","""event"",""trial"",""time""
""blur"",""3"",""9532""
""blur"",""3"",""9534""
","""event"",""trial"",""time""
""focus"",""3"",""9533""
""focus"",""3"",""9708""
","""event"",""trial"",""time""
""fullscreenenter"",""5"",""15282""
","
","378.69999999552965","","48","","","3000","1","","","images/tutyellowplanet.jpg","images/tutalien4","images/tutalien3","images/tutrocket1","images/tutalien4","images/nothing.png","2","practice","true","2","common","0","2022-10-22 13:51:01.468"
"two-step-fixation","90","361796","0.0-61.0-2.9","2040","3246","11","Female","true","false","true","false","""event"",""trial"",""time""
""blur"",""3"",""9532""
""focus"",""3"",""9533""
""blur"",""3"",""9534""
""focus"",""3"",""9708""
""fullscreenenter"",""5"",""15282""
","""event"",""trial"",""time""
""blur"",""3"",""9532""
""blur"",""3"",""9534""
","""event"",""trial"",""time""
""focus"",""3"",""9533""
""focus"",""3"",""9708""
","""event"",""trial"",""time""
""fullscreenenter"",""5"",""15282""
","
","","images/earth.jpg","","","","","","","","","","","","","","fixation","","","","","",""
"d3-animate-choice","91","364493","0.0-61.0-0.10","2040","3246","11","Female","true","false","true","false","""event"",""trial"",""time""
""blur"",""3"",""9532""
""focus"",""3"",""9533""
""blur"",""3"",""9534""
""focus"",""3"",""9708""
""fullscreenenter"",""5"",""15282""
","""event"",""trial"",""time""
""blur"",""3"",""9532""
""blur"",""3"",""9534""
","""event"",""trial"",""time""
""focus"",""3"",""9533""
""focus"",""3"",""9708""
","""event"",""trial"",""time""
""fullscreenenter"",""5"",""15282""
","
","689.6000000014901","","48","","","3000","1","","","images/earth.jpg","images/tutrocket2","images/tutrocket1","null","images/tutrocket2","","1","practice","null","2","","",""
"d3-animate-choice","92","366856","0.0-61.0-1.10","2040","3246","11","Female","true","false","true","false","""event"",""trial"",""time""
""blur"",""3"",""9532""
""focus"",""3"",""9533""
""blur"",""3"",""9534""
""focus"",""3"",""9708""
""fullscreenenter"",""5"",""15282""
","""event"",""trial"",""time""
""blur"",""3"",""9532""
""blur"",""3"",""9534""
","""event"",""trial"",""time""
""focus"",""3"",""9533""
""focus"",""3"",""9708""
","""event"",""trial"",""time""
""fullscreenenter"",""5"",""15282""
","
","357.90000000596046","","49","","","3000","1","","","images/tutyellowplanet.jpg","images/tutalien4","images/tutalien3","images/tutrocket2","images/tutalien3","images/nothing.png","2","practice","false","1","rare","0","2022-10-22 13:51:07.532"
"two-step-fixation","93","367862","0.0-61.0-2.10","2040","3246","11","Female","true","false","true","false","""event"",""trial"",""time""
""blur"",""3"",""9532""
""focus"",""3"",""9533""
""blur"",""3"",""9534""
""focus"",""3"",""9708""
""fullscreenenter"",""5"",""15282""
","""event"",""trial"",""time""
""blur"",""3"",""9532""
""blur"",""3"",""9534""
","""event"",""trial"",""time""
""focus"",""3"",""9533""
""focus"",""3"",""9708""
","""event"",""trial"",""time""
""fullscreenenter"",""5"",""15282""
","
","","images/earth.jpg","","","","","","","","","","","","","","fixation","","","","","",""
"d3-animate-choice","94","370339","0.0-61.0-0.11","2040","3246","11","Female","true","false","true","false","""event"",""trial"",""time""
""blur"",""3"",""9532""
""focus"",""3"",""9533""
""blur"",""3"",""9534""
""focus"",""3"",""9708""
""fullscreenenter"",""5"",""15282""
","""event"",""trial"",""time""
""blur"",""3"",""9532""
""blur"",""3"",""9534""
","""event"",""trial"",""time""
""focus"",""3"",""9533""
""focus"",""3"",""9708""
","""event"",""trial"",""time""
""fullscreenenter"",""5"",""15282""
","
","472.69999999552965","","49","","","3000","1","","","images/earth.jpg","images/tutrocket2","images/tutrocket1","null","images/tutrocket1","","1","practice","null","1","","",""
"d3-animate-choice","95","372696","0.0-61.0-1.11","2040","3246","11","Female","true","false","true","false","""event"",""trial"",""time""
""blur"",""3"",""9532""
""focus"",""3"",""9533""
""blur"",""3"",""9534""
""focus"",""3"",""9708""
""fullscreenenter"",""5"",""15282""
","""event"",""trial"",""time""
""blur"",""3"",""9532""
""blur"",""3"",""9534""
","""event"",""trial"",""time""
""focus"",""3"",""9533""
""focus"",""3"",""9708""
","""event"",""trial"",""time""
""fullscreenenter"",""5"",""15282""
","
","349.19999999552965","","48","","","3000","1","","","images/tutgreenplanet.jpg","images/tutalien2","images/tutalien1","images/tutrocket1","images/tutalien2","images/nothing.png","2","practice","false","2","rare","0","2022-10-22 13:51:13.372"
"two-step-fixation","96","373704","0.0-61.0-2.11","2040","3246","11","Female","true","false","true","false","""event"",""trial"",""time""
""blur"",""3"",""9532""
""focus"",""3"",""9533""
""blur"",""3"",""9534""
""focus"",""3"",""9708""
""fullscreenenter"",""5"",""15282""
","""event"",""trial"",""time""
""blur"",""3"",""9532""
""blur"",""3"",""9534""
","""event"",""trial"",""time""
""focus"",""3"",""9533""
""focus"",""3"",""9708""
","""event"",""trial"",""time""
""fullscreenenter"",""5"",""15282""
","
","","images/earth.jpg","","","","","","","","","","","","","","fixation","","","","","",""
"d3-animate-choice","97","375912","0.0-61.0-0.12","2040","3246","11","Female","true","false","true","false","""event"",""trial"",""time""
""blur"",""3"",""9532""
""focus"",""3"",""9533""
""blur"",""3"",""9534""
""focus"",""3"",""9708""
""fullscreenenter"",""5"",""15282""
","""event"",""trial"",""time""
""blur"",""3"",""9532""
""blur"",""3"",""9534""
","""event"",""trial"",""time""
""focus"",""3"",""9533""
""focus"",""3"",""9708""
","""event"",""trial"",""time""
""fullscreenenter"",""5"",""15282""
","
","197.80000000447035","","48","","","3000","1","","","images/earth.jpg","images/tutrocket2","images/tutrocket1","null","images/tutrocket2","","1","practice","null","2","","",""
"d3-animate-choice","98","378224","0.0-61.0-1.12","2040","3246","11","Female","true","false","true","false","""event"",""trial"",""time""
""blur"",""3"",""9532""
""focus"",""3"",""9533""
""blur"",""3"",""9534""
""focus"",""3"",""9708""
""fullscreenenter"",""5"",""15282""
","""event"",""trial"",""time""
""blur"",""3"",""9532""
""blur"",""3"",""9534""
","""event"",""trial"",""time""
""focus"",""3"",""9533""
""focus"",""3"",""9708""
","""event"",""trial"",""time""
""fullscreenenter"",""5"",""15282""
","
","307.70000000298023","","48","","","3000","1","","","images/tutyellowplanet.jpg","images/tutalien4","images/tutalien3","images/tutrocket2","images/tutalien4","images/t.png","2","practice","false","2","rare","1","2022-10-22 13:51:18.900"
"two-step-fixation","99","379228","0.0-61.0-2.12","2040","3246","11","Female","true","false","true","false","""event"",""trial"",""time""
""blur"",""3"",""9532""
""focus"",""3"",""9533""
""blur"",""3"",""9534""
""focus"",""3"",""9708""
""fullscreenenter"",""5"",""15282""
","""event"",""trial"",""time""
""blur"",""3"",""9532""
""blur"",""3"",""9534""
","""event"",""trial"",""time""
""focus"",""3"",""9533""
""focus"",""3"",""9708""
","""event"",""trial"",""time""
""fullscreenenter"",""5"",""15282""
","
","","images/earth.jpg","","","","","","","","","","","","","","fixation","","","","","",""
"d3-animate-choice","100","381347","0.0-61.0-0.13","2040","3246","11","Female","true","false","true","false","""event"",""trial"",""time""
""blur"",""3"",""9532""
""focus"",""3"",""9533""
""blur"",""3"",""9534""
""focus"",""3"",""9708""
""fullscreenenter"",""5"",""15282""
","""event"",""trial"",""time""
""blur"",""3"",""9532""
""blur"",""3"",""9534""
","""event"",""trial"",""time""
""focus"",""3"",""9533""
""focus"",""3"",""9708""
","""event"",""trial"",""time""
""fullscreenenter"",""5"",""15282""
","
","111.20000000298023","","48","","","3000","1","","","images/earth.jpg","images/tutrocket2","images/tutrocket1","null","images/tutrocket2","","1","practice","null","2","","",""
"d3-animate-choice","101","383649","0.0-61.0-1.13","2040","3246","11","Female","true","false","true","false","""event"",""trial"",""time""
""blur"",""3"",""9532""
""focus"",""3"",""9533""
""blur"",""3"",""9534""
""focus"",""3"",""9708""
""fullscreenenter"",""5"",""15282""
","""event"",""trial"",""time""
""blur"",""3"",""9532""
""blur"",""3"",""9534""
","""event"",""trial"",""time""
""focus"",""3"",""9533""
""focus"",""3"",""9708""
","""event"",""trial"",""time""
""fullscreenenter"",""5"",""15282""
","
","297","","48","","","3000","1","","","images/tutgreenplanet.jpg","images/tutalien2","images/tutalien1","images/tutrocket2","images/tutalien2","images/nothing.png","2","practice","true","2","common","0","2022-10-22 13:51:24.325"
"two-step-fixation","102","384654","0.0-61.0-2.13","2040","3246","11","Female","true","false","true","false","""event"",""trial"",""time""
""blur"",""3"",""9532""
""focus"",""3"",""9533""
""blur"",""3"",""9534""
""focus"",""3"",""9708""
""fullscreenenter"",""5"",""15282""
","""event"",""trial"",""time""
""blur"",""3"",""9532""
""blur"",""3"",""9534""
","""event"",""trial"",""time""
""focus"",""3"",""9533""
""focus"",""3"",""9708""
","""event"",""trial"",""time""
""fullscreenenter"",""5"",""15282""
","
","","images/earth.jpg","","","","","","","","","","","","","","fixation","","","","","",""
"d3-animate-choice","103","386968","0.0-61.0-0.14","2040","3246","11","Female","true","false","true","false","""event"",""trial"",""time""
""blur"",""3"",""9532""
""focus"",""3"",""9533""
""blur"",""3"",""9534""
""focus"",""3"",""9708""
""fullscreenenter"",""5"",""15282""
","""event"",""trial"",""time""
""blur"",""3"",""9532""
""blur"",""3"",""9534""
","""event"",""trial"",""time""
""focus"",""3"",""9533""
""focus"",""3"",""9708""
","""event"",""trial"",""time""
""fullscreenenter"",""5"",""15282""
","
","310.6000000014901","","48","","","3000","1","","","images/earth.jpg","images/tutrocket2","images/tutrocket1","null","images/tutrocket2","","1","practice","null","2","","",""
"d3-animate-choice","104","389342","0.0-61.0-1.14","2040","3246","11","Female","true","false","true","false","""event"",""trial"",""time""
""blur"",""3"",""9532""
""focus"",""3"",""9533""
""blur"",""3"",""9534""
""focus"",""3"",""9708""
""fullscreenenter"",""5"",""15282""
","""event"",""trial"",""time""
""blur"",""3"",""9532""
""blur"",""3"",""9534""
","""event"",""trial"",""time""
""focus"",""3"",""9533""
""focus"",""3"",""9708""
","""event"",""trial"",""time""
""fullscreenenter"",""5"",""15282""
","
","369.5","","48","","","3000","1","","","images/tutgreenplanet.jpg","images/tutalien2","images/tutalien1","images/tutrocket2","images/tutalien2","images/nothing.png","2","practice","true","2","common","0","2022-10-22 13:51:30.018"
"two-step-fixation","105","390350","0.0-61.0-2.14","2040","3246","11","Female","true","false","true","false","""event"",""trial"",""time""
""blur"",""3"",""9532""
""focus"",""3"",""9533""
""blur"",""3"",""9534""
""focus"",""3"",""9708""
""fullscreenenter"",""5"",""15282""
","""event"",""trial"",""time""
""blur"",""3"",""9532""
""blur"",""3"",""9534""
","""event"",""trial"",""time""
""focus"",""3"",""9533""
""focus"",""3"",""9708""
","""event"",""trial"",""time""
""fullscreenenter"",""5"",""15282""
","
","","images/earth.jpg","","","","","","","","","","","","","","fixation","","","","","",""
"d3-animate-choice","106","392931","0.0-61.0-0.15","2040","3246","11","Female","true","false","true","false","""event"",""trial"",""time""
""blur"",""3"",""9532""
""focus"",""3"",""9533""
""blur"",""3"",""9534""
""focus"",""3"",""9708""
""fullscreenenter"",""5"",""15282""
","""event"",""trial"",""time""
""blur"",""3"",""9532""
""blur"",""3"",""9534""
","""event"",""trial"",""time""
""focus"",""3"",""9533""
""focus"",""3"",""9708""
","""event"",""trial"",""time""
""fullscreenenter"",""5"",""15282""
","
","574.6000000014901","","49","","","3000","1","","","images/earth.jpg","images/tutrocket2","images/tutrocket1","null","images/tutrocket1","","1","practice","null","1","","",""
"d3-animate-choice","107","395601","0.0-61.0-1.15","2040","3246","11","Female","true","false","true","false","""event"",""trial"",""time""
""blur"",""3"",""9532""
""focus"",""3"",""9533""
""blur"",""3"",""9534""
""focus"",""3"",""9708""
""fullscreenenter"",""5"",""15282""
","""event"",""trial"",""time""
""blur"",""3"",""9532""
""blur"",""3"",""9534""
","""event"",""trial"",""time""
""focus"",""3"",""9533""
""focus"",""3"",""9708""
","""event"",""trial"",""time""
""fullscreenenter"",""5"",""15282""
","
","663.5999999940395","","49","","","3000","1","","","images/tutyellowplanet.jpg","images/tutalien4","images/tutalien3","images/tutrocket1","images/tutalien3","images/t.png","2","practice","true","1","common","1","2022-10-22 13:51:36.277"
"two-step-fixation","108","396606","0.0-61.0-2.15","2040","3246","11","Female","true","false","true","false","""event"",""trial"",""time""
""blur"",""3"",""9532""
""focus"",""3"",""9533""
""blur"",""3"",""9534""
""focus"",""3"",""9708""
""fullscreenenter"",""5"",""15282""
","""event"",""trial"",""time""
""blur"",""3"",""9532""
""blur"",""3"",""9534""
","""event"",""trial"",""time""
""focus"",""3"",""9533""
""focus"",""3"",""9708""
","""event"",""trial"",""time""
""fullscreenenter"",""5"",""15282""
","
","","images/earth.jpg","","","","","","","","","","","","","","fixation","","","","","",""
"d3-animate-choice","109","398724","0.0-61.0-0.16","2040","3246","11","Female","true","false","true","false","""event"",""trial"",""time""
""blur"",""3"",""9532""
""focus"",""3"",""9533""
""blur"",""3"",""9534""
""focus"",""3"",""9708""
""fullscreenenter"",""5"",""15282""
","""event"",""trial"",""time""
""blur"",""3"",""9532""
""blur"",""3"",""9534""
","""event"",""trial"",""time""
""focus"",""3"",""9533""
""focus"",""3"",""9708""
","""event"",""trial"",""time""
""fullscreenenter"",""5"",""15282""
","
","113.10000000149012","","49","","","3000","1","","","images/earth.jpg","images/tutrocket2","images/tutrocket1","null","images/tutrocket1","","1","practice","null","1","","",""
"d3-animate-choice","110","401028","0.0-61.0-1.16","2040","3246","11","Female","true","false","true","false","""event"",""trial"",""time""
""blur"",""3"",""9532""
""focus"",""3"",""9533""
""blur"",""3"",""9534""
""focus"",""3"",""9708""
""fullscreenenter"",""5"",""15282""
","""event"",""trial"",""time""
""blur"",""3"",""9532""
""blur"",""3"",""9534""
","""event"",""trial"",""time""
""focus"",""3"",""9533""
""focus"",""3"",""9708""
","""event"",""trial"",""time""
""fullscreenenter"",""5"",""15282""
","
","296.30000000447035","","48","","","3000","1","","","images/tutgreenplanet.jpg","images/tutalien2","images/tutalien1","images/tutrocket1","images/tutalien2","images/nothing.png","2","practice","false","2","rare","0","2022-10-22 13:51:41.704"
"two-step-fixation","111","402036","0.0-61.0-2.16","2040","3246","11","Female","true","false","true","false","""event"",""trial"",""time""
""blur"",""3"",""9532""
""focus"",""3"",""9533""
""blur"",""3"",""9534""
""focus"",""3"",""9708""
""fullscreenenter"",""5"",""15282""
","""event"",""trial"",""time""
""blur"",""3"",""9532""
""blur"",""3"",""9534""
","""event"",""trial"",""time""
""focus"",""3"",""9533""
""focus"",""3"",""9708""
","""event"",""trial"",""time""
""fullscreenenter"",""5"",""15282""
","
","","images/earth.jpg","","","","","","","","","","","","","","fixation","","","","","",""
"d3-animate-choice","112","404158","0.0-61.0-0.17","2040","3246","11","Female","true","false","true","false","""event"",""trial"",""time""
""blur"",""3"",""9532""
""focus"",""3"",""9533""
""blur"",""3"",""9534""
""focus"",""3"",""9708""
""fullscreenenter"",""5"",""15282""
","""event"",""trial"",""time""
""blur"",""3"",""9532""
""blur"",""3"",""9534""
","""event"",""trial"",""time""
""focus"",""3"",""9533""
""focus"",""3"",""9708""
","""event"",""trial"",""time""
""fullscreenenter"",""5"",""15282""
","
","116.10000000149012","","49","","","3000","1","","","images/earth.jpg","images/tutrocket2","images/tutrocket1","null","images/tutrocket1","","1","practice","null","1","","",""
"d3-animate-choice","113","406639","0.0-61.0-1.17","2040","3246","11","Female","true","false","true","false","""event"",""trial"",""time""
""blur"",""3"",""9532""
""focus"",""3"",""9533""
""blur"",""3"",""9534""
""focus"",""3"",""9708""
""fullscreenenter"",""5"",""15282""
","""event"",""trial"",""time""
""blur"",""3"",""9532""
""blur"",""3"",""9534""
","""event"",""trial"",""time""
""focus"",""3"",""9533""
""focus"",""3"",""9708""
","""event"",""trial"",""time""
""fullscreenenter"",""5"",""15282""
","
","472.70000000298023","","48","","","3000","1","","","images/tutyellowplanet.jpg","images/tutalien4","images/tutalien3","images/tutrocket1","images/tutalien4","images/nothing.png","2","practice","true","2","common","0","2022-10-22 13:51:47.315"
"two-step-fixation","114","407643","0.0-61.0-2.17","2040","3246","11","Female","true","false","true","false","""event"",""trial"",""time""
""blur"",""3"",""9532""
""focus"",""3"",""9533""
""blur"",""3"",""9534""
""focus"",""3"",""9708""
""fullscreenenter"",""5"",""15282""
","""event"",""trial"",""time""
""blur"",""3"",""9532""
""blur"",""3"",""9534""
","""event"",""trial"",""time""
""focus"",""3"",""9533""
""focus"",""3"",""9708""
","""event"",""trial"",""time""
""fullscreenenter"",""5"",""15282""
","
","","images/earth.jpg","","","","","","","","","","","","","","fixation","","","","","",""
"d3-animate-choice","115","409668","0.0-61.0-0.18","2040","3246","11","Female","true","false","true","false","""event"",""trial"",""time""
""blur"",""3"",""9532""
""focus"",""3"",""9533""
""blur"",""3"",""9534""
""focus"",""3"",""9708""
""fullscreenenter"",""5"",""15282""
","""event"",""trial"",""time""
""blur"",""3"",""9532""
""blur"",""3"",""9534""
","""event"",""trial"",""time""
""focus"",""3"",""9533""
""focus"",""3"",""9708""
","""event"",""trial"",""time""
""fullscreenenter"",""5"",""15282""
","
","20.900000005960464","","48","","","3000","1","54.70000000298023","49","images/earth.jpg","images/tutrocket2","images/tutrocket1","null","images/tutrocket2","","1","practice","null","2","","",""
"d3-animate-choice","116","411748","0.0-61.0-1.18","2040","3246","11","Female","true","false","true","false","""event"",""trial"",""time""
""blur"",""3"",""9532""
""focus"",""3"",""9533""
""blur"",""3"",""9534""
""focus"",""3"",""9708""
""fullscreenenter"",""5"",""15282""
","""event"",""trial"",""time""
""blur"",""3"",""9532""
""blur"",""3"",""9534""
","""event"",""trial"",""time""
""focus"",""3"",""9533""
""focus"",""3"",""9708""
","""event"",""trial"",""time""
""fullscreenenter"",""5"",""15282""
","
","75.39999999850988","","48","","","3000","1","88.09999999403954","49","images/tutgreenplanet.jpg","images/tutalien2","images/tutalien1","images/tutrocket2","images/tutalien2","images/nothing.png","2","practice","true","2","common","0","2022-10-22 13:51:52.424"
"two-step-fixation","117","412753","0.0-61.0-2.18","2040","3246","11","Female","true","false","true","false","""event"",""trial"",""time""
""blur"",""3"",""9532""
""focus"",""3"",""9533""
""blur"",""3"",""9534""
""focus"",""3"",""9708""
""fullscreenenter"",""5"",""15282""
","""event"",""trial"",""time""
""blur"",""3"",""9532""
""blur"",""3"",""9534""
","""event"",""trial"",""time""
""focus"",""3"",""9533""
""focus"",""3"",""9708""
","""event"",""trial"",""time""
""fullscreenenter"",""5"",""15282""
","
","","images/earth.jpg","","","","","","","","","","","","","","fixation","","","","","",""
"d3-animate-choice","118","415060","0.0-61.0-0.19","2040","3246","11","Female","true","false","true","false","""event"",""trial"",""time""
""blur"",""3"",""9532""
""focus"",""3"",""9533""
""blur"",""3"",""9534""
""focus"",""3"",""9708""
""fullscreenenter"",""5"",""15282""
","""event"",""trial"",""time""
""blur"",""3"",""9532""
""blur"",""3"",""9534""
","""event"",""trial"",""time""
""focus"",""3"",""9533""
""focus"",""3"",""9708""
","""event"",""trial"",""time""
""fullscreenenter"",""5"",""15282""
","
","298.5","","48","","","3000","1","306","49","images/earth.jpg","images/tutrocket2","images/tutrocket1","null","images/tutrocket2","","1","practice","null","2","","",""
"d3-animate-choice","119","417508","0.0-61.0-1.19","2040","3246","11","Female","true","false","true","false","""event"",""trial"",""time""
""blur"",""3"",""9532""
""focus"",""3"",""9533""
""blur"",""3"",""9534""
""focus"",""3"",""9708""
""fullscreenenter"",""5"",""15282""
","""event"",""trial"",""time""
""blur"",""3"",""9532""
""blur"",""3"",""9534""
","""event"",""trial"",""time""
""focus"",""3"",""9533""
""focus"",""3"",""9708""
","""event"",""trial"",""time""
""fullscreenenter"",""5"",""15282""
","
","444.29999999701977","","48","","","3000","1","445.79999999701977,454.8999999985099,467.29999999701977","189,192,49","images/tutgreenplanet.jpg","images/tutalien2","images/tutalien1","images/tutrocket2","images/tutalien2","images/nothing.png","2","practice","true","2","common","0","2022-10-22 13:51:58.184"
"two-step-fixation","120","418516","0.0-61.0-2.19","2040","3246","11","Female","true","false","true","false","""event"",""trial"",""time""
""blur"",""3"",""9532""
""focus"",""3"",""9533""
""blur"",""3"",""9534""
""focus"",""3"",""9708""
""fullscreenenter"",""5"",""15282""
","""event"",""trial"",""time""
""blur"",""3"",""9532""
""blur"",""3"",""9534""
","""event"",""trial"",""time""
""focus"",""3"",""9533""
""focus"",""3"",""9708""
","""event"",""trial"",""time""
""fullscreenenter"",""5"",""15282""
","
","","images/earth.jpg","","","","","","","","","","","","","","fixation","","","","","",""
"d3-instructions","121","421590","0.0-62.0","2040","3246","11","Female","true","false","true","false","""event"",""trial"",""time""
""blur"",""3"",""9532""
""focus"",""3"",""9533""
""blur"",""3"",""9534""
""focus"",""3"",""9708""
""fullscreenenter"",""5"",""15282""
","""event"",""trial"",""time""
""blur"",""3"",""9532""
""blur"",""3"",""9534""
","""event"",""trial"",""time""
""focus"",""3"",""9533""
""focus"",""3"",""9708""
","""event"",""trial"",""time""
""fullscreenenter"",""5"",""15282""
","
","","","","","","","","","","","","","","","","","","","","","",""
"audio-keyboard-response","122","424529","0.0-63.0","2040","3246","11","Female","true","false","true","false","""event"",""trial"",""time""
""blur"",""3"",""9532""
""focus"",""3"",""9533""
""blur"",""3"",""9534""
""focus"",""3"",""9708""
""fullscreenenter"",""5"",""15282""
","""event"",""trial"",""time""
""blur"",""3"",""9532""
""blur"",""3"",""9534""
","""event"",""trial"",""time""
""focus"",""3"",""9533""
""focus"",""3"",""9708""
","""event"",""trial"",""time""
""fullscreenenter"",""5"",""15282""
","
","2939","audio/instructions/treasure_feedback.wav","32","","","","","","","","","","","","","","","","","","",""
"d3-instructions","123","432818","0.0-64.0","2040","3246","11","Female","true","false","true","false","""event"",""trial"",""time""
""blur"",""3"",""9532""
""focus"",""3"",""9533""
""blur"",""3"",""9534""
""focus"",""3"",""9708""
""fullscreenenter"",""5"",""15282""
","""event"",""trial"",""time""
""blur"",""3"",""9532""
""blur"",""3"",""9534""
","""event"",""trial"",""time""
""focus"",""3"",""9533""
""focus"",""3"",""9708""
","""event"",""trial"",""time""
""fullscreenenter"",""5"",""15282""
","
","","","","","","","","","","","","","","","","","","","","","",""
"d3-instructions","124","445933","0.0-65.0","2040","3246","11","Female","true","false","true","false","""event"",""trial"",""time""
""blur"",""3"",""9532""
""focus"",""3"",""9533""
""blur"",""3"",""9534""
""focus"",""3"",""9708""
""fullscreenenter"",""5"",""15282""
","""event"",""trial"",""time""
""blur"",""3"",""9532""
""blur"",""3"",""9534""
","""event"",""trial"",""time""
""focus"",""3"",""9533""
""focus"",""3"",""9708""
","""event"",""trial"",""time""
""fullscreenenter"",""5"",""15282""
","
","","","","","","","","","","","","","","","","","","","","","",""
"d3-instructions","125","455604","0.0-66.0","2040","3246","11","Female","true","false","true","false","""event"",""trial"",""time""
""blur"",""3"",""9532""
""focus"",""3"",""9533""
""blur"",""3"",""9534""
""focus"",""3"",""9708""
""fullscreenenter"",""5"",""15282""
","""event"",""trial"",""time""
""blur"",""3"",""9532""
""blur"",""3"",""9534""
","""event"",""trial"",""time""
""focus"",""3"",""9533""
""focus"",""3"",""9708""
","""event"",""trial"",""time""
""fullscreenenter"",""5"",""15282""
","
","","","","","","","","","","","","","","","","","","","","","",""
"d3-instructions","126","460531","0.0-67.0","2040","3246","11","Female","true","false","true","false","""event"",""trial"",""time""
""blur"",""3"",""9532""
""focus"",""3"",""9533""
""blur"",""3"",""9534""
""focus"",""3"",""9708""
""fullscreenenter"",""5"",""15282""
","""event"",""trial"",""time""
""blur"",""3"",""9532""
""blur"",""3"",""9534""
","""event"",""trial"",""time""
""focus"",""3"",""9533""
""focus"",""3"",""9708""
","""event"",""trial"",""time""
""fullscreenenter"",""5"",""15282""
","
","","","","","","","","","","","","","","","","","","","","","",""
"d3-instructions","127","465179","0.0-68.0","2040","3246","11","Female","true","false","true","false","""event"",""trial"",""time""
""blur"",""3"",""9532""
""focus"",""3"",""9533""
""blur"",""3"",""9534""
""focus"",""3"",""9708""
""fullscreenenter"",""5"",""15282""
","""event"",""trial"",""time""
""blur"",""3"",""9532""
""blur"",""3"",""9534""
","""event"",""trial"",""time""
""focus"",""3"",""9533""
""focus"",""3"",""9708""
","""event"",""trial"",""time""
""fullscreenenter"",""5"",""15282""
","
","","","","","","","","","","","","","","","","","","","","","",""
"instructions-quiz","128","468961","0.0-69.0","2040","3246","11","Female","true","false","true","false","""event"",""trial"",""time""
""blur"",""3"",""9532""
""focus"",""3"",""9533""
""blur"",""3"",""9534""
""focus"",""3"",""9708""
""fullscreenenter"",""5"",""15282""
","""event"",""trial"",""time""
""blur"",""3"",""9532""
""blur"",""3"",""9534""
","""event"",""trial"",""time""
""focus"",""3"",""9533""
""focus"",""3"",""9708""
","""event"",""trial"",""time""
""fullscreenenter"",""5"",""15282""
","
","3778.10000000149","audio/quiz/Q1_Prompt.wav","","1","","","","","","","","","","","","","","","","","",""
"audio-keyboard-response","129","471289","0.0-70.0","2040","3246","11","Female","true","false","true","false","""event"",""trial"",""time""
""blur"",""3"",""9532""
""focus"",""3"",""9533""
""blur"",""3"",""9534""
""focus"",""3"",""9708""
""fullscreenenter"",""5"",""15282""
","""event"",""trial"",""time""
""blur"",""3"",""9532""
""blur"",""3"",""9534""
","""event"",""trial"",""time""
""focus"",""3"",""9533""
""focus"",""3"",""9708""
","""event"",""trial"",""time""
""fullscreenenter"",""5"",""15282""
","
","2320","audio/quiz/Q1_Correct.wav","32","","","","","","","","","","","","","","","","","","",""
"instructions-quiz","130","475592","0.0-71.0","2040","3246","11","Female","true","false","true","false","""event"",""trial"",""time""
""blur"",""3"",""9532""
""focus"",""3"",""9533""
""blur"",""3"",""9534""
""focus"",""3"",""9708""
""fullscreenenter"",""5"",""15282""
","""event"",""trial"",""time""
""blur"",""3"",""9532""
""blur"",""3"",""9534""
","""event"",""trial"",""time""
""focus"",""3"",""9533""
""focus"",""3"",""9708""
","""event"",""trial"",""time""
""fullscreenenter"",""5"",""15282""
","
","4301.10000000149","audio/quiz/Q2_Prompt.wav","","0","","","","","","","","","","","","","","","","","",""
"audio-keyboard-response","131","476091","0.0-72.0","2040","3246","11","Female","true","false","true","false","""event"",""trial"",""time""
""blur"",""3"",""9532""
""focus"",""3"",""9533""
""blur"",""3"",""9534""
""focus"",""3"",""9708""
""fullscreenenter"",""5"",""15282""
","""event"",""trial"",""time""
""blur"",""3"",""9532""
""blur"",""3"",""9534""
","""event"",""trial"",""time""
""focus"",""3"",""9533""
""focus"",""3"",""9708""
","""event"",""trial"",""time""
""fullscreenenter"",""5"",""15282""
","
","496","audio/quiz/Q2_Correct.wav","32","","","","","","","","","","","","","","","","","","",""
"instructions-quiz","132","478586","0.0-73.0","2040","3246","11","Female","true","false","true","false","""event"",""trial"",""time""
""blur"",""3"",""9532""
""focus"",""3"",""9533""
""blur"",""3"",""9534""
""focus"",""3"",""9708""
""fullscreenenter"",""5"",""15282""
","""event"",""trial"",""time""
""blur"",""3"",""9532""
""blur"",""3"",""9534""
","""event"",""trial"",""time""
""focus"",""3"",""9533""
""focus"",""3"",""9708""
","""event"",""trial"",""time""
""fullscreenenter"",""5"",""15282""
","
","2492.2999999970198","audio/quiz/Q3_Prompt.wav","","1","","","","","","","","","","","","","","","","","",""
"audio-keyboard-response","133","478932","0.0-74.0","2040","3246","11","Female","true","false","true","false","""event"",""trial"",""time""
""blur"",""3"",""9532""
""focus"",""3"",""9533""
""blur"",""3"",""9534""
""focus"",""3"",""9708""
""fullscreenenter"",""5"",""15282""
","""event"",""trial"",""time""
""blur"",""3"",""9532""
""blur"",""3"",""9534""
","""event"",""trial"",""time""
""focus"",""3"",""9533""
""focus"",""3"",""9708""
","""event"",""trial"",""time""
""fullscreenenter"",""5"",""15282""
","
","341","audio/quiz/Q3_Correct.wav","32","","","","","","","","","","","","","","","","","","",""
"d3-instructions","134","481913","0.0-75.0","2040","3246","11","Female","true","false","true","false","""event"",""trial"",""time""
""blur"",""3"",""9532""
""focus"",""3"",""9533""
""blur"",""3"",""9534""
""focus"",""3"",""9708""
""fullscreenenter"",""5"",""15282""
","""event"",""trial"",""time""
""blur"",""3"",""9532""
""blur"",""3"",""9534""
","""event"",""trial"",""time""
""focus"",""3"",""9533""
""focus"",""3"",""9708""
","""event"",""trial"",""time""
""fullscreenenter"",""5"",""15282""
","
","","","","","","","","","","","","","","","","","","","","","",""
"d3-animate-choice","135","485028","0.0-76.0-0.0","2040","3246","11","Female","true","false","true","false","""event"",""trial"",""time""
""blur"",""3"",""9532""
""focus"",""3"",""9533""
""blur"",""3"",""9534""
""focus"",""3"",""9708""
""fullscreenenter"",""5"",""15282""
","""event"",""trial"",""time""
""blur"",""3"",""9532""
""blur"",""3"",""9534""
","""event"",""trial"",""time""
""focus"",""3"",""9533""
""focus"",""3"",""9708""
","""event"",""trial"",""time""
""fullscreenenter"",""5"",""15282""
","
","1107.2999999970198","","49","","","3000","1","","","images/earth.jpg","images/rocket2","images/rocket1","null","images/rocket1","","1","real","null","1","","",""
"d3-animate-choice","136","487450","0.0-76.0-1.0","2040","3246","11","Female","true","false","true","false","""event"",""trial"",""time""
""blur"",""3"",""9532""
""focus"",""3"",""9533""
""blur"",""3"",""9534""
""focus"",""3"",""9708""
""fullscreenenter"",""5"",""15282""
","""event"",""trial"",""time""
""blur"",""3"",""9532""
""blur"",""3"",""9534""
","""event"",""trial"",""time""
""focus"",""3"",""9533""
""focus"",""3"",""9708""
","""event"",""trial"",""time""
""fullscreenenter"",""5"",""15282""
","
","415.1000000014901","","48","","","3000","1","","","images/redplanet1.jpg","images/alien2","images/alien1","images/rocket1","images/alien2","images/t.png","2","real","false","2","rare","1","2022-10-22 13:53:08.126"
"two-step-fixation","137","488458","0.0-76.0-2.0","2040","3246","11","Female","true","false","true","false","""event"",""trial"",""time""
""blur"",""3"",""9532""
""focus"",""3"",""9533""
""blur"",""3"",""9534""
""focus"",""3"",""9708""
""fullscreenenter"",""5"",""15282""
","""event"",""trial"",""time""
""blur"",""3"",""9532""
""blur"",""3"",""9534""
","""event"",""trial"",""time""
""focus"",""3"",""9533""
""focus"",""3"",""9708""
","""event"",""trial"",""time""
""fullscreenenter"",""5"",""15282""
","
","","images/earth.jpg","","","","","","","","","","","","","","fixation","","","","","",""
"d3-animate-choice","138","490781","0.0-76.0-0.1","2040","3246","11","Female","true","false","true","false","""event"",""trial"",""time""
""blur"",""3"",""9532""
""focus"",""3"",""9533""
""blur"",""3"",""9534""
""focus"",""3"",""9708""
""fullscreenenter"",""5"",""15282""
","""event"",""trial"",""time""
""blur"",""3"",""9532""
""blur"",""3"",""9534""
","""event"",""trial"",""time""
""focus"",""3"",""9533""
""focus"",""3"",""9708""
","""event"",""trial"",""time""
""fullscreenenter"",""5"",""15282""
","
","314.5","","49","","","3000","1","","","images/earth.jpg","images/rocket2","images/rocket1","null","images/rocket1","","1","real","null","1","","",""
"d3-animate-choice","139","493221","0.0-76.0-1.1","2040","3246","11","Female","true","false","true","false","""event"",""trial"",""time""
""blur"",""3"",""9532""
""focus"",""3"",""9533""
""blur"",""3"",""9534""
""focus"",""3"",""9708""
""fullscreenenter"",""5"",""15282""
","""event"",""trial"",""time""
""blur"",""3"",""9532""
""blur"",""3"",""9534""
","""event"",""trial"",""time""
""focus"",""3"",""9533""
""focus"",""3"",""9708""
","""event"",""trial"",""time""
""fullscreenenter"",""5"",""15282""
","
","432.6000000014901","","48","","","3000","1","","","images/purpleplanet.jpg","images/alien4","images/alien3","images/rocket1","images/alien4","images/t.png","2","real","true","2","common","1","2022-10-22 13:53:13.897"
"two-step-fixation","140","494225","0.0-76.0-2.1","2040","3246","11","Female","true","false","true","false","""event"",""trial"",""time""
""blur"",""3"",""9532""
""focus"",""3"",""9533""
""blur"",""3"",""9534""
""focus"",""3"",""9708""
""fullscreenenter"",""5"",""15282""
","""event"",""trial"",""time""
""blur"",""3"",""9532""
""blur"",""3"",""9534""
","""event"",""trial"",""time""
""focus"",""3"",""9533""
""focus"",""3"",""9708""
","""event"",""trial"",""time""
""fullscreenenter"",""5"",""15282""
","
","","images/earth.jpg","","","","","","","","","","","","","","fixation","","","","","",""
"d3-animate-choice","141","496596","0.0-76.0-0.2","2040","3246","11","Female","true","false","true","false","""event"",""trial"",""time""
""blur"",""3"",""9532""
""focus"",""3"",""9533""
""blur"",""3"",""9534""
""focus"",""3"",""9708""
""fullscreenenter"",""5"",""15282""
","""event"",""trial"",""time""
""blur"",""3"",""9532""
""blur"",""3"",""9534""
","""event"",""trial"",""time""
""focus"",""3"",""9533""
""focus"",""3"",""9708""
","""event"",""trial"",""time""
""fullscreenenter"",""5"",""15282""
","
","366.8999999985099","","48","","","3000","1","1211.1000000014901","93","images/earth.jpg","images/rocket2","images/rocket1","null","images/rocket2","","1","real","null","2","","",""
"d3-animate-choice","142","499022","0.0-76.0-1.2","2040","3246","11","Female","true","false","true","false","""event"",""trial"",""time""
""blur"",""3"",""9532""
""focus"",""3"",""9533""
""blur"",""3"",""9534""
""focus"",""3"",""9708""
""fullscreenenter"",""5"",""15282""
","""event"",""trial"",""time""
""blur"",""3"",""9532""
""blur"",""3"",""9534""
","""event"",""trial"",""time""
""focus"",""3"",""9533""
""focus"",""3"",""9708""
","""event"",""trial"",""time""
""fullscreenenter"",""5"",""15282""
","
","419.29999999701977","","49","","","3000","1","","","images/redplanet1.jpg","images/alien2","images/alien1","images/rocket2","images/alien1","images/t.png","2","real","true","1","common","1","2022-10-22 13:53:19.698"
"two-step-fixation","143","500027","0.0-76.0-2.2","2040","3246","11","Female","true","false","true","false","""event"",""trial"",""time""
""blur"",""3"",""9532""
""focus"",""3"",""9533""
""blur"",""3"",""9534""
""focus"",""3"",""9708""
""fullscreenenter"",""5"",""15282""
","""event"",""trial"",""time""
""blur"",""3"",""9532""
""blur"",""3"",""9534""
","""event"",""trial"",""time""
""focus"",""3"",""9533""
""focus"",""3"",""9708""
","""event"",""trial"",""time""
""fullscreenenter"",""5"",""15282""
","
","","images/earth.jpg","","","","","","","","","","","","","","fixation","","","","","",""
"d3-animate-choice","144","502357","0.0-76.0-0.3","2040","3246","11","Female","true","false","true","false","""event"",""trial"",""time""
""blur"",""3"",""9532""
""focus"",""3"",""9533""
""blur"",""3"",""9534""
""focus"",""3"",""9708""
""fullscreenenter"",""5"",""15282""
","""event"",""trial"",""time""
""blur"",""3"",""9532""
""blur"",""3"",""9534""
","""event"",""trial"",""time""
""focus"",""3"",""9533""
""focus"",""3"",""9708""
","""event"",""trial"",""time""
""fullscreenenter"",""5"",""15282""
","
","324.40000000596046","","49","","","3000","1","","","images/earth.jpg","images/rocket2","images/rocket1","null","images/rocket1","","1","real","null","1","","",""
"d3-animate-choice","145","504767","0.0-76.0-1.3","2040","3246","11","Female","true","false","true","false","""event"",""trial"",""time""
""blur"",""3"",""9532""
""focus"",""3"",""9533""
""blur"",""3"",""9534""
""focus"",""3"",""9708""
""fullscreenenter"",""5"",""15282""
","""event"",""trial"",""time""
""blur"",""3"",""9532""
""blur"",""3"",""9534""
","""event"",""trial"",""time""
""focus"",""3"",""9533""
""focus"",""3"",""9708""
","""event"",""trial"",""time""
""fullscreenenter"",""5"",""15282""
","
","404.80000000447035","","49","","","3000","1","","","images/redplanet1.jpg","images/alien2","images/alien1","images/rocket1","images/alien1","images/t.png","2","real","false","1","rare","1","2022-10-22 13:53:25.443"
"two-step-fixation","146","505775","0.0-76.0-2.3","2040","3246","11","Female","true","false","true","false","""event"",""trial"",""time""
""blur"",""3"",""9532""
""focus"",""3"",""9533""
""blur"",""3"",""9534""
""focus"",""3"",""9708""
""fullscreenenter"",""5"",""15282""
","""event"",""trial"",""time""
""blur"",""3"",""9532""
""blur"",""3"",""9534""
","""event"",""trial"",""time""
""focus"",""3"",""9533""
""focus"",""3"",""9708""
","""event"",""trial"",""time""
""fullscreenenter"",""5"",""15282""
","
","","images/earth.jpg","","","","","","","","","","","","","","fixation","","","","","",""
"d3-animate-choice","147","508106","0.0-76.0-0.4","2040","3246","11","Female","true","false","true","false","""event"",""trial"",""time""
""blur"",""3"",""9532""
""focus"",""3"",""9533""
""blur"",""3"",""9534""
""focus"",""3"",""9708""
""fullscreenenter"",""5"",""15282""
","""event"",""trial"",""time""
""blur"",""3"",""9532""
""blur"",""3"",""9534""
","""event"",""trial"",""time""
""focus"",""3"",""9533""
""focus"",""3"",""9708""
","""event"",""trial"",""time""
""fullscreenenter"",""5"",""15282""
","
","324.3999999985099","","48","","","3000","1","","","images/earth.jpg","images/rocket2","images/rocket1","null","images/rocket2","","1","real","null","2","","",""
"d3-animate-choice","148","510434","0.0-76.0-1.4","2040","3246","11","Female","true","false","true","false","""event"",""trial"",""time""
""blur"",""3"",""9532""
""focus"",""3"",""9533""
""blur"",""3"",""9534""
""focus"",""3"",""9708""
""fullscreenenter"",""5"",""15282""
","""event"",""trial"",""time""
""blur"",""3"",""9532""
""blur"",""3"",""9534""
","""event"",""trial"",""time""
""focus"",""3"",""9533""
""focus"",""3"",""9708""
","""event"",""trial"",""time""
""fullscreenenter"",""5"",""15282""
","
","324.70000000298023","","48","","","3000","1","","","images/redplanet1.jpg","images/alien2","images/alien1","images/rocket2","images/alien2","images/t.png","2","real","true","2","common","1","2022-10-22 13:53:31.110"
"two-step-fixation","149","511439","0.0-76.0-2.4","2040","3246","11","Female","true","false","true","false","""event"",""trial"",""time""
""blur"",""3"",""9532""
""focus"",""3"",""9533""
""blur"",""3"",""9534""
""focus"",""3"",""9708""
""fullscreenenter"",""5"",""15282""
","""event"",""trial"",""time""
""blur"",""3"",""9532""
""blur"",""3"",""9534""
","""event"",""trial"",""time""
""focus"",""3"",""9533""
""focus"",""3"",""9708""
","""event"",""trial"",""time""
""fullscreenenter"",""5"",""15282""
","
","","images/earth.jpg","","","","","","","","","","","","","","fixation","","","","","",""
"d3-animate-choice","150","513974","0.0-76.0-0.5","2040","3246","11","Female","true","false","true","false","""event"",""trial"",""time""
""blur"",""3"",""9532""
""focus"",""3"",""9533""
""blur"",""3"",""9534""
""focus"",""3"",""9708""
""fullscreenenter"",""5"",""15282""
","""event"",""trial"",""time""
""blur"",""3"",""9532""
""blur"",""3"",""9534""
","""event"",""trial"",""time""
""focus"",""3"",""9533""
""focus"",""3"",""9708""
","""event"",""trial"",""time""
""fullscreenenter"",""5"",""15282""
","
","531.1999999955297","","48","","","3000","1","","","images/earth.jpg","images/rocket2","images/rocket1","null","images/rocket2","","1","real","null","2","","",""
"d3-animate-choice","151","516369","0.0-76.0-1.5","2040","3246","11","Female","true","false","true","false","""event"",""trial"",""time""
""blur"",""3"",""9532""
""focus"",""3"",""9533""
""blur"",""3"",""9534""
""focus"",""3"",""9708""
""fullscreenenter"",""5"",""15282""
","""event"",""trial"",""time""
""blur"",""3"",""9532""
""blur"",""3"",""9534""
","""event"",""trial"",""time""
""focus"",""3"",""9533""
""focus"",""3"",""9708""
","""event"",""trial"",""time""
""fullscreenenter"",""5"",""15282""
","
","388.3999999985099","","49","","","3000","1","","","images/redplanet1.jpg","images/alien2","images/alien1","images/rocket2","images/alien1","images/nothing.png","2","real","true","1","common","0","2022-10-22 13:53:37.045"
