"trial_type","trial_index","time_elapsed","internal_node_id","participant_id","subject_id","age","gender","rocket_sides","red_planet_first_rocket","red_display_order","purple_display_order","interactions","blur_events","focus_events","fullscreenenter_events","fullscreenexit_events","rt","stimulus","key_press","button_pressed","success","duration","valid_pressed","rts","keys","planet_text","right_text","left_text","center_text","chosen_text","reward_text","trial_stage","practice_trial","transition_type","choice","transition","reward","timestamp"
"pavlovia","0","7","0.0-0.0","738","806","11","Male","false","false","true","true","
","
","
","
","
","","","","","","","","","","","","","","","","","","","","","",""
"html-keyboard-response","1","882","0.0-1.0","738","806","11","Male","false","false","true","true","
","
","
","
","
","872.6999998092651","Welcome! Press the space bar to begin.","32","","","","","","","","","","","","","","","","","","",""
"audio-keyboard-response","2","1074","0.0-2.0","738","806","11","Male","false","false","true","true","
","
","
","
","
","109","audio/beep_loop.wav","32","","","","","","","","","","","","","","","","","","",""
"audio-button-response","3","3061","0.0-3.0","738","806","11","Male","false","false","true","true","
","
","
","
","
","NaN","audio/fish.mp3","","1","","","","","","","","","","","","","","","","","",""
"audio-button-response","4","5110","0.0-4.0","738","806","11","Male","false","false","true","true","""event"",""trial"",""time""
""fullscreenenter"",""5"",""8377""
","
","
","""event"",""trial"",""time""
""fullscreenenter"",""5"",""8377""
","
","NaN","audio/tiger.mp3","","4","","","","","","","","","","","","","","","","","",""
"fullscreen","5","9325","0.0-5.0","738","806","11","Male","false","false","true","true","""event"",""trial"",""time""
""fullscreenenter"",""5"",""8377""
","
","
","""event"",""trial"",""time""
""fullscreenenter"",""5"",""8377""
","
","","","","","true","","","","","","","","","","","","","","","","",""
"d3-instructions","6","10569","0.0-6.0","738","806","11","Male","false","false","true","true","""event"",""trial"",""time""
""fullscreenenter"",""5"",""8377""
","
","
","""event"",""trial"",""time""
""fullscreenenter"",""5"",""8377""
","
","","","","","","","","","","","","","","","","","","","","","",""
"d3-instructions","7","12771","0.0-7.0","738","806","11","Male","false","false","true","true","""event"",""trial"",""time""
""fullscreenenter"",""5"",""8377""
","
","
","""event"",""trial"",""time""
""fullscreenenter"",""5"",""8377""
","
","","","","","","","","","","","","","","","","","","","","","",""
"d3-instructions","8","13600","0.0-8.0","738","806","11","Male","false","false","true","true","""event"",""trial"",""time""
""fullscreenenter"",""5"",""8377""
","
","
","""event"",""trial"",""time""
""fullscreenenter"",""5"",""8377""
","
","","","","","","","","","","","","","","","","","","","","","",""
"d3-instructions","9","14405","0.0-9.0","738","806","11","Male","false","false","true","true","""event"",""trial"",""time""
""fullscreenenter"",""5"",""8377""
","
","
","""event"",""trial"",""time""
""fullscreenenter"",""5"",""8377""
","
","","","","","","","","","","","","","","","","","","","","","",""
"d3-instructions","10","15200","0.0-10.0","738","806","11","Male","false","false","true","true","""event"",""trial"",""time""
""fullscreenenter"",""5"",""8377""
","
","
","""event"",""trial"",""time""
""fullscreenenter"",""5"",""8377""
","
","","","","","","","","","","","","","","","","","","","","","",""
"d3-animate-choice","11","19718","0.0-11.0","738","806","11","Male","false","false","true","true","""event"",""trial"",""time""
""fullscreenenter"",""5"",""8377""
","
","
","""event"",""trial"",""time""
""fullscreenenter"",""5"",""8377""
","
","2497.2000000476837","","49","","","3000","1","","","images/tutgreenplanet.jpg","images/tutalien1","images/tutalien2","null","images/tutalien2","","NA","practice","null","","","",""
"d3-animate-choice","12","22642","0.0-12.0","738","806","11","Male","false","false","true","true","""event"",""trial"",""time""
""fullscreenenter"",""5"",""8377""
","
","
","""event"",""trial"",""time""
""fullscreenenter"",""5"",""8377""
","
","897.5999999046326","","49","","","3000","1","","","images/tutgreenplanet.jpg","images/tutalien1","images/tutalien2","null","images/tutalien2","","NA","practice","null","","","",""
"d3-animate-choice","13","25562","0.0-13.0","738","806","11","Male","false","false","true","true","""event"",""trial"",""time""
""fullscreenenter"",""5"",""8377""
","
","
","""event"",""trial"",""time""
""fullscreenenter"",""5"",""8377""
","
","902.7999999523163","","48","","","3000","1","","","images/tutgreenplanet.jpg","images/tutalien1","images/tutalien2","null","images/tutalien1","","NA","practice","null","","","",""
"d3-animate-choice","14","28991","0.0-14.0","738","806","11","Male","false","false","true","true","""event"",""trial"",""time""
""fullscreenenter"",""5"",""8377""
","
","
","""event"",""trial"",""time""
""fullscreenenter"",""5"",""8377""
","
","1402.7000000476837","","48","","","3000","1","","","images/tutgreenplanet.jpg","images/tutalien1","images/tutalien2","null","images/tutalien1","","NA","practice","null","","","",""
"d3-instructions","15","31959","0.0-15.0","738","806","11","Male","false","false","true","true","""event"",""trial"",""time""
""fullscreenenter"",""5"",""8377""
","
","
","""event"",""trial"",""time""
""fullscreenenter"",""5"",""8377""
","
","","","","","","","","","","","","","","","","","","","","","",""
"d3-instructions","16","32638","0.0-16.0","738","806","11","Male","false","false","true","true","""event"",""trial"",""time""
""fullscreenenter"",""5"",""8377""
","
","
","""event"",""trial"",""time""
""fullscreenenter"",""5"",""8377""
","
","","","","","","","","","","","","","","","","","","","","","",""
"d3-instructions","17","35939","0.0-17.0","738","806","11","Male","false","false","true","true","""event"",""trial"",""time""
""fullscreenenter"",""5"",""8377""
","
","
","""event"",""trial"",""time""
""fullscreenenter"",""5"",""8377""
","
","","","","","","","","","","","","","","","","","","","","","",""
"d3-instructions","18","36712","0.0-18.0","738","806","11","Male","false","false","true","true","""event"",""trial"",""time""
""fullscreenenter"",""5"",""8377""
","
","
","""event"",""trial"",""time""
""fullscreenenter"",""5"",""8377""
","
","","","","","","","","","","","","","","","","","","","","","",""
"d3-instructions","19","42423","0.0-19.0","738","806","11","Male","false","false","true","true","""event"",""trial"",""time""
""fullscreenenter"",""5"",""8377""
","
","
","""event"",""trial"",""time""
""fullscreenenter"",""5"",""8377""
","
","","","","","","","","","","","","","","","","","","","","","",""
"d3-animate-choice","20","46230","0.0-20.0","738","806","11","Male","false","false","true","true","""event"",""trial"",""time""
""fullscreenenter"",""5"",""8377""
","
","
","""event"",""trial"",""time""
""fullscreenenter"",""5"",""8377""
","
","1799.8000001907349","","49","","","3000","1","3432.5,3601.800000190735,3801.4000000953674","49,49,49","images/tutyellowplanet.jpg","null","images/tutalien3","null","images/tutalien3","images/t.png","NA","practice","null","","","",""
"d3-animate-choice","21","48656","0.0-21.0","738","806","11","Male","false","false","true","true","""event"",""trial"",""time""
""fullscreenenter"",""5"",""8377""
","
","
","""event"",""trial"",""time""
""fullscreenenter"",""5"",""8377""
","
","409.2000000476837","","49","","","3000","1","613.2999999523163,793.0999999046326,983.9000000953674,1174.4000000953674,1620.7000000476837,1894.9000000953674,2106.2000000476837,2303","49,49,49,49,49,49,49,49","images/tutyellowplanet.jpg","null","images/tutalien3","null","images/tutalien3","images/t.png","NA","practice","null","","","",""
"d3-animate-choice","22","51152","0.0-22.0","738","806","11","Male","false","false","true","true","""event"",""trial"",""time""
""fullscreenenter"",""5"",""8377""
","
","
","""event"",""trial"",""time""
""fullscreenenter"",""5"",""8377""
","
","471","","49","","","3000","1","654.5,1144.7999999523163,1355.1000001430511,1525.2999999523163,1970.7000000476837,2375.5","49,49,49,49,49,49","images/tutyellowplanet.jpg","null","images/tutalien3","null","images/tutalien3","images/nothing.png","NA","practice","null","","","",""
"d3-animate-choice","23","53241","0.0-23.0","738","806","11","Male","false","false","true","true","""event"",""trial"",""time""
""fullscreenenter"",""5"",""8377""
","
","
","""event"",""trial"",""time""
""fullscreenenter"",""5"",""8377""
","
","78.70000004768372","","49","","","3000","1","298,499.09999990463257,1079.5999999046326,1292.8999998569489,1503.2000000476837,1718.2999999523163,1944.2999999523163","49,49,49,49,49,49,49","images/tutyellowplanet.jpg","null","images/tutalien3","null","images/tutalien3","images/t.png","NA","practice","null","","","",""
"d3-animate-choice","24","55339","0.0-24.0","738","806","11","Male","false","false","true","true","""event"",""trial"",""time""
""fullscreenenter"",""5"",""8377""
","
","
","""event"",""trial"",""time""
""fullscreenenter"",""5"",""8377""
","
","78","","49","","","3000","1","272.7000000476837,481.60000014305115,707.6000001430511,920.7000000476837,1122.5,1327,1538.5,1750.2999999523163,1956.5","49,49,49,49,49,49,49,49,49","images/tutyellowplanet.jpg","null","images/tutalien3","null","images/tutalien3","images/t.png","NA","practice","null","","","",""
"d3-animate-choice","25","57441","0.0-25.0","738","806","11","Male","false","false","true","true","""event"",""trial"",""time""
""fullscreenenter"",""5"",""8377""
","
","
","""event"",""trial"",""time""
""fullscreenenter"",""5"",""8377""
","
","80.90000009536743","","49","","","3000","1","276.2999999523163,1215.6000001430511,1384.6000001430511,1590.2999999523163,1780.6000001430511,1974.5","49,49,49,49,49,49","images/tutyellowplanet.jpg","null","images/tutalien3","null","images/tutalien3","images/t.png","NA","practice","null","","","",""
"d3-animate-choice","26","59501","0.0-26.0","738","806","11","Male","false","false","true","true","""event"",""trial"",""time""
""fullscreenenter"",""5"",""8377""
","
","
","""event"",""trial"",""time""
""fullscreenenter"",""5"",""8377""
","
","50.700000047683716","","49","","","3000","1","230.20000004768372,415,581.4000000953674,781.1000001430511,1001.4000000953674,1182.2999999523163,1371.2000000476837,1570.7999999523163,1754,1968.9000000953674","49,49,49,49,49,49,49,49,49,49","images/tutyellowplanet.jpg","null","images/tutalien3","null","images/tutalien3","images/t.png","NA","practice","null","","","",""
"d3-animate-choice","27","61600","0.0-27.0","738","806","11","Male","false","false","true","true","""event"",""trial"",""time""
""fullscreenenter"",""5"",""8377""
","
","
","""event"",""trial"",""time""
""fullscreenenter"",""5"",""8377""
","
","91.59999990463257","","49","","","3000","1","272.2999999523163,651.9000000953674,878.2000000476837,1111.7999999523163,1281.2999999523163,1477.5,1619,1991.2000000476837","49,49,49,49,49,49,49,49","images/tutyellowplanet.jpg","null","images/tutalien3","null","images/tutalien3","images/t.png","NA","practice","null","","","",""
"d3-animate-choice","28","63802","0.0-28.0","738","806","11","Male","false","false","true","true","""event"",""trial"",""time""
""fullscreenenter"",""5"",""8377""
","
","
","""event"",""trial"",""time""
""fullscreenenter"",""5"",""8377""
","
","179.10000014305115","","49","","","3000","1","314.10000014305115,519.9000000953674,724.6000001430511,935.9000000953674,1149.6000001430511,1352.9000000953674,1530.2999999523163,1933.1000001430511","49,49,49,49,49,49,49,49","images/tutyellowplanet.jpg","null","images/tutalien3","null","images/tutalien3","images/t.png","NA","practice","null","","","",""
"d3-animate-choice","29","65870","0.0-29.0","738","806","11","Male","false","false","true","true","""event"",""trial"",""time""
""fullscreenenter"",""5"",""8377""
","
","
","""event"",""trial"",""time""
""fullscreenenter"",""5"",""8377""
","
","60.10000014305115","","49","","","3000","1","341.80000019073486,562.3000001907349,753.3000001907349,972.4000000953674,1181,1362,1551.5,1732.9000000953674,1961.3000001907349","49,49,49,49,49,49,49,49,49","images/tutyellowplanet.jpg","null","images/tutalien3","null","images/tutalien3","images/t.png","NA","practice","null","","","",""
"d3-instructions","30","67935","0.0-30.0","738","806","11","Male","false","false","true","true","""event"",""trial"",""time""
""fullscreenenter"",""5"",""8377""
","
","
","""event"",""trial"",""time""
""fullscreenenter"",""5"",""8377""
","
","","","","","","","","","","","","","","","","","","","","","",""
"d3-instructions","31","68793","0.0-31.0","738","806","11","Male","false","false","true","true","""event"",""trial"",""time""
""fullscreenenter"",""5"",""8377""
","
","
","""event"",""trial"",""time""
""fullscreenenter"",""5"",""8377""
","
","","","","","","","","","","","","","","","","","","","","","",""
"d3-instructions","32","69767","0.0-32.0","738","806","11","Male","false","false","true","true","""event"",""trial"",""time""
""fullscreenenter"",""5"",""8377""
","
","
","""event"",""trial"",""time""
""fullscreenenter"",""5"",""8377""
","
","","","","","","","","","","","","","","","","","","","","","",""
"d3-instructions","33","71457","0.0-33.0","738","806","11","Male","false","false","true","true","""event"",""trial"",""time""
""fullscreenenter"",""5"",""8377""
","
","
","""event"",""trial"",""time""
""fullscreenenter"",""5"",""8377""
","
","","","","","","","","","","","","","","","","","","","","","",""
"d3-animate-choice","34","75581","0.0-34.0","738","806","11","Male","false","false","true","true","""event"",""trial"",""time""
""fullscreenenter"",""5"",""8377""
","
","
","""event"",""trial"",""time""
""fullscreenenter"",""5"",""8377""
","
","703.7000000476837","","173","","","3000","1","2107.9000000953674","49","images/tutgreenplanet.jpg","images/tutalien1","images/tutalien2","null","images/tutalien2","images/t.png","NA","practice","null","","","",""
"d3-animate-choice","35","77970","0.0-35.0","738","806","11","Male","false","false","true","true","""event"",""trial"",""time""
""fullscreenenter"",""5"",""8377""
","
","
","""event"",""trial"",""time""
""fullscreenenter"",""5"",""8377""
","
","373.2000000476837","","48","","","3000","1","2341.100000143051","49","images/tutgreenplanet.jpg","images/tutalien1","images/tutalien2","null","images/tutalien1","images/nothing.png","NA","practice","null","","","",""
"d3-animate-choice","36","80571","0.0-36.0","738","806","11","Male","false","false","true","true","""event"",""trial"",""time""
""fullscreenenter"",""5"",""8377""
","
","
","""event"",""trial"",""time""
""fullscreenenter"",""5"",""8377""
","
","580.4000000953674","","49","","","3000","1","","","images/tutgreenplanet.jpg","images/tutalien1","images/tutalien2","null","images/tutalien2","images/t.png","NA","practice","null","","","",""
"d3-animate-choice","37","82602","0.0-37.0","738","806","11","Male","false","false","true","true","""event"",""trial"",""time""
""fullscreenenter"",""5"",""8377""
","
","
","""event"",""trial"",""time""
""fullscreenenter"",""5"",""8377""
","
","21.59999990463257","","49","","","3000","1","1459.0999999046326,1630,1805.8999998569489,1985.7999999523163","49,49,49,49","images/tutgreenplanet.jpg","images/tutalien1","images/tutalien2","null","images/tutalien2","images/t.png","NA","practice","null","","","",""
"d3-animate-choice","38","84715","0.0-38.0","738","806","11","Male","false","false","true","true","""event"",""trial"",""time""
""fullscreenenter"",""5"",""8377""
","
","
","""event"",""trial"",""time""
""fullscreenenter"",""5"",""8377""
","
","105.59999990463257","","49","","","3000","1","","","images/tutgreenplanet.jpg","images/tutalien1","images/tutalien2","null","images/tutalien2","images/t.png","NA","practice","null","","","",""
"d3-animate-choice","39","86801","0.0-39.0","738","806","11","Male","false","false","true","true","""event"",""trial"",""time""
""fullscreenenter"",""5"",""8377""
","
","
","""event"",""trial"",""time""
""fullscreenenter"",""5"",""8377""
","
","78.19999980926514","","49","","","3000","1","258.69999980926514,993.5999999046326,1187.1999998092651,1374.3999998569489,1557.5,1737.1999998092651,1937.5","49,49,49,49,49,49,49","images/tutgreenplanet.jpg","images/tutalien1","images/tutalien2","null","images/tutalien2","images/t.png","NA","practice","null","","","",""
"d3-animate-choice","40","88861","0.0-40.0","738","806","11","Male","false","false","true","true","""event"",""trial"",""time""
""fullscreenenter"",""5"",""8377""
","
","
","""event"",""trial"",""time""
""fullscreenenter"",""5"",""8377""
","
","41.200000047683716","","49","","","3000","1","236,610.6000001430511,825,1009.1000001430511,1197.7000000476837,1389.7999999523163,1597,1788.2999999523163,1982.7999999523163","49,49,49,49,49,49,49,49,49","images/tutgreenplanet.jpg","images/tutalien1","images/tutalien2","null","images/tutalien2","images/t.png","NA","practice","null","","","",""
"d3-animate-choice","41","90995","0.0-41.0","738","806","11","Male","false","false","true","true","""event"",""trial"",""time""
""fullscreenenter"",""5"",""8377""
","
","
","""event"",""trial"",""time""
""fullscreenenter"",""5"",""8377""
","
","129.70000004768372","","49","","","3000","1","315.2999999523163,520.2000000476837,715.8999998569489,910.2999999523163,1131.0999999046326,1290.5999999046326,1492.7999999523163,1677.7999999523163,1883.2999999523163,2083","49,49,49,49,49,49,49,49,49,49","images/tutgreenplanet.jpg","images/tutalien1","images/tutalien2","null","images/tutalien2","images/t.png","NA","practice","null","","","",""
"d3-animate-choice","42","93151","0.0-42.0","738","806","11","Male","false","false","true","true","""event"",""trial"",""time""
""fullscreenenter"",""5"",""8377""
","
","
","""event"",""trial"",""time""
""fullscreenenter"",""5"",""8377""
","
","148.39999985694885","","49","","","3000","1","339.19999980926514,528.7999999523163,724.6999998092651,1108.7999999523163,1303.6999998092651,1503.6999998092651,1704.5999999046326,1924.5","49,49,49,49,49,49,49,49","images/tutgreenplanet.jpg","images/tutalien1","images/tutalien2","null","images/tutalien2","images/t.png","NA","practice","null","","","",""
"d3-animate-choice","43","95170","0.0-43.0","738","806","11","Male","false","false","true","true","""event"",""trial"",""time""
""fullscreenenter"",""5"",""8377""
","
","
","""event"",""trial"",""time""
""fullscreenenter"",""5"",""8377""
","
","13","","49","","","3000","1","172.59999990463257,348.5,553.8999998569489,738.8999998569489,973.1999998092651,1208.8999998569489,1393.7999999523163,1621.5,1834.7999999523163","49,49,49,49,49,49,49,49,49","images/tutgreenplanet.jpg","images/tutalien1","images/tutalien2","null","images/tutalien2","images/t.png","NA","practice","null","","","",""
"d3-instructions","44","98045","0.0-44.0","738","806","11","Male","false","false","true","true","""event"",""trial"",""time""
""fullscreenenter"",""5"",""8377""
","
","
","""event"",""trial"",""time""
""fullscreenenter"",""5"",""8377""
","
","","","","","","","","","","","","","","","","","","","","","",""
"d3-instructions","45","98675","0.0-45.0","738","806","11","Male","false","false","true","true","""event"",""trial"",""time""
""fullscreenenter"",""5"",""8377""
","
","
","""event"",""trial"",""time""
""fullscreenenter"",""5"",""8377""
","
","","","","","","","","","","","","","","","","","","","","","",""
"d3-instructions","46","101900","0.0-46.0","738","806","11","Male","false","false","true","true","""event"",""trial"",""time""
""fullscreenenter"",""5"",""8377""
","
","
","""event"",""trial"",""time""
""fullscreenenter"",""5"",""8377""
","
","","","","","","","","","","","","","","","","","","","","","",""
"d3-instructions","47","102390","0.0-47.0","738","806","11","Male","false","false","true","true","""event"",""trial"",""time""
""fullscreenenter"",""5"",""8377""
","
","
","""event"",""trial"",""time""
""fullscreenenter"",""5"",""8377""
","
","","","","","","","","","","","","","","","","","","","","","",""
"d3-instructions","48","102822","0.0-48.0","738","806","11","Male","false","false","true","true","""event"",""trial"",""time""
""fullscreenenter"",""5"",""8377""
","
","
","""event"",""trial"",""time""
""fullscreenenter"",""5"",""8377""
","
","","","","","","","","","","","","","","","","","","","","","",""
"d3-instructions","49","104743","0.0-49.0","738","806","11","Male","false","false","true","true","""event"",""trial"",""time""
""fullscreenenter"",""5"",""8377""
","
","
","""event"",""trial"",""time""
""fullscreenenter"",""5"",""8377""
","
","","","","","","","","","","","","","","","","","","","","","",""
"d3-instructions","50","105360","0.0-50.0","738","806","11","Male","false","false","true","true","""event"",""trial"",""time""
""fullscreenenter"",""5"",""8377""
","
","
","""event"",""trial"",""time""
""fullscreenenter"",""5"",""8377""
","
","","","","","","","","","","","","","","","","","","","","","",""
"d3-instructions","51","109333","0.0-51.0","738","806","11","Male","false","false","true","true","""event"",""trial"",""time""
""fullscreenenter"",""5"",""8377""
","
","
","""event"",""trial"",""time""
""fullscreenenter"",""5"",""8377""
","
","","","","","","","","","","","","","","","","","","","","","",""
"d3-instructions","52","110161","0.0-52.0","738","806","11","Male","false","false","true","true","""event"",""trial"",""time""
""fullscreenenter"",""5"",""8377""
","
","
","""event"",""trial"",""time""
""fullscreenenter"",""5"",""8377""
","
","","","","","","","","","","","","","","","","","","","","","",""
"d3-instructions","53","114054","0.0-53.0","738","806","11","Male","false","false","true","true","""event"",""trial"",""time""
""fullscreenenter"",""5"",""8377""
","
","
","""event"",""trial"",""time""
""fullscreenenter"",""5"",""8377""
","
","","","","","","","","","","","","","","","","","","","","","",""
"d3-instructions","54","119429","0.0-54.0","738","806","11","Male","false","false","true","true","""event"",""trial"",""time""
""fullscreenenter"",""5"",""8377""
","
","
","""event"",""trial"",""time""
""fullscreenenter"",""5"",""8377""
","
","","","","","","","","","","","","","","","","","","","","","",""
"d3-instructions","55","120422","0.0-55.0","738","806","11","Male","false","false","true","true","""event"",""trial"",""time""
""fullscreenenter"",""5"",""8377""
","
","
","""event"",""trial"",""time""
""fullscreenenter"",""5"",""8377""
","
","","","","","","","","","","","","","","","","","","","","","",""
"d3-instructions","56","121436","0.0-56.0","738","806","11","Male","false","false","true","true","""event"",""trial"",""time""
""fullscreenenter"",""5"",""8377""
","
","
","""event"",""trial"",""time""
""fullscreenenter"",""5"",""8377""
","
","","","","","","","","","","","","","","","","","","","","","",""
"d3-instructions","57","122537","0.0-57.0","738","806","11","Male","false","false","true","true","""event"",""trial"",""time""
""fullscreenenter"",""5"",""8377""
","
","
","""event"",""trial"",""time""
""fullscreenenter"",""5"",""8377""
","
","","","","","","","","","","","","","","","","","","","","","",""
"d3-instructions","58","123697","0.0-58.0","738","806","11","Male","false","false","true","true","""event"",""trial"",""time""
""fullscreenenter"",""5"",""8377""
","
","
","""event"",""trial"",""time""
""fullscreenenter"",""5"",""8377""
","
","","","","","","","","","","","","","","","","","","","","","",""
"d3-instructions","59","124654","0.0-59.0","738","806","11","Male","false","false","true","true","""event"",""trial"",""time""
""fullscreenenter"",""5"",""8377""
","
","
","""event"",""trial"",""time""
""fullscreenenter"",""5"",""8377""
","
","","","","","","","","","","","","","","","","","","","","","",""
"d3-instructions","60","125613","0.0-60.0","738","806","11","Male","false","false","true","true","""event"",""trial"",""time""
""fullscreenenter"",""5"",""8377""
","
","
","""event"",""trial"",""time""
""fullscreenenter"",""5"",""8377""
","
","","","","","","","","","","","","","","","","","","","","","",""
"d3-animate-choice","61","129150","0.0-61.0-0.0","738","806","11","Male","false","false","true","true","""event"",""trial"",""time""
""fullscreenenter"",""5"",""8377""
","
","
","""event"",""trial"",""time""
""fullscreenenter"",""5"",""8377""
","
","1520.2000000476837","","49","","","3000","1","1650.9000000953674","48","images/earth.jpg","images/tutrocket1","images/tutrocket2","null","images/tutrocket2","","1","practice","null","1","","",""
"d3-animate-choice","62","132181","0.0-61.0-1.0","738","806","11","Male","false","false","true","true","""event"",""trial"",""time""
""fullscreenenter"",""5"",""8377""
","
","
","""event"",""trial"",""time""
""fullscreenenter"",""5"",""8377""
","
","1007.7999999523163","","48","","","3000","1","1017.5","49","images/tutgreenplanet.jpg","images/tutalien2","images/tutalien1","images/tutrocket2","images/tutalien2","images/nothing.png","2","practice","true","2","common","0","2022-02-11 18:02:13.861"
"two-step-fixation","63","133200","0.0-61.0-2.0","738","806","11","Male","false","false","true","true","""event"",""trial"",""time""
""fullscreenenter"",""5"",""8377""
","
","
","""event"",""trial"",""time""
""fullscreenenter"",""5"",""8377""
","
","","images/earth.jpg","","","","","","","","","","","","","","fixation","","","","","",""
"d3-animate-choice","64","137161","0.0-61.0-0.1","738","806","11","Male","false","false","true","true","""event"",""trial"",""time""
""fullscreenenter"",""5"",""8377""
","
","
","""event"",""trial"",""time""
""fullscreenenter"",""5"",""8377""
","
","71.80000019073486","","175","","","3000","1","366.30000019073486,1938.7000000476837,2968.9000000953674","174,48,175","images/earth.jpg","images/tutrocket1","images/tutrocket2","null","images/tutrocket1","","1","practice","null","","","",""
"d3-animate-choice","65","140369","0.0-61.0-1.1","738","806","11","Male","false","false","true","true","""event"",""trial"",""time""
""fullscreenenter"",""5"",""8377""
","
","
","""event"",""trial"",""time""
""fullscreenenter"",""5"",""8377""
","
","1188.9000000953674","","49","","","3000","1","","","images/tutyellowplanet.jpg","images/tutalien4","images/tutalien3","images/tutrocket1","images/tutalien3","images/nothing.png","2","practice","true","1","common","0","2022-02-11 18:02:22.049"
"two-step-fixation","66","141390","0.0-61.0-2.1","738","806","11","Male","false","false","true","true","""event"",""trial"",""time""
""fullscreenenter"",""5"",""8377""
","
","
","""event"",""trial"",""time""
""fullscreenenter"",""5"",""8377""
","
","","images/earth.jpg","","","","","","","","","","","","","","fixation","","","","","",""
"d3-animate-choice","67","144678","0.0-61.0-0.2","738","806","11","Male","false","false","true","true","""event"",""trial"",""time""
""fullscreenenter"",""5"",""8377""
","
","
","""event"",""trial"",""time""
""fullscreenenter"",""5"",""8377""
","
","1276.2000000476837","","48","","","3000","1","1909.2000000476837,2099,2248.7999999523163,2394.7999999523163,2579.399999856949,2724.2999999523163,2885.0999999046326,3130.7000000476837","48,48,48,48,48,48,48,48","images/earth.jpg","images/tutrocket1","images/tutrocket2","null","images/tutrocket1","","1","practice","null","2","","",""
"d3-animate-choice","68","147009","0.0-61.0-1.2","738","806","11","Male","false","false","true","true","""event"",""trial"",""time""
""fullscreenenter"",""5"",""8377""
","
","
","""event"",""trial"",""time""
""fullscreenenter"",""5"",""8377""
","
","320.10000014305115","","48","","","3000","1","505.30000019073486,665.7000000476837,1669.8000001907349,2286.100000143051","48,48,48,48","images/tutyellowplanet.jpg","images/tutalien4","images/tutalien3","images/tutrocket1","images/tutalien4","images/nothing.png","2","practice","true","2","common","0","2022-02-11 18:02:28.689"
"two-step-fixation","69","148020","0.0-61.0-2.2","738","806","11","Male","false","false","true","true","""event"",""trial"",""time""
""fullscreenenter"",""5"",""8377""
","
","
","""event"",""trial"",""time""
""fullscreenenter"",""5"",""8377""
","
","","images/earth.jpg","","","","","","","","","","","","","","fixation","","","","","",""
"d3-animate-choice","70","151530","0.0-61.0-0.3","738","806","11","Male","false","false","true","true","""event"",""trial"",""time""
""fullscreenenter"",""5"",""8377""
","
","
","""event"",""trial"",""time""
""fullscreenenter"",""5"",""8377""
","
","1502","","49","","","3000","1","","","images/earth.jpg","images/tutrocket1","images/tutrocket2","null","images/tutrocket2","","1","practice","null","1","","",""
"d3-animate-choice","71","154678","0.0-61.0-1.3","738","806","11","Male","false","false","true","true","""event"",""trial"",""time""
""fullscreenenter"",""5"",""8377""
","
","
","""event"",""trial"",""time""
""fullscreenenter"",""5"",""8377""
","
","1140","","48","","","3000","1","","","images/tutgreenplanet.jpg","images/tutalien2","images/tutalien1","images/tutrocket2","images/tutalien2","images/t.png","2","practice","true","2","common","1","2022-02-11 18:02:36.358"
"two-step-fixation","72","155689","0.0-61.0-2.3","738","806","11","Male","false","false","true","true","""event"",""trial"",""time""
""fullscreenenter"",""5"",""8377""
","
","
","""event"",""trial"",""time""
""fullscreenenter"",""5"",""8377""
","
","","images/earth.jpg","","","","","","","","","","","","","","fixation","","","","","",""
"d3-animate-choice","73","157838","0.0-61.0-0.4","738","806","11","Male","false","false","true","true","""event"",""trial"",""time""
""fullscreenenter"",""5"",""8377""
","
","
","""event"",""trial"",""time""
""fullscreenenter"",""5"",""8377""
","
","136.29999995231628","","48","","","3000","1","","","images/earth.jpg","images/tutrocket1","images/tutrocket2","null","images/tutrocket1","","1","practice","null","2","","",""
"d3-animate-choice","74","160343","0.0-61.0-1.4","738","806","11","Male","false","false","true","true","""event"",""trial"",""time""
""fullscreenenter"",""5"",""8377""
","
","
","""event"",""trial"",""time""
""fullscreenenter"",""5"",""8377""
","
","488.59999990463257","","48","","","3000","1","","","images/tutgreenplanet.jpg","images/tutalien2","images/tutalien1","images/tutrocket1","images/tutalien2","images/t.png","2","practice","false","2","rare","1","2022-02-11 18:02:42.023"
"two-step-fixation","75","161348","0.0-61.0-2.4","738","806","11","Male","false","false","true","true","""event"",""trial"",""time""
""fullscreenenter"",""5"",""8377""
","
","
","""event"",""trial"",""time""
""fullscreenenter"",""5"",""8377""
","
","","images/earth.jpg","","","","","","","","","","","","","","fixation","","","","","",""
"d3-animate-choice","76","164002","0.0-61.0-0.5","738","806","11","Male","false","false","true","true","""event"",""trial"",""time""
""fullscreenenter"",""5"",""8377""
","
","
","""event"",""trial"",""time""
""fullscreenenter"",""5"",""8377""
","
","637.8999998569489","","48","","","3000","1","","","images/earth.jpg","images/tutrocket1","images/tutrocket2","null","images/tutrocket1","","1","practice","null","2","","",""
"d3-animate-choice","77","167009","0.0-61.0-1.5","738","806","11","Male","false","false","true","true","""event"",""trial"",""time""
""fullscreenenter"",""5"",""8377""
","
","
","""event"",""trial"",""time""
""fullscreenenter"",""5"",""8377""
","
","995","","48","","","3000","1","","","images/tutyellowplanet.jpg","images/tutalien4","images/tutalien3","images/tutrocket1","images/tutalien4","images/t.png","2","practice","true","2","common","1","2022-02-11 18:02:48.689"
"two-step-fixation","78","168020","0.0-61.0-2.5","738","806","11","Male","false","false","true","true","""event"",""trial"",""time""
""fullscreenenter"",""5"",""8377""
","
","
","""event"",""trial"",""time""
""fullscreenenter"",""5"",""8377""
","
","","images/earth.jpg","","","","","","","","","","","","","","fixation","","","","","",""
"d3-animate-choice","79","170376","0.0-61.0-0.6","738","806","11","Male","false","false","true","true","""event"",""trial"",""time""
""fullscreenenter"",""5"",""8377""
","
","
","""event"",""trial"",""time""
""fullscreenenter"",""5"",""8377""
","
","346.89999985694885","","48","","","3000","1","","","images/earth.jpg","images/tutrocket1","images/tutrocket2","null","images/tutrocket1","","1","practice","null","2","","",""
"d3-animate-choice","80","172857","0.0-61.0-1.6","738","806","11","Male","false","false","true","true","""event"",""trial"",""time""
""fullscreenenter"",""5"",""8377""
","
","
","""event"",""trial"",""time""
""fullscreenenter"",""5"",""8377""
","
","471.7999999523163","","48","","","3000","1","","","images/tutyellowplanet.jpg","images/tutalien4","images/tutalien3","images/tutrocket1","images/tutalien4","images/t.png","2","practice","true","2","common","1","2022-02-11 18:02:54.537"
"two-step-fixation","81","173868","0.0-61.0-2.6","738","806","11","Male","false","false","true","true","""event"",""trial"",""time""
""fullscreenenter"",""5"",""8377""
","
","
","""event"",""trial"",""time""
""fullscreenenter"",""5"",""8377""
","
","","images/earth.jpg","","","","","","","","","","","","","","fixation","","","","","",""
"d3-animate-choice","82","176349","0.0-61.0-0.7","738","806","11","Male","false","false","true","true","""event"",""trial"",""time""
""fullscreenenter"",""5"",""8377""
","
","
","""event"",""trial"",""time""
""fullscreenenter"",""5"",""8377""
","
","470.7999999523163","","48","","","3000","1","","","images/earth.jpg","images/tutrocket1","images/tutrocket2","null","images/tutrocket1","","1","practice","null","2","","",""
"d3-animate-choice","83","179500","0.0-61.0-1.7","738","806","11","Male","false","false","true","true","""event"",""trial"",""time""
""fullscreenenter"",""5"",""8377""
","
","
","""event"",""trial"",""time""
""fullscreenenter"",""5"",""8377""
","
","1135.2999999523163","","48","","","3000","1","","","images/tutgreenplanet.jpg","images/tutalien2","images/tutalien1","images/tutrocket1","images/tutalien2","images/t.png","2","practice","false","2","rare","1","2022-02-11 18:03:01.180"
"two-step-fixation","84","180513","0.0-61.0-2.7","738","806","11","Male","false","false","true","true","""event"",""trial"",""time""
""fullscreenenter"",""5"",""8377""
","
","
","""event"",""trial"",""time""
""fullscreenenter"",""5"",""8377""
","
","","images/earth.jpg","","","","","","","","","","","","","","fixation","","","","","",""
"d3-animate-choice","85","184045","0.0-61.0-0.8","738","806","11","Male","false","false","true","true","""event"",""trial"",""time""
""fullscreenenter"",""5"",""8377""
","
","
","""event"",""trial"",""time""
""fullscreenenter"",""5"",""8377""
","
","1525.2000000476837","","48","","","3000","1","","","images/earth.jpg","images/tutrocket1","images/tutrocket2","null","images/tutrocket1","","1","practice","null","2","","",""
"d3-animate-choice","86","186388","0.0-61.0-1.8","738","806","11","Male","false","false","true","true","""event"",""trial"",""time""
""fullscreenenter"",""5"",""8377""
","
","
","""event"",""trial"",""time""
""fullscreenenter"",""5"",""8377""
","
","332.5","","48","","","3000","1","","","images/tutgreenplanet.jpg","images/tutalien2","images/tutalien1","images/tutrocket1","images/tutalien2","images/nothing.png","2","practice","false","2","rare","0","2022-02-11 18:03:08.068"
"two-step-fixation","87","187395","0.0-61.0-2.8","738","806","11","Male","false","false","true","true","""event"",""trial"",""time""
""fullscreenenter"",""5"",""8377""
","
","
","""event"",""trial"",""time""
""fullscreenenter"",""5"",""8377""
","
","","images/earth.jpg","","","","","","","","","","","","","","fixation","","","","","",""
"d3-animate-choice","88","189768","0.0-61.0-0.9","738","806","11","Male","false","false","true","true","""event"",""trial"",""time""
""fullscreenenter"",""5"",""8377""
","
","
","""event"",""trial"",""time""
""fullscreenenter"",""5"",""8377""
","
","364","","48","","","3000","1","","","images/earth.jpg","images/tutrocket1","images/tutrocket2","null","images/tutrocket1","","1","practice","null","2","","",""
"d3-animate-choice","89","192955","0.0-61.0-1.9","738","806","11","Male","false","false","true","true","""event"",""trial"",""time""
""fullscreenenter"",""5"",""8377""
","
","
","""event"",""trial"",""time""
""fullscreenenter"",""5"",""8377""
","
","1178.1999998092651","","48","","","3000","1","","","images/tutyellowplanet.jpg","images/tutalien4","images/tutalien3","images/tutrocket1","images/tutalien4","images/t.png","2","practice","true","2","common","1","2022-02-11 18:03:14.635"
"two-step-fixation","90","193962","0.0-61.0-2.9","738","806","11","Male","false","false","true","true","""event"",""trial"",""time""
""fullscreenenter"",""5"",""8377""
","
","
","""event"",""trial"",""time""
""fullscreenenter"",""5"",""8377""
","
","","images/earth.jpg","","","","","","","","","","","","","","fixation","","","","","",""
"d3-animate-choice","91","195988","0.0-61.0-0.10","738","806","11","Male","false","false","true","true","""event"",""trial"",""time""
""fullscreenenter"",""5"",""8377""
","
","
","""event"",""trial"",""time""
""fullscreenenter"",""5"",""8377""
","
","15.299999952316284","","48","","","3000","1","","","images/earth.jpg","images/tutrocket1","images/tutrocket2","null","images/tutrocket1","","1","practice","null","2","","",""
"d3-animate-choice","92","199813","0.0-61.0-1.10","738","806","11","Male","false","false","true","true","""event"",""trial"",""time""
""fullscreenenter"",""5"",""8377""
","
","
","""event"",""trial"",""time""
""fullscreenenter"",""5"",""8377""
","
","1815.6000001430511","","49","","","3000","1","","","images/tutgreenplanet.jpg","images/tutalien2","images/tutalien1","images/tutrocket1","images/tutalien1","images/nothing.png","2","practice","false","1","rare","0","2022-02-11 18:03:21.493"
"two-step-fixation","93","200828","0.0-61.0-2.10","738","806","11","Male","false","false","true","true","""event"",""trial"",""time""
""fullscreenenter"",""5"",""8377""
","
","
","""event"",""trial"",""time""
""fullscreenenter"",""5"",""8377""
","
","","images/earth.jpg","","","","","","","","","","","","","","fixation","","","","","",""
"d3-animate-choice","94","203617","0.0-61.0-0.11","738","806","11","Male","false","false","true","true","""event"",""trial"",""time""
""fullscreenenter"",""5"",""8377""
","
","
","""event"",""trial"",""time""
""fullscreenenter"",""5"",""8377""
","
","779","","48","","","3000","1","","","images/earth.jpg","images/tutrocket1","images/tutrocket2","null","images/tutrocket1","","1","practice","null","2","","",""
"d3-animate-choice","95","207192","0.0-61.0-1.11","738","806","11","Male","false","false","true","true","""event"",""trial"",""time""
""fullscreenenter"",""5"",""8377""
","
","
","""event"",""trial"",""time""
""fullscreenenter"",""5"",""8377""
","
","1568","","49","","","3000","1","","","images/tutyellowplanet.jpg","images/tutalien4","images/tutalien3","images/tutrocket1","images/tutalien3","images/nothing.png","2","practice","true","1","common","0","2022-02-11 18:03:28.872"
"two-step-fixation","96","208201","0.0-61.0-2.11","738","806","11","Male","false","false","true","true","""event"",""trial"",""time""
""fullscreenenter"",""5"",""8377""
","
","
","""event"",""trial"",""time""
""fullscreenenter"",""5"",""8377""
","
","","images/earth.jpg","","","","","","","","","","","","","","fixation","","","","","",""
"d3-animate-choice","97","211673","0.0-61.0-0.12","738","806","11","Male","false","false","true","true","""event"",""trial"",""time""
""fullscreenenter"",""5"",""8377""
","
","
","""event"",""trial"",""time""
""fullscreenenter"",""5"",""8377""
","
","1457.7000000476837","","48","","","3000","1","","","images/earth.jpg","images/tutrocket1","images/tutrocket2","null","images/tutrocket1","","1","practice","null","2","","",""
"d3-animate-choice","98","214827","0.0-61.0-1.12","738","806","11","Male","false","false","true","true","""event"",""trial"",""time""
""fullscreenenter"",""5"",""8377""
","
","
","""event"",""trial"",""time""
""fullscreenenter"",""5"",""8377""
","
","1142","","48","","","3000","1","","","images/tutyellowplanet.jpg","images/tutalien4","images/tutalien3","images/tutrocket1","images/tutalien4","images/nothing.png","2","practice","true","2","common","0","2022-02-11 18:03:36.507"
"two-step-fixation","99","215835","0.0-61.0-2.12","738","806","11","Male","false","false","true","true","""event"",""trial"",""time""
""fullscreenenter"",""5"",""8377""
","
","
","""event"",""trial"",""time""
""fullscreenenter"",""5"",""8377""
","
","","images/earth.jpg","","","","","","","","","","","","","","fixation","","","","","",""
"d3-animate-choice","100","218194","0.0-61.0-0.13","738","806","11","Male","false","false","true","true","""event"",""trial"",""time""
""fullscreenenter"",""5"",""8377""
","
","
","""event"",""trial"",""time""
""fullscreenenter"",""5"",""8377""
","
","351.2999999523163","","48","","","3000","1","","","images/earth.jpg","images/tutrocket1","images/tutrocket2","null","images/tutrocket1","","1","practice","null","2","","",""
"d3-animate-choice","101","222201","0.0-61.0-1.13","738","806","11","Male","false","false","true","true","""event"",""trial"",""time""
""fullscreenenter"",""5"",""8377""
","
","
","""event"",""trial"",""time""
""fullscreenenter"",""5"",""8377""
","
","2017.8999998569489","","49","","","3000","1","","","images/tutyellowplanet.jpg","images/tutalien4","images/tutalien3","images/tutrocket1","images/tutalien3","images/t.png","2","practice","true","1","common","1","2022-02-11 18:03:43.881"
"two-step-fixation","102","223210","0.0-61.0-2.13","738","806","11","Male","false","false","true","true","""event"",""trial"",""time""
""fullscreenenter"",""5"",""8377""
","
","
","""event"",""trial"",""time""
""fullscreenenter"",""5"",""8377""
","
","","images/earth.jpg","","","","","","","","","","","","","","fixation","","","","","",""
"d3-animate-choice","103","226314","0.0-61.0-0.14","738","806","11","Male","false","false","true","true","""event"",""trial"",""time""
""fullscreenenter"",""5"",""8377""
","
","
","""event"",""trial"",""time""
""fullscreenenter"",""5"",""8377""
","
","1092","","49","","","3000","1","","","images/earth.jpg","images/tutrocket1","images/tutrocket2","null","images/tutrocket2","","1","practice","null","1","","",""
"d3-animate-choice","104","230326","0.0-61.0-1.14","738","806","11","Male","false","false","true","true","""event"",""trial"",""time""
""fullscreenenter"",""5"",""8377""
","
","
","""event"",""trial"",""time""
""fullscreenenter"",""5"",""8377""
","
","2170.9000000953674","","49","","","3000","1","","","images/tutyellowplanet.jpg","images/tutalien4","images/tutalien3","images/tutrocket2","images/tutalien3","images/nothing.png","2","practice","false","1","rare","0","2022-02-11 18:03:52.006"
"two-step-fixation","105","231331","0.0-61.0-2.14","738","806","11","Male","false","false","true","true","""event"",""trial"",""time""
""fullscreenenter"",""5"",""8377""
","
","
","""event"",""trial"",""time""
""fullscreenenter"",""5"",""8377""
","
","","images/earth.jpg","","","","","","","","","","","","","","fixation","","","","","",""
"d3-animate-choice","106","233662","0.0-61.0-0.15","738","806","11","Male","false","false","true","true","""event"",""trial"",""time""
""fullscreenenter"",""5"",""8377""
","
","
","""event"",""trial"",""time""
""fullscreenenter"",""5"",""8377""
","
","321.80000019073486","","48","","","3000","1","","","images/earth.jpg","images/tutrocket1","images/tutrocket2","null","images/tutrocket1","","1","practice","null","2","","",""
"d3-animate-choice","107","237211","0.0-61.0-1.15","738","806","11","Male","false","false","true","true","""event"",""trial"",""time""
""fullscreenenter"",""5"",""8377""
","
","
","""event"",""trial"",""time""
""fullscreenenter"",""5"",""8377""
","
","1538.5999999046326","","48","","","3000","1","","","images/tutyellowplanet.jpg","images/tutalien4","images/tutalien3","images/tutrocket1","images/tutalien4","images/t.png","2","practice","true","2","common","1","2022-02-11 18:03:58.891"
"two-step-fixation","108","238216","0.0-61.0-2.15","738","806","11","Male","false","false","true","true","""event"",""trial"",""time""
""fullscreenenter"",""5"",""8377""
","
","
","""event"",""trial"",""time""
""fullscreenenter"",""5"",""8377""
","
","","images/earth.jpg","","","","","","","","","","","","","","fixation","","","","","",""
"d3-animate-choice","109","240723","0.0-61.0-0.16","738","806","11","Male","false","false","true","true","""event"",""trial"",""time""
""fullscreenenter"",""5"",""8377""
","
","
","""event"",""trial"",""time""
""fullscreenenter"",""5"",""8377""
","
","471.10000014305115","","49","","","3000","1","","","images/earth.jpg","images/tutrocket1","images/tutrocket2","null","images/tutrocket2","","1","practice","null","1","","",""
"d3-animate-choice","110","244161","0.0-61.0-1.16","738","806","11","Male","false","false","true","true","""event"",""trial"",""time""
""fullscreenenter"",""5"",""8377""
","
","
","""event"",""trial"",""time""
""fullscreenenter"",""5"",""8377""
","
","1426.3999998569489","","48","","","3000","1","","","images/tutgreenplanet.jpg","images/tutalien2","images/tutalien1","images/tutrocket2","images/tutalien2","images/nothing.png","2","practice","true","2","common","0","2022-02-11 18:04:05.841"
"two-step-fixation","111","245169","0.0-61.0-2.16","738","806","11","Male","false","false","true","true","""event"",""trial"",""time""
""fullscreenenter"",""5"",""8377""
","
","
","""event"",""trial"",""time""
""fullscreenenter"",""5"",""8377""
","
","","images/earth.jpg","","","","","","","","","","","","","","fixation","","","","","",""
"d3-animate-choice","112","247628","0.0-61.0-0.17","738","806","11","Male","false","false","true","true","""event"",""trial"",""time""
""fullscreenenter"",""5"",""8377""
","
","
","""event"",""trial"",""time""
""fullscreenenter"",""5"",""8377""
","
","443.19999980926514","","48","","","3000","1","","","images/earth.jpg","images/tutrocket1","images/tutrocket2","null","images/tutrocket1","","1","practice","null","2","","",""
"d3-animate-choice","113","250783","0.0-61.0-1.17","738","806","11","Male","false","false","true","true","""event"",""trial"",""time""
""fullscreenenter"",""5"",""8377""
","
","
","""event"",""trial"",""time""
""fullscreenenter"",""5"",""8377""
","
","1142.4000000953674","","49","","","3000","1","1171.9000000953674","173","images/tutgreenplanet.jpg","images/tutalien2","images/tutalien1","images/tutrocket1","images/tutalien1","images/nothing.png","2","practice","false","1","rare","0","2022-02-11 18:04:12.463"
"two-step-fixation","114","251797","0.0-61.0-2.17","738","806","11","Male","false","false","true","true","""event"",""trial"",""time""
""fullscreenenter"",""5"",""8377""
","
","
","""event"",""trial"",""time""
""fullscreenenter"",""5"",""8377""
","
","","images/earth.jpg","","","","","","","","","","","","","","fixation","","","","","",""
"d3-animate-choice","115","255616","0.0-61.0-0.18","738","806","11","Male","false","false","true","true","""event"",""trial"",""time""
""fullscreenenter"",""5"",""8377""
","
","
","""event"",""trial"",""time""
""fullscreenenter"",""5"",""8377""
","
","847.0999999046326","","79","","","3000","1","1805.2999999523163","48","images/earth.jpg","images/tutrocket1","images/tutrocket2","null","images/tutrocket1","","1","practice","null","","","",""
"d3-animate-choice","116","258473","0.0-61.0-1.18","738","806","11","Male","false","false","true","true","""event"",""trial"",""time""
""fullscreenenter"",""5"",""8377""
","
","
","""event"",""trial"",""time""
""fullscreenenter"",""5"",""8377""
","
","308.90000009536743","","79","","","3000","1","850.3000001907349","48","images/tutyellowplanet.jpg","images/tutalien4","images/tutalien3","images/tutrocket1","images/tutalien4","images/nothing.png","2","practice","true","","common","0","2022-02-11 18:04:20.153"
"two-step-fixation","117","259483","0.0-61.0-2.18","738","806","11","Male","false","false","true","true","""event"",""trial"",""time""
""fullscreenenter"",""5"",""8377""
","
","
","""event"",""trial"",""time""
""fullscreenenter"",""5"",""8377""
","
","","images/earth.jpg","","","","","","","","","","","","","","fixation","","","","","",""
"d3-animate-choice","118","261569","0.0-61.0-0.19","738","806","11","Male","false","false","true","true","""event"",""trial"",""time""
""fullscreenenter"",""5"",""8377""
","
","
","""event"",""trial"",""time""
""fullscreenenter"",""5"",""8377""
","
","75.90000009536743","","49","","","3000","1","","","images/earth.jpg","images/tutrocket1","images/tutrocket2","null","images/tutrocket2","","1","practice","null","1","","",""
"d3-animate-choice","119","265331","0.0-61.0-1.19","738","806","11","Male","false","false","true","true","""event"",""trial"",""time""
""fullscreenenter"",""5"",""8377""
","
","
","""event"",""trial"",""time""
""fullscreenenter"",""5"",""8377""
","
","1753.2999999523163","","48","","","3000","1","","","images/tutgreenplanet.jpg","images/tutalien2","images/tutalien1","images/tutrocket2","images/tutalien2","images/t.png","2","practice","true","2","common","1","2022-02-11 18:04:27.012"
"two-step-fixation","120","266341","0.0-61.0-2.19","738","806","11","Male","false","false","true","true","""event"",""trial"",""time""
""fullscreenenter"",""5"",""8377""
","
","
","""event"",""trial"",""time""
""fullscreenenter"",""5"",""8377""
","
","","images/earth.jpg","","","","","","","","","","","","","","fixation","","","","","",""
"d3-instructions","121","269130","0.0-62.0","738","806","11","Male","false","false","true","true","""event"",""trial"",""time""
""fullscreenenter"",""5"",""8377""
","
","
","""event"",""trial"",""time""
""fullscreenenter"",""5"",""8377""
","
","","","","","","","","","","","","","","","","","","","","","",""
"audio-keyboard-response","122","271861","0.0-63.0","738","806","11","Male","false","false","true","true","""event"",""trial"",""time""
""fullscreenenter"",""5"",""8377""
","
","
","""event"",""trial"",""time""
""fullscreenenter"",""5"",""8377""
","
","2728","audio/instructions/treasure_feedback.wav","32","","","","","","","","","","","","","","","","","","",""
"d3-instructions","123","272965","0.0-64.0","738","806","11","Male","false","false","true","true","""event"",""trial"",""time""
""fullscreenenter"",""5"",""8377""
","
","
","""event"",""trial"",""time""
""fullscreenenter"",""5"",""8377""
","
","","","","","","","","","","","","","","","","","","","","","",""
"d3-instructions","124","273560","0.0-65.0","738","806","11","Male","false","false","true","true","""event"",""trial"",""time""
""fullscreenenter"",""5"",""8377""
","
","
","""event"",""trial"",""time""
""fullscreenenter"",""5"",""8377""
","
","","","","","","","","","","","","","","","","","","","","","",""
"d3-instructions","125","274527","0.0-66.0","738","806","11","Male","false","false","true","true","""event"",""trial"",""time""
""fullscreenenter"",""5"",""8377""
","
","
","""event"",""trial"",""time""
""fullscreenenter"",""5"",""8377""
","
","","","","","","","","","","","","","","","","","","","","","",""
"d3-instructions","126","276375","0.0-67.0","738","806","11","Male","false","false","true","true","""event"",""trial"",""time""
""fullscreenenter"",""5"",""8377""
","
","
","""event"",""trial"",""time""
""fullscreenenter"",""5"",""8377""
","
","","","","","","","","","","","","","","","","","","","","","",""
"d3-instructions","127","277231","0.0-68.0","738","806","11","Male","false","false","true","true","""event"",""trial"",""time""
""fullscreenenter"",""5"",""8377""
","
","
","""event"",""trial"",""time""
""fullscreenenter"",""5"",""8377""
","
","","","","","","","","","","","","","","","","","","","","","",""
"instructions-quiz","128","280149","0.0-69.0","738","806","11","Male","false","false","true","true","""event"",""trial"",""time""
""fullscreenenter"",""5"",""8377""
","
","
","""event"",""trial"",""time""
""fullscreenenter"",""5"",""8377""
","
","2914.0999999046326","audio/quiz/Q1_Prompt.wav","","1","","","","","","","","","","","","","","","","","",""
"audio-keyboard-response","129","280867","0.0-70.0","738","806","11","Male","false","false","true","true","""event"",""trial"",""time""
""fullscreenenter"",""5"",""8377""
","
","
","""event"",""trial"",""time""
""fullscreenenter"",""5"",""8377""
","
","709","audio/quiz/Q1_Correct.wav","32","","","","","","","","","","","","","","","","","","",""
"instructions-quiz","130","283953","0.0-71.0","738","806","11","Male","false","false","true","true","""event"",""trial"",""time""
""fullscreenenter"",""5"",""8377""
","
","
","""event"",""trial"",""time""
""fullscreenenter"",""5"",""8377""
","
","3083.7999999523163","audio/quiz/Q2_Prompt.wav","","0","","","","","","","","","","","","","","","","","",""
"audio-keyboard-response","131","284311","0.0-72.0","738","806","11","Male","false","false","true","true","""event"",""trial"",""time""
""fullscreenenter"",""5"",""8377""
","
","
","""event"",""trial"",""time""
""fullscreenenter"",""5"",""8377""
","
","360","audio/quiz/Q2_Correct.wav","32","","","","","","","","","","","","","","","","","","",""
"instructions-quiz","132","285975","0.0-73.0","738","806","11","Male","false","false","true","true","""event"",""trial"",""time""
""fullscreenenter"",""5"",""8377""
","
","
","""event"",""trial"",""time""
""fullscreenenter"",""5"",""8377""
","
","1662.6000001430511","audio/quiz/Q3_Prompt.wav","","1","","","","","","","","","","","","","","","","","",""
"audio-keyboard-response","133","286053","0.0-74.0","738","806","11","Male","false","false","true","true","""event"",""trial"",""time""
""fullscreenenter"",""5"",""8377""
","
","
","""event"",""trial"",""time""
""fullscreenenter"",""5"",""8377""
","
","80","audio/quiz/Q3_Correct.wav","32","","","","","","","","","","","","","","","","","","",""
"d3-instructions","134","288324","0.0-75.0","738","806","11","Male","false","false","true","true","""event"",""trial"",""time""
""fullscreenenter"",""5"",""8377""
","
","
","""event"",""trial"",""time""
""fullscreenenter"",""5"",""8377""
","
","","","","","","","","","","","","","","","","","","","","","",""
"d3-animate-choice","135","292333","0.0-76.0-0.0","738","806","11","Male","false","false","true","true","""event"",""trial"",""time""
""fullscreenenter"",""5"",""8377""
","
","
","""event"",""trial"",""time""
""fullscreenenter"",""5"",""8377""
","
","2040.2000000476837","","39","","","3000","1","3676.5","48","images/earth.jpg","images/rocket1","images/rocket2","null","images/rocket1","","1","real","null","","","",""
"d3-animate-choice","136","296139","0.0-76.0-1.0","738","806","11","Male","false","false","true","true","""event"",""trial"",""time""
""fullscreenenter"",""5"",""8377""
","
","
","""event"",""trial"",""time""
""fullscreenenter"",""5"",""8377""
","
","1798.6000001430511","","48","","","3000","1","","","images/purpleplanet.jpg","images/alien4","images/alien3","images/rocket1","images/alien4","images/t.png","2","real","true","2","common","1","2022-02-11 18:04:57.819"
"two-step-fixation","137","297159","0.0-76.0-2.0","738","806","11","Male","false","false","true","true","""event"",""trial"",""time""
""fullscreenenter"",""5"",""8377""
","
","
","""event"",""trial"",""time""
""fullscreenenter"",""5"",""8377""
","
","","images/earth.jpg","","","","","","","","","","","","","","fixation","","","","","",""
"d3-animate-choice","138","300858","0.0-76.0-0.1","738","806","11","Male","false","false","true","true","""event"",""trial"",""time""
""fullscreenenter"",""5"",""8377""
","
","
","""event"",""trial"",""time""
""fullscreenenter"",""5"",""8377""
","
","1679.9000000953674","","48","","","3000","1","","","images/earth.jpg","images/rocket1","images/rocket2","null","images/rocket1","","1","real","null","2","","",""
"d3-animate-choice","139","303777","0.0-76.0-1.1","738","806","11","Male","false","false","true","true","""event"",""trial"",""time""
""fullscreenenter"",""5"",""8377""
","
","
","""event"",""trial"",""time""
""fullscreenenter"",""5"",""8377""
","
","909.9000000953674","","48","","","3000","1","","","images/purpleplanet.jpg","images/alien4","images/alien3","images/rocket1","images/alien4","images/t.png","2","real","true","2","common","1","2022-02-11 18:05:05.457"
"two-step-fixation","140","304788","0.0-76.0-2.1","738","806","11","Male","false","false","true","true","""event"",""trial"",""time""
""fullscreenenter"",""5"",""8377""
","
","
","""event"",""trial"",""time""
""fullscreenenter"",""5"",""8377""
","
","","images/earth.jpg","","","","","","","","","","","","","","fixation","","","","","",""
"d3-animate-choice","141","306891","0.0-76.0-0.2","738","806","11","Male","false","false","true","true","""event"",""trial"",""time""
""fullscreenenter"",""5"",""8377""
","
","
","""event"",""trial"",""time""
""fullscreenenter"",""5"",""8377""
","
","95.5","","49","","","3000","1","","","images/earth.jpg","images/rocket1","images/rocket2","null","images/rocket2","","1","real","null","1","","",""
"d3-animate-choice","142","309599","0.0-76.0-1.2","738","806","11","Male","false","false","true","true","""event"",""trial"",""time""
""fullscreenenter"",""5"",""8377""
","
","
","""event"",""trial"",""time""
""fullscreenenter"",""5"",""8377""
","
","699.5999999046326","","48","","","3000","1","","","images/purpleplanet.jpg","images/alien4","images/alien3","images/rocket2","images/alien4","images/t.png","2","real","false","2","rare","1","2022-02-11 18:05:11.279"
"two-step-fixation","143","310609","0.0-76.0-2.2","738","806","11","Male","false","false","true","true","""event"",""trial"",""time""
""fullscreenenter"",""5"",""8377""
","
","
","""event"",""trial"",""time""
""fullscreenenter"",""5"",""8377""
","
","","images/earth.jpg","","","","","","","","","","","","","","fixation","","","","","",""
"d3-animate-choice","144","313177","0.0-76.0-0.3","738","806","11","Male","false","false","true","true","""event"",""trial"",""time""
""fullscreenenter"",""5"",""8377""
","
","
","""event"",""trial"",""time""
""fullscreenenter"",""5"",""8377""
","
","555.1999998092651","","49","","","3000","1","","","images/earth.jpg","images/rocket1","images/rocket2","null","images/rocket2","","1","real","null","1","","",""
"d3-animate-choice","145","316198","0.0-76.0-1.3","738","806","11","Male","false","false","true","true","""event"",""trial"",""time""
""fullscreenenter"",""5"",""8377""
","
","
","""event"",""trial"",""time""
""fullscreenenter"",""5"",""8377""
","
","1006.2000000476837","","49","","","3000","1","","","images/redplanet1.jpg","images/alien2","images/alien1","images/rocket2","images/alien1","images/nothing.png","2","real","true","1","common","0","2022-02-11 18:05:17.878"
"two-step-fixation","146","317208","0.0-76.0-2.3","738","806","11","Male","false","false","true","true","""event"",""trial"",""time""
""fullscreenenter"",""5"",""8377""
","
","
","""event"",""trial"",""time""
""fullscreenenter"",""5"",""8377""
","
","","images/earth.jpg","","","","","","","","","","","","","","fixation","","","","","",""
"d3-animate-choice","147","319314","0.0-76.0-0.4","738","806","11","Male","false","false","true","true","""event"",""trial"",""time""
""fullscreenenter"",""5"",""8377""
","
","
","""event"",""trial"",""time""
""fullscreenenter"",""5"",""8377""
","
","98.79999995231628","","48","","","3000","1","","","images/earth.jpg","images/rocket1","images/rocket2","null","images/rocket1","","1","real","null","2","","",""
"d3-animate-choice","148","321714","0.0-76.0-1.4","738","806","11","Male","false","false","true","true","""event"",""trial"",""time""
""fullscreenenter"",""5"",""8377""
","
","
","""event"",""trial"",""time""
""fullscreenenter"",""5"",""8377""
","
","385.7000000476837","","48","","","3000","1","","","images/purpleplanet.jpg","images/alien4","images/alien3","images/rocket1","images/alien4","images/t.png","2","real","true","2","common","1","2022-02-11 18:05:23.394"
"two-step-fixation","149","322722","0.0-76.0-2.4","738","806","11","Male","false","false","true","true","""event"",""trial"",""time""
""fullscreenenter"",""5"",""8377""
","
","
","""event"",""trial"",""time""
""fullscreenenter"",""5"",""8377""
","
","","images/earth.jpg","","","","","","","","","","","","","","fixation","","","","","",""
"d3-animate-choice","150","325192","0.0-76.0-0.5","738","806","11","Male","false","false","true","true","""event"",""trial"",""time""
""fullscreenenter"",""5"",""8377""
","
","
","""event"",""trial"",""time""
""fullscreenenter"",""5"",""8377""
","
","455.7000000476837","","48","","","3000","1","","","images/earth.jpg","images/rocket1","images/rocket2","null","images/rocket1","","1","real","null","2","","",""
"d3-animate-choice","151","328200","0.0-76.0-1.5","738","806","11","Male","false","false","true","true","""event"",""trial"",""time""
""fullscreenenter"",""5"",""8377""
","
","
","""event"",""trial"",""time""
""fullscreenenter"",""5"",""8377""
","
","993.4000000953674","","48","","","3000","1","","","images/redplanet1.jpg","images/alien2","images/alien1","images/rocket1","images/alien2","images/t.png","2","real","false","2","rare","1","2022-02-11 18:05:29.880"
"two-step-fixation","152","329209","0.0-76.0-2.5","738","806","11","Male","false","false","true","true","""event"",""trial"",""time""
""fullscreenenter"",""5"",""8377""
","
","
","""event"",""trial"",""time""
""fullscreenenter"",""5"",""8377""
","
","","images/earth.jpg","","","","","","","","","","","","","","fixation","","","","","",""
"d3-animate-choice","153","331585","0.0-76.0-0.6","738","806","11","Male","false","false","true","true","""event"",""trial"",""time""
""fullscreenenter"",""5"",""8377""
","
","
","""event"",""trial"",""time""
""fullscreenenter"",""5"",""8377""
","
","366","","49","","","3000","1","","","images/earth.jpg","images/rocket1","images/rocket2","null","images/rocket2","","1","real","null","1","","",""
"d3-animate-choice","154","334476","0.0-76.0-1.6","738","806","11","Male","false","false","true","true","""event"",""trial"",""time""
""fullscreenenter"",""5"",""8377""
","
","
","""event"",""trial"",""time""
""fullscreenenter"",""5"",""8377""
","
","880.1000001430511","","48","","","3000","1","","","images/purpleplanet.jpg","images/alien4","images/alien3","images/rocket2","images/alien4","images/t.png","2","real","false","2","rare","1","2022-02-11 18:05:36.156"
"two-step-fixation","155","335484","0.0-76.0-2.6","738","806","11","Male","false","false","true","true","""event"",""trial"",""time""
""fullscreenenter"",""5"",""8377""
","
","
","""event"",""trial"",""time""
""fullscreenenter"",""5"",""8377""
","
","","images/earth.jpg","","","","","","","","","","","","","","fixation","","","","","",""
"d3-animate-choice","156","337862","0.0-76.0-0.7","738","806","11","Male","false","false","true","true","""event"",""trial"",""time""
""fullscreenenter"",""5"",""8377""
","
","
","""event"",""trial"",""time""
""fullscreenenter"",""5"",""8377""
","
","373","","49","","","3000","1","705.2999999523163,1605","49,49","images/earth.jpg","images/rocket1","images/rocket2","null","images/rocket2","","1","real","null","1","","",""
"d3-animate-choice","157","341027","0.0-76.0-1.7","738","806","11","Male","false","false","true","true","""event"",""trial"",""time""
""fullscreenenter"",""5"",""8377""
","
","
","""event"",""trial"",""time""
""fullscreenenter"",""5"",""8377""
","
","1152.5999999046326","","49","","","3000","1","","","images/purpleplanet.jpg","images/alien4","images/alien3","images/rocket2","images/alien3","images/t.png","2","real","false","1","rare","1","2022-02-11 18:05:42.708"
"two-step-fixation","158","342044","0.0-76.0-2.7","738","806","11","Male","false","false","true","true","""event"",""trial"",""time""
""fullscreenenter"",""5"",""8377""
","
","
","""event"",""trial"",""time""
""fullscreenenter"",""5"",""8377""
","
","","images/earth.jpg","","","","","","","","","","","","","","fixation","","","","","",""
"d3-animate-choice","159","344370","0.0-76.0-0.8","738","806","11","Male","false","false","true","true","""event"",""trial"",""time""
""fullscreenenter"",""5"",""8377""
","
","
","""event"",""trial"",""time""
""fullscreenenter"",""5"",""8377""
","
","308.09999990463257","","48","","","3000","1","","","images/earth.jpg","images/rocket1","images/rocket2","null","images/rocket1","","1","real","null","2","","",""
"d3-animate-choice","160","348079","0.0-76.0-1.8","738","806","11","Male","false","false","true","true","""event"",""trial"",""time""
""fullscreenenter"",""5"",""8377""
","
","
","""event"",""trial"",""time""
""fullscreenenter"",""5"",""8377""
","
","1695.2000000476837","","48","","","3000","1","","","images/purpleplanet.jpg","images/alien4","images/alien3","images/rocket1","images/alien4","images/t.png","2","real","true","2","common","1","2022-02-11 18:05:49.759"
"two-step-fixation","161","349093","0.0-76.0-2.8","738","806","11","Male","false","false","true","true","""event"",""trial"",""time""
""fullscreenenter"",""5"",""8377""
","
","
","""event"",""trial"",""time""
""fullscreenenter"",""5"",""8377""
","
","","images/earth.jpg","","","","","","","","","","","","","","fixation","","","","","",""
"d3-animate-choice","162","351479","0.0-76.0-0.9","738","806","11","Male","false","false","true","true","""event"",""trial"",""time""
""fullscreenenter"",""5"",""8377""
","
","
","""event"",""trial"",""time""
""fullscreenenter"",""5"",""8377""
","
","377.59999990463257","","49","","","3000","1","","","images/earth.jpg","images/rocket1","images/rocket2","null","images/rocket2","","1","real","null","1","","",""
"d3-animate-choice","163","354244","0.0-76.0-1.9","738","806","11","Male","false","false","true","true","""event"",""trial"",""time""
""fullscreenenter"",""5"",""8377""
","
","
","""event"",""trial"",""time""
""fullscreenenter"",""5"",""8377""
","
","756.0999999046326","","48","","","3000","1","","","images/redplanet1.jpg","images/alien2","images/alien1","images/rocket2","images/alien2","images/t.png","2","real","true","2","common","1","2022-02-11 18:05:55.924"
"two-step-fixation","164","355249","0.0-76.0-2.9","738","806","11","Male","false","false","true","true","""event"",""trial"",""time""
""fullscreenenter"",""5"",""8377""
","
","
","""event"",""trial"",""time""
""fullscreenenter"",""5"",""8377""
","
","","images/earth.jpg","","","","","","","","","","","","","","fixation","","","","","",""
"d3-animate-choice","165","357410","0.0-76.0-0.10","738","806","11","Male","false","false","true","true","""event"",""trial"",""time""
""fullscreenenter"",""5"",""8377""
","
","
","""event"",""trial"",""time""
""fullscreenenter"",""5"",""8377""
","
","150.90000009536743","","49","","","3000","1","","","images/earth.jpg","images/rocket1","images/rocket2","null","images/rocket2","","1","real","null","1","","",""
"d3-animate-choice","166","360705","0.0-76.0-1.10","738","806","11","Male","false","false","true","true","""event"",""trial"",""time""
""fullscreenenter"",""5"",""8377""
","
","
","""event"",""trial"",""time""
""fullscreenenter"",""5"",""8377""
","
","1285","","48","","","3000","1","","","images/redplanet1.jpg","images/alien2","images/alien1","images/rocket2","images/alien2","images/t.png","2","real","true","2","common","1","2022-02-11 18:06:02.385"
"two-step-fixation","167","361716","0.0-76.0-2.10","738","806","11","Male","false","false","true","true","""event"",""trial"",""time""
""fullscreenenter"",""5"",""8377""
","
","
","""event"",""trial"",""time""
""fullscreenenter"",""5"",""8377""
","
","","images/earth.jpg","","","","","","","","","","","","","","fixation","","","","","",""
"d3-animate-choice","168","364466","0.0-76.0-0.11","738","806","11","Male","false","false","true","true","""event"",""trial"",""time""
""fullscreenenter"",""5"",""8377""
","
","
","""event"",""trial"",""time""
""fullscreenenter"",""5"",""8377""
","
","735.5999999046326","","49","","","3000","1","","","images/earth.jpg","images/rocket1","images/rocket2","null","images/rocket2","","1","real","null","1","","",""
"d3-animate-choice","169","367806","0.0-76.0-1.11","738","806","11","Male","false","false","true","true","""event"",""trial"",""time""
""fullscreenenter"",""5"",""8377""
","
","
","""event"",""trial"",""time""
""fullscreenenter"",""5"",""8377""
","
","1332.0999999046326","","48","","","3000","1","","","images/redplanet1.jpg","images/alien2","images/alien1","images/rocket2","images/alien2","images/t.png","2","real","true","2","common","1","2022-02-11 18:06:09.487"
"two-step-fixation","170","368821","0.0-76.0-2.11","738","806","11","Male","false","false","true","true","""event"",""trial"",""time""
""fullscreenenter"",""5"",""8377""
","
","
","""event"",""trial"",""time""
""fullscreenenter"",""5"",""8377""
","
","","images/earth.jpg","","","","","","","","","","","","","","fixation","","","","","",""
"d3-animate-choice","171","371278","0.0-76.0-0.12","738","806","11","Male","false","false","true","true","""event"",""trial"",""time""
""fullscreenenter"",""5"",""8377""
","
","
","""event"",""trial"",""time""
""fullscreenenter"",""5"",""8377""
","
","441.90000009536743","","48","","","3000","1","","","images/earth.jpg","images/rocket1","images/rocket2","null","images/rocket1","","1","real","null","2","","",""
"d3-animate-choice","172","373975","0.0-76.0-1.12","738","806","11","Male","false","false","true","true","""event"",""trial"",""time""
""fullscreenenter"",""5"",""8377""
","
","
","""event"",""trial"",""time""
""fullscreenenter"",""5"",""8377""
","
","685","","48","","","3000","1","","","images/redplanet1.jpg","images/alien2","images/alien1","images/rocket1","images/alien2","images/nothing.png","2","real","false","2","rare","0","2022-02-11 18:06:15.655"
"two-step-fixation","173","374982","0.0-76.0-2.12","738","806","11","Male","false","false","true","true","""event"",""trial"",""time""
""fullscreenenter"",""5"",""8377""
","
","
","""event"",""trial"",""time""
""fullscreenenter"",""5"",""8377""
","
","","images/earth.jpg","","","","","","","","","","","","","","fixation","","","","","",""
"d3-animate-choice","174","377232","0.0-76.0-0.13","738","806","11","Male","false","false","true","true","""event"",""trial"",""time""
""fullscreenenter"",""5"",""8377""
","
","
","""event"",""trial"",""time""
""fullscreenenter"",""5"",""8377""
","
","240.29999995231628","","48","","","3000","1","","","images/earth.jpg","images/rocket1","images/rocket2","null","images/rocket1","","1","real","null","2","","",""
"d3-animate-choice","175","379851","0.0-76.0-1.13","738","806","11","Male","false","false","true","true","""event"",""trial"",""time""
""fullscreenenter"",""5"",""8377""
","
","
","""event"",""trial"",""time""
""fullscreenenter"",""5"",""8377""
","
","607.2999999523163","","48","","","3000","1","","","images/purpleplanet.jpg","images/alien4","images/alien3","images/rocket1","images/alien4","images/t.png","2","real","true","2","common","1","2022-02-11 18:06:21.532"
"two-step-fixation","176","380859","0.0-76.0-2.13","738","806","11","Male","false","false","true","true","""event"",""trial"",""time""
""fullscreenenter"",""5"",""8377""
","
","
","""event"",""trial"",""time""
""fullscreenenter"",""5"",""8377""
","
","","images/earth.jpg","","","","","","","","","","","","","","fixation","","","","","",""
"d3-animate-choice","177","383731","0.0-76.0-0.14","738","806","11","Male","false","false","true","true","""event"",""trial"",""time""
""fullscreenenter"",""5"",""8377""
","
","
","""event"",""trial"",""time""
""fullscreenenter"",""5"",""8377""
","
","863","","48","","","3000","1","","","images/earth.jpg","images/rocket1","images/rocket2","null","images/rocket1","","1","real","null","2","","",""
"d3-animate-choice","178","387074","0.0-76.0-1.14","738","806","11","Male","false","false","true","true","""event"",""trial"",""time""
""fullscreenenter"",""5"",""8377""
","
","
","""event"",""trial"",""time""
""fullscreenenter"",""5"",""8377""
","
","1331.1000001430511","","49","","","3000","1","","","images/purpleplanet.jpg","images/alien4","images/alien3","images/rocket1","images/alien3","images/t.png","2","real","true","1","common","1","2022-02-11 18:06:28.754"
"two-step-fixation","179","388081","0.0-76.0-2.14","738","806","11","Male","false","false","true","true","""event"",""trial"",""time""
""fullscreenenter"",""5"",""8377""
","
","
","""event"",""trial"",""time""
""fullscreenenter"",""5"",""8377""
","
","","images/earth.jpg","","","","","","","","","","","","","","fixation","","","","","",""
"d3-animate-choice","180","390512","0.0-76.0-0.15","738","806","11","Male","false","false","true","true","""event"",""trial"",""time""
""fullscreenenter"",""5"",""8377""
","
","
","""event"",""trial"",""time""
""fullscreenenter"",""5"",""8377""
","
","427.5","","49","","","3000","1","467.40000009536743","48","images/earth.jpg","images/rocket1","images/rocket2","null","images/rocket2","","1","real","null","1","","",""
"d3-animate-choice","181","392884","0.0-76.0-1.15","738","806","11","Male","false","false","true","true","""event"",""trial"",""time""
""fullscreenenter"",""5"",""8377""
","
","
","""event"",""trial"",""time""
""fullscreenenter"",""5"",""8377""
","
","357.59999990463257","","49","","","3000","1","390.59999990463257","48","images/redplanet1.jpg","images/alien2","images/alien1","images/rocket2","images/alien1","images/t.png","2","real","true","1","common","1","2022-02-11 18:06:34.564"
"two-step-fixation","182","393895","0.0-76.0-2.15","738","806","11","Male","false","false","true","true","""event"",""trial"",""time""
""fullscreenenter"",""5"",""8377""
","
","
","""event"",""trial"",""time""
""fullscreenenter"",""5"",""8377""
","
","","images/earth.jpg","","","","","","","","","","","","","","fixation","","","","","",""
"d3-animate-choice","183","396400","0.0-76.0-0.16","738","806","11","Male","false","false","true","true","""event"",""trial"",""time""
""fullscreenenter"",""5"",""8377""
","
","
","""event"",""trial"",""time""
""fullscreenenter"",""5"",""8377""
","
","493.30000019073486","","49","","","3000","1","519.2000000476837","48","images/earth.jpg","images/rocket1","images/rocket2","null","images/rocket2","","1","real","null","1","","",""
"d3-animate-choice","184","400413","0.0-76.0-1.16","738","806","11","Male","false","false","true","true","""event"",""trial"",""time""
""fullscreenenter"",""5"",""8377""
","
","
","""event"",""trial"",""time""
""fullscreenenter"",""5"",""8377""
","
","2551.4000000953674","","49","","","3000","1","2578.2000000476837","48","images/redplanet1.jpg","images/alien2","images/alien1","images/rocket2","images/alien1","images/t.png","2","real","true","1","common","1","2022-02-11 18:06:42.093"
"two-step-fixation","185","401424","0.0-76.0-2.16","738","806","11","Male","false","false","true","true","""event"",""trial"",""time""
""fullscreenenter"",""5"",""8377""
","
","
","""event"",""trial"",""time""
""fullscreenenter"",""5"",""8377""
","
","","images/earth.jpg","","","","","","","","","","","","","","fixation","","","","","",""
"d3-animate-choice","186","404670","0.0-76.0-0.17","738","806","11","Male","false","false","true","true","""event"",""trial"",""time""
""fullscreenenter"",""5"",""8377""
","
","
","""event"",""trial"",""time""
""fullscreenenter"",""5"",""8377""
","
","1236.1999998092651","","48","","","3000","1","","","images/earth.jpg","images/rocket1","images/rocket2","null","images/rocket1","","1","real","null","2","","",""
"d3-animate-choice","187","407376","0.0-76.0-1.17","738","806","11","Male","false","false","true","true","""event"",""trial"",""time""
""fullscreenenter"",""5"",""8377""
","
","
","""event"",""trial"",""time""
""fullscreenenter"",""5"",""8377""
","
","691.1999998092651","","49","","","3000","1","","","images/purpleplanet.jpg","images/alien4","images/alien3","images/rocket1","images/alien3","images/nothing.png","2","real","true","1","common","0","2022-02-11 18:06:49.056"
"two-step-fixation","188","408383","0.0-76.0-2.17","738","806","11","Male","false","false","true","true","""event"",""trial"",""time""
""fullscreenenter"",""5"",""8377""
","
","
","""event"",""trial"",""time""
""fullscreenenter"",""5"",""8377""
","
","","images/earth.jpg","","","","","","","","","","","","","","fixation","","","","","",""
"d3-animate-choice","189","411060","0.0-76.0-0.18","738","806","11","Male","false","false","true","true","""event"",""trial"",""time""
""fullscreenenter"",""5"",""8377""
","
","
","""event"",""trial"",""time""
""fullscreenenter"",""5"",""8377""
","
","666.5999999046326","","49","","","3000","1","680","48","images/earth.jpg","images/rocket1","images/rocket2","null","images/rocket2","","1","real","null","1","","",""
"d3-animate-choice","190","413779","0.0-76.0-1.18","738","806","11","Male","false","false","true","true","""event"",""trial"",""time""
""fullscreenenter"",""5"",""8377""
","
","
","""event"",""trial"",""time""
""fullscreenenter"",""5"",""8377""
","
","703.7999999523163","","49","","","3000","1","737.2000000476837","48","images/purpleplanet.jpg","images/alien4","images/alien3","images/rocket2","images/alien3","images/t.png","2","real","false","1","rare","1","2022-02-11 18:06:55.459"
"two-step-fixation","191","414787","0.0-76.0-2.18","738","806","11","Male","false","false","true","true","""event"",""trial"",""time""
""fullscreenenter"",""5"",""8377""
","
","
","""event"",""trial"",""time""
""fullscreenenter"",""5"",""8377""
","
","","images/earth.jpg","","","","","","","","","","","","","","fixation","","","","","",""
"d3-animate-choice","192","417397","0.0-76.0-0.19","738","806","11","Male","false","false","true","true","""event"",""trial"",""time""
""fullscreenenter"",""5"",""8377""
","
","
","""event"",""trial"",""time""
""fullscreenenter"",""5"",""8377""
","
","594.7000000476837","","49","","","3000","1","604.8000001907349","48","images/earth.jpg","images/rocket1","images/rocket2","null","images/rocket2","","1","real","null","1","","",""
"d3-animate-choice","193","420061","0.0-76.0-1.19","738","806","11","Male","false","false","true","true","""event"",""trial"",""time""
""fullscreenenter"",""5"",""8377""
","
","
","""event"",""trial"",""time""
""fullscreenenter"",""5"",""8377""
","
","649","","49","","","3000","1","659.1000001430511","48","images/purpleplanet.jpg","images/alien4","images/alien3","images/rocket2","images/alien3","images/t.png","2","real","false","1","rare","1","2022-02-11 18:07:01.742"
"two-step-fixation","194","421073","0.0-76.0-2.19","738","806","11","Male","false","false","true","true","""event"",""trial"",""time""
""fullscreenenter"",""5"",""8377""
","
","
","""event"",""trial"",""time""
""fullscreenenter"",""5"",""8377""
","
","","images/earth.jpg","","","","","","","","","","","","","","fixation","","","","","",""
"d3-animate-choice","195","423557","0.0-76.0-0.20","738","806","11","Male","false","false","true","true","""event"",""trial"",""time""
""fullscreenenter"",""5"",""8377""
","
","
","""event"",""trial"",""time""
""fullscreenenter"",""5"",""8377""
","
","472.59999990463257","","49","","","3000","1","496.89999985694885","48","images/earth.jpg","images/rocket1","images/rocket2","null","images/rocket2","","1","real","null","1","","",""
"d3-animate-choice","196","426045","0.0-76.0-1.20","738","806","11","Male","false","false","true","true","""event"",""trial"",""time""
""fullscreenenter"",""5"",""8377""
","
","
","""event"",""trial"",""time""
""fullscreenenter"",""5"",""8377""
","
","472.2999999523163","","49","","","3000","1","487.2999999523163","48","images/redplanet1.jpg","images/alien2","images/alien1","images/rocket2","images/alien1","images/t.png","2","real","true","1","common","1","2022-02-11 18:07:07.726"
"two-step-fixation","197","427055","0.0-76.0-2.20","738","806","11","Male","false","false","true","true","""event"",""trial"",""time""
""fullscreenenter"",""5"",""8377""
","
","
","""event"",""trial"",""time""
""fullscreenenter"",""5"",""8377""
","
","","images/earth.jpg","","","","","","","","","","","","","","fixation","","","","","",""
"d3-animate-choice","198","429357","0.0-76.0-0.21","738","806","11","Male","false","false","true","true","""event"",""trial"",""time""
""fullscreenenter"",""5"",""8377""
","
","
","""event"",""trial"",""time""
""fullscreenenter"",""5"",""8377""
","
","298.7999999523163","","49","","","3000","1","313.89999985694885","48","images/earth.jpg","images/rocket1","images/rocket2","null","images/rocket2","","1","real","null","1","","",""
"d3-animate-choice","199","431856","0.0-76.0-1.21","738","806","11","Male","false","false","true","true","""event"",""trial"",""time""
""fullscreenenter"",""5"",""8377""
","
","
","""event"",""trial"",""time""
""fullscreenenter"",""5"",""8377""
","
","489.39999985694885","","49","","","3000","1","498.7999999523163","48","images/purpleplanet.jpg","images/alien4","images/alien3","images/rocket2","images/alien3","images/t.png","2","real","false","1","rare","1","2022-02-11 18:07:13.536"
"two-step-fixation","200","432865","0.0-76.0-2.21","738","806","11","Male","false","false","true","true","""event"",""trial"",""time""
""fullscreenenter"",""5"",""8377""
","
","
","""event"",""trial"",""time""
""fullscreenenter"",""5"",""8377""
","
","","images/earth.jpg","","","","","","","","","","","","","","fixation","","","","","",""
"d3-animate-choice","201","435209","0.0-76.0-0.22","738","806","11","Male","false","false","true","true","""event"",""trial"",""time""
""fullscreenenter"",""5"",""8377""
","
","
","""event"",""trial"",""time""
""fullscreenenter"",""5"",""8377""
","
","331.59999990463257","","49","","","3000","1","341.39999985694885","48","images/earth.jpg","images/rocket1","images/rocket2","null","images/rocket2","","1","real","null","1","","",""
"d3-animate-choice","202","437588","0.0-76.0-1.22","738","806","11","Male","false","false","true","true","""event"",""trial"",""time""
""fullscreenenter"",""5"",""8377""
","
","
","""event"",""trial"",""time""
""fullscreenenter"",""5"",""8377""
","
","367","","49","","","3000","1","391.7000000476837","48","images/purpleplanet.jpg","images/alien4","images/alien3","images/rocket2","images/alien3","images/nothing.png","2","real","false","1","rare","0","2022-02-11 18:07:19.268"
"two-step-fixation","203","438595","0.0-76.0-2.22","738","806","11","Male","false","false","true","true","""event"",""trial"",""time""
""fullscreenenter"",""5"",""8377""
","
","
","""event"",""trial"",""time""
""fullscreenenter"",""5"",""8377""
","
","","images/earth.jpg","","","","","","","","","","","","","","fixation","","","","","",""
"d3-animate-choice","204","441384","0.0-76.0-0.23","738","806","11","Male","false","false","true","true","""event"",""trial"",""time""
""fullscreenenter"",""5"",""8377""
","
","
","""event"",""trial"",""time""
""fullscreenenter"",""5"",""8377""
","
","783.9000000953674","","49","","","3000","1","802.2999999523163","48","images/earth.jpg","images/rocket1","images/rocket2","null","images/rocket2","","1","real","null","1","","",""
"d3-animate-choice","205","444597","0.0-76.0-1.23","738","806","11","Male","false","false","true","true","""event"",""trial"",""time""
""fullscreenenter"",""5"",""8377""
","
","
","""event"",""trial"",""time""
""fullscreenenter"",""5"",""8377""
","
","1202.5","","49","","","3000","1","1223.4000000953674","48","images/purpleplanet.jpg","images/alien4","images/alien3","images/rocket2","images/alien3","images/nothing.png","2","real","false","1","rare","0","2022-02-11 18:07:26.277"
"two-step-fixation","206","445609","0.0-76.0-2.23","738","806","11","Male","false","false","true","true","""event"",""trial"",""time""
""fullscreenenter"",""5"",""8377""
","
","
","""event"",""trial"",""time""
""fullscreenenter"",""5"",""8377""
","
","","images/earth.jpg","","","","","","","","","","","","","","fixation","","","","","",""
"d3-animate-choice","207","448437","0.0-76.0-0.24","738","806","11","Male","false","false","true","true","""event"",""trial"",""time""
""fullscreenenter"",""5"",""8377""
","
","
","""event"",""trial"",""time""
""fullscreenenter"",""5"",""8377""
","
","819.8999998569489","","49","","","3000","1","856.3999998569489","48","images/earth.jpg","images/rocket1","images/rocket2","null","images/rocket2","","1","real","null","1","","",""
"d3-animate-choice","208","450860","0.0-76.0-1.24","738","806","11","Male","false","false","true","true","""event"",""trial"",""time""
""fullscreenenter"",""5"",""8377""
","
","
","""event"",""trial"",""time""
""fullscreenenter"",""5"",""8377""
","
","416.7000000476837","","48","","","3000","1","","","images/redplanet1.jpg","images/alien2","images/alien1","images/rocket2","images/alien2","images/t.png","2","real","true","2","common","1","2022-02-11 18:07:32.540"
"two-step-fixation","209","451869","0.0-76.0-2.24","738","806","11","Male","false","false","true","true","""event"",""trial"",""time""
""fullscreenenter"",""5"",""8377""
","
","
","""event"",""trial"",""time""
""fullscreenenter"",""5"",""8377""
","
","","images/earth.jpg","","","","","","","","","","","","","","fixation","","","","","",""
"d3-animate-choice","210","454370","0.0-76.0-0.25","738","806","11","Male","false","false","true","true","""event"",""trial"",""time""
""fullscreenenter"",""5"",""8377""
","
","
","""event"",""trial"",""time""
""fullscreenenter"",""5"",""8377""
","
","495.09999990463257","","48","","","3000","1","","","images/earth.jpg","images/rocket1","images/rocket2","null","images/rocket1","","1","real","null","2","","",""
"d3-animate-choice","211","457095","0.0-76.0-1.25","738","806","11","Male","false","false","true","true","""event"",""trial"",""time""
""fullscreenenter"",""5"",""8377""
","
","
","""event"",""trial"",""time""
""fullscreenenter"",""5"",""8377""
","
","708.6999998092651","","49","","","3000","1","782.8999998569489","48","images/purpleplanet.jpg","images/alien4","images/alien3","images/rocket1","images/alien3","images/nothing.png","2","real","true","1","common","0","2022-02-11 18:07:38.775"
"two-step-fixation","212","458102","0.0-76.0-2.25","738","806","11","Male","false","false","true","true","""event"",""trial"",""time""
""fullscreenenter"",""5"",""8377""
","
","
","""event"",""trial"",""time""
""fullscreenenter"",""5"",""8377""
","
","","images/earth.jpg","","","","","","","","","","","","","","fixation","","","","","",""
"d3-animate-choice","213","460888","0.0-76.0-0.26","738","806","11","Male","false","false","true","true","""event"",""trial"",""time""
""fullscreenenter"",""5"",""8377""
","
","
","""event"",""trial"",""time""
""fullscreenenter"",""5"",""8377""
","
","774.8999998569489","","48","","","3000","1","792.6999998092651,2491.5999999046326,2516.5","49,48,49","images/earth.jpg","images/rocket1","images/rocket2","null","images/rocket1","","1","real","null","2","","",""
"d3-animate-choice","214","463558","0.0-76.0-1.26","738","806","11","Male","false","false","true","true","""event"",""trial"",""time""
""fullscreenenter"",""5"",""8377""
","
","
","""event"",""trial"",""time""
""fullscreenenter"",""5"",""8377""
","
","654","","48","","","3000","1","683.2999999523163","49","images/purpleplanet.jpg","images/alien4","images/alien3","images/rocket1","images/alien4","images/t.png","2","real","true","2","common","1","2022-02-11 18:07:45.238"
"two-step-fixation","215","464562","0.0-76.0-2.26","738","806","11","Male","false","false","true","true","""event"",""trial"",""time""
""fullscreenenter"",""5"",""8377""
","
","
","""event"",""trial"",""time""
""fullscreenenter"",""5"",""8377""
","
","","images/earth.jpg","","","","","","","","","","","","","","fixation","","","","","",""
"d3-animate-choice","216","467178","0.0-76.0-0.27","738","806","11","Male","false","false","true","true","""event"",""trial"",""time""
""fullscreenenter"",""5"",""8377""
","
","
","""event"",""trial"",""time""
""fullscreenenter"",""5"",""8377""
","
","608","","48","","","3000","1","661.2000000476837","49","images/earth.jpg","images/rocket1","images/rocket2","null","images/rocket1","","1","real","null","2","","",""
"d3-animate-choice","217","469561","0.0-76.0-1.27","738","806","11","Male","false","false","true","true","""event"",""trial"",""time""
""fullscreenenter"",""5"",""8377""
","
","
","""event"",""trial"",""time""
""fullscreenenter"",""5"",""8377""
","
","367.7999999523163","","48","","","3000","1","463.2000000476837","49","images/purpleplanet.jpg","images/alien4","images/alien3","images/rocket1","images/alien4","images/nothing.png","2","real","true","2","common","0","2022-02-11 18:07:51.241"
"two-step-fixation","218","470571","0.0-76.0-2.27","738","806","11","Male","false","false","true","true","""event"",""trial"",""time""
""fullscreenenter"",""5"",""8377""
","
","
","""event"",""trial"",""time""
""fullscreenenter"",""5"",""8377""
","
","","images/earth.jpg","","","","","","","","","","","","","","fixation","","","","","",""
"d3-animate-choice","219","472705","0.0-76.0-0.28","738","806","11","Male","false","false","true","true","""event"",""trial"",""time""
""fullscreenenter"",""5"",""8377""
","
","
","""event"",""trial"",""time""
""fullscreenenter"",""5"",""8377""
","
","122.90000009536743","","49","","","3000","1","","","images/earth.jpg","images/rocket1","images/rocket2","null","images/rocket2","","1","real","null","1","","",""
"d3-animate-choice","220","475517","0.0-76.0-1.28","738","806","11","Male","false","false","true","true","""event"",""trial"",""time""
""fullscreenenter"",""5"",""8377""
","
","
","""event"",""trial"",""time""
""fullscreenenter"",""5"",""8377""
","
","801.2000000476837","","49","","","3000","1","","","images/redplanet1.jpg","images/alien2","images/alien1","images/rocket2","images/alien1","images/t.png","2","real","true","1","common","1","2022-02-11 18:07:57.197"
"two-step-fixation","221","476523","0.0-76.0-2.28","738","806","11","Male","false","false","true","true","""event"",""trial"",""time""
""fullscreenenter"",""5"",""8377""
","
","
","""event"",""trial"",""time""
""fullscreenenter"",""5"",""8377""
","
","","images/earth.jpg","","","","","","","","","","","","","","fixation","","","","","",""
"d3-animate-choice","222","478869","0.0-76.0-0.29","738","806","11","Male","false","false","true","true","""event"",""trial"",""time""
""fullscreenenter"",""5"",""8377""
","
","
","""event"",""trial"",""time""
""fullscreenenter"",""5"",""8377""
","
","336.7999999523163","","48","","","3000","1","","","images/earth.jpg","images/rocket1","images/rocket2","null","images/rocket1","","1","real","null","2","","",""
"d3-animate-choice","223","482562","0.0-76.0-1.29","738","806","11","Male","false","false","true","true","""event"",""trial"",""time""
""fullscreenenter"",""5"",""8377""
","
","
","""event"",""trial"",""time""
""fullscreenenter"",""5"",""8377""
","
","1675.2000000476837","","49","","","3000","1","","","images/purpleplanet.jpg","images/alien4","images/alien3","images/rocket1","images/alien3","images/nothing.png","2","real","true","1","common","0","2022-02-11 18:08:04.242"
"two-step-fixation","224","483573","0.0-76.0-2.29","738","806","11","Male","false","false","true","true","""event"",""trial"",""time""
""fullscreenenter"",""5"",""8377""
","
","
","""event"",""trial"",""time""
""fullscreenenter"",""5"",""8377""
","
","","images/earth.jpg","","","","","","","","","","","","","","fixation","","","","","",""
"d3-animate-choice","225","485769","0.0-76.0-0.30","738","806","11","Male","false","false","true","true","""event"",""trial"",""time""
""fullscreenenter"",""5"",""8377""
","
","
","""event"",""trial"",""time""
""fullscreenenter"",""5"",""8377""
","
","181.70000004768372","","48","","","3000","1","","","images/earth.jpg","images/rocket1","images/rocket2","null","images/rocket1","","1","real","null","2","","",""
"d3-animate-choice","226","489128","0.0-76.0-1.30","738","806","11","Male","false","false","true","true","""event"",""trial"",""time""
""fullscreenenter"",""5"",""8377""
","
","
","""event"",""trial"",""time""
""fullscreenenter"",""5"",""8377""
","
","1343.5999999046326","","48","","","3000","1","","","images/purpleplanet.jpg","images/alien4","images/alien3","images/rocket1","images/alien4","images/nothing.png","2","real","true","2","common","0","2022-02-11 18:08:10.808"
"two-step-fixation","227","490140","0.0-76.0-2.30","738","806","11","Male","false","false","true","true","""event"",""trial"",""time""
""fullscreenenter"",""5"",""8377""
","
","
","""event"",""trial"",""time""
""fullscreenenter"",""5"",""8377""
","
","","images/earth.jpg","","","","","","","","","","","","","","fixation","","","","","",""
"d3-animate-choice","228","492290","0.0-76.0-0.31","738","806","11","Male","false","false","true","true","""event"",""trial"",""time""
""fullscreenenter"",""5"",""8377""
","
","
","""event"",""trial"",""time""
""fullscreenenter"",""5"",""8377""
","
","143","","49","","","3000","1","","","images/earth.jpg","images/rocket1","images/rocket2","null","images/rocket2","","1","real","null","1","","",""
"d3-animate-choice","229","495117","0.0-76.0-1.31","738","806","11","Male","false","false","true","true","""event"",""trial"",""time""
""fullscreenenter"",""5"",""8377""
","
","
","""event"",""trial"",""time""
""fullscreenenter"",""5"",""8377""
","
","822.2000000476837","","49","","","3000","1","","","images/purpleplanet.jpg","images/alien4","images/alien3","images/rocket2","images/alien3","images/t.png","2","real","false","1","rare","1","2022-02-11 18:08:16.797"
"two-step-fixation","230","496126","0.0-76.0-2.31","738","806","11","Male","false","false","true","true","""event"",""trial"",""time""
""fullscreenenter"",""5"",""8377""
","
","
","""event"",""trial"",""time""
""fullscreenenter"",""5"",""8377""
","
","","images/earth.jpg","","","","","","","","","","","","","","fixation","","","","","",""
"d3-animate-choice","231","498474","0.0-76.0-0.32","738","806","11","Male","false","false","true","true","""event"",""trial"",""time""
""fullscreenenter"",""5"",""8377""
","
","
","""event"",""trial"",""time""
""fullscreenenter"",""5"",""8377""
","
","340.7999999523163","","48","","","3000","1","","","images/earth.jpg","images/rocket1","images/rocket2","null","images/rocket1","","1","real","null","2","","",""
"d3-animate-choice","232","502280","0.0-76.0-1.32","738","806","11","Male","false","false","true","true","""event"",""trial"",""time""
""fullscreenenter"",""5"",""8377""
","
","
","""event"",""trial"",""time""
""fullscreenenter"",""5"",""8377""
","
","1798.2000000476837","","49","","","3000","1","1884.2999999523163","48","images/purpleplanet.jpg","images/alien4","images/alien3","images/rocket1","images/alien3","images/nothing.png","2","real","true","1","common","0","2022-02-11 18:08:23.960"
"two-step-fixation","233","503288","0.0-76.0-2.32","738","806","11","Male","false","false","true","true","""event"",""trial"",""time""
""fullscreenenter"",""5"",""8377""
","
","
","""event"",""trial"",""time""
""fullscreenenter"",""5"",""8377""
","
","","images/earth.jpg","","","","","","","","","","","","","","fixation","","","","","",""
"d3-animate-choice","234","505891","0.0-76.0-0.33","738","806","11","Male","false","false","true","true","""event"",""trial"",""time""
""fullscreenenter"",""5"",""8377""
","
","
","""event"",""trial"",""time""
""fullscreenenter"",""5"",""8377""
","
","589.2000000476837","","48","","","3000","1","","","images/earth.jpg","images/rocket1","images/rocket2","null","images/rocket1","","1","real","null","2","","",""
"d3-animate-choice","235","509468","0.0-76.0-1.33","738","806","11","Male","false","false","true","true","""event"",""trial"",""time""
""fullscreenenter"",""5"",""8377""
","
","
","""event"",""trial"",""time""
""fullscreenenter"",""5"",""8377""
","
","1566.4000000953674","","48","","","3000","1","","","images/purpleplanet.jpg","images/alien4","images/alien3","images/rocket1","images/alien4","images/t.png","2","real","true","2","common","1","2022-02-11 18:08:31.148"
"two-step-fixation","236","510477","0.0-76.0-2.33","738","806","11","Male","false","false","true","true","""event"",""trial"",""time""
""fullscreenenter"",""5"",""8377""
","
","
","""event"",""trial"",""time""
""fullscreenenter"",""5"",""8377""
","
","","images/earth.jpg","","","","","","","","","","","","","","fixation","","","","","",""
"d3-animate-choice","237","513132","0.0-76.0-0.34","738","806","11","Male","false","false","true","true","""event"",""trial"",""time""
""fullscreenenter"",""5"",""8377""
","
","
","""event"",""trial"",""time""
""fullscreenenter"",""5"",""8377""
","
","648.7999999523163","","49","","","3000","1","","","images/earth.jpg","images/rocket1","images/rocket2","null","images/rocket2","","1","real","null","1","","",""
"d3-animate-choice","238","516694","0.0-76.0-1.34","738","806","11","Male","false","false","true","true","""event"",""trial"",""time""
""fullscreenenter"",""5"",""8377""
","
","
","""event"",""trial"",""time""
""fullscreenenter"",""5"",""8377""
","
","1545.1000001430511","","48","","","3000","1","","","images/redplanet1.jpg","images/alien2","images/alien1","images/rocket2","images/alien2","images/t.png","2","real","true","2","common","1","2022-02-11 18:08:38.374"
"two-step-fixation","239","517704","0.0-76.0-2.34","738","806","11","Male","false","false","true","true","""event"",""trial"",""time""
""fullscreenenter"",""5"",""8377""
","
","
","""event"",""trial"",""time""
""fullscreenenter"",""5"",""8377""
","
","","images/earth.jpg","","","","","","","","","","","","","","fixation","","","","","",""
"d3-animate-choice","240","520615","0.0-76.0-0.35","738","806","11","Male","false","false","true","true","""event"",""trial"",""time""
""fullscreenenter"",""5"",""8377""
","
","
","""event"",""trial"",""time""
""fullscreenenter"",""5"",""8377""
","
","901.5","","49","","","3000","1","","","images/earth.jpg","images/rocket1","images/rocket2","null","images/rocket2","","1","real","null","1","","",""
"d3-animate-choice","241","524127","0.0-76.0-1.35","738","806","11","Male","false","false","true","true","""event"",""trial"",""time""
""fullscreenenter"",""5"",""8377""
","
","
","""event"",""trial"",""time""
""fullscreenenter"",""5"",""8377""
","
