"trial_type","trial_index","time_elapsed","internal_node_id","participant_id","subject_id","age","gender","rocket_sides","red_planet_first_rocket","red_display_order","purple_display_order","interactions","blur_events","focus_events","fullscreenenter_events","fullscreenexit_events","rt","stimulus","key_press","button_pressed","success","duration","valid_pressed","rts","keys","planet_text","right_text","left_text","center_text","chosen_text","reward_text","trial_stage","practice_trial","transition_type","choice","transition","reward","timestamp"
"pavlovia","0","11","0.0-0.0","1601","2083","18","Male","false","false","false","false","
","
","
","
","
","","","","","","","","","","","","","","","","","","","","","",""
"html-keyboard-response","1","1338","0.0-1.0","1601","2083","18","Male","false","false","false","false","
","
","
","
","
","1326","Welcome! Press the space bar to begin.","32","","","","","","","","","","","","","","","","","","",""
"audio-keyboard-response","2","4515","0.0-2.0","1601","2083","18","Male","false","false","false","false","
","
","
","
","
","3181","audio/beep_loop.wav","182","","","","","","","","","","","","","","","","","","",""
"audio-button-response","3","6689","0.0-3.0","1601","2083","18","Male","false","false","false","false","
","
","
","
","
","NaN","audio/fish.mp3","","1","","","","","","","","","","","","","","","","","",""
"audio-button-response","4","9390","0.0-4.0","1601","2083","18","Male","false","false","false","false","""event"",""trial"",""time""
""fullscreenenter"",""5"",""13176""
","
","
","""event"",""trial"",""time""
""fullscreenenter"",""5"",""13176""
","
","NaN","audio/tiger.mp3","","4","","","","","","","","","","","","","","","","","",""
"fullscreen","5","13937","0.0-5.0","1601","2083","18","Male","false","false","false","false","""event"",""trial"",""time""
""fullscreenenter"",""5"",""13176""
","
","
","""event"",""trial"",""time""
""fullscreenenter"",""5"",""13176""
","
","","","","","true","","","","","","","","","","","","","","","","",""
"d3-instructions","6","28269","0.0-6.0","1601","2083","18","Male","false","false","false","false","""event"",""trial"",""time""
""fullscreenenter"",""5"",""13176""
","
","
","""event"",""trial"",""time""
""fullscreenenter"",""5"",""13176""
","
","","","","","","","","","","","","","","","","","","","","","",""
"d3-instructions","7","36656","0.0-7.0","1601","2083","18","Male","false","false","false","false","""event"",""trial"",""time""
""fullscreenenter"",""5"",""13176""
","
","
","""event"",""trial"",""time""
""fullscreenenter"",""5"",""13176""
","
","","","","","","","","","","","","","","","","","","","","","",""
"d3-instructions","8","44098","0.0-8.0","1601","2083","18","Male","false","false","false","false","""event"",""trial"",""time""
""fullscreenenter"",""5"",""13176""
","
","
","""event"",""trial"",""time""
""fullscreenenter"",""5"",""13176""
","
","","","","","","","","","","","","","","","","","","","","","",""
"d3-instructions","9","55704","0.0-9.0","1601","2083","18","Male","false","false","false","false","""event"",""trial"",""time""
""fullscreenenter"",""5"",""13176""
","
","
","""event"",""trial"",""time""
""fullscreenenter"",""5"",""13176""
","
","","","","","","","","","","","","","","","","","","","","","",""
"d3-instructions","10","78751","0.0-10.0","1601","2083","18","Male","false","false","false","false","""event"",""trial"",""time""
""fullscreenenter"",""5"",""13176""
","
","
","""event"",""trial"",""time""
""fullscreenenter"",""5"",""13176""
","
","","","","","","","","","","","","","","","","","","","","","",""
"d3-animate-choice","11","85687","0.0-11.0","1601","2083","18","Male","false","false","false","false","""event"",""trial"",""time""
""fullscreenenter"",""5"",""13176""
","
","
","""event"",""trial"",""time""
""fullscreenenter"",""5"",""13176""
","
","1471","","97","","","3000","1","2527,4917","96,49","images/tutgreenplanet.jpg","images/tutalien1","images/tutalien2","null","images/tutalien2","","NA","practice","null","","","",""
"d3-animate-choice","12","89507","0.0-12.0","1601","2083","18","Male","false","false","false","false","""event"",""trial"",""time""
""fullscreenenter"",""5"",""13176""
","
","
","""event"",""trial"",""time""
""fullscreenenter"",""5"",""13176""
","
","1811","","48","","","3000","1","","","images/tutgreenplanet.jpg","images/tutalien1","images/tutalien2","null","images/tutalien1","","NA","practice","null","","","",""
"d3-animate-choice","13","92488","0.0-13.0","1601","2083","18","Male","false","false","false","false","""event"",""trial"",""time""
""fullscreenenter"",""5"",""13176""
","
","
","""event"",""trial"",""time""
""fullscreenenter"",""5"",""13176""
","
","975","","48","","","3000","1","1926","48","images/tutgreenplanet.jpg","images/tutalien1","images/tutalien2","null","images/tutalien1","","NA","practice","null","","","",""
"d3-animate-choice","14","94898","0.0-14.0","1601","2083","18","Male","false","false","false","false","""event"",""trial"",""time""
""fullscreenenter"",""5"",""13176""
","
","
","""event"",""trial"",""time""
""fullscreenenter"",""5"",""13176""
","
","391","","49","","","3000","1","","","images/tutgreenplanet.jpg","images/tutalien1","images/tutalien2","null","images/tutalien2","","NA","practice","null","","","",""
"d3-instructions","15","101254","0.0-15.0","1601","2083","18","Male","false","false","false","false","""event"",""trial"",""time""
""fullscreenenter"",""5"",""13176""
","
","
","""event"",""trial"",""time""
""fullscreenenter"",""5"",""13176""
","
","","","","","","","","","","","","","","","","","","","","","",""
"d3-instructions","16","104436","0.0-16.0","1601","2083","18","Male","false","false","false","false","""event"",""trial"",""time""
""fullscreenenter"",""5"",""13176""
","
","
","""event"",""trial"",""time""
""fullscreenenter"",""5"",""13176""
","
","","","","","","","","","","","","","","","","","","","","","",""
"d3-instructions","17","112440","0.0-17.0","1601","2083","18","Male","false","false","false","false","""event"",""trial"",""time""
""fullscreenenter"",""5"",""13176""
","
","
","""event"",""trial"",""time""
""fullscreenenter"",""5"",""13176""
","
","","","","","","","","","","","","","","","","","","","","","",""
"d3-instructions","18","119339","0.0-18.0","1601","2083","18","Male","false","false","false","false","""event"",""trial"",""time""
""fullscreenenter"",""5"",""13176""
","
","
","""event"",""trial"",""time""
""fullscreenenter"",""5"",""13176""
","
","","","","","","","","","","","","","","","","","","","","","",""
"d3-instructions","19","130439","0.0-19.0","1601","2083","18","Male","false","false","false","false","""event"",""trial"",""time""
""fullscreenenter"",""5"",""13176""
","
","
","""event"",""trial"",""time""
""fullscreenenter"",""5"",""13176""
","
","","","","","","","","","","","","","","","","","","","","","",""
"d3-animate-choice","20","133407","0.0-20.0","1601","2083","18","Male","false","false","false","false","""event"",""trial"",""time""
""fullscreenenter"",""5"",""13176""
","
","
","""event"",""trial"",""time""
""fullscreenenter"",""5"",""13176""
","
","949","","49","","","3000","1","2440","49","images/tutyellowplanet.jpg","null","images/tutalien3","null","images/tutalien3","images/t.png","NA","practice","null","","","",""
"d3-animate-choice","21","135677","0.0-21.0","1601","2083","18","Male","false","false","false","false","""event"",""trial"",""time""
""fullscreenenter"",""5"",""13176""
","
","
","""event"",""trial"",""time""
""fullscreenenter"",""5"",""13176""
","
","256","","49","","","3000","1","","","images/tutyellowplanet.jpg","null","images/tutalien3","null","images/tutalien3","images/t.png","NA","practice","null","","","",""
"d3-animate-choice","22","137996","0.0-22.0","1601","2083","18","Male","false","false","false","false","""event"",""trial"",""time""
""fullscreenenter"",""5"",""13176""
","
","
","""event"",""trial"",""time""
""fullscreenenter"",""5"",""13176""
","
","306","","49","","","3000","1","","","images/tutyellowplanet.jpg","null","images/tutalien3","null","images/tutalien3","images/t.png","NA","practice","null","","","",""
"d3-animate-choice","23","140307","0.0-23.0","1601","2083","18","Male","false","false","false","false","""event"",""trial"",""time""
""fullscreenenter"",""5"",""13176""
","
","
","""event"",""trial"",""time""
""fullscreenenter"",""5"",""13176""
","
","295","","49","","","3000","1","","","images/tutyellowplanet.jpg","null","images/tutalien3","null","images/tutalien3","images/t.png","NA","practice","null","","","",""
"d3-animate-choice","24","142327","0.0-24.0","1601","2083","18","Male","false","false","false","false","""event"",""trial"",""time""
""fullscreenenter"",""5"",""13176""
","
","
","""event"",""trial"",""time""
""fullscreenenter"",""5"",""13176""
","
","11","","49","","","3000","1","1852","49","images/tutyellowplanet.jpg","null","images/tutalien3","null","images/tutalien3","images/t.png","NA","practice","null","","","",""
"d3-animate-choice","25","144437","0.0-25.0","1601","2083","18","Male","false","false","false","false","""event"",""trial"",""time""
""fullscreenenter"",""5"",""13176""
","
","
","""event"",""trial"",""time""
""fullscreenenter"",""5"",""13176""
","
","100","","49","","","3000","1","2064","49","images/tutyellowplanet.jpg","null","images/tutalien3","null","images/tutalien3","images/t.png","NA","practice","null","","","",""
"d3-animate-choice","26","146637","0.0-26.0","1601","2083","18","Male","false","false","false","false","""event"",""trial"",""time""
""fullscreenenter"",""5"",""13176""
","
","
","""event"",""trial"",""time""
""fullscreenenter"",""5"",""13176""
","
","177","","49","","","3000","1","","","images/tutyellowplanet.jpg","null","images/tutalien3","null","images/tutalien3","images/t.png","NA","practice","null","","","",""
"d3-animate-choice","27","148667","0.0-27.0","1601","2083","18","Male","false","false","false","false","""event"",""trial"",""time""
""fullscreenenter"",""5"",""13176""
","
","
","""event"",""trial"",""time""
""fullscreenenter"",""5"",""13176""
","
","24","","49","","","3000","1","249","49","images/tutyellowplanet.jpg","null","images/tutalien3","null","images/tutalien3","images/t.png","NA","practice","null","","","",""
"d3-animate-choice","28","150787","0.0-28.0","1601","2083","18","Male","false","false","false","false","""event"",""trial"",""time""
""fullscreenenter"",""5"",""13176""
","
","
","""event"",""trial"",""time""
""fullscreenenter"",""5"",""13176""
","
","102","","49","","","3000","1","299","49","images/tutyellowplanet.jpg","null","images/tutalien3","null","images/tutalien3","images/t.png","NA","practice","null","","","",""
"d3-animate-choice","29","152816","0.0-29.0","1601","2083","18","Male","false","false","false","false","""event"",""trial"",""time""
""fullscreenenter"",""5"",""13176""
","
","
","""event"",""trial"",""time""
""fullscreenenter"",""5"",""13176""
","
","21","","49","","","3000","1","211","49","images/tutyellowplanet.jpg","null","images/tutalien3","null","images/tutalien3","images/t.png","NA","practice","null","","","",""
"d3-instructions","30","159042","0.0-30.0","1601","2083","18","Male","false","false","false","false","""event"",""trial"",""time""
""fullscreenenter"",""5"",""13176""
","
","
","""event"",""trial"",""time""
""fullscreenenter"",""5"",""13176""
","
","","","","","","","","","","","","","","","","","","","","","",""
"d3-instructions","31","168723","0.0-31.0","1601","2083","18","Male","false","false","false","false","""event"",""trial"",""time""
""fullscreenenter"",""5"",""13176""
","
","
","""event"",""trial"",""time""
""fullscreenenter"",""5"",""13176""
","
","","","","","","","","","","","","","","","","","","","","","",""
"d3-instructions","32","175868","0.0-32.0","1601","2083","18","Male","false","false","false","false","""event"",""trial"",""time""
""fullscreenenter"",""5"",""13176""
","
","
","""event"",""trial"",""time""
""fullscreenenter"",""5"",""13176""
","
","","","","","","","","","","","","","","","","","","","","","",""
"d3-instructions","33","178144","0.0-33.0","1601","2083","18","Male","false","false","false","false","""event"",""trial"",""time""
""fullscreenenter"",""5"",""13176""
","
","
","""event"",""trial"",""time""
""fullscreenenter"",""5"",""13176""
","
","","","","","","","","","","","","","","","","","","","","","",""
"d3-animate-choice","34","181477","0.0-34.0","1601","2083","18","Male","false","false","false","false","""event"",""trial"",""time""
""fullscreenenter"",""5"",""13176""
","
","
","""event"",""trial"",""time""
""fullscreenenter"",""5"",""13176""
","
","1319","","49","","","3000","1","","","images/tutgreenplanet.jpg","images/tutalien1","images/tutalien2","null","images/tutalien2","images/t.png","NA","practice","null","","","",""
"d3-animate-choice","35","183737","0.0-35.0","1601","2083","18","Male","false","false","false","false","""event"",""trial"",""time""
""fullscreenenter"",""5"",""13176""
","
","
","""event"",""trial"",""time""
""fullscreenenter"",""5"",""13176""
","
","239","","48","","","3000","1","","","images/tutgreenplanet.jpg","images/tutalien1","images/tutalien2","null","images/tutalien1","images/nothing.png","NA","practice","null","","","",""
"d3-animate-choice","36","186007","0.0-36.0","1601","2083","18","Male","false","false","false","false","""event"",""trial"",""time""
""fullscreenenter"",""5"",""13176""
","
","
","""event"",""trial"",""time""
""fullscreenenter"",""5"",""13176""
","
","250","","48","","","3000","1","","","images/tutgreenplanet.jpg","images/tutalien1","images/tutalien2","null","images/tutalien1","images/nothing.png","NA","practice","null","","","",""
"d3-animate-choice","37","188307","0.0-37.0","1601","2083","18","Male","false","false","false","false","""event"",""trial"",""time""
""fullscreenenter"",""5"",""13176""
","
","
","""event"",""trial"",""time""
""fullscreenenter"",""5"",""13176""
","
","277","","49","","","3000","1","466,1604,1840","49,49,49","images/tutgreenplanet.jpg","images/tutalien1","images/tutalien2","null","images/tutalien2","images/nothing.png","NA","practice","null","","","",""
"d3-animate-choice","38","190437","0.0-38.0","1601","2083","18","Male","false","false","false","false","""event"",""trial"",""time""
""fullscreenenter"",""5"",""13176""
","
","
","""event"",""trial"",""time""
""fullscreenenter"",""5"",""13176""
","
","110","","49","","","3000","1","321,1975","49,49","images/tutgreenplanet.jpg","images/tutalien1","images/tutalien2","null","images/tutalien2","images/t.png","NA","practice","null","","","",""
"d3-animate-choice","39","192517","0.0-39.0","1601","2083","18","Male","false","false","false","false","""event"",""trial"",""time""
""fullscreenenter"",""5"",""13176""
","
","
","""event"",""trial"",""time""
""fullscreenenter"",""5"",""13176""
","
","71","","49","","","3000","1","283","49","images/tutgreenplanet.jpg","images/tutalien1","images/tutalien2","null","images/tutalien2","images/t.png","NA","practice","null","","","",""
"d3-animate-choice","40","194527","0.0-40.0","1601","2083","18","Male","false","false","false","false","""event"",""trial"",""time""
""fullscreenenter"",""5"",""13176""
","
","
","""event"",""trial"",""time""
""fullscreenenter"",""5"",""13176""
","
","2","","49","","","3000","1","1812","49","images/tutgreenplanet.jpg","images/tutalien1","images/tutalien2","null","images/tutalien2","images/nothing.png","NA","practice","null","","","",""
"d3-animate-choice","41","196727","0.0-41.0","1601","2083","18","Male","false","false","false","false","""event"",""trial"",""time""
""fullscreenenter"",""5"",""13176""
","
","
","""event"",""trial"",""time""
""fullscreenenter"",""5"",""13176""
","
","187","","49","","","3000","1","1942","49","images/tutgreenplanet.jpg","images/tutalien1","images/tutalien2","null","images/tutalien2","images/t.png","NA","practice","null","","","",""
"d3-animate-choice","42","198977","0.0-42.0","1601","2083","18","Male","false","false","false","false","""event"",""trial"",""time""
""fullscreenenter"",""5"",""13176""
","
","
","""event"",""trial"",""time""
""fullscreenenter"",""5"",""13176""
","
","236","","49","","","3000","1","2046","49","images/tutgreenplanet.jpg","images/tutalien1","images/tutalien2","null","images/tutalien2","images/t.png","NA","practice","null","","","",""
"d3-animate-choice","43","201077","0.0-43.0","1601","2083","18","Male","false","false","false","false","""event"",""trial"",""time""
""fullscreenenter"",""5"",""13176""
","
","
","""event"",""trial"",""time""
""fullscreenenter"",""5"",""13176""
","
","80","","49","","","3000","1","280,1747,2091","49,49,49","images/tutgreenplanet.jpg","images/tutalien1","images/tutalien2","null","images/tutalien2","images/t.png","NA","practice","null","","","",""
"d3-instructions","44","216262","0.0-44.0","1601","2083","18","Male","false","false","false","false","""event"",""trial"",""time""
""fullscreenenter"",""5"",""13176""
","
","
","""event"",""trial"",""time""
""fullscreenenter"",""5"",""13176""
","
","","","","","","","","","","","","","","","","","","","","","",""
"d3-instructions","45","219897","0.0-45.0","1601","2083","18","Male","false","false","false","false","""event"",""trial"",""time""
""fullscreenenter"",""5"",""13176""
","
","
","""event"",""trial"",""time""
""fullscreenenter"",""5"",""13176""
","
","","","","","","","","","","","","","","","","","","","","","",""
"d3-instructions","46","223160","0.0-46.0","1601","2083","18","Male","false","false","false","false","""event"",""trial"",""time""
""fullscreenenter"",""5"",""13176""
","
","
","""event"",""trial"",""time""
""fullscreenenter"",""5"",""13176""
","
","","","","","","","","","","","","","","","","","","","","","",""
"d3-instructions","47","236009","0.0-47.0","1601","2083","18","Male","false","false","false","false","""event"",""trial"",""time""
""fullscreenenter"",""5"",""13176""
","
","
","""event"",""trial"",""time""
""fullscreenenter"",""5"",""13176""
","
","","","","","","","","","","","","","","","","","","","","","",""
"d3-instructions","48","239788","0.0-48.0","1601","2083","18","Male","false","false","false","false","""event"",""trial"",""time""
""fullscreenenter"",""5"",""13176""
","
","
","""event"",""trial"",""time""
""fullscreenenter"",""5"",""13176""
","
","","","","","","","","","","","","","","","","","","","","","",""
"d3-instructions","49","245572","0.0-49.0","1601","2083","18","Male","false","false","false","false","""event"",""trial"",""time""
""fullscreenenter"",""5"",""13176""
","
","
","""event"",""trial"",""time""
""fullscreenenter"",""5"",""13176""
","
","","","","","","","","","","","","","","","","","","","","","",""
"d3-instructions","50","251836","0.0-50.0","1601","2083","18","Male","false","false","false","false","""event"",""trial"",""time""
""fullscreenenter"",""5"",""13176""
","
","
","""event"",""trial"",""time""
""fullscreenenter"",""5"",""13176""
","
","","","","","","","","","","","","","","","","","","","","","",""
"d3-instructions","51","254485","0.0-51.0","1601","2083","18","Male","false","false","false","false","""event"",""trial"",""time""
""fullscreenenter"",""5"",""13176""
","
","
","""event"",""trial"",""time""
""fullscreenenter"",""5"",""13176""
","
","","","","","","","","","","","","","","","","","","","","","",""
"d3-instructions","52","257359","0.0-52.0","1601","2083","18","Male","false","false","false","false","""event"",""trial"",""time""
""fullscreenenter"",""5"",""13176""
","
","
","""event"",""trial"",""time""
""fullscreenenter"",""5"",""13176""
","
","","","","","","","","","","","","","","","","","","","","","",""
"d3-instructions","53","269120","0.0-53.0","1601","2083","18","Male","false","false","false","false","""event"",""trial"",""time""
""fullscreenenter"",""5"",""13176""
","
","
","""event"",""trial"",""time""
""fullscreenenter"",""5"",""13176""
","
","","","","","","","","","","","","","","","","","","","","","",""
"d3-instructions","54","281816","0.0-54.0","1601","2083","18","Male","false","false","false","false","""event"",""trial"",""time""
""fullscreenenter"",""5"",""13176""
","
","
","""event"",""trial"",""time""
""fullscreenenter"",""5"",""13176""
","
","","","","","","","","","","","","","","","","","","","","","",""
"d3-instructions","55","291920","0.0-55.0","1601","2083","18","Male","false","false","false","false","""event"",""trial"",""time""
""fullscreenenter"",""5"",""13176""
","
","
","""event"",""trial"",""time""
""fullscreenenter"",""5"",""13176""
","
","","","","","","","","","","","","","","","","","","","","","",""
"d3-instructions","56","298188","0.0-56.0","1601","2083","18","Male","false","false","false","false","""event"",""trial"",""time""
""fullscreenenter"",""5"",""13176""
","
","
","""event"",""trial"",""time""
""fullscreenenter"",""5"",""13176""
","
","","","","","","","","","","","","","","","","","","","","","",""
"d3-instructions","57","307724","0.0-57.0","1601","2083","18","Male","false","false","false","false","""event"",""trial"",""time""
""fullscreenenter"",""5"",""13176""
","
","
","""event"",""trial"",""time""
""fullscreenenter"",""5"",""13176""
","
","","","","","","","","","","","","","","","","","","","","","",""
"d3-instructions","58","312160","0.0-58.0","1601","2083","18","Male","false","false","false","false","""event"",""trial"",""time""
""fullscreenenter"",""5"",""13176""
","
","
","""event"",""trial"",""time""
""fullscreenenter"",""5"",""13176""
","
","","","","","","","","","","","","","","","","","","","","","",""
"d3-instructions","59","316343","0.0-59.0","1601","2083","18","Male","false","false","false","false","""event"",""trial"",""time""
""fullscreenenter"",""5"",""13176""
","
","
","""event"",""trial"",""time""
""fullscreenenter"",""5"",""13176""
","
","","","","","","","","","","","","","","","","","","","","","",""
"d3-instructions","60","319670","0.0-60.0","1601","2083","18","Male","false","false","false","false","""event"",""trial"",""time""
""fullscreenenter"",""5"",""13176""
","
","
","""event"",""trial"",""time""
""fullscreenenter"",""5"",""13176""
","
","","","","","","","","","","","","","","","","","","","","","",""
"d3-animate-choice","61","322337","0.0-61.0-0.0","1601","2083","18","Male","false","false","false","false","""event"",""trial"",""time""
""fullscreenenter"",""5"",""13176""
","
","
","""event"",""trial"",""time""
""fullscreenenter"",""5"",""13176""
","
","657","","49","","","3000","1","","","images/earth.jpg","images/tutrocket1","images/tutrocket2","null","images/tutrocket2","","1","practice","null","1","","",""
"d3-animate-choice","62","325227","0.0-61.0-1.0","1601","2083","18","Male","false","false","false","false","""event"",""trial"",""time""
""fullscreenenter"",""5"",""13176""
","
","
","""event"",""trial"",""time""
""fullscreenenter"",""5"",""13176""
","
","869","","49","","","3000","1","","","images/tutgreenplanet.jpg","images/tutalien2","images/tutalien1","images/tutrocket2","images/tutalien1","images/nothing.png","2","practice","true","1","common","0","2022-06-15 17:14:55.410"
"two-step-fixation","63","326247","0.0-61.0-2.0","1601","2083","18","Male","false","false","false","false","""event"",""trial"",""time""
""fullscreenenter"",""5"",""13176""
","
","
","""event"",""trial"",""time""
""fullscreenenter"",""5"",""13176""
","
","","images/earth.jpg","","","","","","","","","","","","","","fixation","","","","","",""
"d3-animate-choice","64","329058","0.0-61.0-0.1","1601","2083","18","Male","false","false","false","false","""event"",""trial"",""time""
""fullscreenenter"",""5"",""13176""
","
","
","""event"",""trial"",""time""
""fullscreenenter"",""5"",""13176""
","
","805","","48","","","3000","1","","","images/earth.jpg","images/tutrocket1","images/tutrocket2","null","images/tutrocket1","","1","practice","null","2","","",""
"d3-animate-choice","65","331937","0.0-61.0-1.1","1601","2083","18","Male","false","false","false","false","""event"",""trial"",""time""
""fullscreenenter"",""5"",""13176""
","
","
","""event"",""trial"",""time""
""fullscreenenter"",""5"",""13176""
","
","863","","49","","","3000","1","","","images/tutyellowplanet.jpg","images/tutalien4","images/tutalien3","images/tutrocket1","images/tutalien3","images/t.png","2","practice","true","1","common","1","2022-06-15 17:15:02.119"
"two-step-fixation","66","332956","0.0-61.0-2.1","1601","2083","18","Male","false","false","false","false","""event"",""trial"",""time""
""fullscreenenter"",""5"",""13176""
","
","
","""event"",""trial"",""time""
""fullscreenenter"",""5"",""13176""
","
","","images/earth.jpg","","","","","","","","","","","","","","fixation","","","","","",""
"d3-animate-choice","67","335447","0.0-61.0-0.2","1601","2083","18","Male","false","false","false","false","""event"",""trial"",""time""
""fullscreenenter"",""5"",""13176""
","
","
","""event"",""trial"",""time""
""fullscreenenter"",""5"",""13176""
","
","469","","48","","","3000","1","","","images/earth.jpg","images/tutrocket1","images/tutrocket2","null","images/tutrocket1","","1","practice","null","2","","",""
"d3-animate-choice","68","338077","0.0-61.0-1.2","1601","2083","18","Male","false","false","false","false","""event"",""trial"",""time""
""fullscreenenter"",""5"",""13176""
","
","
","""event"",""trial"",""time""
""fullscreenenter"",""5"",""13176""
","
","619","","49","","","3000","1","","","images/tutyellowplanet.jpg","images/tutalien4","images/tutalien3","images/tutrocket1","images/tutalien3","images/nothing.png","2","practice","true","1","common","0","2022-06-15 17:15:08.259"
"two-step-fixation","69","339097","0.0-61.0-2.2","1601","2083","18","Male","false","false","false","false","""event"",""trial"",""time""
""fullscreenenter"",""5"",""13176""
","
","
","""event"",""trial"",""time""
""fullscreenenter"",""5"",""13176""
","
","","images/earth.jpg","","","","","","","","","","","","","","fixation","","","","","",""
"d3-animate-choice","70","341397","0.0-61.0-0.3","1601","2083","18","Male","false","false","false","false","""event"",""trial"",""time""
""fullscreenenter"",""5"",""13176""
","
","
","""event"",""trial"",""time""
""fullscreenenter"",""5"",""13176""
","
","287","","49","","","3000","1","","","images/earth.jpg","images/tutrocket1","images/tutrocket2","null","images/tutrocket2","","1","practice","null","1","","",""
"d3-animate-choice","71","343887","0.0-61.0-1.3","1601","2083","18","Male","false","false","false","false","""event"",""trial"",""time""
""fullscreenenter"",""5"",""13176""
","
","
","""event"",""trial"",""time""
""fullscreenenter"",""5"",""13176""
","
","484","","48","","","3000","1","","","images/tutgreenplanet.jpg","images/tutalien2","images/tutalien1","images/tutrocket2","images/tutalien2","images/t.png","2","practice","true","2","common","1","2022-06-15 17:15:14.069"
"two-step-fixation","72","344906","0.0-61.0-2.3","1601","2083","18","Male","false","false","false","false","""event"",""trial"",""time""
""fullscreenenter"",""5"",""13176""
","
","
","""event"",""trial"",""time""
""fullscreenenter"",""5"",""13176""
","
","","images/earth.jpg","","","","","","","","","","","","","","fixation","","","","","",""
"d3-animate-choice","73","347148","0.0-61.0-0.4","1601","2083","18","Male","false","false","false","false","""event"",""trial"",""time""
""fullscreenenter"",""5"",""13176""
","
","
","""event"",""trial"",""time""
""fullscreenenter"",""5"",""13176""
","
","226","","49","","","3000","1","","","images/earth.jpg","images/tutrocket1","images/tutrocket2","null","images/tutrocket2","","1","practice","null","1","","",""
"d3-animate-choice","74","349479","0.0-61.0-1.4","1601","2083","18","Male","false","false","false","false","""event"",""trial"",""time""
""fullscreenenter"",""5"",""13176""
","
","
","""event"",""trial"",""time""
""fullscreenenter"",""5"",""13176""
","
","310","","48","","","3000","1","","","images/tutyellowplanet.jpg","images/tutalien4","images/tutalien3","images/tutrocket2","images/tutalien4","images/nothing.png","2","practice","false","2","rare","0","2022-06-15 17:15:19.661"
"two-step-fixation","75","350497","0.0-61.0-2.4","1601","2083","18","Male","false","false","false","false","""event"",""trial"",""time""
""fullscreenenter"",""5"",""13176""
","
","
","""event"",""trial"",""time""
""fullscreenenter"",""5"",""13176""
","
","","images/earth.jpg","","","","","","","","","","","","","","fixation","","","","","",""
"d3-animate-choice","76","352756","0.0-61.0-0.5","1601","2083","18","Male","false","false","false","false","""event"",""trial"",""time""
""fullscreenenter"",""5"",""13176""
","
","
","""event"",""trial"",""time""
""fullscreenenter"",""5"",""13176""
","
","248","","48","","","3000","1","","","images/earth.jpg","images/tutrocket1","images/tutrocket2","null","images/tutrocket1","","1","practice","null","2","","",""
"d3-animate-choice","77","355287","0.0-61.0-1.5","1601","2083","18","Male","false","false","false","false","""event"",""trial"",""time""
""fullscreenenter"",""5"",""13176""
","
","
","""event"",""trial"",""time""
""fullscreenenter"",""5"",""13176""
","
","507","","49","","","3000","1","","","images/tutgreenplanet.jpg","images/tutalien2","images/tutalien1","images/tutrocket1","images/tutalien1","images/t.png","2","practice","false","1","rare","1","2022-06-15 17:15:25.469"
"two-step-fixation","78","356307","0.0-61.0-2.5","1601","2083","18","Male","false","false","false","false","""event"",""trial"",""time""
""fullscreenenter"",""5"",""13176""
","
","
","""event"",""trial"",""time""
""fullscreenenter"",""5"",""13176""
","
","","images/earth.jpg","","","","","","","","","","","","","","fixation","","","","","",""
"d3-animate-choice","79","358997","0.0-61.0-0.6","1601","2083","18","Male","false","false","false","false","""event"",""trial"",""time""
""fullscreenenter"",""5"",""13176""
","
","
","""event"",""trial"",""time""
""fullscreenenter"",""5"",""13176""
","
","677","","49","","","3000","1","","","images/earth.jpg","images/tutrocket1","images/tutrocket2","null","images/tutrocket2","","1","practice","null","1","","",""
"d3-animate-choice","80","361857","0.0-61.0-1.6","1601","2083","18","Male","false","false","false","false","""event"",""trial"",""time""
""fullscreenenter"",""5"",""13176""
","
","
","""event"",""trial"",""time""
""fullscreenenter"",""5"",""13176""
","
","853","","49","","","3000","1","","","images/tutgreenplanet.jpg","images/tutalien2","images/tutalien1","images/tutrocket2","images/tutalien1","images/t.png","2","practice","true","1","common","1","2022-06-15 17:15:32.040"
"two-step-fixation","81","362877","0.0-61.0-2.6","1601","2083","18","Male","false","false","false","false","""event"",""trial"",""time""
""fullscreenenter"",""5"",""13176""
","
","
","""event"",""trial"",""time""
""fullscreenenter"",""5"",""13176""
","
","","images/earth.jpg","","","","","","","","","","","","","","fixation","","","","","",""
"d3-animate-choice","82","365287","0.0-61.0-0.7","1601","2083","18","Male","false","false","false","false","""event"",""trial"",""time""
""fullscreenenter"",""5"",""13176""
","
","
","""event"",""trial"",""time""
""fullscreenenter"",""5"",""13176""
","
","397","","49","","","3000","1","","","images/earth.jpg","images/tutrocket1","images/tutrocket2","null","images/tutrocket2","","1","practice","null","1","","",""
"d3-animate-choice","83","367888","0.0-61.0-1.7","1601","2083","18","Male","false","false","false","false","""event"",""trial"",""time""
""fullscreenenter"",""5"",""13176""
","
","
","""event"",""trial"",""time""
""fullscreenenter"",""5"",""13176""
","
","577","","48","","","3000","1","","","images/tutyellowplanet.jpg","images/tutalien4","images/tutalien3","images/tutrocket2","images/tutalien4","images/t.png","2","practice","false","2","rare","1","2022-06-15 17:15:38.070"
"two-step-fixation","84","368906","0.0-61.0-2.7","1601","2083","18","Male","false","false","false","false","""event"",""trial"",""time""
""fullscreenenter"",""5"",""13176""
","
","
","""event"",""trial"",""time""
""fullscreenenter"",""5"",""13176""
","
","","images/earth.jpg","","","","","","","","","","","","","","fixation","","","","","",""
"d3-animate-choice","85","370997","0.0-61.0-0.8","1601","2083","18","Male","false","false","false","false","""event"",""trial"",""time""
""fullscreenenter"",""5"",""13176""
","
","
","""event"",""trial"",""time""
""fullscreenenter"",""5"",""13176""
","
","85","","49","","","3000","1","","","images/earth.jpg","images/tutrocket1","images/tutrocket2","null","images/tutrocket2","","1","practice","null","1","","",""
"d3-animate-choice","86","373607","0.0-61.0-1.8","1601","2083","18","Male","false","false","false","false","""event"",""trial"",""time""
""fullscreenenter"",""5"",""13176""
","
","
","""event"",""trial"",""time""
""fullscreenenter"",""5"",""13176""
","
","596","","48","","","3000","1","","","images/tutgreenplanet.jpg","images/tutalien2","images/tutalien1","images/tutrocket2","images/tutalien2","images/nothing.png","2","practice","true","2","common","0","2022-06-15 17:15:43.790"
"two-step-fixation","87","374627","0.0-61.0-2.8","1601","2083","18","Male","false","false","false","false","""event"",""trial"",""time""
""fullscreenenter"",""5"",""13176""
","
","
","""event"",""trial"",""time""
""fullscreenenter"",""5"",""13176""
","
","","images/earth.jpg","","","","","","","","","","","","","","fixation","","","","","",""
"d3-animate-choice","88","376987","0.0-61.0-0.9","1601","2083","18","Male","false","false","false","false","""event"",""trial"",""time""
""fullscreenenter"",""5"",""13176""
","
","
","""event"",""trial"",""time""
""fullscreenenter"",""5"",""13176""
","
","345","","49","","","3000","1","","","images/earth.jpg","images/tutrocket1","images/tutrocket2","null","images/tutrocket2","","1","practice","null","1","","",""
"d3-animate-choice","89","379657","0.0-61.0-1.9","1601","2083","18","Male","false","false","false","false","""event"",""trial"",""time""
""fullscreenenter"",""5"",""13176""
","
","
","""event"",""trial"",""time""
""fullscreenenter"",""5"",""13176""
","
","650","","49","","","3000","1","","","images/tutgreenplanet.jpg","images/tutalien2","images/tutalien1","images/tutrocket2","images/tutalien1","images/nothing.png","2","practice","true","1","common","0","2022-06-15 17:15:49.839"
"two-step-fixation","90","380677","0.0-61.0-2.9","1601","2083","18","Male","false","false","false","false","""event"",""trial"",""time""
""fullscreenenter"",""5"",""13176""
","
","
","""event"",""trial"",""time""
""fullscreenenter"",""5"",""13176""
","
","","images/earth.jpg","","","","","","","","","","","","","","fixation","","","","","",""
"d3-animate-choice","91","382987","0.0-61.0-0.10","1601","2083","18","Male","false","false","false","false","""event"",""trial"",""time""
""fullscreenenter"",""5"",""13176""
","
","
","""event"",""trial"",""time""
""fullscreenenter"",""5"",""13176""
","
","287","","48","","","3000","1","","","images/earth.jpg","images/tutrocket1","images/tutrocket2","null","images/tutrocket1","","1","practice","null","2","","",""
"d3-animate-choice","92","385538","0.0-61.0-1.10","1601","2083","18","Male","false","false","false","false","""event"",""trial"",""time""
""fullscreenenter"",""5"",""13176""
","
","
","""event"",""trial"",""time""
""fullscreenenter"",""5"",""13176""
","
","535","","48","","","3000","1","","","images/tutyellowplanet.jpg","images/tutalien4","images/tutalien3","images/tutrocket1","images/tutalien4","images/t.png","2","practice","true","2","common","1","2022-06-15 17:15:55.720"
"two-step-fixation","93","386557","0.0-61.0-2.10","1601","2083","18","Male","false","false","false","false","""event"",""trial"",""time""
""fullscreenenter"",""5"",""13176""
","
","
","""event"",""trial"",""time""
""fullscreenenter"",""5"",""13176""
","
","","images/earth.jpg","","","","","","","","","","","","","","fixation","","","","","",""
"d3-animate-choice","94","388797","0.0-61.0-0.11","1601","2083","18","Male","false","false","false","false","""event"",""trial"",""time""
""fullscreenenter"",""5"",""13176""
","
","
","""event"",""trial"",""time""
""fullscreenenter"",""5"",""13176""
","
","231","","48","","","3000","1","","","images/earth.jpg","images/tutrocket1","images/tutrocket2","null","images/tutrocket1","","1","practice","null","2","","",""
"d3-animate-choice","95","391357","0.0-61.0-1.11","1601","2083","18","Male","false","false","false","false","""event"",""trial"",""time""
""fullscreenenter"",""5"",""13176""
","
","
","""event"",""trial"",""time""
""fullscreenenter"",""5"",""13176""
","
","557","","48","","","3000","1","","","images/tutgreenplanet.jpg","images/tutalien2","images/tutalien1","images/tutrocket1","images/tutalien2","images/t.png","2","practice","false","2","rare","1","2022-06-15 17:16:01.539"
"two-step-fixation","96","392367","0.0-61.0-2.11","1601","2083","18","Male","false","false","false","false","""event"",""trial"",""time""
""fullscreenenter"",""5"",""13176""
","
","
","""event"",""trial"",""time""
""fullscreenenter"",""5"",""13176""
","
","","images/earth.jpg","","","","","","","","","","","","","","fixation","","","","","",""
"d3-animate-choice","97","394647","0.0-61.0-0.12","1601","2083","18","Male","false","false","false","false","""event"",""trial"",""time""
""fullscreenenter"",""5"",""13176""
","
","
","""event"",""trial"",""time""
""fullscreenenter"",""5"",""13176""
","
","276","","48","","","3000","1","","","images/earth.jpg","images/tutrocket1","images/tutrocket2","null","images/tutrocket1","","1","practice","null","2","","",""
"d3-animate-choice","98","397097","0.0-61.0-1.12","1601","2083","18","Male","false","false","false","false","""event"",""trial"",""time""
""fullscreenenter"",""5"",""13176""
","
","
","""event"",""trial"",""time""
""fullscreenenter"",""5"",""13176""
","
","430","","48","","","3000","1","","","images/tutyellowplanet.jpg","images/tutalien4","images/tutalien3","images/tutrocket1","images/tutalien4","images/t.png","2","practice","true","2","common","1","2022-06-15 17:16:07.279"
"two-step-fixation","99","398117","0.0-61.0-2.12","1601","2083","18","Male","false","false","false","false","""event"",""trial"",""time""
""fullscreenenter"",""5"",""13176""
","
","
","""event"",""trial"",""time""
""fullscreenenter"",""5"",""13176""
","
","","images/earth.jpg","","","","","","","","","","","","","","fixation","","","","","",""
"d3-animate-choice","100","400329","0.0-61.0-0.13","1601","2083","18","Male","false","false","false","false","""event"",""trial"",""time""
""fullscreenenter"",""5"",""13176""
","
","
","""event"",""trial"",""time""
""fullscreenenter"",""5"",""13176""
","
","209","","48","","","3000","1","","","images/earth.jpg","images/tutrocket1","images/tutrocket2","null","images/tutrocket1","","1","practice","null","2","","",""
"d3-animate-choice","101","402826","0.0-61.0-1.13","1601","2083","18","Male","false","false","false","false","""event"",""trial"",""time""
""fullscreenenter"",""5"",""13176""
","
","
","""event"",""trial"",""time""
""fullscreenenter"",""5"",""13176""
","
","494","","49","","","3000","1","","","images/tutyellowplanet.jpg","images/tutalien4","images/tutalien3","images/tutrocket1","images/tutalien3","images/nothing.png","2","practice","true","1","common","0","2022-06-15 17:16:13.010"
"two-step-fixation","102","403847","0.0-61.0-2.13","1601","2083","18","Male","false","false","false","false","""event"",""trial"",""time""
""fullscreenenter"",""5"",""13176""
","
","
","""event"",""trial"",""time""
""fullscreenenter"",""5"",""13176""
","
","","images/earth.jpg","","","","","","","","","","","","","","fixation","","","","","",""
"d3-animate-choice","103","406077","0.0-61.0-0.14","1601","2083","18","Male","false","false","false","false","""event"",""trial"",""time""
""fullscreenenter"",""5"",""13176""
","
","
","""event"",""trial"",""time""
""fullscreenenter"",""5"",""13176""
","
","224","","48","","","3000","1","","","images/earth.jpg","images/tutrocket1","images/tutrocket2","null","images/tutrocket1","","1","practice","null","2","","",""
"d3-animate-choice","104","408406","0.0-61.0-1.14","1601","2083","18","Male","false","false","false","false","""event"",""trial"",""time""
""fullscreenenter"",""5"",""13176""
","
","
","""event"",""trial"",""time""
""fullscreenenter"",""5"",""13176""
","
","309","","48","","","3000","1","","","images/tutyellowplanet.jpg","images/tutalien4","images/tutalien3","images/tutrocket1","images/tutalien4","images/t.png","2","practice","true","2","common","1","2022-06-15 17:16:18.589"
"two-step-fixation","105","409427","0.0-61.0-2.14","1601","2083","18","Male","false","false","false","false","""event"",""trial"",""time""
""fullscreenenter"",""5"",""13176""
","
","
","""event"",""trial"",""time""
""fullscreenenter"",""5"",""13176""
","
","","images/earth.jpg","","","","","","","","","","","","","","fixation","","","","","",""
"d3-animate-choice","106","411647","0.0-61.0-0.15","1601","2083","18","Male","false","false","false","false","""event"",""trial"",""time""
""fullscreenenter"",""5"",""13176""
","
","
","""event"",""trial"",""time""
""fullscreenenter"",""5"",""13176""
","
","209","","48","","","3000","1","","","images/earth.jpg","images/tutrocket1","images/tutrocket2","null","images/tutrocket1","","1","practice","null","2","","",""
"d3-animate-choice","107","414036","0.0-61.0-1.15","1601","2083","18","Male","false","false","false","false","""event"",""trial"",""time""
""fullscreenenter"",""5"",""13176""
","
","
","""event"",""trial"",""time""
""fullscreenenter"",""5"",""13176""
","
","369","","48","","","3000","1","","","images/tutyellowplanet.jpg","images/tutalien4","images/tutalien3","images/tutrocket1","images/tutalien4","images/nothing.png","2","practice","true","2","common","0","2022-06-15 17:16:24.218"
"two-step-fixation","108","415056","0.0-61.0-2.15","1601","2083","18","Male","false","false","false","false","""event"",""trial"",""time""
""fullscreenenter"",""5"",""13176""
","
","
","""event"",""trial"",""time""
""fullscreenenter"",""5"",""13176""
","
","","images/earth.jpg","","","","","","","","","","","","","","fixation","","","","","",""
"d3-animate-choice","109","417546","0.0-61.0-0.16","1601","2083","18","Male","false","false","false","false","""event"",""trial"",""time""
""fullscreenenter"",""5"",""13176""
","
","
","""event"",""trial"",""time""
""fullscreenenter"",""5"",""13176""
","
","477","","48","","","3000","1","716","48","images/earth.jpg","images/tutrocket1","images/tutrocket2","null","images/tutrocket1","","1","practice","null","2","","",""
"d3-animate-choice","110","420027","0.0-61.0-1.16","1601","2083","18","Male","false","false","false","false","""event"",""trial"",""time""
""fullscreenenter"",""5"",""13176""
","
","
","""event"",""trial"",""time""
""fullscreenenter"",""5"",""13176""
","
","459","","48","","","3000","1","","","images/tutyellowplanet.jpg","images/tutalien4","images/tutalien3","images/tutrocket1","images/tutalien4","images/nothing.png","2","practice","true","2","common","0","2022-06-15 17:16:30.209"
"two-step-fixation","111","421047","0.0-61.0-2.16","1601","2083","18","Male","false","false","false","false","""event"",""trial"",""time""
""fullscreenenter"",""5"",""13176""
","
","
","""event"",""trial"",""time""
""fullscreenenter"",""5"",""13176""
","
","","images/earth.jpg","","","","","","","","","","","","","","fixation","","","","","",""
"d3-animate-choice","112","423747","0.0-61.0-0.17","1601","2083","18","Male","false","false","false","false","""event"",""trial"",""time""
""fullscreenenter"",""5"",""13176""
","
","
","""event"",""trial"",""time""
""fullscreenenter"",""5"",""13176""
","
","695","","49","","","3000","1","","","images/earth.jpg","images/tutrocket1","images/tutrocket2","null","images/tutrocket2","","1","practice","null","1","","",""
"d3-animate-choice","113","426157","0.0-61.0-1.17","1601","2083","18","Male","false","false","false","false","""event"",""trial"",""time""
""fullscreenenter"",""5"",""13176""
","
","
","""event"",""trial"",""time""
""fullscreenenter"",""5"",""13176""
","
","400","","49","","","3000","1","","","images/tutgreenplanet.jpg","images/tutalien2","images/tutalien1","images/tutrocket2","images/tutalien1","images/nothing.png","2","practice","true","1","common","0","2022-06-15 17:16:36.339"
"two-step-fixation","114","427178","0.0-61.0-2.17","1601","2083","18","Male","false","false","false","false","""event"",""trial"",""time""
""fullscreenenter"",""5"",""13176""
","
","
","""event"",""trial"",""time""
""fullscreenenter"",""5"",""13176""
","
","","images/earth.jpg","","","","","","","","","","","","","","fixation","","","","","",""
"d3-animate-choice","115","429427","0.0-61.0-0.18","1601","2083","18","Male","false","false","false","false","""event"",""trial"",""time""
""fullscreenenter"",""5"",""13176""
","
","
","""event"",""trial"",""time""
""fullscreenenter"",""5"",""13176""
","
","238","","49","","","3000","1","","","images/earth.jpg","images/tutrocket1","images/tutrocket2","null","images/tutrocket2","","1","practice","null","1","","",""
"d3-animate-choice","116","431867","0.0-61.0-1.18","1601","2083","18","Male","false","false","false","false","""event"",""trial"",""time""
""fullscreenenter"",""5"",""13176""
","
","
","""event"",""trial"",""time""
""fullscreenenter"",""5"",""13176""
","
","418","","48","","","3000","1","","","images/tutgreenplanet.jpg","images/tutalien2","images/tutalien1","images/tutrocket2","images/tutalien2","images/nothing.png","2","practice","true","2","common","0","2022-06-15 17:16:42.049"
"two-step-fixation","117","432887","0.0-61.0-2.18","1601","2083","18","Male","false","false","false","false","""event"",""trial"",""time""
""fullscreenenter"",""5"",""13176""
","
","
","""event"",""trial"",""time""
""fullscreenenter"",""5"",""13176""
","
","","images/earth.jpg","","","","","","","","","","","","","","fixation","","","","","",""
"d3-animate-choice","118","435128","0.0-61.0-0.19","1601","2083","18","Male","false","false","false","false","""event"",""trial"",""time""
""fullscreenenter"",""5"",""13176""
","
","
","""event"",""trial"",""time""
""fullscreenenter"",""5"",""13176""
","
","235","","49","","","3000","1","","","images/earth.jpg","images/tutrocket1","images/tutrocket2","null","images/tutrocket2","","1","practice","null","1","","",""
"d3-animate-choice","119","437382","0.0-61.0-1.19","1601","2083","18","Male","false","false","false","false","""event"",""trial"",""time""
""fullscreenenter"",""5"",""13176""
","
","
","""event"",""trial"",""time""
""fullscreenenter"",""5"",""13176""
","
","246","","49","","","3000","1","","","images/tutyellowplanet.jpg","images/tutalien4","images/tutalien3","images/tutrocket2","images/tutalien3","images/nothing.png","2","practice","false","1","rare","0","2022-06-15 17:16:47.564"
"two-step-fixation","120","438397","0.0-61.0-2.19","1601","2083","18","Male","false","false","false","false","""event"",""trial"",""time""
""fullscreenenter"",""5"",""13176""
","
","
","""event"",""trial"",""time""
""fullscreenenter"",""5"",""13176""
","
","","images/earth.jpg","","","","","","","","","","","","","","fixation","","","","","",""
"d3-instructions","121","445132","0.0-62.0","1601","2083","18","Male","false","false","false","false","""event"",""trial"",""time""
""fullscreenenter"",""5"",""13176""
","
","
","""event"",""trial"",""time""
""fullscreenenter"",""5"",""13176""
","
","","","","","","","","","","","","","","","","","","","","","",""
"audio-keyboard-response","122","448528","0.0-63.0","1601","2083","18","Male","false","false","false","false","""event"",""trial"",""time""
""fullscreenenter"",""5"",""13176""
","
","
","""event"",""trial"",""time""
""fullscreenenter"",""5"",""13176""
","
","3392","audio/instructions/treasure_feedback.wav","32","","","","","","","","","","","","","","","","","","",""
"d3-instructions","123","456812","0.0-64.0","1601","2083","18","Male","false","false","false","false","""event"",""trial"",""time""
""fullscreenenter"",""5"",""13176""
","
","
","""event"",""trial"",""time""
""fullscreenenter"",""5"",""13176""
","
","","","","","","","","","","","","","","","","","","","","","",""
"d3-instructions","124","465341","0.0-65.0","1601","2083","18","Male","false","false","false","false","""event"",""trial"",""time""
""fullscreenenter"",""5"",""13176""
","
","
","""event"",""trial"",""time""
""fullscreenenter"",""5"",""13176""
","
","","","","","","","","","","","","","","","","","","","","","",""
"d3-instructions","125","482977","0.0-66.0","1601","2083","18","Male","false","false","false","false","""event"",""trial"",""time""
""fullscreenenter"",""5"",""13176""
","
","
","""event"",""trial"",""time""
""fullscreenenter"",""5"",""13176""
","
","","","","","","","","","","","","","","","","","","","","","",""
"d3-instructions","126","493514","0.0-67.0","1601","2083","18","Male","false","false","false","false","""event"",""trial"",""time""
""fullscreenenter"",""5"",""13176""
","
","
","""event"",""trial"",""time""
""fullscreenenter"",""5"",""13176""
","
","","","","","","","","","","","","","","","","","","","","","",""
"d3-instructions","127","496290","0.0-68.0","1601","2083","18","Male","false","false","false","false","""event"",""trial"",""time""
""fullscreenenter"",""5"",""13176""
","
","
","""event"",""trial"",""time""
""fullscreenenter"",""5"",""13176""
","
","","","","","","","","","","","","","","","","","","","","","",""
"instructions-quiz","128","501050","0.0-69.0","1601","2083","18","Male","false","false","false","false","""event"",""trial"",""time""
""fullscreenenter"",""5"",""13176""
","
","
","""event"",""trial"",""time""
""fullscreenenter"",""5"",""13176""
","
","4758","audio/quiz/Q1_Prompt.wav","","1","","","","","","","","","","","","","","","","","",""
"audio-keyboard-response","129","502709","0.0-70.0","1601","2083","18","Male","false","false","false","false","""event"",""trial"",""time""
""fullscreenenter"",""5"",""13176""
","
","
","""event"",""trial"",""time""
""fullscreenenter"",""5"",""13176""
","
","1661","audio/quiz/Q1_Correct.wav","32","","","","","","","","","","","","","","","","","","",""
"instructions-quiz","130","506470","0.0-71.0","1601","2083","18","Male","false","false","false","false","""event"",""trial"",""time""
""fullscreenenter"",""5"",""13176""
","
","
","""event"",""trial"",""time""
""fullscreenenter"",""5"",""13176""
","
","3760","audio/quiz/Q2_Prompt.wav","","0","","","","","","","","","","","","","","","","","",""
"audio-keyboard-response","131","506684","0.0-72.0","1601","2083","18","Male","false","false","false","false","""event"",""trial"",""time""
""fullscreenenter"",""5"",""13176""
","
","
","""event"",""trial"",""time""
""fullscreenenter"",""5"",""13176""
","
","211","audio/quiz/Q2_Correct.wav","32","","","","","","","","","","","","","","","","","","",""
"instructions-quiz","132","510530","0.0-73.0","1601","2083","18","Male","false","false","false","false","""event"",""trial"",""time""
""fullscreenenter"",""5"",""13176""
","
","
","""event"",""trial"",""time""
""fullscreenenter"",""5"",""13176""
","
","3844","audio/quiz/Q3_Prompt.wav","","1","","","","","","","","","","","","","","","","","",""
"audio-keyboard-response","133","511334","0.0-74.0","1601","2083","18","Male","false","false","false","false","""event"",""trial"",""time""
""fullscreenenter"",""5"",""13176""
","
","
","""event"",""trial"",""time""
""fullscreenenter"",""5"",""13176""
","
","800","audio/quiz/Q3_Correct.wav","32","","","","","","","","","","","","","","","","","","",""
"d3-instructions","134","515305","0.0-75.0","1601","2083","18","Male","false","false","false","false","""event"",""trial"",""time""
""fullscreenenter"",""5"",""13176""
","
","
","""event"",""trial"",""time""
""fullscreenenter"",""5"",""13176""
","
","","","","","","","","","","","","","","","","","","","","","",""
"d3-animate-choice","135","518847","0.0-76.0-0.0","1601","2083","18","Male","false","false","false","false","""event"",""trial"",""time""
""fullscreenenter"",""5"",""13176""
","
","
","""event"",""trial"",""time""
""fullscreenenter"",""5"",""13176""
","
","1528","","49","","","3000","1","","","images/earth.jpg","images/rocket1","images/rocket2","null","images/rocket2","","1","real","null","1","","",""
"d3-animate-choice","136","521507","0.0-76.0-1.0","1601","2083","18","Male","false","false","false","false","""event"",""trial"",""time""
""fullscreenenter"",""5"",""13176""
","
","
","""event"",""trial"",""time""
""fullscreenenter"",""5"",""13176""
","
","637","","48","","","3000","1","","","images/redplanet1.jpg","images/alien2","images/alien1","images/rocket2","images/alien2","images/nothing.png","2","real","true","2","common","0","2022-06-15 17:18:11.690"
"two-step-fixation","137","522527","0.0-76.0-2.0","1601","2083","18","Male","false","false","false","false","""event"",""trial"",""time""
""fullscreenenter"",""5"",""13176""
","
","
","""event"",""trial"",""time""
""fullscreenenter"",""5"",""13176""
","
","","images/earth.jpg","","","","","","","","","","","","","","fixation","","","","","",""
"d3-animate-choice","138","524777","0.0-76.0-0.1","1601","2083","18","Male","false","false","false","false","""event"",""trial"",""time""
""fullscreenenter"",""5"",""13176""
","
","
","""event"",""trial"",""time""
""fullscreenenter"",""5"",""13176""
","
","234","","49","","","3000","1","","","images/earth.jpg","images/rocket1","images/rocket2","null","images/rocket2","","1","real","null","1","","",""
"d3-animate-choice","139","527038","0.0-76.0-1.1","1601","2083","18","Male","false","false","false","false","""event"",""trial"",""time""
""fullscreenenter"",""5"",""13176""
","
","
","""event"",""trial"",""time""
""fullscreenenter"",""5"",""13176""
","
","251","","49","","","3000","1","533","49","images/redplanet1.jpg","images/alien2","images/alien1","images/rocket2","images/alien1","images/nothing.png","2","real","true","1","common","0","2022-06-15 17:18:17.220"
"two-step-fixation","140","528057","0.0-76.0-2.1","1601","2083","18","Male","false","false","false","false","""event"",""trial"",""time""
""fullscreenenter"",""5"",""13176""
","
","
","""event"",""trial"",""time""
""fullscreenenter"",""5"",""13176""
","
","","images/earth.jpg","","","","","","","","","","","","","","fixation","","","","","",""
"d3-animate-choice","141","530297","0.0-76.0-0.2","1601","2083","18","Male","false","false","false","false","""event"",""trial"",""time""
""fullscreenenter"",""5"",""13176""
","
","
","""event"",""trial"",""time""
""fullscreenenter"",""5"",""13176""
","
","222","","48","","","3000","1","","","images/earth.jpg","images/rocket1","images/rocket2","null","images/rocket1","","1","real","null","2","","",""
"d3-animate-choice","142","532917","0.0-76.0-1.2","1601","2083","18","Male","false","false","false","false","""event"",""trial"",""time""
""fullscreenenter"",""5"",""13176""
","
","
","""event"",""trial"",""time""
""fullscreenenter"",""5"",""13176""
","
","610","","48","","","3000","1","","","images/redplanet1.jpg","images/alien2","images/alien1","images/rocket1","images/alien2","images/t.png","2","real","false","2","rare","1","2022-06-15 17:18:23.099"
"two-step-fixation","143","533927","0.0-76.0-2.2","1601","2083","18","Male","false","false","false","false","""event"",""trial"",""time""
""fullscreenenter"",""5"",""13176""
","
","
","""event"",""trial"",""time""
""fullscreenenter"",""5"",""13176""
","
","","images/earth.jpg","","","","","","","","","","","","","","fixation","","","","","",""
"d3-animate-choice","144","536187","0.0-76.0-0.3","1601","2083","18","Male","false","false","false","false","""event"",""trial"",""time""
""fullscreenenter"",""5"",""13176""
","
","
","""event"",""trial"",""time""
""fullscreenenter"",""5"",""13176""
","
","240","","48","","","3000","1","","","images/earth.jpg","images/rocket1","images/rocket2","null","images/rocket1","","1","real","null","2","","",""
"d3-animate-choice","145","538677","0.0-76.0-1.3","1601","2083","18","Male","false","false","false","false","""event"",""trial"",""time""
""fullscreenenter"",""5"",""13176""
","
","
","""event"",""trial"",""time""
""fullscreenenter"",""5"",""13176""
","
","474","","49","","","3000","1","","","images/purpleplanet.jpg","images/alien4","images/alien3","images/rocket1","images/alien3","images/t.png","2","real","true","1","common","1","2022-06-15 17:18:28.860"
"two-step-fixation","146","539697","0.0-76.0-2.3","1601","2083","18","Male","false","false","false","false","""event"",""trial"",""time""
""fullscreenenter"",""5"",""13176""
","
","
","""event"",""trial"",""time""
""fullscreenenter"",""5"",""13176""
","
","","images/earth.jpg","","","","","","","","","","","","","","fixation","","","","","",""
"d3-animate-choice","147","541887","0.0-76.0-0.4","1601","2083","18","Male","false","false","false","false","""event"",""trial"",""time""
""fullscreenenter"",""5"",""13176""
","
","
","""event"",""trial"",""time""
""fullscreenenter"",""5"",""13176""
","
","167","","48","","","3000","1","","","images/earth.jpg","images/rocket1","images/rocket2","null","images/rocket1","","1","real","null","2","","",""
"d3-animate-choice","148","544267","0.0-76.0-1.4","1601","2083","18","Male","false","false","false","false","""event"",""trial"",""time""
""fullscreenenter"",""5"",""13176""
","
","
","""event"",""trial"",""time""
""fullscreenenter"",""5"",""13176""
","
","365","","48","","","3000","1","","","images/purpleplanet.jpg","images/alien4","images/alien3","images/rocket1","images/alien4","images/t.png","2","real","true","2","common","1","2022-06-15 17:18:34.449"
"two-step-fixation","149","545276","0.0-76.0-2.4","1601","2083","18","Male","false","false","false","false","""event"",""trial"",""time""
""fullscreenenter"",""5"",""13176""
","
","
","""event"",""trial"",""time""
""fullscreenenter"",""5"",""13176""
","
","","images/earth.jpg","","","","","","","","","","","","","","fixation","","","","","",""
"d3-animate-choice","150","547517","0.0-76.0-0.5","1601","2083","18","Male","false","false","false","false","""event"",""trial"",""time""
""fullscreenenter"",""5"",""13176""
","
","
","""event"",""trial"",""time""
""fullscreenenter"",""5"",""13176""
","
","235","","48","","","3000","1","","","images/earth.jpg","images/rocket1","images/rocket2","null","images/rocket1","","1","real","null","2","","",""
"d3-animate-choice","151","550037","0.0-76.0-1.5","1601","2083","18","Male","false","false","false","false","""event"",""trial"",""time""
""fullscreenenter"",""5"",""13176""
","
","
","""event"",""trial"",""time""
""fullscreenenter"",""5"",""13176""
","
","510","","48","","","3000","1","","","images/purpleplanet.jpg","images/alien4","images/alien3","images/rocket1","images/alien4","images/t.png","2","real","true","2","common","1","2022-06-15 17:18:40.220"
"two-step-fixation","152","551047","0.0-76.0-2.5","1601","2083","18","Male","false","false","false","false","""event"",""trial"",""time""
""fullscreenenter"",""5"",""13176""
","
","
","""event"",""trial"",""time""
""fullscreenenter"",""5"",""13176""
","
","","images/earth.jpg","","","","","","","","","","","","","","fixation","","","","","",""
"d3-animate-choice","153","553268","0.0-76.0-0.6","1601","2083","18","Male","false","false","false","false","""event"",""trial"",""time""
""fullscreenenter"",""5"",""13176""
","
","
","""event"",""trial"",""time""
""fullscreenenter"",""5"",""13176""
","
","197","","48","","","3000","1","","","images/earth.jpg","images/rocket1","images/rocket2","null","images/rocket1","","1","real","null","2","","",""
"d3-animate-choice","154","555576","0.0-76.0-1.6","1601","2083","18","Male","false","false","false","false","""event"",""trial"",""time""
""fullscreenenter"",""5"",""13176""
","
","
","""event"",""trial"",""time""
""fullscreenenter"",""5"",""13176""
","
","307","","48","","","3000","1","","","images/purpleplanet.jpg","images/alien4","images/alien3","images/rocket1","images/alien4","images/t.png","2","real","true","2","common","1","2022-06-15 17:18:45.758"
"two-step-fixation","155","556597","0.0-76.0-2.6","1601","2083","18","Male","false","false","false","false","""event"",""trial"",""time""
""fullscreenenter"",""5"",""13176""
","
","
","""event"",""trial"",""time""
""fullscreenenter"",""5"",""13176""
","
","","images/earth.jpg","","","","","","","","","","","","","","fixation","","","","","",""
"d3-animate-choice","156","559027","0.0-76.0-0.7","1601","2083","18","Male","false","false","false","false","""event"",""trial"",""time""
""fullscreenenter"",""5"",""13176""
","
","
","""event"",""trial"",""time""
""fullscreenenter"",""5"",""13176""
","
","425","","48","","","3000","1","","","images/earth.jpg","images/rocket1","images/rocket2","null","images/rocket1","","1","real","null","2","","",""
"d3-animate-choice","157","561566","0.0-76.0-1.7","1601","2083","18","Male","false","false","false","false","""event"",""trial"",""time""
""fullscreenenter"",""5"",""13176""
","
","
","""event"",""trial"",""time""
""fullscreenenter"",""5"",""13176""
","
","518","","49","","","3000","1","","","images/redplanet1.jpg","images/alien2","images/alien1","images/rocket1","images/alien1","images/nothing.png","2","real","false","1","rare","0","2022-06-15 17:18:51.749"
"two-step-fixation","158","562586","0.0-76.0-2.7","1601","2083","18","Male","false","false","false","false","""event"",""trial"",""time""
""fullscreenenter"",""5"",""13176""
","
","
","""event"",""trial"",""time""
""fullscreenenter"",""5"",""13176""
","
","","images/earth.jpg","","","","","","","","","","","","","","fixation","","","","","",""
"d3-animate-choice","159","564888","0.0-76.0-0.8","1601","2083","18","Male","false","false","false","false","""event"",""trial"",""time""
""fullscreenenter"",""5"",""13176""
","
","
","""event"",""trial"",""time""
""fullscreenenter"",""5"",""13176""
","
","286","","48","","","3000","1","","","images/earth.jpg","images/rocket1","images/rocket2","null","images/rocket1","","1","real","null","2","","",""
"d3-animate-choice","160","567257","0.0-76.0-1.8","1601","2083","18","Male","false","false","false","false","""event"",""trial"",""time""
""fullscreenenter"",""5"",""13176""
","
","
","""event"",""trial"",""time""
""fullscreenenter"",""5"",""13176""
","
","361","","48","","","3000","1","","","images/purpleplanet.jpg","images/alien4","images/alien3","images/rocket1","images/alien4","images/t.png","2","real","true","2","common","1","2022-06-15 17:18:57.439"
"two-step-fixation","161","568277","0.0-76.0-2.8","1601","2083","18","Male","false","false","false","false","""event"",""trial"",""time""
""fullscreenenter"",""5"",""13176""
","
","
","""event"",""trial"",""time""
""fullscreenenter"",""5"",""13176""
","
","","images/earth.jpg","","","","","","","","","","","","","","fixation","","","","","",""
"d3-animate-choice","162","570637","0.0-76.0-0.9","1601","2083","18","Male","false","false","false","false","""event"",""trial"",""time""
""fullscreenenter"",""5"",""13176""
","
","
","""event"",""trial"",""time""
""fullscreenenter"",""5"",""13176""
","
","344","","48","","","3000","1","","","images/earth.jpg","images/rocket1","images/rocket2","null","images/rocket1","","1","real","null","2","","",""
"d3-animate-choice","163","573448","0.0-76.0-1.9","1601","2083","18","Male","false","false","false","false","""event"",""trial"",""time""
""fullscreenenter"",""5"",""13176""
","
","
","""event"",""trial"",""time""
""fullscreenenter"",""5"",""13176""
","
","800","","48","","","3000","1","","","images/redplanet1.jpg","images/alien2","images/alien1","images/rocket1","images/alien2","images/t.png","2","real","false","2","rare","1","2022-06-15 17:19:03.630"
"two-step-fixation","164","574467","0.0-76.0-2.9","1601","2083","18","Male","false","false","false","false","""event"",""trial"",""time""
""fullscreenenter"",""5"",""13176""
","
","
","""event"",""trial"",""time""
""fullscreenenter"",""5"",""13176""
","
","","images/earth.jpg","","","","","","","","","","","","","","fixation","","","","","",""
"d3-animate-choice","165","576697","0.0-76.0-0.10","1601","2083","18","Male","false","false","false","false","""event"",""trial"",""time""
""fullscreenenter"",""5"",""13176""
","
","
","""event"",""trial"",""time""
""fullscreenenter"",""5"",""13176""
","
","218","","48","","","3000","1","","","images/earth.jpg","images/rocket1","images/rocket2","null","images/rocket1","","1","real","null","2","","",""
"d3-animate-choice","166","578937","0.0-76.0-1.10","1601","2083","18","Male","false","false","false","false","""event"",""trial"",""time""
""fullscreenenter"",""5"",""13176""
","
","
","""event"",""trial"",""time""
""fullscreenenter"",""5"",""13176""
","
","220","","48","","","3000","1","","","images/purpleplanet.jpg","images/alien4","images/alien3","images/rocket1","images/alien4","images/t.png","2","real","true","2","common","1","2022-06-15 17:19:09.119"
"two-step-fixation","167","579958","0.0-76.0-2.10","1601","2083","18","Male","false","false","false","false","""event"",""trial"",""time""
""fullscreenenter"",""5"",""13176""
","
","
","""event"",""trial"",""time""
""fullscreenenter"",""5"",""13176""
","
","","images/earth.jpg","","","","","","","","","","","","","","fixation","","","","","",""
"d3-animate-choice","168","582157","0.0-76.0-0.11","1601","2083","18","Male","false","false","false","false","""event"",""trial"",""time""
""fullscreenenter"",""5"",""13176""
","
","
","""event"",""trial"",""time""
""fullscreenenter"",""5"",""13176""
","
","186","","48","","","3000","1","","","images/earth.jpg","images/rocket1","images/rocket2","null","images/rocket1","","1","real","null","2","","",""
"d3-animate-choice","169","584707","0.0-76.0-1.11","1601","2083","18","Male","false","false","false","false","""event"",""trial"",""time""
""fullscreenenter"",""5"",""13176""
","
","
","""event"",""trial"",""time""
""fullscreenenter"",""5"",""13176""
","
","528","","48","","","3000","1","","","images/purpleplanet.jpg","images/alien4","images/alien3","images/rocket1","images/alien4","images/nothing.png","2","real","true","2","common","0","2022-06-15 17:19:14.889"
"two-step-fixation","170","585727","0.0-76.0-2.11","1601","2083","18","Male","false","false","false","false","""event"",""trial"",""time""
""fullscreenenter"",""5"",""13176""
","
","
","""event"",""trial"",""time""
""fullscreenenter"",""5"",""13176""
","
","","images/earth.jpg","","","","","","","","","","","","","","fixation","","","","","",""
"d3-animate-choice","171","588007","0.0-76.0-0.12","1601","2083","18","Male","false","false","false","false","""event"",""trial"",""time""
""fullscreenenter"",""5"",""13176""
","
","
","""event"",""trial"",""time""
""fullscreenenter"",""5"",""13176""
","
","267","","48","","","3000","1","","","images/earth.jpg","images/rocket1","images/rocket2","null","images/rocket1","","1","real","null","2","","",""
"d3-animate-choice","172","590257","0.0-76.0-1.12","1601","2083","18","Male","false","false","false","false","""event"",""trial"",""time""
""fullscreenenter"",""5"",""13176""
","
","
","""event"",""trial"",""time""
""fullscreenenter"",""5"",""13176""
","
","240","","48","","","3000","1","","","images/purpleplanet.jpg","images/alien4","images/alien3","images/rocket1","images/alien4","images/t.png","2","real","true","2","common","1","2022-06-15 17:19:20.439"
"two-step-fixation","173","591277","0.0-76.0-2.12","1601","2083","18","Male","false","false","false","false","""event"",""trial"",""time""
""fullscreenenter"",""5"",""13176""
","
","
","""event"",""trial"",""time""
""fullscreenenter"",""5"",""13176""
","
","","images/earth.jpg","","","","","","","","","","","","","","fixation","","","","","",""
"d3-animate-choice","174","593518","0.0-76.0-0.13","1601","2083","18","Male","false","false","false","false","""event"",""trial"",""time""
""fullscreenenter"",""5"",""13176""
","
","
","""event"",""trial"",""time""
""fullscreenenter"",""5"",""13176""
","
","231","","48","","","3000","1","","","images/earth.jpg","images/rocket1","images/rocket2","null","images/rocket1","","1","real","null","2","","",""
"d3-animate-choice","175","596307","0.0-76.0-1.13","1601","2083","18","Male","false","false","false","false","""event"",""trial"",""time""
""fullscreenenter"",""5"",""13176""
","
","
","""event"",""trial"",""time""
""fullscreenenter"",""5"",""13176""
","
","778","","49","","","3000","1","","","images/redplanet1.jpg","images/alien2","images/alien1","images/rocket1","images/alien1","images/nothing.png","2","real","false","1","rare","0","2022-06-15 17:19:26.490"
"two-step-fixation","176","597328","0.0-76.0-2.13","1601","2083","18","Male","false","false","false","false","""event"",""trial"",""time""
""fullscreenenter"",""5"",""13176""
","
","
","""event"",""trial"",""time""
""fullscreenenter"",""5"",""13176""
","
","","images/earth.jpg","","","","","","","","","","","","","","fixation","","","","","",""
"d3-animate-choice","177","599557","0.0-76.0-0.14","1601","2083","18","Male","false","false","false","false","""event"",""trial"",""time""
""fullscreenenter"",""5"",""13176""
","
","
","""event"",""trial"",""time""
""fullscreenenter"",""5"",""13176""
","
","222","","48","","","3000","1","","","images/earth.jpg","images/rocket1","images/rocket2","null","images/rocket1","","1","real","null","2","","",""
"d3-animate-choice","178","602089","0.0-76.0-1.14","1601","2083","18","Male","false","false","false","false","""event"",""trial"",""time""
""fullscreenenter"",""5"",""13176""
","
","
","""event"",""trial"",""time""
""fullscreenenter"",""5"",""13176""
","
","528","","48","","","3000","1","","","images/purpleplanet.jpg","images/alien4","images/alien3","images/rocket1","images/alien4","images/t.png","2","real","true","2","common","1","2022-06-15 17:19:32.272"
"two-step-fixation","179","603097","0.0-76.0-2.14","1601","2083","18","Male","false","false","false","false","""event"",""trial"",""time""
""fullscreenenter"",""5"",""13176""
","
","
","""event"",""trial"",""time""
""fullscreenenter"",""5"",""13176""
","
","","images/earth.jpg","","","","","","","","","","","","","","fixation","","","","","",""
"d3-animate-choice","180","605207","0.0-76.0-0.15","1601","2083","18","Male","false","false","false","false","""event"",""trial"",""time""
""fullscreenenter"",""5"",""13176""
","
","
","""event"",""trial"",""time""
""fullscreenenter"",""5"",""13176""
","
","98","","48","","","3000","1","","","images/earth.jpg","images/rocket1","images/rocket2","null","images/rocket1","","1","real","null","2","","",""
"d3-animate-choice","181","607687","0.0-76.0-1.15","1601","2083","18","Male","false","false","false","false","""event"",""trial"",""time""
""fullscreenenter"",""5"",""13176""
","
","
","""event"",""trial"",""time""
""fullscreenenter"",""5"",""13176""
","
","459","","48","","","3000","1","","","images/purpleplanet.jpg","images/alien4","images/alien3","images/rocket1","images/alien4","images/t.png","2","real","true","2","common","1","2022-06-15 17:19:37.869"
"two-step-fixation","182","608707","0.0-76.0-2.15","1601","2083","18","Male","false","false","false","false","""event"",""trial"",""time""
""fullscreenenter"",""5"",""13176""
","
","
","""event"",""trial"",""time""
""fullscreenenter"",""5"",""13176""
","
","","images/earth.jpg","","","","","","","","","","","","","","fixation","","","","","",""
"d3-animate-choice","183","610857","0.0-76.0-0.16","1601","2083","18","Male","false","false","false","false","""event"",""trial"",""time""
""fullscreenenter"",""5"",""13176""
","
","
","""event"",""trial"",""time""
""fullscreenenter"",""5"",""13176""
","
","133","","48","","","3000","1","","","images/earth.jpg","images/rocket1","images/rocket2","null","images/rocket1","","1","real","null","2","","",""
"d3-animate-choice","184","613508","0.0-76.0-1.16","1601","2083","18","Male","false","false","false","false","""event"",""trial"",""time""
""fullscreenenter"",""5"",""13176""
","
","
","""event"",""trial"",""time""
""fullscreenenter"",""5"",""13176""
","
","640","","48","","","3000","1","","","images/redplanet1.jpg","images/alien2","images/alien1","images/rocket1","images/alien2","images/t.png","2","real","false","2","rare","1","2022-06-15 17:19:43.690"
"two-step-fixation","185","614517","0.0-76.0-2.16","1601","2083","18","Male","false","false","false","false","""event"",""trial"",""time""
""fullscreenenter"",""5"",""13176""
","
","
","""event"",""trial"",""time""
""fullscreenenter"",""5"",""13176""
","
","","images/earth.jpg","","","","","","","","","","","","","","fixation","","","","","",""
"d3-animate-choice","186","616778","0.0-76.0-0.17","1601","2083","18","Male","false","false","false","false","""event"",""trial"",""time""
""fullscreenenter"",""5"",""13176""
","
","
","""event"",""trial"",""time""
""fullscreenenter"",""5"",""13176""
","
","247","","48","","","3000","1","","","images/earth.jpg","images/rocket1","images/rocket2","null","images/rocket1","","1","real","null","2","","",""
"d3-animate-choice","187","618987","0.0-76.0-1.17","1601","2083","18","Male","false","false","false","false","""event"",""trial"",""time""
""fullscreenenter"",""5"",""13176""
","
","
","""event"",""trial"",""time""
""fullscreenenter"",""5"",""13176""
","
","198","","48","","","3000","1","","","images/purpleplanet.jpg","images/alien4","images/alien3","images/rocket1","images/alien4","images/t.png","2","real","true","2","common","1","2022-06-15 17:19:49.169"
"two-step-fixation","188","620007","0.0-76.0-2.17","1601","2083","18","Male","false","false","false","false","""event"",""trial"",""time""
""fullscreenenter"",""5"",""13176""
","
","
","""event"",""trial"",""time""
""fullscreenenter"",""5"",""13176""
","
","","images/earth.jpg","","","","","","","","","","","","","","fixation","","","","","",""
"d3-animate-choice","189","622158","0.0-76.0-0.18","1601","2083","18","Male","false","false","false","false","""event"",""trial"",""time""
""fullscreenenter"",""5"",""13176""
","
","
","""event"",""trial"",""time""
""fullscreenenter"",""5"",""13176""
","
","148","","48","","","3000","1","","","images/earth.jpg","images/rocket1","images/rocket2","null","images/rocket1","","1","real","null","2","","",""
"d3-animate-choice","190","624567","0.0-76.0-1.18","1601","2083","18","Male","false","false","false","false","""event"",""trial"",""time""
""fullscreenenter"",""5"",""13176""
","
","
","""event"",""trial"",""time""
""fullscreenenter"",""5"",""13176""
","
","392","","48","","","3000","1","","","images/purpleplanet.jpg","images/alien4","images/alien3","images/rocket1","images/alien4","images/t.png","2","real","true","2","common","1","2022-06-15 17:19:54.749"
"two-step-fixation","191","625578","0.0-76.0-2.18","1601","2083","18","Male","false","false","false","false","""event"",""trial"",""time""
""fullscreenenter"",""5"",""13176""
","
","
","""event"",""trial"",""time""
""fullscreenenter"",""5"",""13176""
","
","","images/earth.jpg","","","","","","","","","","","","","","fixation","","","","","",""
"d3-animate-choice","192","627667","0.0-76.0-0.19","1601","2083","18","Male","false","false","false","false","""event"",""trial"",""time""
""fullscreenenter"",""5"",""13176""
","
","
","""event"",""trial"",""time""
""fullscreenenter"",""5"",""13176""
","
","73","","48","","","3000","1","","","images/earth.jpg","images/rocket1","images/rocket2","null","images/rocket1","","1","real","null","2","","",""
"d3-animate-choice","193","630127","0.0-76.0-1.19","1601","2083","18","Male","false","false","false","false","""event"",""trial"",""time""
""fullscreenenter"",""5"",""13176""
","
","
","""event"",""trial"",""time""
""fullscreenenter"",""5"",""13176""
","
","450","","48","","","3000","1","","","images/purpleplanet.jpg","images/alien4","images/alien3","images/rocket1","images/alien4","images/t.png","2","real","true","2","common","1","2022-06-15 17:20:00.309"
"two-step-fixation","194","631147","0.0-76.0-2.19","1601","2083","18","Male","false","false","false","false","""event"",""trial"",""time""
""fullscreenenter"",""5"",""13176""
","
","
","""event"",""trial"",""time""
""fullscreenenter"",""5"",""13176""
","
","","images/earth.jpg","","","","","","","","","","","","","","fixation","","","","","",""
"d3-animate-choice","195","633352","0.0-76.0-0.20","1601","2083","18","Male","false","false","false","false","""event"",""trial"",""time""
""fullscreenenter"",""5"",""13176""
","
","
","""event"",""trial"",""time""
""fullscreenenter"",""5"",""13176""
","
","199","","48","","","3000","1","","","images/earth.jpg","images/rocket1","images/rocket2","null","images/rocket1","","1","real","null","2","","",""
"d3-animate-choice","196","635717","0.0-76.0-1.20","1601","2083","18","Male","false","false","false","false","""event"",""trial"",""time""
""fullscreenenter"",""5"",""13176""
","
","
","""event"",""trial"",""time""
""fullscreenenter"",""5"",""13176""
","
","341","","48","","","3000","1","","","images/purpleplanet.jpg","images/alien4","images/alien3","images/rocket1","images/alien4","images/t.png","2","real","true","2","common","1","2022-06-15 17:20:05.899"
"two-step-fixation","197","636737","0.0-76.0-2.20","1601","2083","18","Male","false","false","false","false","""event"",""trial"",""time""
""fullscreenenter"",""5"",""13176""
","
","
","""event"",""trial"",""time""
""fullscreenenter"",""5"",""13176""
","
","","images/earth.jpg","","","","","","","","","","","","","","fixation","","","","","",""
"d3-animate-choice","198","639247","0.0-76.0-0.21","1601","2083","18","Male","false","false","false","false","""event"",""trial"",""time""
""fullscreenenter"",""5"",""13176""
","
","
","""event"",""trial"",""time""
""fullscreenenter"",""5"",""13176""
","
","499","","48","","","3000","1","","","images/earth.jpg","images/rocket1","images/rocket2","null","images/rocket1","","1","real","null","2","","",""
"d3-animate-choice","199","641648","0.0-76.0-1.21","1601","2083","18","Male","false","false","false","false","""event"",""trial"",""time""
""fullscreenenter"",""5"",""13176""
","
","
","""event"",""trial"",""time""
""fullscreenenter"",""5"",""13176""
","
","390","","48","","","3000","1","","","images/purpleplanet.jpg","images/alien4","images/alien3","images/rocket1","images/alien4","images/t.png","2","real","true","2","common","1","2022-06-15 17:20:11.830"
"two-step-fixation","200","642655","0.0-76.0-2.21","1601","2083","18","Male","false","false","false","false","""event"",""trial"",""time""
""fullscreenenter"",""5"",""13176""
","
","
","""event"",""trial"",""time""
""fullscreenenter"",""5"",""13176""
","
","","images/earth.jpg","","","","","","","","","","","","","","fixation","","","","","",""
"d3-animate-choice","201","644777","0.0-76.0-0.22","1601","2083","18","Male","false","false","false","false","""event"",""trial"",""time""
""fullscreenenter"",""5"",""13176""
","
","
","""event"",""trial"",""time""
""fullscreenenter"",""5"",""13176""
","
","110","","48","","","3000","1","","","images/earth.jpg","images/rocket1","images/rocket2","null","images/rocket1","","1","real","null","2","","",""
"d3-animate-choice","202","647377","0.0-76.0-1.22","1601","2083","18","Male","false","false","false","false","""event"",""trial"",""time""
""fullscreenenter"",""5"",""13176""
","
","
","""event"",""trial"",""time""
""fullscreenenter"",""5"",""13176""
","
","583","","48","","","3000","1","","","images/redplanet1.jpg","images/alien2","images/alien1","images/rocket1","images/alien2","images/t.png","2","real","false","2","rare","1","2022-06-15 17:20:17.559"
"two-step-fixation","203","648397","0.0-76.0-2.22","1601","2083","18","Male","false","false","false","false","""event"",""trial"",""time""
""fullscreenenter"",""5"",""13176""
","
","
","""event"",""trial"",""time""
""fullscreenenter"",""5"",""13176""
","
","","images/earth.jpg","","","","","","","","","","","","","","fixation","","","","","",""
"d3-animate-choice","204","650567","0.0-76.0-0.23","1601","2083","18","Male","false","false","false","false","""event"",""trial"",""time""
""fullscreenenter"",""5"",""13176""
","
","
","""event"",""trial"",""time""
""fullscreenenter"",""5"",""13176""
","
","160","","48","","","3000","1","","","images/earth.jpg","images/rocket1","images/rocket2","null","images/rocket1","","1","real","null","2","","",""
"d3-animate-choice","205","652887","0.0-76.0-1.23","1601","2083","18","Male","false","false","false","false","""event"",""trial"",""time""
""fullscreenenter"",""5"",""13176""
","
","
","""event"",""trial"",""time""
""fullscreenenter"",""5"",""13176""
","
","308","","48","","","3000","1","","","images/redplanet1.jpg","images/alien2","images/alien1","images/rocket1","images/alien2","images/t.png","2","real","false","2","rare","1","2022-06-15 17:20:23.070"
"two-step-fixation","206","653891","0.0-76.0-2.23","1601","2083","18","Male","false","false","false","false","""event"",""trial"",""time""
""fullscreenenter"",""5"",""13176""
","
","
","""event"",""trial"",""time""
""fullscreenenter"",""5"",""13176""
","
","","images/earth.jpg","","","","","","","","","","","","","","fixation","","","","","",""
"d3-animate-choice","207","655997","0.0-76.0-0.24","1601","2083","18","Male","false","false","false","false","""event"",""trial"",""time""
""fullscreenenter"",""5"",""13176""
","
","
","""event"",""trial"",""time""
""fullscreenenter"",""5"",""13176""
","
","97","","48","","","3000","1","","","images/earth.jpg","images/rocket1","images/rocket2","null","images/rocket1","","1","real","null","2","","",""
"d3-animate-choice","208","658477","0.0-76.0-1.24","1601","2083","18","Male","false","false","false","false","""event"",""trial"",""time""
""fullscreenenter"",""5"",""13176""
","
","
","""event"",""trial"",""time""
""fullscreenenter"",""5"",""13176""
","
","465","","48","","","3000","1","","","images/purpleplanet.jpg","images/alien4","images/alien3","images/rocket1","images/alien4","images/t.png","2","real","true","2","common","1","2022-06-15 17:20:28.659"
"two-step-fixation","209","659496","0.0-76.0-2.24","1601","2083","18","Male","false","false","false","false","""event"",""trial"",""time""
""fullscreenenter"",""5"",""13176""
","
","
","""event"",""trial"",""time""
""fullscreenenter"",""5"",""13176""
","
","","images/earth.jpg","","","","","","","","","","","","","","fixation","","","","","",""
"d3-animate-choice","210","661787","0.0-76.0-0.25","1601","2083","18","Male","false","false","false","false","""event"",""trial"",""time""
""fullscreenenter"",""5"",""13176""
","
","
","""event"",""trial"",""time""
""fullscreenenter"",""5"",""13176""
","
","285","","48","","","3000","1","","","images/earth.jpg","images/rocket1","images/rocket2","null","images/rocket1","","1","real","null","2","","",""
"d3-animate-choice","211","664487","0.0-76.0-1.25","1601","2083","18","Male","false","false","false","false","""event"",""trial"",""time""
""fullscreenenter"",""5"",""13176""
","
","
","""event"",""trial"",""time""
""fullscreenenter"",""5"",""13176""
","
","680","","48","","","3000","1","","","images/purpleplanet.jpg","images/alien4","images/alien3","images/rocket1","images/alien4","images/t.png","2","real","true","2","common","1","2022-06-15 17:20:34.669"
"two-step-fixation","212","665497","0.0-76.0-2.25","1601","2083","18","Male","false","false","false","false","""event"",""trial"",""time""
""fullscreenenter"",""5"",""13176""
","
","
","""event"",""trial"",""time""
""fullscreenenter"",""5"",""13176""
","
","","images/earth.jpg","","","","","","","","","","","","","","fixation","","","","","",""
"d3-animate-choice","213","669108","0.0-76.0-0.26","1601","2083","18","Male","false","false","false","false","""event"",""trial"",""time""
""fullscreenenter"",""5"",""13176""
","
","
","""event"",""trial"",""time""
""fullscreenenter"",""5"",""13176""
","
","1604","","48","","","3000","1","","","images/earth.jpg","images/rocket1","images/rocket2","null","images/rocket1","","1","real","null","2","","",""
"d3-animate-choice","214","671630","0.0-76.0-1.26","1601","2083","18","Male","false","false","false","false","""event"",""trial"",""time""
""fullscreenenter"",""5"",""13176""
","
","
","""event"",""trial"",""time""
""fullscreenenter"",""5"",""13176""
","
","513","","48","","","3000","1","","","images/purpleplanet.jpg","images/alien4","images/alien3","images/rocket1","images/alien4","images/t.png","2","real","true","2","common","1","2022-06-15 17:20:41.813"
"two-step-fixation","215","672639","0.0-76.0-2.26","1601","2083","18","Male","false","false","false","false","""event"",""trial"",""time""
""fullscreenenter"",""5"",""13176""
","
","
","""event"",""trial"",""time""
""fullscreenenter"",""5"",""13176""
","
","","images/earth.jpg","","","","","","","","","","","","","","fixation","","","","","",""
"d3-animate-choice","216","676458","0.0-76.0-0.27","1601","2083","18","Male","false","false","false","false","""event"",""trial"",""time""
""fullscreenenter"",""5"",""13176""
","
","
","""event"",""trial"",""time""
""fullscreenenter"",""5"",""13176""
","
","1797","","48","","","3000","1","","","images/earth.jpg","images/rocket1","images/rocket2","null","images/rocket1","","1","real","null","2","","",""
"d3-animate-choice","217","678857","0.0-76.0-1.27","1601","2083","18","Male","false","false","false","false","""event"",""trial"",""time""
""fullscreenenter"",""5"",""13176""
","
","
","""event"",""trial"",""time""
""fullscreenenter"",""5"",""13176""
","
","394","","48","","","3000","1","","","images/redplanet1.jpg","images/alien2","images/alien1","images/rocket1","images/alien2","images/t.png","2","real","false","2","rare","1","2022-06-15 17:20:49.040"
"two-step-fixation","218","679878","0.0-76.0-2.27","1601","2083","18","Male","false","false","false","false","""event"",""trial"",""time""
""fullscreenenter"",""5"",""13176""
","
","
","""event"",""trial"",""time""
""fullscreenenter"",""5"",""13176""
","
","","images/earth.jpg","","","","","","","","","","","","","","fixation","","","","","",""
"d3-animate-choice","219","682087","0.0-76.0-0.28","1601","2083","18","Male","false","false","false","false","""event"",""trial"",""time""
""fullscreenenter"",""5"",""13176""
","
","
","""event"",""trial"",""time""
""fullscreenenter"",""5"",""13176""
","
","201","","48","","","3000","1","","","images/earth.jpg","images/rocket1","images/rocket2","null","images/rocket1","","1","real","null","2","","",""
"d3-animate-choice","220","684227","0.0-76.0-1.28","1601","2083","18","Male","false","false","false","false","""event"",""trial"",""time""
""fullscreenenter"",""5"",""13176""
","
","
","""event"",""trial"",""time""
""fullscreenenter"",""5"",""13176""
","
","125","","48","","","3000","1","","","images/purpleplanet.jpg","images/alien4","images/alien3","images/rocket1","images/alien4","images/t.png","2","real","true","2","common","1","2022-06-15 17:20:54.409"
"two-step-fixation","221","685247","0.0-76.0-2.28","1601","2083","18","Male","false","false","false","false","""event"",""trial"",""time""
""fullscreenenter"",""5"",""13176""
","
","
","""event"",""trial"",""time""
""fullscreenenter"",""5"",""13176""
","
","","images/earth.jpg","","","","","","","","","","","","","","fixation","","","","","",""
"d3-animate-choice","222","687807","0.0-76.0-0.29","1601","2083","18","Male","false","false","false","false","""event"",""trial"",""time""
""fullscreenenter"",""5"",""13176""
","
","
","""event"",""trial"",""time""
""fullscreenenter"",""5"",""13176""
","
","540","","48","","","3000","1","","","images/earth.jpg","images/rocket1","images/rocket2","null","images/rocket1","","1","real","null","2","","",""
"d3-animate-choice","223","690818","0.0-76.0-1.29","1601","2083","18","Male","false","false","false","false","""event"",""trial"",""time""
""fullscreenenter"",""5"",""13176""
","
","
","""event"",""trial"",""time""
""fullscreenenter"",""5"",""13176""
","
","1007","","48","","","3000","1","","","images/purpleplanet.jpg","images/alien4","images/alien3","images/rocket1","images/alien4","images/nothing.png","2","real","true","2","common","0","2022-06-15 17:21:01.000"
"two-step-fixation","224","691837","0.0-76.0-2.29","1601","2083","18","Male","false","false","false","false","""event"",""trial"",""time""
""fullscreenenter"",""5"",""13176""
","
","
","""event"",""trial"",""time""
""fullscreenenter"",""5"",""13176""
","
","","images/earth.jpg","","","","","","","","","","","","","","fixation","","","","","",""
"d3-animate-choice","225","694128","0.0-76.0-0.30","1601","2083","18","Male","false","false","false","false","""event"",""trial"",""time""
""fullscreenenter"",""5"",""13176""
","
","
","""event"",""trial"",""time""
""fullscreenenter"",""5"",""13176""
","
","286","","48","","","3000","1","","","images/earth.jpg","images/rocket1","images/rocket2","null","images/rocket1","","1","real","null","2","","",""
"d3-animate-choice","226","696467","0.0-76.0-1.30","1601","2083","18","Male","false","false","false","false","""event"",""trial"",""time""
""fullscreenenter"",""5"",""13176""
","
","
","""event"",""trial"",""time""
""fullscreenenter"",""5"",""13176""
","
","332","","48","","","3000","1","","","images/purpleplanet.jpg","images/alien4","images/alien3","images/rocket1","images/alien4","images/t.png","2","real","true","2","common","1","2022-06-15 17:21:06.649"
"two-step-fixation","227","697477","0.0-76.0-2.30","1601","2083","18","Male","false","false","false","false","""event"",""trial"",""time""
""fullscreenenter"",""5"",""13176""
","
","
","""event"",""trial"",""time""
""fullscreenenter"",""5"",""13176""
","
","","images/earth.jpg","","","","","","","","","","","","","","fixation","","","","","",""
"d3-animate-choice","228","699727","0.0-76.0-0.31","1601","2083","18","Male","false","false","false","false","""event"",""trial"",""time""
""fullscreenenter"",""5"",""13176""
","
","
","""event"",""trial"",""time""
""fullscreenenter"",""5"",""13176""
","
","235","","48","","","3000","1","","","images/earth.jpg","images/rocket1","images/rocket2","null","images/rocket1","","1","real","null","2","","",""
"d3-animate-choice","229","702076","0.0-76.0-1.31","1601","2083","18","Male","false","false","false","false","""event"",""trial"",""time""
""fullscreenenter"",""5"",""13176""
","
","
","""event"",""trial"",""time""
""fullscreenenter"",""5"",""13176""
","
","343","","48","","","3000","1","","","images/purpleplanet.jpg","images/alien4","images/alien3","images/rocket1","images/alien4","images/t.png","2","real","true","2","common","1","2022-06-15 17:21:12.260"
"two-step-fixation","230","703097","0.0-76.0-2.31","1601","2083","18","Male","false","false","false","false","""event"",""trial"",""time""
""fullscreenenter"",""5"",""13176""
","
","
","""event"",""trial"",""time""
""fullscreenenter"",""5"",""13176""
","
","","images/earth.jpg","","","","","","","","","","","","","","fixation","","","","","",""
"d3-animate-choice","231","705367","0.0-76.0-0.32","1601","2083","18","Male","false","false","false","false","""event"",""trial"",""time""
""fullscreenenter"",""5"",""13176""
","
","
","""event"",""trial"",""time""
""fullscreenenter"",""5"",""13176""
","
","250","","48","","","3000","1","","","images/earth.jpg","images/rocket1","images/rocket2","null","images/rocket1","","1","real","null","2","","",""
"d3-animate-choice","232","707687","0.0-76.0-1.32","1601","2083","18","Male","false","false","false","false","""event"",""trial"",""time""
""fullscreenenter"",""5"",""13176""
","
","
","""event"",""trial"",""time""
""fullscreenenter"",""5"",""13176""
","
","312","","48","","","3000","1","","","images/purpleplanet.jpg","images/alien4","images/alien3","images/rocket1","images/alien4","images/nothing.png","2","real","true","2","common","0","2022-06-15 17:21:17.869"
"two-step-fixation","233","708707","0.0-76.0-2.32","1601","2083","18","Male","false","false","false","false","""event"",""trial"",""time""
""fullscreenenter"",""5"",""13176""
","
","
","""event"",""trial"",""time""
""fullscreenenter"",""5"",""13176""
","
","","images/earth.jpg","","","","","","","","","","","","","","fixation","","","","","",""
"d3-animate-choice","234","710878","0.0-76.0-0.33","1601","2083","18","Male","false","false","false","false","""event"",""trial"",""time""
""fullscreenenter"",""5"",""13176""
","
","
","""event"",""trial"",""time""
""fullscreenenter"",""5"",""13176""
","
","160","","48","","","3000","1","","","images/earth.jpg","images/rocket1","images/rocket2","null","images/rocket1","","1","real","null","2","","",""
"d3-animate-choice","235","713547","0.0-76.0-1.33","1601","2083","18","Male","false","false","false","false","""event"",""trial"",""time""
""fullscreenenter"",""5"",""13176""
","
","
","""event"",""trial"",""time""
""fullscreenenter"",""5"",""13176""
","
","657","","48","","","3000","1","","","images/redplanet1.jpg","images/alien2","images/alien1","images/rocket1","images/alien2","images/t.png","2","real","false","2","rare","1","2022-06-15 17:21:23.729"
"two-step-fixation","236","714568","0.0-76.0-2.33","1601","2083","18","Male","false","false","false","false","""event"",""trial"",""time""
""fullscreenenter"",""5"",""13176""
","
","
","""event"",""trial"",""time""
""fullscreenenter"",""5"",""13176""
","
","","images/earth.jpg","","","","","","","","","","","","","","fixation","","","","","",""
"d3-animate-choice","237","716907","0.0-76.0-0.34","1601","2083","18","Male","false","false","false","false","""event"",""trial"",""time""
""fullscreenenter"",""5"",""13176""
","
","
","""event"",""trial"",""time""
""fullscreenenter"",""5"",""13176""
","
","334","","48","","","3000","1","","","images/earth.jpg","images/rocket1","images/rocket2","null","images/rocket1","","1","real","null","2","","",""
"d3-animate-choice","238","719378","0.0-76.0-1.34","1601","2083","18","Male","false","false","false","false","""event"",""trial"",""time""
""fullscreenenter"",""5"",""13176""
","
","
","""event"",""trial"",""time""
""fullscreenenter"",""5"",""13176""
","
","458","","49","","","3000","1","","","images/purpleplanet.jpg","images/alien4","images/alien3","images/rocket1","images/alien3","images/nothing.png","2","real","true","1","common","0","2022-06-15 17:21:29.560"
"two-step-fixation","239","720398","0.0-76.0-2.34","1601","2083","18","Male","false","false","false","false","""event"",""trial"",""time""
""fullscreenenter"",""5"",""13176""
","
","
","""event"",""trial"",""time""
""fullscreenenter"",""5"",""13176""
","
","","images/earth.jpg","","","","","","","","","","","","","","fixation","","","","","",""
"d3-animate-choice","240","722637","0.0-76.0-0.35","1601","2083","18","Male","false","false","false","false","""event"",""trial"",""time""
""fullscreenenter"",""5"",""13176""
","
","
","""event"",""trial"",""time""
""fullscreenenter"",""5"",""13176""
","
","220","","48","","","3000","1","","","images/earth.jpg","images/rocket1","images/rocket2","null","images/rocket1","","1","real","null","2","","",""
"d3-animate-choice","241","725007","0.0-76.0-1.35","1601","2083","18","Male","false","false","false","false","""event"",""trial"",""time""
""fullscreenenter"",""5"",""13176""
","
","
","""event"",""trial"",""time""
""fullscreenenter"",""5"",""13176""
","
","364","","48","","","3000","1","","","images/redplanet1.jpg","images/alien2","images/alien1","images/rocket1","images/alien2","images/t.png","2","real","false","2","rare","1","2022-06-15 17:21:35.190"
"two-step-fixation","242","726028","0.0-76.0-2.35","1601","2083","18","Male","false","false","false","false","""event"",""trial"",""time""
""fullscreenenter"",""5"",""13176""
","
","
","""event"",""trial"",""time""
""fullscreenenter"",""5"",""13176""
","
","","images/earth.jpg","","","","","","","","","","","","","","fixation","","","","","",""
"d3-animate-choice","243","728308","0.0-76.0-0.36","1601","2083","18","Male","false","false","false","false","""event"",""trial"",""time""
""fullscreenenter"",""5"",""13176""
","
","
","""event"",""trial"",""time""
""fullscreenenter"",""5"",""13176""
","
","259","","48","","","3000","1","","","images/earth.jpg","images/rocket1","images/rocket2","null","images/rocket1","","1","real","null","2","","",""
"d3-animate-choice","244","730637","0.0-76.0-1.36","1601","2083","18","Male","false","false","false","false","""event"",""trial"",""time""
""fullscreenenter"",""5"",""13176""
","
","
","""event"",""trial"",""time""
""fullscreenenter"",""5"",""13176""
","
","320","","48","","","3000","1","","","images/purpleplanet.jpg","images/alien4","images/alien3","images/rocket1","images/alien4","images/t.png","2","real","true","2","common","1","2022-06-15 17:21:40.819"
"two-step-fixation","245","731657","0.0-76.0-2.36","1601","2083","18","Male","false","false","false","false","""event"",""trial"",""time""
""fullscreenenter"",""5"",""13176""
","
","
","""event"",""trial"",""time""
""fullscreenenter"",""5"",""13176""
","
","","images/earth.jpg","","","","","","","","","","","","","","fixation","","","","","",""
"d3-animate-choice","246","733898","0.0-76.0-0.37","1601","2083","18","Male","false","false","false","false","""event"",""trial"",""time""
""fullscreenenter"",""5"",""13176""
","
","
","""event"",""trial"",""time""
""fullscreenenter"",""5"",""13176""
","
","235","","48","","","3000","1","","","images/earth.jpg","images/rocket1","images/rocket2","null","images/rocket1","","1","real","null","2","","",""
"d3-animate-choice","247","736288","0.0-76.0-1.37","1601","2083","18","Male","false","false","false","false","""event"",""trial"",""time""
""fullscreenenter"",""5"",""13176""
","
","
","""event"",""trial"",""time""
""fullscreenenter"",""5"",""13176""
","
","385","","48","","","3000","1","","","images/purpleplanet.jpg","images/alien4","images/alien3","images/rocket1","images/alien4","images/t.png","2","real","true","2","common","1","2022-06-15 17:21:46.470"
"two-step-fixation","248","737307","0.0-76.0-2.37","1601","2083","18","Male","false","false","false","false","""event"",""trial"",""time""
""fullscreenenter"",""5"",""13176""
","
","
","""event"",""trial"",""time""
""fullscreenenter"",""5"",""13176""
","
","","images/earth.jpg","","","","","","","","","","","","","","fixation","","","","","",""
"d3-animate-choice","249","739407","0.0-76.0-0.38","1601","2083","18","Male","false","false","false","false","""event"",""trial"",""time""
""fullscreenenter"",""5"",""13176""
","
","
","""event"",""trial"",""time""
""fullscreenenter"",""5"",""13176""
","
