"trial_type","trial_index","time_elapsed","internal_node_id","participant_id","subject_id","age","gender","rocket_sides","red_planet_first_rocket","red_display_order","purple_display_order","interactions","blur_events","focus_events","fullscreenenter_events","fullscreenexit_events","rt","stimulus","key_press","button_pressed","success","duration","valid_pressed","rts","keys","planet_text","right_text","left_text","center_text","chosen_text","reward_text","trial_stage","practice_trial","transition_type","choice","transition","reward","timestamp"
"pavlovia","0","2","0.0-0.0","2430","2758","19","Male","true","false","false","true","
","
","
","
","
","","","","","","","","","","","","","","","","","","","","","",""
"html-keyboard-response","1","1132","0.0-1.0","2430","2758","19","Male","true","false","false","true","
","
","
","
","
","1129.1000000238419","Welcome! Press the space bar to begin.","32","","","","","","","","","","","","","","","","","","",""
"audio-keyboard-response","2","1740","0.0-2.0","2430","2758","19","Male","true","false","false","true","
","
","
","
","
","611","audio/beep_loop.wav","32","","","","","","","","","","","","","","","","","","",""
"audio-button-response","3","3133","0.0-3.0","2430","2758","19","Male","true","false","false","true","
","
","
","
","
","NaN","audio/fish.mp3","","1","","","","","","","","","","","","","","","","","",""
"audio-button-response","4","5496","0.0-4.0","2430","2758","19","Male","true","false","false","true","""event"",""trial"",""time""
""fullscreenenter"",""5"",""9075""
","
","
","""event"",""trial"",""time""
""fullscreenenter"",""5"",""9075""
","
","NaN","audio/tiger.mp3","","4","","","","","","","","","","","","","","","","","",""
"fullscreen","5","10073","0.0-5.0","2430","2758","19","Male","true","false","false","true","""event"",""trial"",""time""
""fullscreenenter"",""5"",""9075""
","
","
","""event"",""trial"",""time""
""fullscreenenter"",""5"",""9075""
","
","","","","","true","","","","","","","","","","","","","","","","",""
"d3-instructions","6","12196","0.0-6.0","2430","2758","19","Male","true","false","false","true","""event"",""trial"",""time""
""fullscreenenter"",""5"",""9075""
","
","
","""event"",""trial"",""time""
""fullscreenenter"",""5"",""9075""
","
","","","","","","","","","","","","","","","","","","","","","",""
"d3-instructions","7","13324","0.0-7.0","2430","2758","19","Male","true","false","false","true","""event"",""trial"",""time""
""fullscreenenter"",""5"",""9075""
","
","
","""event"",""trial"",""time""
""fullscreenenter"",""5"",""9075""
","
","","","","","","","","","","","","","","","","","","","","","",""
"d3-instructions","8","14220","0.0-8.0","2430","2758","19","Male","true","false","false","true","""event"",""trial"",""time""
""fullscreenenter"",""5"",""9075""
","
","
","""event"",""trial"",""time""
""fullscreenenter"",""5"",""9075""
","
","","","","","","","","","","","","","","","","","","","","","",""
"d3-instructions","9","14892","0.0-9.0","2430","2758","19","Male","true","false","false","true","""event"",""trial"",""time""
""fullscreenenter"",""5"",""9075""
","
","
","""event"",""trial"",""time""
""fullscreenenter"",""5"",""9075""
","
","","","","","","","","","","","","","","","","","","","","","",""
"d3-instructions","10","15340","0.0-10.0","2430","2758","19","Male","true","false","false","true","""event"",""trial"",""time""
""fullscreenenter"",""5"",""9075""
","
","
","""event"",""trial"",""time""
""fullscreenenter"",""5"",""9075""
","
","","","","","","","","","","","","","","","","","","","","","",""
"d3-animate-choice","11","18701","0.0-11.0","2430","2758","19","Male","true","false","false","true","""event"",""trial"",""time""
""fullscreenenter"",""5"",""9075""
","
","
","""event"",""trial"",""time""
""fullscreenenter"",""5"",""9075""
","
","1342.1999999284744","","49","","","3000","1","","","images/tutgreenplanet.jpg","images/tutalien1","images/tutalien2","null","images/tutalien2","","NA","practice","null","","","",""
"d3-animate-choice","12","21015","0.0-12.0","2430","2758","19","Male","true","false","false","true","""event"",""trial"",""time""
""fullscreenenter"",""5"",""9075""
","
","
","""event"",""trial"",""time""
""fullscreenenter"",""5"",""9075""
","
","301.10000002384186","","49","","","3000","1","","","images/tutgreenplanet.jpg","images/tutalien1","images/tutalien2","null","images/tutalien2","","NA","practice","null","","","",""
"d3-animate-choice","13","24076","0.0-13.0","2430","2758","19","Male","true","false","false","true","""event"",""trial"",""time""
""fullscreenenter"",""5"",""9075""
","
","
","""event"",""trial"",""time""
""fullscreenenter"",""5"",""9075""
","
","275.39999997615814","","50","","","3000","1","1051.1999999284744","49","images/tutgreenplanet.jpg","images/tutalien1","images/tutalien2","null","images/tutalien2","","NA","practice","null","","","",""
"d3-animate-choice","14","27549","0.0-14.0","2430","2758","19","Male","true","false","false","true","""event"",""trial"",""time""
""fullscreenenter"",""5"",""9075""
","
","
","""event"",""trial"",""time""
""fullscreenenter"",""5"",""9075""
","
","333.7999999523163","","189","","","3000","1","1469.8999999761581","48","images/tutgreenplanet.jpg","images/tutalien1","images/tutalien2","null","images/tutalien1","","NA","practice","null","","","",""
"d3-instructions","15","29244","0.0-15.0","2430","2758","19","Male","true","false","false","true","""event"",""trial"",""time""
""fullscreenenter"",""5"",""9075""
","
","
","""event"",""trial"",""time""
""fullscreenenter"",""5"",""9075""
","
","","","","","","","","","","","","","","","","","","","","","",""
"d3-instructions","16","29820","0.0-16.0","2430","2758","19","Male","true","false","false","true","""event"",""trial"",""time""
""fullscreenenter"",""5"",""9075""
","
","
","""event"",""trial"",""time""
""fullscreenenter"",""5"",""9075""
","
","","","","","","","","","","","","","","","","","","","","","",""
"d3-instructions","17","30187","0.0-17.0","2430","2758","19","Male","true","false","false","true","""event"",""trial"",""time""
""fullscreenenter"",""5"",""9075""
","
","
","""event"",""trial"",""time""
""fullscreenenter"",""5"",""9075""
","
","","","","","","","","","","","","","","","","","","","","","",""
"d3-instructions","18","30620","0.0-18.0","2430","2758","19","Male","true","false","false","true","""event"",""trial"",""time""
""fullscreenenter"",""5"",""9075""
","
","
","""event"",""trial"",""time""
""fullscreenenter"",""5"",""9075""
","
","","","","","","","","","","","","","","","","","","","","","",""
"d3-instructions","19","31003","0.0-19.0","2430","2758","19","Male","true","false","false","true","""event"",""trial"",""time""
""fullscreenenter"",""5"",""9075""
","
","
","""event"",""trial"",""time""
""fullscreenenter"",""5"",""9075""
","
","","","","","","","","","","","","","","","","","","","","","",""
"d3-animate-choice","20","33901","0.0-20.0","2430","2758","19","Male","true","false","false","true","""event"",""trial"",""time""
""fullscreenenter"",""5"",""9075""
","
","
","""event"",""trial"",""time""
""fullscreenenter"",""5"",""9075""
","
","887.8000000715256","","49","","","3000","1","","","images/tutyellowplanet.jpg","null","images/tutalien3","null","images/tutalien3","images/t.png","NA","practice","null","","","",""
"d3-animate-choice","21","36102","0.0-21.0","2430","2758","19","Male","true","false","false","true","""event"",""trial"",""time""
""fullscreenenter"",""5"",""9075""
","
","
","""event"",""trial"",""time""
""fullscreenenter"",""5"",""9075""
","
","189.30000007152557","","49","","","3000","1","","","images/tutyellowplanet.jpg","null","images/tutalien3","null","images/tutalien3","images/t.png","NA","practice","null","","","",""
"d3-animate-choice","22","38395","0.0-22.0","2430","2758","19","Male","true","false","false","true","""event"",""trial"",""time""
""fullscreenenter"",""5"",""9075""
","
","
","""event"",""trial"",""time""
""fullscreenenter"",""5"",""9075""
","
","285.2000000476837","","49","","","3000","1","","","images/tutyellowplanet.jpg","null","images/tutalien3","null","images/tutalien3","images/t.png","NA","practice","null","","","",""
"d3-animate-choice","23","40664","0.0-23.0","2430","2758","19","Male","true","false","false","true","""event"",""trial"",""time""
""fullscreenenter"",""5"",""9075""
","
","
","""event"",""trial"",""time""
""fullscreenenter"",""5"",""9075""
","
","263.39999997615814","","49","","","3000","1","","","images/tutyellowplanet.jpg","null","images/tutalien3","null","images/tutalien3","images/t.png","NA","practice","null","","","",""
"d3-animate-choice","24","42995","0.0-24.0","2430","2758","19","Male","true","false","false","true","""event"",""trial"",""time""
""fullscreenenter"",""5"",""9075""
","
","
","""event"",""trial"",""time""
""fullscreenenter"",""5"",""9075""
","
","315.3000000715256","","49","","","3000","1","","","images/tutyellowplanet.jpg","null","images/tutalien3","null","images/tutalien3","images/t.png","NA","practice","null","","","",""
"d3-animate-choice","25","45303","0.0-25.0","2430","2758","19","Male","true","false","false","true","""event"",""trial"",""time""
""fullscreenenter"",""5"",""9075""
","
","
","""event"",""trial"",""time""
""fullscreenenter"",""5"",""9075""
","
","302.60000002384186","","49","","","3000","1","","","images/tutyellowplanet.jpg","null","images/tutalien3","null","images/tutalien3","images/t.png","NA","practice","null","","","",""
"d3-animate-choice","26","47635","0.0-26.0","2430","2758","19","Male","true","false","false","true","""event"",""trial"",""time""
""fullscreenenter"",""5"",""9075""
","
","
","""event"",""trial"",""time""
""fullscreenenter"",""5"",""9075""
","
","314.6999999284744","","49","","","3000","1","","","images/tutyellowplanet.jpg","null","images/tutalien3","null","images/tutalien3","images/t.png","NA","practice","null","","","",""
"d3-animate-choice","27","50085","0.0-27.0","2430","2758","19","Male","true","false","false","true","""event"",""trial"",""time""
""fullscreenenter"",""5"",""9075""
","
","
","""event"",""trial"",""time""
""fullscreenenter"",""5"",""9075""
","
","446.7000000476837","","49","","","3000","1","","","images/tutyellowplanet.jpg","null","images/tutalien3","null","images/tutalien3","images/t.png","NA","practice","null","","","",""
"d3-animate-choice","28","52549","0.0-28.0","2430","2758","19","Male","true","false","false","true","""event"",""trial"",""time""
""fullscreenenter"",""5"",""9075""
","
","
","""event"",""trial"",""time""
""fullscreenenter"",""5"",""9075""
","
","460.89999997615814","","49","","","3000","1","","","images/tutyellowplanet.jpg","null","images/tutalien3","null","images/tutalien3","images/t.png","NA","practice","null","","","",""
"d3-animate-choice","29","54759","0.0-29.0","2430","2758","19","Male","true","false","false","true","""event"",""trial"",""time""
""fullscreenenter"",""5"",""9075""
","
","
","""event"",""trial"",""time""
""fullscreenenter"",""5"",""9075""
","
","206.39999997615814","","49","","","3000","1","","","images/tutyellowplanet.jpg","null","images/tutalien3","null","images/tutalien3","images/t.png","NA","practice","null","","","",""
"d3-instructions","30","58220","0.0-30.0","2430","2758","19","Male","true","false","false","true","""event"",""trial"",""time""
""fullscreenenter"",""5"",""9075""
","
","
","""event"",""trial"",""time""
""fullscreenenter"",""5"",""9075""
","
","","","","","","","","","","","","","","","","","","","","","",""
"d3-instructions","31","59221","0.0-31.0","2430","2758","19","Male","true","false","false","true","""event"",""trial"",""time""
""fullscreenenter"",""5"",""9075""
","
","
","""event"",""trial"",""time""
""fullscreenenter"",""5"",""9075""
","
","","","","","","","","","","","","","","","","","","","","","",""
"d3-instructions","32","59684","0.0-32.0","2430","2758","19","Male","true","false","false","true","""event"",""trial"",""time""
""fullscreenenter"",""5"",""9075""
","
","
","""event"",""trial"",""time""
""fullscreenenter"",""5"",""9075""
","
","","","","","","","","","","","","","","","","","","","","","",""
"d3-instructions","33","60044","0.0-33.0","2430","2758","19","Male","true","false","false","true","""event"",""trial"",""time""
""fullscreenenter"",""5"",""9075""
","
","
","""event"",""trial"",""time""
""fullscreenenter"",""5"",""9075""
","
","","","","","","","","","","","","","","","","","","","","","",""
"d3-animate-choice","34","63117","0.0-34.0","2430","2758","19","Male","true","false","false","true","""event"",""trial"",""time""
""fullscreenenter"",""5"",""9075""
","
","
","""event"",""trial"",""time""
""fullscreenenter"",""5"",""9075""
","
","360","","32","","","3000","1","1070.6999999284744","49","images/tutgreenplanet.jpg","images/tutalien1","images/tutalien2","null","images/tutalien2","images/t.png","NA","practice","null","","","",""
"d3-animate-choice","35","65381","0.0-35.0","2430","2758","19","Male","true","false","false","true","""event"",""trial"",""time""
""fullscreenenter"",""5"",""9075""
","
","
","""event"",""trial"",""time""
""fullscreenenter"",""5"",""9075""
","
","261.5","","49","","","3000","1","","","images/tutgreenplanet.jpg","images/tutalien1","images/tutalien2","null","images/tutalien2","images/nothing.png","NA","practice","null","","","",""
"d3-animate-choice","36","67541","0.0-36.0","2430","2758","19","Male","true","false","false","true","""event"",""trial"",""time""
""fullscreenenter"",""5"",""9075""
""fullscreenexit"",""37"",""68794""
","
","
","""event"",""trial"",""time""
""fullscreenenter"",""5"",""9075""
","""event"",""trial"",""time""
""fullscreenexit"",""37"",""68794""
","157.09999990463257","","49","","","3000","1","","","images/tutgreenplanet.jpg","images/tutalien1","images/tutalien2","null","images/tutalien2","images/t.png","NA","practice","null","","","",""
"d3-animate-choice","37","69792","0.0-37.0","2430","2758","19","Male","true","false","false","true","""event"",""trial"",""time""
""fullscreenenter"",""5"",""9075""
""fullscreenexit"",""37"",""68794""
","
","
","""event"",""trial"",""time""
""fullscreenenter"",""5"",""9075""
","""event"",""trial"",""time""
""fullscreenexit"",""37"",""68794""
","236.89999997615814","","49","","","3000","1","","","images/tutgreenplanet.jpg","images/tutalien1","images/tutalien2","null","images/tutalien2","images/t.png","NA","practice","null","","","",""
"d3-animate-choice","38","72326","0.0-38.0","2430","2758","19","Male","true","false","false","true","""event"",""trial"",""time""
""fullscreenenter"",""5"",""9075""
""fullscreenexit"",""37"",""68794""
","
","
","""event"",""trial"",""time""
""fullscreenenter"",""5"",""9075""
","""event"",""trial"",""time""
""fullscreenexit"",""37"",""68794""
","531.2999999523163","","49","","","3000","1","","","images/tutgreenplanet.jpg","images/tutalien1","images/tutalien2","null","images/tutalien2","images/t.png","NA","practice","null","","","",""
"d3-animate-choice","39","74856","0.0-39.0","2430","2758","19","Male","true","false","false","true","""event"",""trial"",""time""
""fullscreenenter"",""5"",""9075""
""fullscreenexit"",""37"",""68794""
","
","
","""event"",""trial"",""time""
""fullscreenenter"",""5"",""9075""
","""event"",""trial"",""time""
""fullscreenexit"",""37"",""68794""
","523.7000000476837","","49","","","3000","1","","","images/tutgreenplanet.jpg","images/tutalien1","images/tutalien2","null","images/tutalien2","images/t.png","NA","practice","null","","","",""
"d3-animate-choice","40","77065","0.0-40.0","2430","2758","19","Male","true","false","false","true","""event"",""trial"",""time""
""fullscreenenter"",""5"",""9075""
""fullscreenexit"",""37"",""68794""
","
","
","""event"",""trial"",""time""
""fullscreenenter"",""5"",""9075""
","""event"",""trial"",""time""
""fullscreenexit"",""37"",""68794""
","203.5","","49","","","3000","1","2090.9000000953674","49","images/tutgreenplanet.jpg","images/tutalien1","images/tutalien2","null","images/tutalien2","images/nothing.png","NA","practice","null","","","",""
"d3-animate-choice","41","79340","0.0-41.0","2430","2758","19","Male","true","false","false","true","""event"",""trial"",""time""
""fullscreenenter"",""5"",""9075""
""fullscreenexit"",""37"",""68794""
","
","
","""event"",""trial"",""time""
""fullscreenenter"",""5"",""9075""
","""event"",""trial"",""time""
""fullscreenexit"",""37"",""68794""
","264.89999997615814","","49","","","3000","1","","","images/tutgreenplanet.jpg","images/tutalien1","images/tutalien2","null","images/tutalien2","images/nothing.png","NA","practice","null","","","",""
"d3-animate-choice","42","81433","0.0-42.0","2430","2758","19","Male","true","false","false","true","""event"",""trial"",""time""
""fullscreenenter"",""5"",""9075""
""fullscreenexit"",""37"",""68794""
","
","
","""event"",""trial"",""time""
""fullscreenenter"",""5"",""9075""
","""event"",""trial"",""time""
""fullscreenexit"",""37"",""68794""
","78.60000002384186","","49","","","3000","1","","","images/tutgreenplanet.jpg","images/tutalien1","images/tutalien2","null","images/tutalien2","images/t.png","NA","practice","null","","","",""
"d3-animate-choice","43","83737","0.0-43.0","2430","2758","19","Male","true","false","false","true","""event"",""trial"",""time""
""fullscreenenter"",""5"",""9075""
""fullscreenexit"",""37"",""68794""
","
","
","""event"",""trial"",""time""
""fullscreenenter"",""5"",""9075""
","""event"",""trial"",""time""
""fullscreenexit"",""37"",""68794""
","289.10000002384186","","49","","","3000","1","2265.6999999284744","49","images/tutgreenplanet.jpg","images/tutalien1","images/tutalien2","null","images/tutalien2","images/t.png","NA","practice","null","","","",""
"d3-instructions","44","161380","0.0-44.0","2430","2758","19","Male","true","false","false","true","""event"",""trial"",""time""
""fullscreenenter"",""5"",""9075""
""fullscreenexit"",""37"",""68794""
","
","
","""event"",""trial"",""time""
""fullscreenenter"",""5"",""9075""
","""event"",""trial"",""time""
""fullscreenexit"",""37"",""68794""
","","","","","","","","","","","","","","","","","","","","","",""
"d3-instructions","45","165412","0.0-45.0","2430","2758","19","Male","true","false","false","true","""event"",""trial"",""time""
""fullscreenenter"",""5"",""9075""
""fullscreenexit"",""37"",""68794""
","
","
","""event"",""trial"",""time""
""fullscreenenter"",""5"",""9075""
","""event"",""trial"",""time""
""fullscreenexit"",""37"",""68794""
","","","","","","","","","","","","","","","","","","","","","",""
"d3-instructions","46","165931","0.0-46.0","2430","2758","19","Male","true","false","false","true","""event"",""trial"",""time""
""fullscreenenter"",""5"",""9075""
""fullscreenexit"",""37"",""68794""
","
","
","""event"",""trial"",""time""
""fullscreenenter"",""5"",""9075""
","""event"",""trial"",""time""
""fullscreenexit"",""37"",""68794""
","","","","","","","","","","","","","","","","","","","","","",""
"d3-instructions","47","166307","0.0-47.0","2430","2758","19","Male","true","false","false","true","""event"",""trial"",""time""
""fullscreenenter"",""5"",""9075""
""fullscreenexit"",""37"",""68794""
","
","
","""event"",""trial"",""time""
""fullscreenenter"",""5"",""9075""
","""event"",""trial"",""time""
""fullscreenexit"",""37"",""68794""
","","","","","","","","","","","","","","","","","","","","","",""
"d3-instructions","48","166579","0.0-48.0","2430","2758","19","Male","true","false","false","true","""event"",""trial"",""time""
""fullscreenenter"",""5"",""9075""
""fullscreenexit"",""37"",""68794""
","
","
","""event"",""trial"",""time""
""fullscreenenter"",""5"",""9075""
","""event"",""trial"",""time""
""fullscreenexit"",""37"",""68794""
","","","","","","","","","","","","","","","","","","","","","",""
"d3-instructions","49","166867","0.0-49.0","2430","2758","19","Male","true","false","false","true","""event"",""trial"",""time""
""fullscreenenter"",""5"",""9075""
""fullscreenexit"",""37"",""68794""
","
","
","""event"",""trial"",""time""
""fullscreenenter"",""5"",""9075""
","""event"",""trial"",""time""
""fullscreenexit"",""37"",""68794""
","","","","","","","","","","","","","","","","","","","","","",""
"d3-instructions","50","167147","0.0-50.0","2430","2758","19","Male","true","false","false","true","""event"",""trial"",""time""
""fullscreenenter"",""5"",""9075""
""fullscreenexit"",""37"",""68794""
","
","
","""event"",""trial"",""time""
""fullscreenenter"",""5"",""9075""
","""event"",""trial"",""time""
""fullscreenexit"",""37"",""68794""
","","","","","","","","","","","","","","","","","","","","","",""
"d3-instructions","51","167563","0.0-51.0","2430","2758","19","Male","true","false","false","true","""event"",""trial"",""time""
""fullscreenenter"",""5"",""9075""
""fullscreenexit"",""37"",""68794""
","
","
","""event"",""trial"",""time""
""fullscreenenter"",""5"",""9075""
","""event"",""trial"",""time""
""fullscreenexit"",""37"",""68794""
","","","","","","","","","","","","","","","","","","","","","",""
"d3-instructions","52","168267","0.0-52.0","2430","2758","19","Male","true","false","false","true","""event"",""trial"",""time""
""fullscreenenter"",""5"",""9075""
""fullscreenexit"",""37"",""68794""
","
","
","""event"",""trial"",""time""
""fullscreenenter"",""5"",""9075""
","""event"",""trial"",""time""
""fullscreenexit"",""37"",""68794""
","","","","","","","","","","","","","","","","","","","","","",""
"d3-instructions","53","168604","0.0-53.0","2430","2758","19","Male","true","false","false","true","""event"",""trial"",""time""
""fullscreenenter"",""5"",""9075""
""fullscreenexit"",""37"",""68794""
","
","
","""event"",""trial"",""time""
""fullscreenenter"",""5"",""9075""
","""event"",""trial"",""time""
""fullscreenexit"",""37"",""68794""
","","","","","","","","","","","","","","","","","","","","","",""
"d3-instructions","54","169011","0.0-54.0","2430","2758","19","Male","true","false","false","true","""event"",""trial"",""time""
""fullscreenenter"",""5"",""9075""
""fullscreenexit"",""37"",""68794""
","
","
","""event"",""trial"",""time""
""fullscreenenter"",""5"",""9075""
","""event"",""trial"",""time""
""fullscreenexit"",""37"",""68794""
","","","","","","","","","","","","","","","","","","","","","",""
"d3-instructions","55","169331","0.0-55.0","2430","2758","19","Male","true","false","false","true","""event"",""trial"",""time""
""fullscreenenter"",""5"",""9075""
""fullscreenexit"",""37"",""68794""
","
","
","""event"",""trial"",""time""
""fullscreenenter"",""5"",""9075""
","""event"",""trial"",""time""
""fullscreenexit"",""37"",""68794""
","","","","","","","","","","","","","","","","","","","","","",""
"d3-instructions","56","169643","0.0-56.0","2430","2758","19","Male","true","false","false","true","""event"",""trial"",""time""
""fullscreenenter"",""5"",""9075""
""fullscreenexit"",""37"",""68794""
","
","
","""event"",""trial"",""time""
""fullscreenenter"",""5"",""9075""
","""event"",""trial"",""time""
""fullscreenexit"",""37"",""68794""
","","","","","","","","","","","","","","","","","","","","","",""
"d3-instructions","57","169907","0.0-57.0","2430","2758","19","Male","true","false","false","true","""event"",""trial"",""time""
""fullscreenenter"",""5"",""9075""
""fullscreenexit"",""37"",""68794""
","
","
","""event"",""trial"",""time""
""fullscreenenter"",""5"",""9075""
","""event"",""trial"",""time""
""fullscreenexit"",""37"",""68794""
","","","","","","","","","","","","","","","","","","","","","",""
"d3-instructions","58","170195","0.0-58.0","2430","2758","19","Male","true","false","false","true","""event"",""trial"",""time""
""fullscreenenter"",""5"",""9075""
""fullscreenexit"",""37"",""68794""
","
","
","""event"",""trial"",""time""
""fullscreenenter"",""5"",""9075""
","""event"",""trial"",""time""
""fullscreenexit"",""37"",""68794""
","","","","","","","","","","","","","","","","","","","","","",""
"d3-instructions","59","170435","0.0-59.0","2430","2758","19","Male","true","false","false","true","""event"",""trial"",""time""
""fullscreenenter"",""5"",""9075""
""fullscreenexit"",""37"",""68794""
","
","
","""event"",""trial"",""time""
""fullscreenenter"",""5"",""9075""
","""event"",""trial"",""time""
""fullscreenexit"",""37"",""68794""
","","","","","","","","","","","","","","","","","","","","","",""
"d3-instructions","60","170691","0.0-60.0","2430","2758","19","Male","true","false","false","true","""event"",""trial"",""time""
""fullscreenenter"",""5"",""9075""
""fullscreenexit"",""37"",""68794""
","
","
","""event"",""trial"",""time""
""fullscreenenter"",""5"",""9075""
","""event"",""trial"",""time""
""fullscreenexit"",""37"",""68794""
","","","","","","","","","","","","","","","","","","","","","",""
"d3-animate-choice","61","174042","0.0-61.0-0.0","2430","2758","19","Male","true","false","false","true","""event"",""trial"",""time""
""fullscreenenter"",""5"",""9075""
""fullscreenexit"",""37"",""68794""
","
","
","""event"",""trial"",""time""
""fullscreenenter"",""5"",""9075""
","""event"",""trial"",""time""
""fullscreenexit"",""37"",""68794""
","1341.7999999523163","","49","","","3000","1","","","images/earth.jpg","images/tutrocket2","images/tutrocket1","null","images/tutrocket1","","1","practice","null","1","","",""
"d3-animate-choice","62","176420","0.0-61.0-1.0","2430","2758","19","Male","true","false","false","true","""event"",""trial"",""time""
""fullscreenenter"",""5"",""9075""
""fullscreenexit"",""37"",""68794""
","
","
","""event"",""trial"",""time""
""fullscreenenter"",""5"",""9075""
","""event"",""trial"",""time""
""fullscreenexit"",""37"",""68794""
","374.7999999523163","","49","","","3000","1","","","images/tutyellowplanet.jpg","images/tutalien4","images/tutalien3","images/tutrocket1","images/tutalien3","images/nothing.png","2","practice","true","1","common","0","2022-08-22 21:02:11.759"
"two-step-fixation","63","177424","0.0-61.0-2.0","2430","2758","19","Male","true","false","false","true","""event"",""trial"",""time""
""fullscreenenter"",""5"",""9075""
""fullscreenexit"",""37"",""68794""
","
","
","""event"",""trial"",""time""
""fullscreenenter"",""5"",""9075""
","""event"",""trial"",""time""
""fullscreenexit"",""37"",""68794""
","","images/earth.jpg","","","","","","","","","","","","","","fixation","","","","","",""
"d3-animate-choice","64","179677","0.0-61.0-0.1","2430","2758","19","Male","true","false","false","true","""event"",""trial"",""time""
""fullscreenenter"",""5"",""9075""
""fullscreenexit"",""37"",""68794""
","
","
","""event"",""trial"",""time""
""fullscreenenter"",""5"",""9075""
","""event"",""trial"",""time""
""fullscreenexit"",""37"",""68794""
","249.89999997615814","","49","","","3000","1","","","images/earth.jpg","images/tutrocket2","images/tutrocket1","null","images/tutrocket1","","1","practice","null","1","","",""
"d3-animate-choice","65","181933","0.0-61.0-1.1","2430","2758","19","Male","true","false","false","true","""event"",""trial"",""time""
""fullscreenenter"",""5"",""9075""
""fullscreenexit"",""37"",""68794""
","
","
","""event"",""trial"",""time""
""fullscreenenter"",""5"",""9075""
","""event"",""trial"",""time""
""fullscreenexit"",""37"",""68794""
","252.29999995231628","","48","","","3000","1","","","images/tutyellowplanet.jpg","images/tutalien4","images/tutalien3","images/tutrocket1","images/tutalien4","images/t.png","2","practice","true","2","common","1","2022-08-22 21:02:17.272"
"two-step-fixation","66","182935","0.0-61.0-2.1","2430","2758","19","Male","true","false","false","true","""event"",""trial"",""time""
""fullscreenenter"",""5"",""9075""
""fullscreenexit"",""37"",""68794""
","
","
","""event"",""trial"",""time""
""fullscreenenter"",""5"",""9075""
","""event"",""trial"",""time""
""fullscreenexit"",""37"",""68794""
","","images/earth.jpg","","","","","","","","","","","","","","fixation","","","","","",""
"d3-animate-choice","67","185184","0.0-61.0-0.2","2430","2758","19","Male","true","false","false","true","""event"",""trial"",""time""
""fullscreenenter"",""5"",""9075""
""fullscreenexit"",""37"",""68794""
","
","
","""event"",""trial"",""time""
""fullscreenenter"",""5"",""9075""
","""event"",""trial"",""time""
""fullscreenexit"",""37"",""68794""
","234.29999995231628","","49","","","3000","1","","","images/earth.jpg","images/tutrocket2","images/tutrocket1","null","images/tutrocket1","","1","practice","null","1","","",""
"d3-animate-choice","68","187500","0.0-61.0-1.2","2430","2758","19","Male","true","false","false","true","""event"",""trial"",""time""
""fullscreenenter"",""5"",""9075""
""fullscreenexit"",""37"",""68794""
","
","
","""event"",""trial"",""time""
""fullscreenenter"",""5"",""9075""
","""event"",""trial"",""time""
""fullscreenexit"",""37"",""68794""
","314.10000002384186","","48","","","3000","1","","","images/tutgreenplanet.jpg","images/tutalien2","images/tutalien1","images/tutrocket1","images/tutalien2","images/nothing.png","2","practice","false","2","rare","0","2022-08-22 21:02:22.839"
"two-step-fixation","69","188502","0.0-61.0-2.2","2430","2758","19","Male","true","false","false","true","""event"",""trial"",""time""
""fullscreenenter"",""5"",""9075""
""fullscreenexit"",""37"",""68794""
","
","
","""event"",""trial"",""time""
""fullscreenenter"",""5"",""9075""
","""event"",""trial"",""time""
""fullscreenexit"",""37"",""68794""
","","images/earth.jpg","","","","","","","","","","","","","","fixation","","","","","",""
"d3-animate-choice","70","190549","0.0-61.0-0.3","2430","2758","19","Male","true","false","false","true","""event"",""trial"",""time""
""fullscreenenter"",""5"",""9075""
""fullscreenexit"",""37"",""68794""
","
","
","""event"",""trial"",""time""
""fullscreenenter"",""5"",""9075""
","""event"",""trial"",""time""
""fullscreenexit"",""37"",""68794""
","43","","49","","","3000","1","","","images/earth.jpg","images/tutrocket2","images/tutrocket1","null","images/tutrocket1","","1","practice","null","1","","",""
"d3-animate-choice","71","192868","0.0-61.0-1.3","2430","2758","19","Male","true","false","false","true","""event"",""trial"",""time""
""fullscreenenter"",""5"",""9075""
""fullscreenexit"",""37"",""68794""
","
","
","""event"",""trial"",""time""
""fullscreenenter"",""5"",""9075""
","""event"",""trial"",""time""
""fullscreenexit"",""37"",""68794""
","316.5","","48","","","3000","1","","","images/tutgreenplanet.jpg","images/tutalien2","images/tutalien1","images/tutrocket1","images/tutalien2","images/nothing.png","2","practice","false","2","rare","0","2022-08-22 21:02:28.207"
"two-step-fixation","72","193870","0.0-61.0-2.3","2430","2758","19","Male","true","false","false","true","""event"",""trial"",""time""
""fullscreenenter"",""5"",""9075""
""fullscreenexit"",""37"",""68794""
","
","
","""event"",""trial"",""time""
""fullscreenenter"",""5"",""9075""
","""event"",""trial"",""time""
""fullscreenexit"",""37"",""68794""
","","images/earth.jpg","","","","","","","","","","","","","","fixation","","","","","",""
"d3-animate-choice","73","196180","0.0-61.0-0.4","2430","2758","19","Male","true","false","false","true","""event"",""trial"",""time""
""fullscreenenter"",""5"",""9075""
""fullscreenexit"",""37"",""68794""
","
","
","""event"",""trial"",""time""
""fullscreenenter"",""5"",""9075""
","""event"",""trial"",""time""
""fullscreenexit"",""37"",""68794""
","307","","49","","","3000","1","","","images/earth.jpg","images/tutrocket2","images/tutrocket1","null","images/tutrocket1","","1","practice","null","1","","",""
"d3-animate-choice","74","198967","0.0-61.0-1.4","2430","2758","19","Male","true","false","false","true","""event"",""trial"",""time""
""fullscreenenter"",""5"",""9075""
""fullscreenexit"",""37"",""68794""
","
","
","""event"",""trial"",""time""
""fullscreenenter"",""5"",""9075""
","""event"",""trial"",""time""
""fullscreenexit"",""37"",""68794""
","782.1000000238419","","48","","","3000","1","","","images/tutyellowplanet.jpg","images/tutalien4","images/tutalien3","images/tutrocket1","images/tutalien4","images/nothing.png","2","practice","true","2","common","0","2022-08-22 21:02:34.306"
"two-step-fixation","75","199971","0.0-61.0-2.4","2430","2758","19","Male","true","false","false","true","""event"",""trial"",""time""
""fullscreenenter"",""5"",""9075""
""fullscreenexit"",""37"",""68794""
","
","
","""event"",""trial"",""time""
""fullscreenenter"",""5"",""9075""
","""event"",""trial"",""time""
""fullscreenexit"",""37"",""68794""
","","images/earth.jpg","","","","","","","","","","","","","","fixation","","","","","",""
"d3-animate-choice","76","202292","0.0-61.0-0.5","2430","2758","19","Male","true","false","false","true","""event"",""trial"",""time""
""fullscreenenter"",""5"",""9075""
""fullscreenexit"",""37"",""68794""
","
","
","""event"",""trial"",""time""
""fullscreenenter"",""5"",""9075""
","""event"",""trial"",""time""
""fullscreenexit"",""37"",""68794""
","318.39999997615814","","48","","","3000","1","","","images/earth.jpg","images/tutrocket2","images/tutrocket1","null","images/tutrocket2","","1","practice","null","2","","",""
"d3-animate-choice","77","204540","0.0-61.0-1.5","2430","2758","19","Male","true","false","false","true","""event"",""trial"",""time""
""fullscreenenter"",""5"",""9075""
""fullscreenexit"",""37"",""68794""
","
","
","""event"",""trial"",""time""
""fullscreenenter"",""5"",""9075""
","""event"",""trial"",""time""
""fullscreenexit"",""37"",""68794""
","245","","49","","","3000","1","","","images/tutyellowplanet.jpg","images/tutalien4","images/tutalien3","images/tutrocket2","images/tutalien3","images/nothing.png","2","practice","false","1","rare","0","2022-08-22 21:02:39.879"
"two-step-fixation","78","205543","0.0-61.0-2.5","2430","2758","19","Male","true","false","false","true","""event"",""trial"",""time""
""fullscreenenter"",""5"",""9075""
""fullscreenexit"",""37"",""68794""
","
","
","""event"",""trial"",""time""
""fullscreenenter"",""5"",""9075""
","""event"",""trial"",""time""
""fullscreenexit"",""37"",""68794""
","","images/earth.jpg","","","","","","","","","","","","","","fixation","","","","","",""
"d3-animate-choice","79","208012","0.0-61.0-0.6","2430","2758","19","Male","true","false","false","true","""event"",""trial"",""time""
""fullscreenenter"",""5"",""9075""
""fullscreenexit"",""37"",""68794""
","
","
","""event"",""trial"",""time""
""fullscreenenter"",""5"",""9075""
","""event"",""trial"",""time""
""fullscreenexit"",""37"",""68794""
","465.10000002384186","","49","","","3000","1","","","images/earth.jpg","images/tutrocket2","images/tutrocket1","null","images/tutrocket1","","1","practice","null","1","","",""
"d3-animate-choice","80","210332","0.0-61.0-1.6","2430","2758","19","Male","true","false","false","true","""event"",""trial"",""time""
""fullscreenenter"",""5"",""9075""
""fullscreenexit"",""37"",""68794""
","
","
","""event"",""trial"",""time""
""fullscreenenter"",""5"",""9075""
","""event"",""trial"",""time""
""fullscreenexit"",""37"",""68794""
","317.5","","49","","","3000","1","","","images/tutyellowplanet.jpg","images/tutalien4","images/tutalien3","images/tutrocket1","images/tutalien3","images/t.png","2","practice","true","1","common","1","2022-08-22 21:02:45.671"
"two-step-fixation","81","211335","0.0-61.0-2.6","2430","2758","19","Male","true","false","false","true","""event"",""trial"",""time""
""fullscreenenter"",""5"",""9075""
""fullscreenexit"",""37"",""68794""
","
","
","""event"",""trial"",""time""
""fullscreenenter"",""5"",""9075""
","""event"",""trial"",""time""
""fullscreenexit"",""37"",""68794""
","","images/earth.jpg","","","","","","","","","","","","","","fixation","","","","","",""
"d3-animate-choice","82","213524","0.0-61.0-0.7","2430","2758","19","Male","true","false","false","true","""event"",""trial"",""time""
""fullscreenenter"",""5"",""9075""
""fullscreenexit"",""37"",""68794""
","
","
","""event"",""trial"",""time""
""fullscreenenter"",""5"",""9075""
","""event"",""trial"",""time""
""fullscreenexit"",""37"",""68794""
","186","","49","","","3000","1","","","images/earth.jpg","images/tutrocket2","images/tutrocket1","null","images/tutrocket1","","1","practice","null","1","","",""
"d3-animate-choice","83","215628","0.0-61.0-1.7","2430","2758","19","Male","true","false","false","true","""event"",""trial"",""time""
""fullscreenenter"",""5"",""9075""
""fullscreenexit"",""37"",""68794""
","
","
","""event"",""trial"",""time""
""fullscreenenter"",""5"",""9075""
","""event"",""trial"",""time""
""fullscreenexit"",""37"",""68794""
","101.80000007152557","","49","","","3000","1","","","images/tutgreenplanet.jpg","images/tutalien2","images/tutalien1","images/tutrocket1","images/tutalien1","images/nothing.png","2","practice","false","1","rare","0","2022-08-22 21:02:50.967"
"two-step-fixation","84","216631","0.0-61.0-2.7","2430","2758","19","Male","true","false","false","true","""event"",""trial"",""time""
""fullscreenenter"",""5"",""9075""
""fullscreenexit"",""37"",""68794""
","
","
","""event"",""trial"",""time""
""fullscreenenter"",""5"",""9075""
","""event"",""trial"",""time""
""fullscreenexit"",""37"",""68794""
","","images/earth.jpg","","","","","","","","","","","","","","fixation","","","","","",""
"d3-animate-choice","85","218877","0.0-61.0-0.8","2430","2758","19","Male","true","false","false","true","""event"",""trial"",""time""
""fullscreenenter"",""5"",""9075""
""fullscreenexit"",""37"",""68794""
","
","
","""event"",""trial"",""time""
""fullscreenenter"",""5"",""9075""
","""event"",""trial"",""time""
""fullscreenexit"",""37"",""68794""
","244","","49","","","3000","1","","","images/earth.jpg","images/tutrocket2","images/tutrocket1","null","images/tutrocket1","","1","practice","null","1","","",""
"d3-animate-choice","86","221132","0.0-61.0-1.8","2430","2758","19","Male","true","false","false","true","""event"",""trial"",""time""
""fullscreenenter"",""5"",""9075""
""fullscreenexit"",""37"",""68794""
","
","
","""event"",""trial"",""time""
""fullscreenenter"",""5"",""9075""
","""event"",""trial"",""time""
""fullscreenexit"",""37"",""68794""
","251.80000007152557","","49","","","3000","1","","","images/tutyellowplanet.jpg","images/tutalien4","images/tutalien3","images/tutrocket1","images/tutalien3","images/nothing.png","2","practice","true","1","common","0","2022-08-22 21:02:56.471"
"two-step-fixation","87","222134","0.0-61.0-2.8","2430","2758","19","Male","true","false","false","true","""event"",""trial"",""time""
""fullscreenenter"",""5"",""9075""
""fullscreenexit"",""37"",""68794""
","
","
","""event"",""trial"",""time""
""fullscreenenter"",""5"",""9075""
","""event"",""trial"",""time""
""fullscreenexit"",""37"",""68794""
","","images/earth.jpg","","","","","","","","","","","","","","fixation","","","","","",""
"d3-animate-choice","88","224260","0.0-61.0-0.9","2430","2758","19","Male","true","false","false","true","""event"",""trial"",""time""
""fullscreenenter"",""5"",""9075""
""fullscreenexit"",""37"",""68794""
","
","
","""event"",""trial"",""time""
""fullscreenenter"",""5"",""9075""
","""event"",""trial"",""time""
""fullscreenexit"",""37"",""68794""
","123.69999992847443","","49","","","3000","1","","","images/earth.jpg","images/tutrocket2","images/tutrocket1","null","images/tutrocket1","","1","practice","null","1","","",""
"d3-animate-choice","89","226476","0.0-61.0-1.9","2430","2758","19","Male","true","false","false","true","""event"",""trial"",""time""
""fullscreenenter"",""5"",""9075""
""fullscreenexit"",""37"",""68794""
","
","
","""event"",""trial"",""time""
""fullscreenenter"",""5"",""9075""
","""event"",""trial"",""time""
""fullscreenexit"",""37"",""68794""
","213.80000007152557","","49","","","3000","1","","","images/tutyellowplanet.jpg","images/tutalien4","images/tutalien3","images/tutrocket1","images/tutalien3","images/nothing.png","2","practice","true","1","common","0","2022-08-22 21:03:01.815"
"two-step-fixation","90","227479","0.0-61.0-2.9","2430","2758","19","Male","true","false","false","true","""event"",""trial"",""time""
""fullscreenenter"",""5"",""9075""
""fullscreenexit"",""37"",""68794""
","
","
","""event"",""trial"",""time""
""fullscreenenter"",""5"",""9075""
","""event"",""trial"",""time""
""fullscreenexit"",""37"",""68794""
","","images/earth.jpg","","","","","","","","","","","","","","fixation","","","","","",""
"d3-animate-choice","91","229612","0.0-61.0-0.10","2430","2758","19","Male","true","false","false","true","""event"",""trial"",""time""
""fullscreenenter"",""5"",""9075""
""fullscreenexit"",""37"",""68794""
","
","
","""event"",""trial"",""time""
""fullscreenenter"",""5"",""9075""
","""event"",""trial"",""time""
""fullscreenexit"",""37"",""68794""
","130.60000002384186","","49","","","3000","1","","","images/earth.jpg","images/tutrocket2","images/tutrocket1","null","images/tutrocket1","","1","practice","null","1","","",""
"d3-animate-choice","92","232077","0.0-61.0-1.10","2430","2758","19","Male","true","false","false","true","""event"",""trial"",""time""
""fullscreenenter"",""5"",""9075""
""fullscreenexit"",""37"",""68794""
","
","
","""event"",""trial"",""time""
""fullscreenenter"",""5"",""9075""
","""event"",""trial"",""time""
""fullscreenexit"",""37"",""68794""
","460.8000000715256","","49","","","3000","1","","","images/tutyellowplanet.jpg","images/tutalien4","images/tutalien3","images/tutrocket1","images/tutalien3","images/nothing.png","2","practice","true","1","common","0","2022-08-22 21:03:07.416"
"two-step-fixation","93","233081","0.0-61.0-2.10","2430","2758","19","Male","true","false","false","true","""event"",""trial"",""time""
""fullscreenenter"",""5"",""9075""
""fullscreenexit"",""37"",""68794""
","
","
","""event"",""trial"",""time""
""fullscreenenter"",""5"",""9075""
","""event"",""trial"",""time""
""fullscreenexit"",""37"",""68794""
","","images/earth.jpg","","","","","","","","","","","","","","fixation","","","","","",""
"d3-animate-choice","94","235110","0.0-61.0-0.11","2430","2758","19","Male","true","false","false","true","""event"",""trial"",""time""
""fullscreenenter"",""5"",""9075""
""fullscreenexit"",""37"",""68794""
","
","
","""event"",""trial"",""time""
""fullscreenenter"",""5"",""9075""
","""event"",""trial"",""time""
""fullscreenexit"",""37"",""68794""
","25","","49","","","3000","1","","","images/earth.jpg","images/tutrocket2","images/tutrocket1","null","images/tutrocket1","","1","practice","null","1","","",""
"d3-animate-choice","95","237884","0.0-61.0-1.11","2430","2758","19","Male","true","false","false","true","""event"",""trial"",""time""
""fullscreenenter"",""5"",""9075""
""fullscreenexit"",""37"",""68794""
","
","
","""event"",""trial"",""time""
""fullscreenenter"",""5"",""9075""
","""event"",""trial"",""time""
""fullscreenexit"",""37"",""68794""
","772","","49","","","3000","1","","","images/tutyellowplanet.jpg","images/tutalien4","images/tutalien3","images/tutrocket1","images/tutalien3","images/nothing.png","2","practice","true","1","common","0","2022-08-22 21:03:13.223"
"two-step-fixation","96","238887","0.0-61.0-2.11","2430","2758","19","Male","true","false","false","true","""event"",""trial"",""time""
""fullscreenenter"",""5"",""9075""
""fullscreenexit"",""37"",""68794""
","
","
","""event"",""trial"",""time""
""fullscreenenter"",""5"",""9075""
","""event"",""trial"",""time""
""fullscreenexit"",""37"",""68794""
","","images/earth.jpg","","","","","","","","","","","","","","fixation","","","","","",""
"d3-animate-choice","97","241196","0.0-61.0-0.12","2430","2758","19","Male","true","false","false","true","""event"",""trial"",""time""
""fullscreenenter"",""5"",""9075""
""fullscreenexit"",""37"",""68794""
","
","
","""event"",""trial"",""time""
""fullscreenenter"",""5"",""9075""
","""event"",""trial"",""time""
""fullscreenexit"",""37"",""68794""
","306.7000000476837","","49","","","3000","1","1330.6000000238419","123","images/earth.jpg","images/tutrocket2","images/tutrocket1","null","images/tutrocket1","","1","practice","null","1","","",""
"d3-animate-choice","98","245196","0.0-61.0-1.12","2430","2758","19","Male","true","false","false","true","""event"",""trial"",""time""
""fullscreenenter"",""5"",""9075""
""fullscreenexit"",""37"",""68794""
","
","
","""event"",""trial"",""time""
""fullscreenenter"",""5"",""9075""
","""event"",""trial"",""time""
""fullscreenexit"",""37"",""68794""
","733.1999999284744","","122","","","3000","1","1621.2999999523163,1997.1999999284744,3533.600000023842","123,49,17","images/tutyellowplanet.jpg","images/tutalien4","images/tutalien3","images/tutrocket1","images/tutalien3","images/nothing.png","2","practice","true","","common","0","2022-08-22 21:03:20.535"
"two-step-fixation","99","246199","0.0-61.0-2.12","2430","2758","19","Male","true","false","false","true","""event"",""trial"",""time""
""fullscreenenter"",""5"",""9075""
""fullscreenexit"",""37"",""68794""
","
","
","""event"",""trial"",""time""
""fullscreenenter"",""5"",""9075""
","""event"",""trial"",""time""
""fullscreenexit"",""37"",""68794""
","","images/earth.jpg","","","","","","","","","","","","","","fixation","","","","","",""
"d3-animate-choice","100","248476","0.0-61.0-0.13","2430","2758","19","Male","true","false","false","true","""event"",""trial"",""time""
""fullscreenenter"",""5"",""9075""
""fullscreenexit"",""37"",""68794""
","
","
","""event"",""trial"",""time""
""fullscreenenter"",""5"",""9075""
","""event"",""trial"",""time""
""fullscreenexit"",""37"",""68794""
","274.7999999523163","","49","","","3000","1","1115.1999999284744,1547.5999999046326","123,122","images/earth.jpg","images/tutrocket2","images/tutrocket1","null","images/tutrocket1","","1","practice","null","1","","",""
"d3-animate-choice","101","251124","0.0-61.0-1.13","2430","2758","19","Male","true","false","false","true","""event"",""trial"",""time""
""fullscreenenter"",""5"",""9075""
""fullscreenexit"",""37"",""68794""
","
","
","""event"",""trial"",""time""
""fullscreenenter"",""5"",""9075""
","""event"",""trial"",""time""
""fullscreenexit"",""37"",""68794""
","645.3000000715256","","49","","","3000","1","","","images/tutgreenplanet.jpg","images/tutalien2","images/tutalien1","images/tutrocket1","images/tutalien1","images/nothing.png","2","practice","false","1","rare","0","2022-08-22 21:03:26.463"
"two-step-fixation","102","252128","0.0-61.0-2.13","2430","2758","19","Male","true","false","false","true","""event"",""trial"",""time""
""fullscreenenter"",""5"",""9075""
""fullscreenexit"",""37"",""68794""
","
","
","""event"",""trial"",""time""
""fullscreenenter"",""5"",""9075""
","""event"",""trial"",""time""
""fullscreenexit"",""37"",""68794""
","","images/earth.jpg","","","","","","","","","","","","","","fixation","","","","","",""
"d3-animate-choice","103","254588","0.0-61.0-0.14","2430","2758","19","Male","true","false","false","true","""event"",""trial"",""time""
""fullscreenenter"",""5"",""9075""
""fullscreenexit"",""37"",""68794""
","
","
","""event"",""trial"",""time""
""fullscreenenter"",""5"",""9075""
","""event"",""trial"",""time""
""fullscreenexit"",""37"",""68794""
","458.10000002384186","","49","","","3000","1","","","images/earth.jpg","images/tutrocket2","images/tutrocket1","null","images/tutrocket1","","1","practice","null","1","","",""
"d3-animate-choice","104","257156","0.0-61.0-1.14","2430","2758","19","Male","true","false","false","true","""event"",""trial"",""time""
""fullscreenenter"",""5"",""9075""
""fullscreenexit"",""37"",""68794""
","
","
","""event"",""trial"",""time""
""fullscreenenter"",""5"",""9075""
","""event"",""trial"",""time""
""fullscreenexit"",""37"",""68794""
","565.5","","49","","","3000","1","","","images/tutyellowplanet.jpg","images/tutalien4","images/tutalien3","images/tutrocket1","images/tutalien3","images/nothing.png","2","practice","true","1","common","0","2022-08-22 21:03:32.495"
"two-step-fixation","105","258159","0.0-61.0-2.14","2430","2758","19","Male","true","false","false","true","""event"",""trial"",""time""
""fullscreenenter"",""5"",""9075""
""fullscreenexit"",""37"",""68794""
","
","
","""event"",""trial"",""time""
""fullscreenenter"",""5"",""9075""
","""event"",""trial"",""time""
""fullscreenexit"",""37"",""68794""
","","images/earth.jpg","","","","","","","","","","","","","","fixation","","","","","",""
"d3-animate-choice","106","260188","0.0-61.0-0.15","2430","2758","19","Male","true","false","false","true","""event"",""trial"",""time""
""fullscreenenter"",""5"",""9075""
""fullscreenexit"",""37"",""68794""
","
","
","""event"",""trial"",""time""
""fullscreenenter"",""5"",""9075""
","""event"",""trial"",""time""
""fullscreenexit"",""37"",""68794""
","26.300000071525574","","49","","","3000","1","","","images/earth.jpg","images/tutrocket2","images/tutrocket1","null","images/tutrocket1","","1","practice","null","1","","",""
"d3-animate-choice","107","262484","0.0-61.0-1.15","2430","2758","19","Male","true","false","false","true","""event"",""trial"",""time""
""fullscreenenter"",""5"",""9075""
""fullscreenexit"",""37"",""68794""
","
","
","""event"",""trial"",""time""
""fullscreenenter"",""5"",""9075""
","""event"",""trial"",""time""
""fullscreenexit"",""37"",""68794""
","294.2000000476837","","48","","","3000","1","","","images/tutgreenplanet.jpg","images/tutalien2","images/tutalien1","images/tutrocket1","images/tutalien2","images/t.png","2","practice","false","2","rare","1","2022-08-22 21:03:37.823"
"two-step-fixation","108","263488","0.0-61.0-2.15","2430","2758","19","Male","true","false","false","true","""event"",""trial"",""time""
""fullscreenenter"",""5"",""9075""
""fullscreenexit"",""37"",""68794""
","
","
","""event"",""trial"",""time""
""fullscreenenter"",""5"",""9075""
","""event"",""trial"",""time""
""fullscreenexit"",""37"",""68794""
","","images/earth.jpg","","","","","","","","","","","","","","fixation","","","","","",""
"d3-animate-choice","109","265741","0.0-61.0-0.16","2430","2758","19","Male","true","false","false","true","""event"",""trial"",""time""
""fullscreenenter"",""5"",""9075""
""fullscreenexit"",""37"",""68794""
","
","
","""event"",""trial"",""time""
""fullscreenenter"",""5"",""9075""
","""event"",""trial"",""time""
""fullscreenexit"",""37"",""68794""
","249.39999997615814","","48","","","3000","1","","","images/earth.jpg","images/tutrocket2","images/tutrocket1","null","images/tutrocket2","","1","practice","null","2","","",""
"d3-animate-choice","110","267894","0.0-61.0-1.16","2430","2758","19","Male","true","false","false","true","""event"",""trial"",""time""
""fullscreenenter"",""5"",""9075""
""fullscreenexit"",""37"",""68794""
","
","
","""event"",""trial"",""time""
""fullscreenenter"",""5"",""9075""
","""event"",""trial"",""time""
""fullscreenexit"",""37"",""68794""
","148.89999997615814","","48","","","3000","1","","","images/tutgreenplanet.jpg","images/tutalien2","images/tutalien1","images/tutrocket2","images/tutalien2","images/nothing.png","2","practice","true","2","common","0","2022-08-22 21:03:43.233"
"two-step-fixation","111","268897","0.0-61.0-2.16","2430","2758","19","Male","true","false","false","true","""event"",""trial"",""time""
""fullscreenenter"",""5"",""9075""
""fullscreenexit"",""37"",""68794""
","
","
","""event"",""trial"",""time""
""fullscreenenter"",""5"",""9075""
","""event"",""trial"",""time""
""fullscreenexit"",""37"",""68794""
","","images/earth.jpg","","","","","","","","","","","","","","fixation","","","","","",""
"d3-animate-choice","112","271204","0.0-61.0-0.17","2430","2758","19","Male","true","false","false","true","""event"",""trial"",""time""
""fullscreenenter"",""5"",""9075""
""fullscreenexit"",""37"",""68794""
","
","
","""event"",""trial"",""time""
""fullscreenenter"",""5"",""9075""
","""event"",""trial"",""time""
""fullscreenexit"",""37"",""68794""
","304.7000000476837","","48","","","3000","1","","","images/earth.jpg","images/tutrocket2","images/tutrocket1","null","images/tutrocket2","","1","practice","null","2","","",""
"d3-animate-choice","113","273259","0.0-61.0-1.17","2430","2758","19","Male","true","false","false","true","""event"",""trial"",""time""
""fullscreenenter"",""5"",""9075""
""fullscreenexit"",""37"",""68794""
","
","
","""event"",""trial"",""time""
""fullscreenenter"",""5"",""9075""
","""event"",""trial"",""time""
""fullscreenexit"",""37"",""68794""
","54.10000002384186","","49","","","3000","1","","","images/tutgreenplanet.jpg","images/tutalien2","images/tutalien1","images/tutrocket2","images/tutalien1","images/nothing.png","2","practice","true","1","common","0","2022-08-22 21:03:48.598"
"two-step-fixation","114","274262","0.0-61.0-2.17","2430","2758","19","Male","true","false","false","true","""event"",""trial"",""time""
""fullscreenenter"",""5"",""9075""
""fullscreenexit"",""37"",""68794""
","
","
","""event"",""trial"",""time""
""fullscreenenter"",""5"",""9075""
","""event"",""trial"",""time""
""fullscreenexit"",""37"",""68794""
","","images/earth.jpg","","","","","","","","","","","","","","fixation","","","","","",""
"d3-animate-choice","115","276365","0.0-61.0-0.18","2430","2758","19","Male","true","false","false","true","""event"",""trial"",""time""
""fullscreenenter"",""5"",""9075""
""fullscreenexit"",""37"",""68794""
","
","
","""event"",""trial"",""time""
""fullscreenenter"",""5"",""9075""
","""event"",""trial"",""time""
""fullscreenexit"",""37"",""68794""
","99.79999995231628","","48","","","3000","1","","","images/earth.jpg","images/tutrocket2","images/tutrocket1","null","images/tutrocket2","","1","practice","null","2","","",""
"d3-animate-choice","116","278621","0.0-61.0-1.18","2430","2758","19","Male","true","false","false","true","""event"",""trial"",""time""
""fullscreenenter"",""5"",""9075""
""fullscreenexit"",""37"",""68794""
","
","
","""event"",""trial"",""time""
""fullscreenenter"",""5"",""9075""
","""event"",""trial"",""time""
""fullscreenexit"",""37"",""68794""
","253.5","","48","","","3000","1","","","images/tutgreenplanet.jpg","images/tutalien2","images/tutalien1","images/tutrocket2","images/tutalien2","images/t.png","2","practice","true","2","common","1","2022-08-22 21:03:53.960"
"two-step-fixation","117","279625","0.0-61.0-2.18","2430","2758","19","Male","true","false","false","true","""event"",""trial"",""time""
""fullscreenenter"",""5"",""9075""
""fullscreenexit"",""37"",""68794""
","
","
","""event"",""trial"",""time""
""fullscreenenter"",""5"",""9075""
","""event"",""trial"",""time""
""fullscreenexit"",""37"",""68794""
","","images/earth.jpg","","","","","","","","","","","","","","fixation","","","","","",""
"d3-animate-choice","118","281796","0.0-61.0-0.19","2430","2758","19","Male","true","false","false","true","""event"",""trial"",""time""
""fullscreenenter"",""5"",""9075""
""fullscreenexit"",""37"",""68794""
","
","
","""event"",""trial"",""time""
""fullscreenenter"",""5"",""9075""
","""event"",""trial"",""time""
""fullscreenexit"",""37"",""68794""
","168.19999992847443","","48","","","3000","1","","","images/earth.jpg","images/tutrocket2","images/tutrocket1","null","images/tutrocket2","","1","practice","null","2","","",""
"d3-animate-choice","119","284036","0.0-61.0-1.19","2430","2758","19","Male","true","false","false","true","""event"",""trial"",""time""
""fullscreenenter"",""5"",""9075""
""fullscreenexit"",""37"",""68794""
","
","
","""event"",""trial"",""time""
""fullscreenenter"",""5"",""9075""
","""event"",""trial"",""time""
""fullscreenexit"",""37"",""68794""
","238.10000002384186","","48","","","3000","1","","","images/tutgreenplanet.jpg","images/tutalien2","images/tutalien1","images/tutrocket2","images/tutalien2","images/nothing.png","2","practice","true","2","common","0","2022-08-22 21:03:59.375"
"two-step-fixation","120","285039","0.0-61.0-2.19","2430","2758","19","Male","true","false","false","true","""event"",""trial"",""time""
""fullscreenenter"",""5"",""9075""
""fullscreenexit"",""37"",""68794""
","
","
","""event"",""trial"",""time""
""fullscreenenter"",""5"",""9075""
","""event"",""trial"",""time""
""fullscreenexit"",""37"",""68794""
","","images/earth.jpg","","","","","","","","","","","","","","fixation","","","","","",""
"d3-instructions","121","289267","0.0-62.0","2430","2758","19","Male","true","false","false","true","""event"",""trial"",""time""
""fullscreenenter"",""5"",""9075""
""fullscreenexit"",""37"",""68794""
","
","
","""event"",""trial"",""time""
""fullscreenenter"",""5"",""9075""
","""event"",""trial"",""time""
""fullscreenexit"",""37"",""68794""
","","","","","","","","","","","","","","","","","","","","","",""
"audio-keyboard-response","122","291131","0.0-63.0","2430","2758","19","Male","true","false","false","true","""event"",""trial"",""time""
""fullscreenenter"",""5"",""9075""
""fullscreenexit"",""37"",""68794""
","
","
","""event"",""trial"",""time""
""fullscreenenter"",""5"",""9075""
","""event"",""trial"",""time""
""fullscreenexit"",""37"",""68794""
","1861","audio/instructions/treasure_feedback.wav","32","","","","","","","","","","","","","","","","","","",""
"d3-instructions","123","294868","0.0-64.0","2430","2758","19","Male","true","false","false","true","""event"",""trial"",""time""
""fullscreenenter"",""5"",""9075""
""fullscreenexit"",""37"",""68794""
","
","
","""event"",""trial"",""time""
""fullscreenenter"",""5"",""9075""
","""event"",""trial"",""time""
""fullscreenexit"",""37"",""68794""
","","","","","","","","","","","","","","","","","","","","","",""
"d3-instructions","124","297357","0.0-65.0","2430","2758","19","Male","true","false","false","true","""event"",""trial"",""time""
""fullscreenenter"",""5"",""9075""
""fullscreenexit"",""37"",""68794""
","
","
","""event"",""trial"",""time""
""fullscreenenter"",""5"",""9075""
","""event"",""trial"",""time""
""fullscreenexit"",""37"",""68794""
","","","","","","","","","","","","","","","","","","","","","",""
"d3-instructions","125","298732","0.0-66.0","2430","2758","19","Male","true","false","false","true","""event"",""trial"",""time""
""fullscreenenter"",""5"",""9075""
""fullscreenexit"",""37"",""68794""
","
","
","""event"",""trial"",""time""
""fullscreenenter"",""5"",""9075""
","""event"",""trial"",""time""
""fullscreenexit"",""37"",""68794""
","","","","","","","","","","","","","","","","","","","","","",""
"d3-instructions","126","299707","0.0-67.0","2430","2758","19","Male","true","false","false","true","""event"",""trial"",""time""
""fullscreenenter"",""5"",""9075""
""fullscreenexit"",""37"",""68794""
","
","
","""event"",""trial"",""time""
""fullscreenenter"",""5"",""9075""
","""event"",""trial"",""time""
""fullscreenexit"",""37"",""68794""
","","","","","","","","","","","","","","","","","","","","","",""
"d3-instructions","127","302602","0.0-68.0","2430","2758","19","Male","true","false","false","true","""event"",""trial"",""time""
""fullscreenenter"",""5"",""9075""
""fullscreenexit"",""37"",""68794""
","
","
","""event"",""trial"",""time""
""fullscreenenter"",""5"",""9075""
","""event"",""trial"",""time""
""fullscreenexit"",""37"",""68794""
","","","","","","","","","","","","","","","","","","","","","",""
"instructions-quiz","128","304828","0.0-69.0","2430","2758","19","Male","true","false","false","true","""event"",""trial"",""time""
""fullscreenenter"",""5"",""9075""
""fullscreenexit"",""37"",""68794""
""blur"",""129"",""307049""
""focus"",""129"",""307720""
""blur"",""129"",""307731""
","""event"",""trial"",""time""
""blur"",""129"",""307049""
""blur"",""129"",""307731""
","""event"",""trial"",""time""
""focus"",""129"",""307720""
","""event"",""trial"",""time""
""fullscreenenter"",""5"",""9075""
","""event"",""trial"",""time""
""fullscreenexit"",""37"",""68794""
","2224.6999999284744","audio/quiz/Q1_Prompt.wav","","1","","","","","","","","","","","","","","","","","",""
"audio-keyboard-response","129","313997","0.0-70.0","2430","2758","19","Male","true","false","false","true","""event"",""trial"",""time""
""fullscreenenter"",""5"",""9075""
""fullscreenexit"",""37"",""68794""
""blur"",""129"",""307049""
""focus"",""129"",""307720""
""blur"",""129"",""307731""
""focus"",""130"",""322028""
","""event"",""trial"",""time""
""blur"",""129"",""307049""
""blur"",""129"",""307731""
","""event"",""trial"",""time""
""focus"",""129"",""307720""
""focus"",""130"",""322028""
","""event"",""trial"",""time""
""fullscreenenter"",""5"",""9075""
","""event"",""trial"",""time""
""fullscreenexit"",""37"",""68794""
","null","audio/quiz/Q1_Correct.wav","null","","","","","","","","","","","","","","","","","","",""
"instructions-quiz","130","322126","0.0-71.0","2430","2758","19","Male","true","false","false","true","""event"",""trial"",""time""
""fullscreenenter"",""5"",""9075""
""fullscreenexit"",""37"",""68794""
""blur"",""129"",""307049""
""focus"",""129"",""307720""
""blur"",""129"",""307731""
""focus"",""130"",""322028""
""blur"",""131"",""325173""
""focus"",""131"",""328174""
""blur"",""131"",""331641""
""focus"",""131"",""334697""
","""event"",""trial"",""time""
""blur"",""129"",""307049""
""blur"",""129"",""307731""
""blur"",""131"",""325173""
""blur"",""131"",""331641""
","""event"",""trial"",""time""
""focus"",""129"",""307720""
""focus"",""130"",""322028""
""focus"",""131"",""328174""
""focus"",""131"",""334697""
","""event"",""trial"",""time""
""fullscreenenter"",""5"",""9075""
","""event"",""trial"",""time""
""fullscreenexit"",""37"",""68794""
","8128","audio/quiz/Q2_Prompt.wav","","0","","","","","","","","","","","","","","","","","",""
"audio-keyboard-response","131","334997","0.0-72.0","2430","2758","19","Male","true","false","false","true","""event"",""trial"",""time""
""fullscreenenter"",""5"",""9075""
""fullscreenexit"",""37"",""68794""
""blur"",""129"",""307049""
""focus"",""129"",""307720""
""blur"",""129"",""307731""
""focus"",""130"",""322028""
""blur"",""131"",""325173""
""focus"",""131"",""328174""
""blur"",""131"",""331641""
""focus"",""131"",""334697""
","""event"",""trial"",""time""
""blur"",""129"",""307049""
""blur"",""129"",""307731""
""blur"",""131"",""325173""
""blur"",""131"",""331641""
","""event"",""trial"",""time""
""focus"",""129"",""307720""
""focus"",""130"",""322028""
""focus"",""131"",""328174""
""focus"",""131"",""334697""
","""event"",""trial"",""time""
""fullscreenenter"",""5"",""9075""
","""event"",""trial"",""time""
""fullscreenexit"",""37"",""68794""
","null","audio/quiz/Q2_Correct.wav","null","","","","","","","","","","","","","","","","","","",""
"instructions-quiz","132","337346","0.0-73.0","2430","2758","19","Male","true","false","false","true","""event"",""trial"",""time""
""fullscreenenter"",""5"",""9075""
""fullscreenexit"",""37"",""68794""
""blur"",""129"",""307049""
""focus"",""129"",""307720""
""blur"",""129"",""307731""
""focus"",""130"",""322028""
""blur"",""131"",""325173""
""focus"",""131"",""328174""
""blur"",""131"",""331641""
""focus"",""131"",""334697""
","""event"",""trial"",""time""
""blur"",""129"",""307049""
""blur"",""129"",""307731""
""blur"",""131"",""325173""
""blur"",""131"",""331641""
","""event"",""trial"",""time""
""focus"",""129"",""307720""
""focus"",""130"",""322028""
""focus"",""131"",""328174""
""focus"",""131"",""334697""
","""event"",""trial"",""time""
""fullscreenenter"",""5"",""9075""
","""event"",""trial"",""time""
""fullscreenexit"",""37"",""68794""
","2348.600000023842","audio/quiz/Q3_Prompt.wav","","1","","","","","","","","","","","","","","","","","",""
"audio-keyboard-response","133","343147","0.0-74.0","2430","2758","19","Male","true","false","false","true","""event"",""trial"",""time""
""fullscreenenter"",""5"",""9075""
""fullscreenexit"",""37"",""68794""
""blur"",""129"",""307049""
""focus"",""129"",""307720""
""blur"",""129"",""307731""
""focus"",""130"",""322028""
""blur"",""131"",""325173""
""focus"",""131"",""328174""
""blur"",""131"",""331641""
""focus"",""131"",""334697""
","""event"",""trial"",""time""
""blur"",""129"",""307049""
""blur"",""129"",""307731""
""blur"",""131"",""325173""
""blur"",""131"",""331641""
","""event"",""trial"",""time""
""focus"",""129"",""307720""
""focus"",""130"",""322028""
""focus"",""131"",""328174""
""focus"",""131"",""334697""
","""event"",""trial"",""time""
""fullscreenenter"",""5"",""9075""
","""event"",""trial"",""time""
""fullscreenexit"",""37"",""68794""
","null","audio/quiz/Q3_Correct.wav","null","","","","","","","","","","","","","","","","","","",""
"d3-instructions","134","345108","0.0-75.0","2430","2758","19","Male","true","false","false","true","""event"",""trial"",""time""
""fullscreenenter"",""5"",""9075""
""fullscreenexit"",""37"",""68794""
""blur"",""129"",""307049""
""focus"",""129"",""307720""
""blur"",""129"",""307731""
""focus"",""130"",""322028""
""blur"",""131"",""325173""
""focus"",""131"",""328174""
""blur"",""131"",""331641""
""focus"",""131"",""334697""
","""event"",""trial"",""time""
""blur"",""129"",""307049""
""blur"",""129"",""307731""
""blur"",""131"",""325173""
""blur"",""131"",""331641""
","""event"",""trial"",""time""
""focus"",""129"",""307720""
""focus"",""130"",""322028""
""focus"",""131"",""328174""
""focus"",""131"",""334697""
","""event"",""trial"",""time""
""fullscreenenter"",""5"",""9075""
","""event"",""trial"",""time""
""fullscreenexit"",""37"",""68794""
","","","","","","","","","","","","","","","","","","","","","",""
"d3-animate-choice","135","348164","0.0-76.0-0.0","2430","2758","19","Male","true","false","false","true","""event"",""trial"",""time""
""fullscreenenter"",""5"",""9075""
""fullscreenexit"",""37"",""68794""
""blur"",""129"",""307049""
""focus"",""129"",""307720""
""blur"",""129"",""307731""
""focus"",""130"",""322028""
""blur"",""131"",""325173""
""focus"",""131"",""328174""
""blur"",""131"",""331641""
""focus"",""131"",""334697""
","""event"",""trial"",""time""
""blur"",""129"",""307049""
""blur"",""129"",""307731""
""blur"",""131"",""325173""
""blur"",""131"",""331641""
","""event"",""trial"",""time""
""focus"",""129"",""307720""
""focus"",""130"",""322028""
""focus"",""131"",""328174""
""focus"",""131"",""334697""
","""event"",""trial"",""time""
""fullscreenenter"",""5"",""9075""
","""event"",""trial"",""time""
""fullscreenexit"",""37"",""68794""
","1053.2000000476837","","49","","","3000","1","","","images/earth.jpg","images/rocket2","images/rocket1","null","images/rocket1","","1","real","null","1","","",""
"d3-animate-choice","136","350984","0.0-76.0-1.0","2430","2758","19","Male","true","false","false","true","""event"",""trial"",""time""
""fullscreenenter"",""5"",""9075""
""fullscreenexit"",""37"",""68794""
""blur"",""129"",""307049""
""focus"",""129"",""307720""
""blur"",""129"",""307731""
""focus"",""130"",""322028""
""blur"",""131"",""325173""
""focus"",""131"",""328174""
""blur"",""131"",""331641""
""focus"",""131"",""334697""
","""event"",""trial"",""time""
""blur"",""129"",""307049""
""blur"",""129"",""307731""
""blur"",""131"",""325173""
""blur"",""131"",""331641""
","""event"",""trial"",""time""
""focus"",""129"",""307720""
""focus"",""130"",""322028""
""focus"",""131"",""328174""
""focus"",""131"",""334697""
","""event"",""trial"",""time""
""fullscreenenter"",""5"",""9075""
","""event"",""trial"",""time""
""fullscreenexit"",""37"",""68794""
","805.7999999523163","","48","","","3000","1","","","images/purpleplanet.jpg","images/alien4","images/alien3","images/rocket1","images/alien4","images/t.png","2","real","true","2","common","1","2022-08-22 21:05:06.323"
"two-step-fixation","137","352002","0.0-76.0-2.0","2430","2758","19","Male","true","false","false","true","""event"",""trial"",""time""
""fullscreenenter"",""5"",""9075""
""fullscreenexit"",""37"",""68794""
""blur"",""129"",""307049""
""focus"",""129"",""307720""
""blur"",""129"",""307731""
""focus"",""130"",""322028""
""blur"",""131"",""325173""
""focus"",""131"",""328174""
""blur"",""131"",""331641""
""focus"",""131"",""334697""
","""event"",""trial"",""time""
""blur"",""129"",""307049""
""blur"",""129"",""307731""
""blur"",""131"",""325173""
""blur"",""131"",""331641""
","""event"",""trial"",""time""
""focus"",""129"",""307720""
""focus"",""130"",""322028""
""focus"",""131"",""328174""
""focus"",""131"",""334697""
","""event"",""trial"",""time""
""fullscreenenter"",""5"",""9075""
","""event"",""trial"",""time""
""fullscreenexit"",""37"",""68794""
","","images/earth.jpg","","","","","","","","","","","","","","fixation","","","","","",""
"d3-animate-choice","138","354324","0.0-76.0-0.1","2430","2758","19","Male","true","false","false","true","""event"",""trial"",""time""
""fullscreenenter"",""5"",""9075""
""fullscreenexit"",""37"",""68794""
""blur"",""129"",""307049""
""focus"",""129"",""307720""
""blur"",""129"",""307731""
""focus"",""130"",""322028""
""blur"",""131"",""325173""
""focus"",""131"",""328174""
""blur"",""131"",""331641""
""focus"",""131"",""334697""
","""event"",""trial"",""time""
""blur"",""129"",""307049""
""blur"",""129"",""307731""
""blur"",""131"",""325173""
""blur"",""131"",""331641""
","""event"",""trial"",""time""
""focus"",""129"",""307720""
""focus"",""130"",""322028""
""focus"",""131"",""328174""
""focus"",""131"",""334697""
","""event"",""trial"",""time""
""fullscreenenter"",""5"",""9075""
","""event"",""trial"",""time""
""fullscreenexit"",""37"",""68794""
","319.1999999284744","","49","","","3000","1","","","images/earth.jpg","images/rocket2","images/rocket1","null","images/rocket1","","1","real","null","1","","",""
"d3-animate-choice","139","356597","0.0-76.0-1.1","2430","2758","19","Male","true","false","false","true","""event"",""trial"",""time""
""fullscreenenter"",""5"",""9075""
""fullscreenexit"",""37"",""68794""
""blur"",""129"",""307049""
""focus"",""129"",""307720""
""blur"",""129"",""307731""
""focus"",""130"",""322028""
""blur"",""131"",""325173""
""focus"",""131"",""328174""
""blur"",""131"",""331641""
""focus"",""131"",""334697""
""blur"",""140"",""357049""
","""event"",""trial"",""time""
""blur"",""129"",""307049""
""blur"",""129"",""307731""
""blur"",""131"",""325173""
""blur"",""131"",""331641""
""blur"",""140"",""357049""
","""event"",""trial"",""time""
""focus"",""129"",""307720""
""focus"",""130"",""322028""
""focus"",""131"",""328174""
""focus"",""131"",""334697""
","""event"",""trial"",""time""
""fullscreenenter"",""5"",""9075""
","""event"",""trial"",""time""
""fullscreenexit"",""37"",""68794""
","269.39999997615814","","48","","","3000","1","","","images/purpleplanet.jpg","images/alien4","images/alien3","images/rocket1","images/alien4","images/t.png","2","real","true","2","common","1","2022-08-22 21:05:11.936"
"two-step-fixation","140","357600","0.0-76.0-2.1","2430","2758","19","Male","true","false","false","true","""event"",""trial"",""time""
""fullscreenenter"",""5"",""9075""
""fullscreenexit"",""37"",""68794""
""blur"",""129"",""307049""
""focus"",""129"",""307720""
""blur"",""129"",""307731""
""focus"",""130"",""322028""
""blur"",""131"",""325173""
""focus"",""131"",""328174""
""blur"",""131"",""331641""
""focus"",""131"",""334697""
""blur"",""140"",""357049""
""focus"",""141"",""360611""
","""event"",""trial"",""time""
""blur"",""129"",""307049""
""blur"",""129"",""307731""
""blur"",""131"",""325173""
""blur"",""131"",""331641""
""blur"",""140"",""357049""
","""event"",""trial"",""time""
""focus"",""129"",""307720""
""focus"",""130"",""322028""
""focus"",""131"",""328174""
""focus"",""131"",""334697""
""focus"",""141"",""360611""
","""event"",""trial"",""time""
""fullscreenenter"",""5"",""9075""
","""event"",""trial"",""time""
""fullscreenexit"",""37"",""68794""
","","images/earth.jpg","","","","","","","","","","","","","","fixation","","","","","",""
"d3-animate-choice","141","361606","0.0-76.0-0.2","2430","2758","19","Male","true","false","false","true","""event"",""trial"",""time""
""fullscreenenter"",""5"",""9075""
""fullscreenexit"",""37"",""68794""
""blur"",""129"",""307049""
""focus"",""129"",""307720""
""blur"",""129"",""307731""
""focus"",""130"",""322028""
""blur"",""131"",""325173""
""focus"",""131"",""328174""
""blur"",""131"",""331641""
""focus"",""131"",""334697""
""blur"",""140"",""357049""
""focus"",""141"",""360611""
","""event"",""trial"",""time""
""blur"",""129"",""307049""
""blur"",""129"",""307731""
""blur"",""131"",""325173""
""blur"",""131"",""331641""
""blur"",""140"",""357049""
","""event"",""trial"",""time""
""focus"",""129"",""307720""
""focus"",""130"",""322028""
""focus"",""131"",""328174""
""focus"",""131"",""334697""
""focus"",""141"",""360611""
","""event"",""trial"",""time""
""fullscreenenter"",""5"",""9075""
","""event"",""trial"",""time""
""fullscreenexit"",""37"",""68794""
","3248.600000023842","","49","","","3000","0","","","images/earth.jpg","images/rocket2","images/rocket1","null","","","1","real","null","1","","",""
"d3-animate-choice","142","362621","0.0-76.0-1.2","2430","2758","19","Male","true","false","false","true","""event"",""trial"",""time""
""fullscreenenter"",""5"",""9075""
""fullscreenexit"",""37"",""68794""
""blur"",""129"",""307049""
""focus"",""129"",""307720""
""blur"",""129"",""307731""
""focus"",""130"",""322028""
""blur"",""131"",""325173""
""focus"",""131"",""328174""
""blur"",""131"",""331641""
""focus"",""131"",""334697""
""blur"",""140"",""357049""
""focus"",""141"",""360611""
","""event"",""trial"",""time""
""blur"",""129"",""307049""
""blur"",""129"",""307731""
""blur"",""131"",""325173""
""blur"",""131"",""331641""
""blur"",""140"",""357049""
","""event"",""trial"",""time""
""focus"",""129"",""307720""
""focus"",""130"",""322028""
""focus"",""131"",""328174""
""focus"",""131"",""334697""
""focus"",""141"",""360611""
","""event"",""trial"",""time""
""fullscreenenter"",""5"",""9075""
","""event"",""trial"",""time""
""fullscreenexit"",""37"",""68794""
","null","","null","","","0","0","","","images/earth.jpg","images/rocket2","images/rocket1","null","","","2","real","null","","","0","2022-08-22 21:05:17.960"
"two-step-fixation","143","363633","0.0-76.0-2.2","2430","2758","19","Male","true","false","false","true","""event"",""trial"",""time""
""fullscreenenter"",""5"",""9075""
""fullscreenexit"",""37"",""68794""
""blur"",""129"",""307049""
""focus"",""129"",""307720""
""blur"",""129"",""307731""
""focus"",""130"",""322028""
""blur"",""131"",""325173""
""focus"",""131"",""328174""
""blur"",""131"",""331641""
""focus"",""131"",""334697""
""blur"",""140"",""357049""
""focus"",""141"",""360611""
","""event"",""trial"",""time""
""blur"",""129"",""307049""
""blur"",""129"",""307731""
""blur"",""131"",""325173""
""blur"",""131"",""331641""
""blur"",""140"",""357049""
","""event"",""trial"",""time""
""focus"",""129"",""307720""
""focus"",""130"",""322028""
""focus"",""131"",""328174""
""focus"",""131"",""334697""
""focus"",""141"",""360611""
","""event"",""trial"",""time""
""fullscreenenter"",""5"",""9075""
","""event"",""trial"",""time""
""fullscreenexit"",""37"",""68794""
","","images/earth.jpg","","","","","","","","","","","","","","fixation","","","","","",""
"d3-animate-choice","144","366044","0.0-76.0-0.3","2430","2758","19","Male","true","false","false","true","""event"",""trial"",""time""
""fullscreenenter"",""5"",""9075""
""fullscreenexit"",""37"",""68794""
""blur"",""129"",""307049""
""focus"",""129"",""307720""
""blur"",""129"",""307731""
""focus"",""130"",""322028""
""blur"",""131"",""325173""
""focus"",""131"",""328174""
""blur"",""131"",""331641""
""focus"",""131"",""334697""
""blur"",""140"",""357049""
""focus"",""141"",""360611""
","""event"",""trial"",""time""
""blur"",""129"",""307049""
""blur"",""129"",""307731""
""blur"",""131"",""325173""
""blur"",""131"",""331641""
""blur"",""140"",""357049""
","""event"",""trial"",""time""
""focus"",""129"",""307720""
""focus"",""130"",""322028""
""focus"",""131"",""328174""
""focus"",""131"",""334697""
""focus"",""141"",""360611""
","""event"",""trial"",""time""
""fullscreenenter"",""5"",""9075""
","""event"",""trial"",""time""
""fullscreenexit"",""37"",""68794""
","408.89999997615814","","49","","","3000","1","","","images/earth.jpg","images/rocket2","images/rocket1","null","images/rocket1","","1","real","null","1","","",""
"d3-animate-choice","145","368420","0.0-76.0-1.3","2430","2758","19","Male","true","false","false","true","""event"",""trial"",""time""
""fullscreenenter"",""5"",""9075""
""fullscreenexit"",""37"",""68794""
""blur"",""129"",""307049""
""focus"",""129"",""307720""
""blur"",""129"",""307731""
""focus"",""130"",""322028""
""blur"",""131"",""325173""
""focus"",""131"",""328174""
""blur"",""131"",""331641""
""focus"",""131"",""334697""
""blur"",""140"",""357049""
""focus"",""141"",""360611""
","""event"",""trial"",""time""
""blur"",""129"",""307049""
""blur"",""129"",""307731""
""blur"",""131"",""325173""
""blur"",""131"",""331641""
""blur"",""140"",""357049""
","""event"",""trial"",""time""
""focus"",""129"",""307720""
""focus"",""130"",""322028""
""focus"",""131"",""328174""
""focus"",""131"",""334697""
""focus"",""141"",""360611""
","""event"",""trial"",""time""
""fullscreenenter"",""5"",""9075""
","""event"",""trial"",""time""
""fullscreenexit"",""37"",""68794""
","373.5","","48","","","3000","1","","","images/purpleplanet.jpg","images/alien4","images/alien3","images/rocket1","images/alien4","images/t.png","2","real","true","2","common","1","2022-08-22 21:05:23.759"
"two-step-fixation","146","369423","0.0-76.0-2.3","2430","2758","19","Male","true","false","false","true","""event"",""trial"",""time""
""fullscreenenter"",""5"",""9075""
""fullscreenexit"",""37"",""68794""
""blur"",""129"",""307049""
""focus"",""129"",""307720""
""blur"",""129"",""307731""
""focus"",""130"",""322028""
""blur"",""131"",""325173""
""focus"",""131"",""328174""
""blur"",""131"",""331641""
""focus"",""131"",""334697""
""blur"",""140"",""357049""
""focus"",""141"",""360611""
","""event"",""trial"",""time""
""blur"",""129"",""307049""
""blur"",""129"",""307731""
""blur"",""131"",""325173""
""blur"",""131"",""331641""
""blur"",""140"",""357049""
","""event"",""trial"",""time""
""focus"",""129"",""307720""
""focus"",""130"",""322028""
""focus"",""131"",""328174""
""focus"",""131"",""334697""
""focus"",""141"",""360611""
","""event"",""trial"",""time""
""fullscreenenter"",""5"",""9075""
","""event"",""trial"",""time""
""fullscreenexit"",""37"",""68794""
","","images/earth.jpg","","","","","","","","","","","","","","fixation","","","","","",""
"d3-animate-choice","147","371709","0.0-76.0-0.4","2430","2758","19","Male","true","false","false","true","""event"",""trial"",""time""
""fullscreenenter"",""5"",""9075""
""fullscreenexit"",""37"",""68794""
""blur"",""129"",""307049""
""focus"",""129"",""307720""
""blur"",""129"",""307731""
""focus"",""130"",""322028""
""blur"",""131"",""325173""
""focus"",""131"",""328174""
""blur"",""131"",""331641""
""focus"",""131"",""334697""
""blur"",""140"",""357049""
""focus"",""141"",""360611""
","""event"",""trial"",""time""
""blur"",""129"",""307049""
""blur"",""129"",""307731""
""blur"",""131"",""325173""
""blur"",""131"",""331641""
""blur"",""140"",""357049""
","""event"",""trial"",""time""
""focus"",""129"",""307720""
""focus"",""130"",""322028""
""focus"",""131"",""328174""
""focus"",""131"",""334697""
""focus"",""141"",""360611""
","""event"",""trial"",""time""
""fullscreenenter"",""5"",""9075""
","""event"",""trial"",""time""
""fullscreenexit"",""37"",""68794""
","283.2000000476837","","49","","","3000","1","","","images/earth.jpg","images/rocket2","images/rocket1","null","images/rocket1","","1","real","null","1","","",""
"d3-animate-choice","148","374108","0.0-76.0-1.4","2430","2758","19","Male","true","false","false","true","""event"",""trial"",""time""
""fullscreenenter"",""5"",""9075""
""fullscreenexit"",""37"",""68794""
""blur"",""129"",""307049""
""focus"",""129"",""307720""
""blur"",""129"",""307731""
""focus"",""130"",""322028""
""blur"",""131"",""325173""
""focus"",""131"",""328174""
""blur"",""131"",""331641""
""focus"",""131"",""334697""
""blur"",""140"",""357049""
""focus"",""141"",""360611""
","""event"",""trial"",""time""
""blur"",""129"",""307049""
""blur"",""129"",""307731""
""blur"",""131"",""325173""
""blur"",""131"",""331641""
""blur"",""140"",""357049""
","""event"",""trial"",""time""
""focus"",""129"",""307720""
""focus"",""130"",""322028""
""focus"",""131"",""328174""
""focus"",""131"",""334697""
""focus"",""141"",""360611""
","""event"",""trial"",""time""
""fullscreenenter"",""5"",""9075""
","""event"",""trial"",""time""
""fullscreenexit"",""37"",""68794""
","396.2999999523163","","48","","","3000","1","","","images/redplanet1.jpg","images/alien2","images/alien1","images/rocket1","images/alien2","images/t.png","2","real","false","2","rare","1","2022-08-22 21:05:29.447"
"two-step-fixation","149","375110","0.0-76.0-2.4","2430","2758","19","Male","true","false","false","true","""event"",""trial"",""time""
""fullscreenenter"",""5"",""9075""
""fullscreenexit"",""37"",""68794""
""blur"",""129"",""307049""
""focus"",""129"",""307720""
""blur"",""129"",""307731""
""focus"",""130"",""322028""
""blur"",""131"",""325173""
""focus"",""131"",""328174""
""blur"",""131"",""331641""
""focus"",""131"",""334697""
""blur"",""140"",""357049""
""focus"",""141"",""360611""
","""event"",""trial"",""time""
""blur"",""129"",""307049""
""blur"",""129"",""307731""
""blur"",""131"",""325173""
""blur"",""131"",""331641""
""blur"",""140"",""357049""
","""event"",""trial"",""time""
""focus"",""129"",""307720""
""focus"",""130"",""322028""
""focus"",""131"",""328174""
""focus"",""131"",""334697""
""focus"",""141"",""360611""
","""event"",""trial"",""time""
""fullscreenenter"",""5"",""9075""
","""event"",""trial"",""time""
""fullscreenexit"",""37"",""68794""
","","images/earth.jpg","","","","","","","","","","","","","","fixation","","","","","",""
"d3-animate-choice","150","377364","0.0-76.0-0.5","2430","2758","19","Male","true","false","false","true","""event"",""trial"",""time""
""fullscreenenter"",""5"",""9075""
""fullscreenexit"",""37"",""68794""
""blur"",""129"",""307049""
""focus"",""129"",""307720""
""blur"",""129"",""307731""
""focus"",""130"",""322028""
""blur"",""131"",""325173""
""focus"",""131"",""328174""
""blur"",""131"",""331641""
""focus"",""131"",""334697""
""blur"",""140"",""357049""
""focus"",""141"",""360611""
","""event"",""trial"",""time""
""blur"",""129"",""307049""
""blur"",""129"",""307731""
""blur"",""131"",""325173""
""blur"",""131"",""331641""
""blur"",""140"",""357049""
","""event"",""trial"",""time""
""focus"",""129"",""307720""
""focus"",""130"",""322028""
""focus"",""131"",""328174""
""focus"",""131"",""334697""
""focus"",""141"",""360611""
","""event"",""trial"",""time""
""fullscreenenter"",""5"",""9075""
","""event"",""trial"",""time""
""fullscreenexit"",""37"",""68794""
","251","","49","","","3000","1","","","images/earth.jpg","images/rocket2","images/rocket1","null","images/rocket1","","1","real","null","1","","",""
"d3-animate-choice","151","379804","0.0-76.0-1.5","2430","2758","19","Male","true","false","false","true","""event"",""trial"",""time""
""fullscreenenter"",""5"",""9075""
""fullscreenexit"",""37"",""68794""
""blur"",""129"",""307049""
""focus"",""129"",""307720""
""blur"",""129"",""307731""
""focus"",""130"",""322028""
""blur"",""131"",""325173""
""focus"",""131"",""328174""
""blur"",""131"",""331641""
""focus"",""131"",""334697""
""blur"",""140"",""357049""
""focus"",""141"",""360611""
","""event"",""trial"",""time""
""blur"",""129"",""307049""
""blur"",""129"",""307731""
""blur"",""131"",""325173""
""blur"",""131"",""331641""
""blur"",""140"",""357049""
","""event"",""trial"",""time""
""focus"",""129"",""307720""
""focus"",""130"",""322028""
""focus"",""131"",""328174""
""focus"",""131"",""334697""
""focus"",""141"",""360611""
","""event"",""trial"",""time""
""fullscreenenter"",""5"",""9075""
","""event"",""trial"",""time""
""fullscreenexit"",""37"",""68794""
","437.2999999523163","","48","","","3000","1","","","images/purpleplanet.jpg","images/alien4","images/alien3","images/rocket1","images/alien4","images/t.png","2","real","true","2","common","1","2022-08-22 21:05:35.143"
"two-step-fixation","152","380806","0.0-76.0-2.5","2430","2758","19","Male","true","false","false","true","""event"",""trial"",""time""
""fullscreenenter"",""5"",""9075""
""fullscreenexit"",""37"",""68794""
""blur"",""129"",""307049""
""focus"",""129"",""307720""
""blur"",""129"",""307731""
""focus"",""130"",""322028""
""blur"",""131"",""325173""
""focus"",""131"",""328174""
""blur"",""131"",""331641""
""focus"",""131"",""334697""
""blur"",""140"",""357049""
""focus"",""141"",""360611""
","""event"",""trial"",""time""
""blur"",""129"",""307049""
""blur"",""129"",""307731""
""blur"",""131"",""325173""
""blur"",""131"",""331641""
""blur"",""140"",""357049""
","""event"",""trial"",""time""
""focus"",""129"",""307720""
""focus"",""130"",""322028""
""focus"",""131"",""328174""
""focus"",""131"",""334697""
""focus"",""141"",""360611""
","""event"",""trial"",""time""
""fullscreenenter"",""5"",""9075""
","""event"",""trial"",""time""
""fullscreenexit"",""37"",""68794""
","","images/earth.jpg","","","","","","","","","","","","","","fixation","","","","","",""
"d3-animate-choice","153","383131","0.0-76.0-0.6","2430","2758","19","Male","true","false","false","true","""event"",""trial"",""time""
""fullscreenenter"",""5"",""9075""
""fullscreenexit"",""37"",""68794""
""blur"",""129"",""307049""
""focus"",""129"",""307720""
""blur"",""129"",""307731""
""focus"",""130"",""322028""
""blur"",""131"",""325173""
""focus"",""131"",""328174""
""blur"",""131"",""331641""
""focus"",""131"",""334697""
""blur"",""140"",""357049""
""focus"",""141"",""360611""
","""event"",""trial"",""time""
""blur"",""129"",""307049""
""blur"",""129"",""307731""
""blur"",""131"",""325173""
""blur"",""131"",""331641""
""blur"",""140"",""357049""
","""event"",""trial"",""time""
""focus"",""129"",""307720""
""focus"",""130"",""322028""
""focus"",""131"",""328174""
""focus"",""131"",""334697""
""focus"",""141"",""360611""
","""event"",""trial"",""time""
""fullscreenenter"",""5"",""9075""
","""event"",""trial"",""time""
""fullscreenexit"",""37"",""68794""
","323","","49","","","3000","1","","","images/earth.jpg","images/rocket2","images/rocket1","null","images/rocket1","","1","real","null","1","","",""
"d3-animate-choice","154","385572","0.0-76.0-1.6","2430","2758","19","Male","true","false","false","true","""event"",""trial"",""time""
""fullscreenenter"",""5"",""9075""
""fullscreenexit"",""37"",""68794""
""blur"",""129"",""307049""
""focus"",""129"",""307720""
""blur"",""129"",""307731""
""focus"",""130"",""322028""
""blur"",""131"",""325173""
""focus"",""131"",""328174""
""blur"",""131"",""331641""
""focus"",""131"",""334697""
""blur"",""140"",""357049""
""focus"",""141"",""360611""
","""event"",""trial"",""time""
""blur"",""129"",""307049""
""blur"",""129"",""307731""
""blur"",""131"",""325173""
""blur"",""131"",""331641""
""blur"",""140"",""357049""
","""event"",""trial"",""time""
""focus"",""129"",""307720""
""focus"",""130"",""322028""
""focus"",""131"",""328174""
""focus"",""131"",""334697""
""focus"",""141"",""360611""
","""event"",""trial"",""time""
""fullscreenenter"",""5"",""9075""
","""event"",""trial"",""time""
""fullscreenexit"",""37"",""68794""
","437.89999997615814","","48","","","3000","1","","","images/purpleplanet.jpg","images/alien4","images/alien3","images/rocket1","images/alien4","images/t.png","2","real","true","2","common","1","2022-08-22 21:05:40.911"
"two-step-fixation","155","386575","0.0-76.0-2.6","2430","2758","19","Male","true","false","false","true","""event"",""trial"",""time""
""fullscreenenter"",""5"",""9075""
""fullscreenexit"",""37"",""68794""
""blur"",""129"",""307049""
""focus"",""129"",""307720""
""blur"",""129"",""307731""
""focus"",""130"",""322028""
""blur"",""131"",""325173""
""focus"",""131"",""328174""
""blur"",""131"",""331641""
""focus"",""131"",""334697""
""blur"",""140"",""357049""
""focus"",""141"",""360611""
","""event"",""trial"",""time""
""blur"",""129"",""307049""
""blur"",""129"",""307731""
""blur"",""131"",""325173""
""blur"",""131"",""331641""
""blur"",""140"",""357049""
","""event"",""trial"",""time""
""focus"",""129"",""307720""
""focus"",""130"",""322028""
""focus"",""131"",""328174""
""focus"",""131"",""334697""
""focus"",""141"",""360611""
","""event"",""trial"",""time""
""fullscreenenter"",""5"",""9075""
","""event"",""trial"",""time""
""fullscreenexit"",""37"",""68794""
","","images/earth.jpg","","","","","","","","","","","","","","fixation","","","","","",""
"d3-animate-choice","156","388869","0.0-76.0-0.7","2430","2758","19","Male","true","false","false","true","""event"",""trial"",""time""
""fullscreenenter"",""5"",""9075""
""fullscreenexit"",""37"",""68794""
""blur"",""129"",""307049""
""focus"",""129"",""307720""
""blur"",""129"",""307731""
""focus"",""130"",""322028""
""blur"",""131"",""325173""
""focus"",""131"",""328174""
""blur"",""131"",""331641""
""focus"",""131"",""334697""
""blur"",""140"",""357049""
""focus"",""141"",""360611""
","""event"",""trial"",""time""
""blur"",""129"",""307049""
""blur"",""129"",""307731""
""blur"",""131"",""325173""
""blur"",""131"",""331641""
""blur"",""140"",""357049""
","""event"",""trial"",""time""
""focus"",""129"",""307720""
""focus"",""130"",""322028""
""focus"",""131"",""328174""
""focus"",""131"",""334697""
""focus"",""141"",""360611""
","""event"",""trial"",""time""
""fullscreenenter"",""5"",""9075""
","""event"",""trial"",""time""
""fullscreenexit"",""37"",""68794""
","290.5","","49","","","3000","1","","","images/earth.jpg","images/rocket2","images/rocket1","null","images/rocket1","","1","real","null","1","","",""
"d3-animate-choice","157","391325","0.0-76.0-1.7","2430","2758","19","Male","true","false","false","true","""event"",""trial"",""time""
""fullscreenenter"",""5"",""9075""
""fullscreenexit"",""37"",""68794""
""blur"",""129"",""307049""
""focus"",""129"",""307720""
""blur"",""129"",""307731""
""focus"",""130"",""322028""
""blur"",""131"",""325173""
""focus"",""131"",""328174""
""blur"",""131"",""331641""
""focus"",""131"",""334697""
""blur"",""140"",""357049""
""focus"",""141"",""360611""
","""event"",""trial"",""time""
""blur"",""129"",""307049""
""blur"",""129"",""307731""
""blur"",""131"",""325173""
""blur"",""131"",""331641""
""blur"",""140"",""357049""
","""event"",""trial"",""time""
""focus"",""129"",""307720""
""focus"",""130"",""322028""
""focus"",""131"",""328174""
""focus"",""131"",""334697""
""focus"",""141"",""360611""
","""event"",""trial"",""time""
""fullscreenenter"",""5"",""9075""
","""event"",""trial"",""time""
""fullscreenexit"",""37"",""68794""
","453.2000000476837","","48","","","3000","1","","","images/purpleplanet.jpg","images/alien4","images/alien3","images/rocket1","images/alien4","images/t.png","2","real","true","2","common","1","2022-08-22 21:05:46.664"
"two-step-fixation","158","392328","0.0-76.0-2.7","2430","2758","19","Male","true","false","false","true","""event"",""trial"",""time""
""fullscreenenter"",""5"",""9075""
""fullscreenexit"",""37"",""68794""
""blur"",""129"",""307049""
""focus"",""129"",""307720""
""blur"",""129"",""307731""
""focus"",""130"",""322028""
""blur"",""131"",""325173""
""focus"",""131"",""328174""
""blur"",""131"",""331641""
""focus"",""131"",""334697""
""blur"",""140"",""357049""
""focus"",""141"",""360611""
","""event"",""trial"",""time""
""blur"",""129"",""307049""
""blur"",""129"",""307731""
""blur"",""131"",""325173""
""blur"",""131"",""331641""
""blur"",""140"",""357049""
","""event"",""trial"",""time""
""focus"",""129"",""307720""
""focus"",""130"",""322028""
""focus"",""131"",""328174""
""focus"",""131"",""334697""
""focus"",""141"",""360611""
","""event"",""trial"",""time""
""fullscreenenter"",""5"",""9075""
","""event"",""trial"",""time""
""fullscreenexit"",""37"",""68794""
","","images/earth.jpg","","","","","","","","","","","","","","fixation","","","","","",""
"d3-animate-choice","159","394629","0.0-76.0-0.8","2430","2758","19","Male","true","false","false","true","""event"",""trial"",""time""
""fullscreenenter"",""5"",""9075""
""fullscreenexit"",""37"",""68794""
""blur"",""129"",""307049""
""focus"",""129"",""307720""
""blur"",""129"",""307731""
""focus"",""130"",""322028""
""blur"",""131"",""325173""
""focus"",""131"",""328174""
""blur"",""131"",""331641""
""focus"",""131"",""334697""
""blur"",""140"",""357049""
""focus"",""141"",""360611""
","""event"",""trial"",""time""
""blur"",""129"",""307049""
""blur"",""129"",""307731""
""blur"",""131"",""325173""
""blur"",""131"",""331641""
""blur"",""140"",""357049""
","""event"",""trial"",""time""
""focus"",""129"",""307720""
""focus"",""130"",""322028""
""focus"",""131"",""328174""
""focus"",""131"",""334697""
""focus"",""141"",""360611""
","""event"",""trial"",""time""
""fullscreenenter"",""5"",""9075""
","""event"",""trial"",""time""
""fullscreenexit"",""37"",""68794""
","297","","49","","","3000","1","","","images/earth.jpg","images/rocket2","images/rocket1","null","images/rocket1","","1","real","null","1","","",""
"d3-animate-choice","160","397044","0.0-76.0-1.8","2430","2758","19","Male","true","false","false","true","""event"",""trial"",""time""
""fullscreenenter"",""5"",""9075""
""fullscreenexit"",""37"",""68794""
""blur"",""129"",""307049""
""focus"",""129"",""307720""
""blur"",""129"",""307731""
""focus"",""130"",""322028""
""blur"",""131"",""325173""
""focus"",""131"",""328174""
""blur"",""131"",""331641""
""focus"",""131"",""334697""
""blur"",""140"",""357049""
""focus"",""141"",""360611""
","""event"",""trial"",""time""
""blur"",""129"",""307049""
""blur"",""129"",""307731""
""blur"",""131"",""325173""
""blur"",""131"",""331641""
""blur"",""140"",""357049""
","""event"",""trial"",""time""
""focus"",""129"",""307720""
""focus"",""130"",""322028""
""focus"",""131"",""328174""
""focus"",""131"",""334697""
""focus"",""141"",""360611""
","""event"",""trial"",""time""
""fullscreenenter"",""5"",""9075""
","""event"",""trial"",""time""
""fullscreenexit"",""37"",""68794""
","411.7999999523163","","48","","","3000","1","","","images/redplanet1.jpg","images/alien2","images/alien1","images/rocket1","images/alien2","images/t.png","2","real","false","2","rare","1","2022-08-22 21:05:52.383"
"two-step-fixation","161","398046","0.0-76.0-2.8","2430","2758","19","Male","true","false","false","true","""event"",""trial"",""time""
""fullscreenenter"",""5"",""9075""
""fullscreenexit"",""37"",""68794""
""blur"",""129"",""307049""
""focus"",""129"",""307720""
""blur"",""129"",""307731""
""focus"",""130"",""322028""
""blur"",""131"",""325173""
""focus"",""131"",""328174""
""blur"",""131"",""331641""
""focus"",""131"",""334697""
""blur"",""140"",""357049""
""focus"",""141"",""360611""
","""event"",""trial"",""time""
""blur"",""129"",""307049""
""blur"",""129"",""307731""
""blur"",""131"",""325173""
""blur"",""131"",""331641""
""blur"",""140"",""357049""
","""event"",""trial"",""time""
""focus"",""129"",""307720""
""focus"",""130"",""322028""
""focus"",""131"",""328174""
""focus"",""131"",""334697""
""focus"",""141"",""360611""
","""event"",""trial"",""time""
""fullscreenenter"",""5"",""9075""
","""event"",""trial"",""time""
""fullscreenexit"",""37"",""68794""
","","images/earth.jpg","","","","","","","","","","","","","","fixation","","","","","",""
"d3-animate-choice","162","400411","0.0-76.0-0.9","2430","2758","19","Male","true","false","false","true","""event"",""trial"",""time""
""fullscreenenter"",""5"",""9075""
""fullscreenexit"",""37"",""68794""
""blur"",""129"",""307049""
""focus"",""129"",""307720""
""blur"",""129"",""307731""
""focus"",""130"",""322028""
""blur"",""131"",""325173""
""focus"",""131"",""328174""
""blur"",""131"",""331641""
""focus"",""131"",""334697""
""blur"",""140"",""357049""
""focus"",""141"",""360611""
","""event"",""trial"",""time""
""blur"",""129"",""307049""
""blur"",""129"",""307731""
""blur"",""131"",""325173""
""blur"",""131"",""331641""
""blur"",""140"",""357049""
","""event"",""trial"",""time""
""focus"",""129"",""307720""
""focus"",""130"",""322028""
""focus"",""131"",""328174""
""focus"",""131"",""334697""
""focus"",""141"",""360611""
","""event"",""trial"",""time""
""fullscreenenter"",""5"",""9075""
","""event"",""trial"",""time""
""fullscreenexit"",""37"",""68794""
","361.7999999523163","","49","","","3000","1","","","images/earth.jpg","images/rocket2","images/rocket1","null","images/rocket1","","1","real","null","1","","",""
"d3-animate-choice","163","402836","0.0-76.0-1.9","2430","2758","19","Male","true","false","false","true","""event"",""trial"",""time""
""fullscreenenter"",""5"",""9075""
""fullscreenexit"",""37"",""68794""
""blur"",""129"",""307049""
""focus"",""129"",""307720""
""blur"",""129"",""307731""
""focus"",""130"",""322028""
""blur"",""131"",""325173""
""focus"",""131"",""328174""
""blur"",""131"",""331641""
""focus"",""131"",""334697""
""blur"",""140"",""357049""
""focus"",""141"",""360611""
","""event"",""trial"",""time""
""blur"",""129"",""307049""
""blur"",""129"",""307731""
""blur"",""131"",""325173""
""blur"",""131"",""331641""
""blur"",""140"",""357049""
","""event"",""trial"",""time""
""focus"",""129"",""307720""
""focus"",""130"",""322028""
""focus"",""131"",""328174""
""focus"",""131"",""334697""
""focus"",""141"",""360611""
","""event"",""trial"",""time""
""fullscreenenter"",""5"",""9075""
","""event"",""trial"",""time""
""fullscreenexit"",""37"",""68794""
","421.60000002384186","","48","","","3000","1","","","images/purpleplanet.jpg","images/alien4","images/alien3","images/rocket1","images/alien4","images/t.png","2","real","true","2","common","1","2022-08-22 21:05:58.175"
"two-step-fixation","164","403838","0.0-76.0-2.9","2430","2758","19","Male","true","false","false","true","""event"",""trial"",""time""
""fullscreenenter"",""5"",""9075""
""fullscreenexit"",""37"",""68794""
""blur"",""129"",""307049""
""focus"",""129"",""307720""
""blur"",""129"",""307731""
""focus"",""130"",""322028""
""blur"",""131"",""325173""
""focus"",""131"",""328174""
""blur"",""131"",""331641""
""focus"",""131"",""334697""
""blur"",""140"",""357049""
