"trial_type","trial_index","time_elapsed","internal_node_id","participant_id","subject_id","age","gender","rocket_sides","red_planet_first_rocket","red_display_order","purple_display_order","interactions","blur_events","focus_events","fullscreenenter_events","fullscreenexit_events","rt","stimulus","key_press","button_pressed","success","duration","valid_pressed","rts","keys","planet_text","right_text","left_text","center_text","chosen_text","reward_text","trial_stage","practice_trial","transition_type","choice","transition","reward","timestamp"
"pavlovia","0","4","0.0-0.0","3331","5834","8","Female","true","true","true","true","
","
","
","
","
","","","","","","","","","","","","","","","","","","","","","",""
"html-keyboard-response","1","2053","0.0-1.0","3331","5834","8","Female","true","true","true","true","
","
","
","
","
","2048","Welcome! Press the space bar to begin.","32","","","","","","","","","","","","","","","","","","",""
"audio-keyboard-response","2","7140","0.0-2.0","3331","5834","8","Female","true","true","true","true","
","
","
","
","
","4520","audio/beep_loop.wav","32","","","","","","","","","","","","","","","","","","",""
"audio-button-response","3","9416","0.0-3.0","3331","5834","8","Female","true","true","true","true","
","
","
","
","
","NaN","audio/fish.mp3","","1","","","","","","","","","","","","","","","","","",""
"audio-button-response","4","13070","0.0-4.0","3331","5834","8","Female","true","true","true","true","""event"",""trial"",""time""
""fullscreenenter"",""5"",""18277""
","
","
","""event"",""trial"",""time""
""fullscreenenter"",""5"",""18277""
","
","NaN","audio/tiger.mp3","","4","","","","","","","","","","","","","","","","","",""
"fullscreen","5","19270","0.0-5.0","3331","5834","8","Female","true","true","true","true","""event"",""trial"",""time""
""fullscreenenter"",""5"",""18277""
","
","
","""event"",""trial"",""time""
""fullscreenenter"",""5"",""18277""
","
","","","","","true","","","","","","","","","","","","","","","","",""
"d3-instructions","6","35044","0.0-6.0","3331","5834","8","Female","true","true","true","true","""event"",""trial"",""time""
""fullscreenenter"",""5"",""18277""
","
","
","""event"",""trial"",""time""
""fullscreenenter"",""5"",""18277""
","
","","","","","","","","","","","","","","","","","","","","","",""
"d3-instructions","7","45302","0.0-7.0","3331","5834","8","Female","true","true","true","true","""event"",""trial"",""time""
""fullscreenenter"",""5"",""18277""
","
","
","""event"",""trial"",""time""
""fullscreenenter"",""5"",""18277""
","
","","","","","","","","","","","","","","","","","","","","","",""
"d3-instructions","8","53768","0.0-8.0","3331","5834","8","Female","true","true","true","true","""event"",""trial"",""time""
""fullscreenenter"",""5"",""18277""
","
","
","""event"",""trial"",""time""
""fullscreenenter"",""5"",""18277""
","
","","","","","","","","","","","","","","","","","","","","","",""
"d3-instructions","9","65704","0.0-9.0","3331","5834","8","Female","true","true","true","true","""event"",""trial"",""time""
""fullscreenenter"",""5"",""18277""
","
","
","""event"",""trial"",""time""
""fullscreenenter"",""5"",""18277""
","
","","","","","","","","","","","","","","","","","","","","","",""
"d3-instructions","10","85404","0.0-10.0","3331","5834","8","Female","true","true","true","true","""event"",""trial"",""time""
""fullscreenenter"",""5"",""18277""
","
","
","""event"",""trial"",""time""
""fullscreenenter"",""5"",""18277""
","
","","","","","","","","","","","","","","","","","","","","","",""
"d3-animate-choice","11","88975","0.0-11.0","3331","5834","8","Female","true","true","true","true","""event"",""trial"",""time""
""fullscreenenter"",""5"",""18277""
","
","
","""event"",""trial"",""time""
""fullscreenenter"",""5"",""18277""
","
","1550.300000011921","","49","","","3000","1","2381.600000023842,3349","48,49","images/tutgreenplanet.jpg","images/tutalien1","images/tutalien2","null","images/tutalien2","","NA","practice","null","","","",""
"d3-animate-choice","12","91590","0.0-12.0","3331","5834","8","Female","true","true","true","true","""event"",""trial"",""time""
""fullscreenenter"",""5"",""18277""
","
","
","""event"",""trial"",""time""
""fullscreenenter"",""5"",""18277""
","
","611.6999999880791","","48","","","3000","1","1239.5999999642372,1808.5999999642372,2230.899999976158,2426.899999976158","49,48,49,48","images/tutgreenplanet.jpg","images/tutalien1","images/tutalien2","null","images/tutalien1","","NA","practice","null","","","",""
"d3-animate-choice","13","94417","0.0-13.0","3331","5834","8","Female","true","true","true","true","""event"",""trial"",""time""
""fullscreenenter"",""5"",""18277""
","
","
","""event"",""trial"",""time""
""fullscreenenter"",""5"",""18277""
","
","817","","48","","","3000","1","","","images/tutgreenplanet.jpg","images/tutalien1","images/tutalien2","null","images/tutalien1","","NA","practice","null","","","",""
"d3-animate-choice","14","97018","0.0-14.0","3331","5834","8","Female","true","true","true","true","""event"",""trial"",""time""
""fullscreenenter"",""5"",""18277""
","
","
","""event"",""trial"",""time""
""fullscreenenter"",""5"",""18277""
","
","586.3999999761581","","49","","","3000","1","","","images/tutgreenplanet.jpg","images/tutalien1","images/tutalien2","null","images/tutalien2","","NA","practice","null","","","",""
"d3-instructions","15","106264","0.0-15.0","3331","5834","8","Female","true","true","true","true","""event"",""trial"",""time""
""fullscreenenter"",""5"",""18277""
","
","
","""event"",""trial"",""time""
""fullscreenenter"",""5"",""18277""
","
","","","","","","","","","","","","","","","","","","","","","",""
"d3-instructions","16","114820","0.0-16.0","3331","5834","8","Female","true","true","true","true","""event"",""trial"",""time""
""fullscreenenter"",""5"",""18277""
","
","
","""event"",""trial"",""time""
""fullscreenenter"",""5"",""18277""
","
","","","","","","","","","","","","","","","","","","","","","",""
"d3-instructions","17","124500","0.0-17.0","3331","5834","8","Female","true","true","true","true","""event"",""trial"",""time""
""fullscreenenter"",""5"",""18277""
","
","
","""event"",""trial"",""time""
""fullscreenenter"",""5"",""18277""
","
","","","","","","","","","","","","","","","","","","","","","",""
"d3-instructions","18","138558","0.0-18.0","3331","5834","8","Female","true","true","true","true","""event"",""trial"",""time""
""fullscreenenter"",""5"",""18277""
","
","
","""event"",""trial"",""time""
""fullscreenenter"",""5"",""18277""
","
","","","","","","","","","","","","","","","","","","","","","",""
"d3-instructions","19","153537","0.0-19.0","3331","5834","8","Female","true","true","true","true","""event"",""trial"",""time""
""fullscreenenter"",""5"",""18277""
","
","
","""event"",""trial"",""time""
""fullscreenenter"",""5"",""18277""
","
","","","","","","","","","","","","","","","","","","","","","",""
"d3-animate-choice","20","156747","0.0-20.0","3331","5834","8","Female","true","true","true","true","""event"",""trial"",""time""
""fullscreenenter"",""5"",""18277""
","
","
","""event"",""trial"",""time""
""fullscreenenter"",""5"",""18277""
","
","1198.800000011921","","49","","","3000","1","1837.6000000238419","49","images/tutyellowplanet.jpg","null","images/tutalien3","null","images/tutalien3","images/t.png","NA","practice","null","","","",""
"d3-animate-choice","21","159605","0.0-21.0","3331","5834","8","Female","true","true","true","true","""event"",""trial"",""time""
""fullscreenenter"",""5"",""18277""
","
","
","""event"",""trial"",""time""
""fullscreenenter"",""5"",""18277""
","
","849.7000000476837","","49","","","3000","1","","","images/tutyellowplanet.jpg","null","images/tutalien3","null","images/tutalien3","images/t.png","NA","practice","null","","","",""
"d3-animate-choice","22","161936","0.0-22.0","3331","5834","8","Female","true","true","true","true","""event"",""trial"",""time""
""fullscreenenter"",""5"",""18277""
","
","
","""event"",""trial"",""time""
""fullscreenenter"",""5"",""18277""
","
","314.89999997615814","","49","","","3000","1","","","images/tutyellowplanet.jpg","null","images/tutalien3","null","images/tutalien3","images/t.png","NA","practice","null","","","",""
"d3-animate-choice","23","164434","0.0-23.0","3331","5834","8","Female","true","true","true","true","""event"",""trial"",""time""
""fullscreenenter"",""5"",""18277""
","
","
","""event"",""trial"",""time""
""fullscreenenter"",""5"",""18277""
","
","476.10000002384186","","49","","","3000","1","","","images/tutyellowplanet.jpg","null","images/tutalien3","null","images/tutalien3","images/nothing.png","NA","practice","null","","","",""
"d3-animate-choice","24","167619","0.0-24.0","3331","5834","8","Female","true","true","true","true","""event"",""trial"",""time""
""fullscreenenter"",""5"",""18277""
","
","
","""event"",""trial"",""time""
""fullscreenenter"",""5"",""18277""
","
","1160.2999999523163","","49","","","3000","1","","","images/tutyellowplanet.jpg","null","images/tutalien3","null","images/tutalien3","images/t.png","NA","practice","null","","","",""
"d3-animate-choice","25","170114","0.0-25.0","3331","5834","8","Female","true","true","true","true","""event"",""trial"",""time""
""fullscreenenter"",""5"",""18277""
","
","
","""event"",""trial"",""time""
""fullscreenenter"",""5"",""18277""
","
","483.4000000357628","","49","","","3000","1","","","images/tutyellowplanet.jpg","null","images/tutalien3","null","images/tutalien3","images/t.png","NA","practice","null","","","",""
"d3-animate-choice","26","172578","0.0-26.0","3331","5834","8","Female","true","true","true","true","""event"",""trial"",""time""
""fullscreenenter"",""5"",""18277""
","
","
","""event"",""trial"",""time""
""fullscreenenter"",""5"",""18277""
","
","442.80000001192093","","49","","","3000","1","","","images/tutyellowplanet.jpg","null","images/tutalien3","null","images/tutalien3","images/t.png","NA","practice","null","","","",""
"d3-animate-choice","27","175978","0.0-27.0","3331","5834","8","Female","true","true","true","true","""event"",""trial"",""time""
""fullscreenenter"",""5"",""18277""
","
","
","""event"",""trial"",""time""
""fullscreenenter"",""5"",""18277""
","
","1389.5","","49","","","3000","1","","","images/tutyellowplanet.jpg","null","images/tutalien3","null","images/tutalien3","images/nothing.png","NA","practice","null","","","",""
"d3-animate-choice","28","178366","0.0-28.0","3331","5834","8","Female","true","true","true","true","""event"",""trial"",""time""
""fullscreenenter"",""5"",""18277""
","
","
","""event"",""trial"",""time""
""fullscreenenter"",""5"",""18277""
","
","374.10000002384186","","49","","","3000","1","","","images/tutyellowplanet.jpg","null","images/tutalien3","null","images/tutalien3","images/nothing.png","NA","practice","null","","","",""
"d3-animate-choice","29","180952","0.0-29.0","3331","5834","8","Female","true","true","true","true","""event"",""trial"",""time""
""fullscreenenter"",""5"",""18277""
","
","
","""event"",""trial"",""time""
""fullscreenenter"",""5"",""18277""
","
","566","","49","","","3000","1","","","images/tutyellowplanet.jpg","null","images/tutalien3","null","images/tutalien3","images/t.png","NA","practice","null","","","",""
"d3-instructions","30","189845","0.0-30.0","3331","5834","8","Female","true","true","true","true","""event"",""trial"",""time""
""fullscreenenter"",""5"",""18277""
","
","
","""event"",""trial"",""time""
""fullscreenenter"",""5"",""18277""
","
","","","","","","","","","","","","","","","","","","","","","",""
"d3-instructions","31","201448","0.0-31.0","3331","5834","8","Female","true","true","true","true","""event"",""trial"",""time""
""fullscreenenter"",""5"",""18277""
","
","
","""event"",""trial"",""time""
""fullscreenenter"",""5"",""18277""
","
","","","","","","","","","","","","","","","","","","","","","",""
"d3-instructions","32","209452","0.0-32.0","3331","5834","8","Female","true","true","true","true","""event"",""trial"",""time""
""fullscreenenter"",""5"",""18277""
","
","
","""event"",""trial"",""time""
""fullscreenenter"",""5"",""18277""
","
","","","","","","","","","","","","","","","","","","","","","",""
"d3-instructions","33","220814","0.0-33.0","3331","5834","8","Female","true","true","true","true","""event"",""trial"",""time""
""fullscreenenter"",""5"",""18277""
","
","
","""event"",""trial"",""time""
""fullscreenenter"",""5"",""18277""
","
","","","","","","","","","","","","","","","","","","","","","",""
"d3-animate-choice","34","227626","0.0-34.0","3331","5834","8","Female","true","true","true","true","""event"",""trial"",""time""
""fullscreenenter"",""5"",""18277""
","
","
","""event"",""trial"",""time""
""fullscreenenter"",""5"",""18277""
","
","4795","","49","","","3000","1","","","images/tutgreenplanet.jpg","images/tutalien1","images/tutalien2","null","images/tutalien2","images/nothing.png","NA","practice","null","","","",""
"d3-animate-choice","35","232168","0.0-35.0","3331","5834","8","Female","true","true","true","true","""event"",""trial"",""time""
""fullscreenenter"",""5"",""18277""
","
","
","""event"",""trial"",""time""
""fullscreenenter"",""5"",""18277""
","
","2520","","48","","","3000","1","","","images/tutgreenplanet.jpg","images/tutalien1","images/tutalien2","null","images/tutalien1","images/t.png","NA","practice","null","","","",""
"d3-animate-choice","36","235758","0.0-36.0","3331","5834","8","Female","true","true","true","true","""event"",""trial"",""time""
""fullscreenenter"",""5"",""18277""
","
","
","""event"",""trial"",""time""
""fullscreenenter"",""5"",""18277""
","
","1581","","48","","","3000","1","","","images/tutgreenplanet.jpg","images/tutalien1","images/tutalien2","null","images/tutalien1","images/nothing.png","NA","practice","null","","","",""
"d3-animate-choice","37","238155","0.0-37.0","3331","5834","8","Female","true","true","true","true","""event"",""trial"",""time""
""fullscreenenter"",""5"",""18277""
","
","
","""event"",""trial"",""time""
""fullscreenenter"",""5"",""18277""
","
","382.10000002384186","","48","","","3000","1","","","images/tutgreenplanet.jpg","images/tutalien1","images/tutalien2","null","images/tutalien1","images/nothing.png","NA","practice","null","","","",""
"d3-animate-choice","38","240532","0.0-38.0","3331","5834","8","Female","true","true","true","true","""event"",""trial"",""time""
""fullscreenenter"",""5"",""18277""
","
","
","""event"",""trial"",""time""
""fullscreenenter"",""5"",""18277""
","
","373.7999999523163","","48","","","3000","1","","","images/tutgreenplanet.jpg","images/tutalien1","images/tutalien2","null","images/tutalien1","images/nothing.png","NA","practice","null","","","",""
"d3-animate-choice","39","242829","0.0-39.0","3331","5834","8","Female","true","true","true","true","""event"",""trial"",""time""
""fullscreenenter"",""5"",""18277""
","
","
","""event"",""trial"",""time""
""fullscreenenter"",""5"",""18277""
","
","278.0999999642372","","49","","","3000","1","","","images/tutgreenplanet.jpg","images/tutalien1","images/tutalien2","null","images/tutalien2","images/t.png","NA","practice","null","","","",""
"d3-animate-choice","40","245245","0.0-40.0","3331","5834","8","Female","true","true","true","true","""event"",""trial"",""time""
""fullscreenenter"",""5"",""18277""
","
","
","""event"",""trial"",""time""
""fullscreenenter"",""5"",""18277""
","
","408.60000002384186","","48","","","3000","1","","","images/tutgreenplanet.jpg","images/tutalien1","images/tutalien2","null","images/tutalien1","images/t.png","NA","practice","null","","","",""
"d3-animate-choice","41","247609","0.0-41.0","3331","5834","8","Female","true","true","true","true","""event"",""trial"",""time""
""fullscreenenter"",""5"",""18277""
","
","
","""event"",""trial"",""time""
""fullscreenenter"",""5"",""18277""
","
","347.69999998807907","","49","","","3000","1","","","images/tutgreenplanet.jpg","images/tutalien1","images/tutalien2","null","images/tutalien2","images/nothing.png","NA","practice","null","","","",""
"d3-animate-choice","42","249869","0.0-42.0","3331","5834","8","Female","true","true","true","true","""event"",""trial"",""time""
""fullscreenenter"",""5"",""18277""
","
","
","""event"",""trial"",""time""
""fullscreenenter"",""5"",""18277""
","
","249.29999995231628","","49","","","3000","1","","","images/tutgreenplanet.jpg","images/tutalien1","images/tutalien2","null","images/tutalien2","images/t.png","NA","practice","null","","","",""
"d3-animate-choice","43","252333","0.0-43.0","3331","5834","8","Female","true","true","true","true","""event"",""trial"",""time""
""fullscreenenter"",""5"",""18277""
","
","
","""event"",""trial"",""time""
""fullscreenenter"",""5"",""18277""
","
","460.39999997615814","","49","","","3000","1","","","images/tutgreenplanet.jpg","images/tutalien1","images/tutalien2","null","images/tutalien2","images/t.png","NA","practice","null","","","",""
"d3-instructions","44","266639","0.0-44.0","3331","5834","8","Female","true","true","true","true","""event"",""trial"",""time""
""fullscreenenter"",""5"",""18277""
","
","
","""event"",""trial"",""time""
""fullscreenenter"",""5"",""18277""
","
","","","","","","","","","","","","","","","","","","","","","",""
"d3-instructions","45","274215","0.0-45.0","3331","5834","8","Female","true","true","true","true","""event"",""trial"",""time""
""fullscreenenter"",""5"",""18277""
","
","
","""event"",""trial"",""time""
""fullscreenenter"",""5"",""18277""
","
","","","","","","","","","","","","","","","","","","","","","",""
"d3-instructions","46","281702","0.0-46.0","3331","5834","8","Female","true","true","true","true","""event"",""trial"",""time""
""fullscreenenter"",""5"",""18277""
","
","
","""event"",""trial"",""time""
""fullscreenenter"",""5"",""18277""
","
","","","","","","","","","","","","","","","","","","","","","",""
"d3-instructions","47","299532","0.0-47.0","3331","5834","8","Female","true","true","true","true","""event"",""trial"",""time""
""fullscreenenter"",""5"",""18277""
","
","
","""event"",""trial"",""time""
""fullscreenenter"",""5"",""18277""
","
","","","","","","","","","","","","","","","","","","","","","",""
"d3-instructions","48","307723","0.0-48.0","3331","5834","8","Female","true","true","true","true","""event"",""trial"",""time""
""fullscreenenter"",""5"",""18277""
","
","
","""event"",""trial"",""time""
""fullscreenenter"",""5"",""18277""
","
","","","","","","","","","","","","","","","","","","","","","",""
"d3-instructions","49","321039","0.0-49.0","3331","5834","8","Female","true","true","true","true","""event"",""trial"",""time""
""fullscreenenter"",""5"",""18277""
","
","
","""event"",""trial"",""time""
""fullscreenenter"",""5"",""18277""
","
","","","","","","","","","","","","","","","","","","","","","",""
"d3-instructions","50","330591","0.0-50.0","3331","5834","8","Female","true","true","true","true","""event"",""trial"",""time""
""fullscreenenter"",""5"",""18277""
","
","
","""event"",""trial"",""time""
""fullscreenenter"",""5"",""18277""
","
","","","","","","","","","","","","","","","","","","","","","",""
"d3-instructions","51","333378","0.0-51.0","3331","5834","8","Female","true","true","true","true","""event"",""trial"",""time""
""fullscreenenter"",""5"",""18277""
","
","
","""event"",""trial"",""time""
""fullscreenenter"",""5"",""18277""
","
","","","","","","","","","","","","","","","","","","","","","",""
"d3-instructions","52","335111","0.0-52.0","3331","5834","8","Female","true","true","true","true","""event"",""trial"",""time""
""fullscreenenter"",""5"",""18277""
","
","
","""event"",""trial"",""time""
""fullscreenenter"",""5"",""18277""
","
","","","","","","","","","","","","","","","","","","","","","",""
"d3-instructions","53","349265","0.0-53.0","3331","5834","8","Female","true","true","true","true","""event"",""trial"",""time""
""fullscreenenter"",""5"",""18277""
","
","
","""event"",""trial"",""time""
""fullscreenenter"",""5"",""18277""
","
","","","","","","","","","","","","","","","","","","","","","",""
"d3-instructions","54","358307","0.0-54.0","3331","5834","8","Female","true","true","true","true","""event"",""trial"",""time""
""fullscreenenter"",""5"",""18277""
","
","
","""event"",""trial"",""time""
""fullscreenenter"",""5"",""18277""
","
","","","","","","","","","","","","","","","","","","","","","",""
"d3-instructions","55","371585","0.0-55.0","3331","5834","8","Female","true","true","true","true","""event"",""trial"",""time""
""fullscreenenter"",""5"",""18277""
","
","
","""event"",""trial"",""time""
""fullscreenenter"",""5"",""18277""
","
","","","","","","","","","","","","","","","","","","","","","",""
"d3-instructions","56","377169","0.0-56.0","3331","5834","8","Female","true","true","true","true","""event"",""trial"",""time""
""fullscreenenter"",""5"",""18277""
","
","
","""event"",""trial"",""time""
""fullscreenenter"",""5"",""18277""
","
","","","","","","","","","","","","","","","","","","","","","",""
"d3-instructions","57","389891","0.0-57.0","3331","5834","8","Female","true","true","true","true","""event"",""trial"",""time""
""fullscreenenter"",""5"",""18277""
","
","
","""event"",""trial"",""time""
""fullscreenenter"",""5"",""18277""
","
","","","","","","","","","","","","","","","","","","","","","",""
"d3-instructions","58","401757","0.0-58.0","3331","5834","8","Female","true","true","true","true","""event"",""trial"",""time""
""fullscreenenter"",""5"",""18277""
","
","
","""event"",""trial"",""time""
""fullscreenenter"",""5"",""18277""
","
","","","","","","","","","","","","","","","","","","","","","",""
"d3-instructions","59","407723","0.0-59.0","3331","5834","8","Female","true","true","true","true","""event"",""trial"",""time""
""fullscreenenter"",""5"",""18277""
","
","
","""event"",""trial"",""time""
""fullscreenenter"",""5"",""18277""
","
","","","","","","","","","","","","","","","","","","","","","",""
"d3-instructions","60","415551","0.0-60.0","3331","5834","8","Female","true","true","true","true","""event"",""trial"",""time""
""fullscreenenter"",""5"",""18277""
","
","
","""event"",""trial"",""time""
""fullscreenenter"",""5"",""18277""
","
","","","","","","","","","","","","","","","","","","","","","",""
"d3-animate-choice","61","418844","0.0-61.0-0.0","3331","5834","8","Female","true","true","true","true","""event"",""trial"",""time""
""fullscreenenter"",""5"",""18277""
","
","
","""event"",""trial"",""time""
""fullscreenenter"",""5"",""18277""
","
","1273.1000000238419","","49","","","3000","1","","","images/earth.jpg","images/tutrocket1","images/tutrocket2","null","images/tutrocket2","","1","practice","null","1","","",""
"d3-animate-choice","62","422870","0.0-61.0-1.0","3331","5834","8","Female","true","true","true","true","""event"",""trial"",""time""
""fullscreenenter"",""5"",""18277""
","
","
","""event"",""trial"",""time""
""fullscreenenter"",""5"",""18277""
","
","2058.300000011921","","48","","","3000","1","","","images/tutyellowplanet.jpg","images/tutalien4","images/tutalien3","images/tutrocket2","images/tutalien4","images/t.png","2","practice","true","2","common","1","2023-01-14 00:16:49.903"
"two-step-fixation","63","423877","0.0-61.0-2.0","3331","5834","8","Female","true","true","true","true","""event"",""trial"",""time""
""fullscreenenter"",""5"",""18277""
","
","
","""event"",""trial"",""time""
""fullscreenenter"",""5"",""18277""
","
","","images/earth.jpg","","","","","","","","","","","","","","fixation","","","","","",""
"d3-animate-choice","64","427902","0.0-61.0-0.1","3331","5834","8","Female","true","true","true","true","""event"",""trial"",""time""
""fullscreenenter"",""5"",""18277""
","
","
","""event"",""trial"",""time""
""fullscreenenter"",""5"",""18277""
","
","3020.600000023842","","48","","","3000","1","","","images/earth.jpg","images/tutrocket1","images/tutrocket2","null","images/tutrocket1","","1","practice","null","2","","",""
"d3-animate-choice","65","431923","0.0-61.0-1.1","3331","5834","8","Female","true","true","true","true","""event"",""trial"",""time""
""fullscreenenter"",""5"",""18277""
","
","
","""event"",""trial"",""time""
""fullscreenenter"",""5"",""18277""
","
","2178","","48","","","3000","1","","","images/tutgreenplanet.jpg","images/tutalien2","images/tutalien1","images/tutrocket1","images/tutalien2","images/nothing.png","2","practice","true","2","common","0","2023-01-14 00:16:58.956"
"two-step-fixation","66","432937","0.0-61.0-2.1","3331","5834","8","Female","true","true","true","true","""event"",""trial"",""time""
""fullscreenenter"",""5"",""18277""
","
","
","""event"",""trial"",""time""
""fullscreenenter"",""5"",""18277""
","
","","images/earth.jpg","","","","","","","","","","","","","","fixation","","","","","",""
"d3-animate-choice","67","435293","0.0-61.0-0.2","3331","5834","8","Female","true","true","true","true","""event"",""trial"",""time""
""fullscreenenter"",""5"",""18277""
","
","
","""event"",""trial"",""time""
""fullscreenenter"",""5"",""18277""
","
","349.4000000357628","","48","","","3000","1","","","images/earth.jpg","images/tutrocket1","images/tutrocket2","null","images/tutrocket1","","1","practice","null","2","","",""
"d3-animate-choice","68","438573","0.0-61.0-1.2","3331","5834","8","Female","true","true","true","true","""event"",""trial"",""time""
""fullscreenenter"",""5"",""18277""
","
","
","""event"",""trial"",""time""
""fullscreenenter"",""5"",""18277""
","
","1264.5","","49","","","3000","1","","","images/tutgreenplanet.jpg","images/tutalien2","images/tutalien1","images/tutrocket1","images/tutalien1","images/nothing.png","2","practice","true","1","common","0","2023-01-14 00:17:05.606"
"two-step-fixation","69","439589","0.0-61.0-2.2","3331","5834","8","Female","true","true","true","true","""event"",""trial"",""time""
""fullscreenenter"",""5"",""18277""
","
","
","""event"",""trial"",""time""
""fullscreenenter"",""5"",""18277""
","
","","images/earth.jpg","","","","","","","","","","","","","","fixation","","","","","",""
"d3-animate-choice","70","441933","0.0-61.0-0.3","3331","5834","8","Female","true","true","true","true","""event"",""trial"",""time""
""fullscreenenter"",""5"",""18277""
","
","
","""event"",""trial"",""time""
""fullscreenenter"",""5"",""18277""
","
","338","","49","","","3000","1","","","images/earth.jpg","images/tutrocket1","images/tutrocket2","null","images/tutrocket2","","1","practice","null","1","","",""
"d3-animate-choice","71","444453","0.0-61.0-1.3","3331","5834","8","Female","true","true","true","true","""event"",""trial"",""time""
""fullscreenenter"",""5"",""18277""
","
","
","""event"",""trial"",""time""
""fullscreenenter"",""5"",""18277""
","
","511.30000001192093","","48","","","3000","1","","","images/tutyellowplanet.jpg","images/tutalien4","images/tutalien3","images/tutrocket2","images/tutalien4","images/nothing.png","2","practice","true","2","common","0","2023-01-14 00:17:11.486"
"two-step-fixation","72","445460","0.0-61.0-2.3","3331","5834","8","Female","true","true","true","true","""event"",""trial"",""time""
""fullscreenenter"",""5"",""18277""
","
","
","""event"",""trial"",""time""
""fullscreenenter"",""5"",""18277""
","
","","images/earth.jpg","","","","","","","","","","","","","","fixation","","","","","",""
"d3-animate-choice","73","447796","0.0-61.0-0.4","3331","5834","8","Female","true","true","true","true","""event"",""trial"",""time""
""fullscreenenter"",""5"",""18277""
","
","
","""event"",""trial"",""time""
""fullscreenenter"",""5"",""18277""
","
","327.89999997615814","","49","","","3000","1","","","images/earth.jpg","images/tutrocket1","images/tutrocket2","null","images/tutrocket2","","1","practice","null","1","","",""
"d3-animate-choice","74","450093","0.0-61.0-1.4","3331","5834","8","Female","true","true","true","true","""event"",""trial"",""time""
""fullscreenenter"",""5"",""18277""
","
","
","""event"",""trial"",""time""
""fullscreenenter"",""5"",""18277""
","
","289.60000002384186","","49","","","3000","1","","","images/tutyellowplanet.jpg","images/tutalien4","images/tutalien3","images/tutrocket2","images/tutalien3","images/nothing.png","2","practice","true","1","common","0","2023-01-14 00:17:17.126"
"two-step-fixation","75","451101","0.0-61.0-2.4","3331","5834","8","Female","true","true","true","true","""event"",""trial"",""time""
""fullscreenenter"",""5"",""18277""
","
","
","""event"",""trial"",""time""
""fullscreenenter"",""5"",""18277""
","
","","images/earth.jpg","","","","","","","","","","","","","","fixation","","","","","",""
"d3-animate-choice","76","453405","0.0-61.0-0.5","3331","5834","8","Female","true","true","true","true","""event"",""trial"",""time""
""fullscreenenter"",""5"",""18277""
","
","
","""event"",""trial"",""time""
""fullscreenenter"",""5"",""18277""
","
","301.39999997615814","","48","","","3000","1","","","images/earth.jpg","images/tutrocket1","images/tutrocket2","null","images/tutrocket1","","1","practice","null","2","","",""
"d3-animate-choice","77","455693","0.0-61.0-1.5","3331","5834","8","Female","true","true","true","true","""event"",""trial"",""time""
""fullscreenenter"",""5"",""18277""
","
","
","""event"",""trial"",""time""
""fullscreenenter"",""5"",""18277""
","
","279.0999999642372","","49","","","3000","1","","","images/tutgreenplanet.jpg","images/tutalien2","images/tutalien1","images/tutrocket1","images/tutalien1","images/t.png","2","practice","true","1","common","1","2023-01-14 00:17:22.726"
"two-step-fixation","78","456701","0.0-61.0-2.5","3331","5834","8","Female","true","true","true","true","""event"",""trial"",""time""
""fullscreenenter"",""5"",""18277""
","
","
","""event"",""trial"",""time""
""fullscreenenter"",""5"",""18277""
","
","","images/earth.jpg","","","","","","","","","","","","","","fixation","","","","","",""
"d3-animate-choice","79","459125","0.0-61.0-0.6","3331","5834","8","Female","true","true","true","true","""event"",""trial"",""time""
""fullscreenenter"",""5"",""18277""
","
","
","""event"",""trial"",""time""
""fullscreenenter"",""5"",""18277""
","
","414.80000001192093","","48","","","3000","1","","","images/earth.jpg","images/tutrocket1","images/tutrocket2","null","images/tutrocket1","","1","practice","null","2","","",""
"d3-animate-choice","80","461620","0.0-61.0-1.6","3331","5834","8","Female","true","true","true","true","""event"",""trial"",""time""
""fullscreenenter"",""5"",""18277""
","
","
","""event"",""trial"",""time""
""fullscreenenter"",""5"",""18277""
","
","490","","49","","","3000","1","","","images/tutgreenplanet.jpg","images/tutalien2","images/tutalien1","images/tutrocket1","images/tutalien1","images/nothing.png","2","practice","true","1","common","0","2023-01-14 00:17:28.653"
"two-step-fixation","81","462628","0.0-61.0-2.6","3331","5834","8","Female","true","true","true","true","""event"",""trial"",""time""
""fullscreenenter"",""5"",""18277""
","
","
","""event"",""trial"",""time""
""fullscreenenter"",""5"",""18277""
","
","","images/earth.jpg","","","","","","","","","","","","","","fixation","","","","","",""
"d3-animate-choice","82","465124","0.0-61.0-0.7","3331","5834","8","Female","true","true","true","true","""event"",""trial"",""time""
""fullscreenenter"",""5"",""18277""
","
","
","""event"",""trial"",""time""
""fullscreenenter"",""5"",""18277""
","
","490.7999999523163","","49","","","3000","1","","","images/earth.jpg","images/tutrocket1","images/tutrocket2","null","images/tutrocket2","","1","practice","null","1","","",""
"d3-animate-choice","83","467493","0.0-61.0-1.7","3331","5834","8","Female","true","true","true","true","""event"",""trial"",""time""
""fullscreenenter"",""5"",""18277""
","
","
","""event"",""trial"",""time""
""fullscreenenter"",""5"",""18277""
","
","362.30000001192093","","49","","","3000","1","","","images/tutyellowplanet.jpg","images/tutalien4","images/tutalien3","images/tutrocket2","images/tutalien3","images/nothing.png","2","practice","true","1","common","0","2023-01-14 00:17:34.526"
"two-step-fixation","84","468501","0.0-61.0-2.7","3331","5834","8","Female","true","true","true","true","""event"",""trial"",""time""
""fullscreenenter"",""5"",""18277""
","
","
","""event"",""trial"",""time""
""fullscreenenter"",""5"",""18277""
","
","","images/earth.jpg","","","","","","","","","","","","","","fixation","","","","","",""
"d3-animate-choice","85","470924","0.0-61.0-0.8","3331","5834","8","Female","true","true","true","true","""event"",""trial"",""time""
""fullscreenenter"",""5"",""18277""
","
","
","""event"",""trial"",""time""
""fullscreenenter"",""5"",""18277""
","
","418.80000001192093","","49","","","3000","1","","","images/earth.jpg","images/tutrocket1","images/tutrocket2","null","images/tutrocket2","","1","practice","null","1","","",""
"d3-animate-choice","86","473253","0.0-61.0-1.8","3331","5834","8","Female","true","true","true","true","""event"",""trial"",""time""
""fullscreenenter"",""5"",""18277""
","
","
","""event"",""trial"",""time""
""fullscreenenter"",""5"",""18277""
","
","319.60000002384186","","48","","","3000","1","","","images/tutyellowplanet.jpg","images/tutalien4","images/tutalien3","images/tutrocket2","images/tutalien4","images/nothing.png","2","practice","true","2","common","0","2023-01-14 00:17:40.286"
"two-step-fixation","87","474261","0.0-61.0-2.8","3331","5834","8","Female","true","true","true","true","""event"",""trial"",""time""
""fullscreenenter"",""5"",""18277""
","
","
","""event"",""trial"",""time""
""fullscreenenter"",""5"",""18277""
","
","","images/earth.jpg","","","","","","","","","","","","","","fixation","","","","","",""
"d3-animate-choice","88","477302","0.0-61.0-0.9","3331","5834","8","Female","true","true","true","true","""event"",""trial"",""time""
""fullscreenenter"",""5"",""18277""
","
","
","""event"",""trial"",""time""
""fullscreenenter"",""5"",""18277""
","
","1033.7999999523163","","48","","","3000","1","","","images/earth.jpg","images/tutrocket1","images/tutrocket2","null","images/tutrocket1","","1","practice","null","2","","",""
"d3-animate-choice","89","480405","0.0-61.0-1.9","3331","5834","8","Female","true","true","true","true","""event"",""trial"",""time""
""fullscreenenter"",""5"",""18277""
","
","
","""event"",""trial"",""time""
""fullscreenenter"",""5"",""18277""
","
","1093.699999988079","","49","","","3000","1","","","images/tutgreenplanet.jpg","images/tutalien2","images/tutalien1","images/tutrocket1","images/tutalien1","images/nothing.png","2","practice","true","1","common","0","2023-01-14 00:17:47.438"
"two-step-fixation","90","481413","0.0-61.0-2.9","3331","5834","8","Female","true","true","true","true","""event"",""trial"",""time""
""fullscreenenter"",""5"",""18277""
","
","
","""event"",""trial"",""time""
""fullscreenenter"",""5"",""18277""
","
","","images/earth.jpg","","","","","","","","","","","","","","fixation","","","","","",""
"d3-animate-choice","91","483709","0.0-61.0-0.10","3331","5834","8","Female","true","true","true","true","""event"",""trial"",""time""
""fullscreenenter"",""5"",""18277""
","
","
","""event"",""trial"",""time""
""fullscreenenter"",""5"",""18277""
","
","291.39999997615814","","48","","","3000","1","","","images/earth.jpg","images/tutrocket1","images/tutrocket2","null","images/tutrocket1","","1","practice","null","2","","",""
"d3-animate-choice","92","486197","0.0-61.0-1.10","3331","5834","8","Female","true","true","true","true","""event"",""trial"",""time""
""fullscreenenter"",""5"",""18277""
","
","
","""event"",""trial"",""time""
""fullscreenenter"",""5"",""18277""
","
","481.60000002384186","","48","","","3000","1","","","images/tutgreenplanet.jpg","images/tutalien2","images/tutalien1","images/tutrocket1","images/tutalien2","images/t.png","2","practice","true","2","common","1","2023-01-14 00:17:53.230"
"two-step-fixation","93","487205","0.0-61.0-2.10","3331","5834","8","Female","true","true","true","true","""event"",""trial"",""time""
""fullscreenenter"",""5"",""18277""
","
","
","""event"",""trial"",""time""
""fullscreenenter"",""5"",""18277""
","
","","images/earth.jpg","","","","","","","","","","","","","","fixation","","","","","",""
"d3-animate-choice","94","489525","0.0-61.0-0.11","3331","5834","8","Female","true","true","true","true","""event"",""trial"",""time""
""fullscreenenter"",""5"",""18277""
","
","
","""event"",""trial"",""time""
""fullscreenenter"",""5"",""18277""
","
","313.5","","48","","","3000","1","684.6999999880791,954.5,1749.5999999642372","48,48,48","images/earth.jpg","images/tutrocket1","images/tutrocket2","null","images/tutrocket1","","1","practice","null","2","","",""
"d3-animate-choice","95","491972","0.0-61.0-1.11","3331","5834","8","Female","true","true","true","true","""event"",""trial"",""time""
""fullscreenenter"",""5"",""18277""
","
","
","""event"",""trial"",""time""
""fullscreenenter"",""5"",""18277""
","
","438.60000002384186","","48","","","3000","1","","","images/tutgreenplanet.jpg","images/tutalien2","images/tutalien1","images/tutrocket1","images/tutalien2","images/t.png","2","practice","true","2","common","1","2023-01-14 00:17:59.005"
"two-step-fixation","96","492975","0.0-61.0-2.11","3331","5834","8","Female","true","true","true","true","""event"",""trial"",""time""
""fullscreenenter"",""5"",""18277""
","
","
","""event"",""trial"",""time""
""fullscreenenter"",""5"",""18277""
","
","","images/earth.jpg","","","","","","","","","","","","","","fixation","","","","","",""
"d3-animate-choice","97","495289","0.0-61.0-0.12","3331","5834","8","Female","true","true","true","true","""event"",""trial"",""time""
""fullscreenenter"",""5"",""18277""
","
","
","""event"",""trial"",""time""
""fullscreenenter"",""5"",""18277""
","
","308.5","","48","","","3000","1","","","images/earth.jpg","images/tutrocket1","images/tutrocket2","null","images/tutrocket1","","1","practice","null","2","","",""
"d3-animate-choice","98","497845","0.0-61.0-1.12","3331","5834","8","Female","true","true","true","true","""event"",""trial"",""time""
""fullscreenenter"",""5"",""18277""
","
","
","""event"",""trial"",""time""
""fullscreenenter"",""5"",""18277""
","
","551.8000000119209","","48","","","3000","1","","","images/tutgreenplanet.jpg","images/tutalien2","images/tutalien1","images/tutrocket1","images/tutalien2","images/nothing.png","2","practice","true","2","common","0","2023-01-14 00:18:04.878"
"two-step-fixation","99","498853","0.0-61.0-2.12","3331","5834","8","Female","true","true","true","true","""event"",""trial"",""time""
""fullscreenenter"",""5"",""18277""
","
","
","""event"",""trial"",""time""
""fullscreenenter"",""5"",""18277""
","
","","images/earth.jpg","","","","","","","","","","","","","","fixation","","","","","",""
"d3-animate-choice","100","501164","0.0-61.0-0.13","3331","5834","8","Female","true","true","true","true","""event"",""trial"",""time""
""fullscreenenter"",""5"",""18277""
","
","
","""event"",""trial"",""time""
""fullscreenenter"",""5"",""18277""
","
","303.7999999523163","","48","","","3000","1","","","images/earth.jpg","images/tutrocket1","images/tutrocket2","null","images/tutrocket1","","1","practice","null","2","","",""
"d3-animate-choice","101","503804","0.0-61.0-1.13","3331","5834","8","Female","true","true","true","true","""event"",""trial"",""time""
""fullscreenenter"",""5"",""18277""
","
","
","""event"",""trial"",""time""
""fullscreenenter"",""5"",""18277""
","
","631.3999999761581","","48","","","3000","1","","","images/tutgreenplanet.jpg","images/tutalien2","images/tutalien1","images/tutrocket1","images/tutalien2","images/nothing.png","2","practice","true","2","common","0","2023-01-14 00:18:10.837"
"two-step-fixation","102","504813","0.0-61.0-2.13","3331","5834","8","Female","true","true","true","true","""event"",""trial"",""time""
""fullscreenenter"",""5"",""18277""
","
","
","""event"",""trial"",""time""
""fullscreenenter"",""5"",""18277""
","
","","images/earth.jpg","","","","","","","","","","","","","","fixation","","","","","",""
"d3-animate-choice","103","507156","0.0-61.0-0.14","3331","5834","8","Female","true","true","true","true","""event"",""trial"",""time""
""fullscreenenter"",""5"",""18277""
","
","
","""event"",""trial"",""time""
""fullscreenenter"",""5"",""18277""
","
","333.19999998807907","","49","","","3000","1","","","images/earth.jpg","images/tutrocket1","images/tutrocket2","null","images/tutrocket2","","1","practice","null","1","","",""
"d3-animate-choice","104","509580","0.0-61.0-1.14","3331","5834","8","Female","true","true","true","true","""event"",""trial"",""time""
""fullscreenenter"",""5"",""18277""
","
","
","""event"",""trial"",""time""
""fullscreenenter"",""5"",""18277""
","
","420.5","","49","","","3000","1","","","images/tutyellowplanet.jpg","images/tutalien4","images/tutalien3","images/tutrocket2","images/tutalien3","images/t.png","2","practice","true","1","common","1","2023-01-14 00:18:16.613"
"two-step-fixation","105","510589","0.0-61.0-2.14","3331","5834","8","Female","true","true","true","true","""event"",""trial"",""time""
""fullscreenenter"",""5"",""18277""
","
","
","""event"",""trial"",""time""
""fullscreenenter"",""5"",""18277""
","
","","images/earth.jpg","","","","","","","","","","","","","","fixation","","","","","",""
"d3-animate-choice","106","512868","0.0-61.0-0.15","3331","5834","8","Female","true","true","true","true","""event"",""trial"",""time""
""fullscreenenter"",""5"",""18277""
","
","
","""event"",""trial"",""time""
""fullscreenenter"",""5"",""18277""
","
","268.60000002384186","","49","","","3000","1","","","images/earth.jpg","images/tutrocket1","images/tutrocket2","null","images/tutrocket2","","1","practice","null","1","","",""
"d3-animate-choice","107","515388","0.0-61.0-1.15","3331","5834","8","Female","true","true","true","true","""event"",""trial"",""time""
""fullscreenenter"",""5"",""18277""
","
","
","""event"",""trial"",""time""
""fullscreenenter"",""5"",""18277""
","
","517","","49","","","3000","1","","","images/tutyellowplanet.jpg","images/tutalien4","images/tutalien3","images/tutrocket2","images/tutalien3","images/nothing.png","2","practice","true","1","common","0","2023-01-14 00:18:22.421"
"two-step-fixation","108","516396","0.0-61.0-2.15","3331","5834","8","Female","true","true","true","true","""event"",""trial"",""time""
""fullscreenenter"",""5"",""18277""
","
","
","""event"",""trial"",""time""
""fullscreenenter"",""5"",""18277""
","
","","images/earth.jpg","","","","","","","","","","","","","","fixation","","","","","",""
"d3-animate-choice","109","518677","0.0-61.0-0.16","3331","5834","8","Female","true","true","true","true","""event"",""trial"",""time""
""fullscreenenter"",""5"",""18277""
","
","
","""event"",""trial"",""time""
""fullscreenenter"",""5"",""18277""
","
","276.60000002384186","","49","","","3000","1","","","images/earth.jpg","images/tutrocket1","images/tutrocket2","null","images/tutrocket2","","1","practice","null","1","","",""
"d3-animate-choice","110","521173","0.0-61.0-1.16","3331","5834","8","Female","true","true","true","true","""event"",""trial"",""time""
""fullscreenenter"",""5"",""18277""
","
","
","""event"",""trial"",""time""
""fullscreenenter"",""5"",""18277""
","
","489.30000001192093","","48","","","3000","1","","","images/tutyellowplanet.jpg","images/tutalien4","images/tutalien3","images/tutrocket2","images/tutalien4","images/nothing.png","2","practice","true","2","common","0","2023-01-14 00:18:28.206"
"two-step-fixation","111","522181","0.0-61.0-2.16","3331","5834","8","Female","true","true","true","true","""event"",""trial"",""time""
""fullscreenenter"",""5"",""18277""
","
","
","""event"",""trial"",""time""
""fullscreenenter"",""5"",""18277""
","
","","images/earth.jpg","","","","","","","","","","","","","","fixation","","","","","",""
"d3-animate-choice","112","524644","0.0-61.0-0.17","3331","5834","8","Female","true","true","true","true","""event"",""trial"",""time""
""fullscreenenter"",""5"",""18277""
","
","
","""event"",""trial"",""time""
""fullscreenenter"",""5"",""18277""
","
","458","","48","","","3000","1","","","images/earth.jpg","images/tutrocket1","images/tutrocket2","null","images/tutrocket1","","1","practice","null","2","","",""
"d3-animate-choice","113","527165","0.0-61.0-1.17","3331","5834","8","Female","true","true","true","true","""event"",""trial"",""time""
""fullscreenenter"",""5"",""18277""
","
","
","""event"",""trial"",""time""
""fullscreenenter"",""5"",""18277""
","
","516.8999999761581","","49","","","3000","1","","","images/tutgreenplanet.jpg","images/tutalien2","images/tutalien1","images/tutrocket1","images/tutalien1","images/nothing.png","2","practice","true","1","common","0","2023-01-14 00:18:34.198"
"two-step-fixation","114","528173","0.0-61.0-2.17","3331","5834","8","Female","true","true","true","true","""event"",""trial"",""time""
""fullscreenenter"",""5"",""18277""
","
","
","""event"",""trial"",""time""
""fullscreenenter"",""5"",""18277""
","
","","images/earth.jpg","","","","","","","","","","","","","","fixation","","","","","",""
"d3-animate-choice","115","530571","0.0-61.0-0.18","3331","5834","8","Female","true","true","true","true","""event"",""trial"",""time""
""fullscreenenter"",""5"",""18277""
","
","
","""event"",""trial"",""time""
""fullscreenenter"",""5"",""18277""
","
","393.80000001192093","","49","","","3000","1","","","images/earth.jpg","images/tutrocket1","images/tutrocket2","null","images/tutrocket2","","1","practice","null","1","","",""
"d3-animate-choice","116","532985","0.0-61.0-1.18","3331","5834","8","Female","true","true","true","true","""event"",""trial"",""time""
""fullscreenenter"",""5"",""18277""
","
","
","""event"",""trial"",""time""
""fullscreenenter"",""5"",""18277""
","
","411.4000000357628","","48","","","3000","1","","","images/tutgreenplanet.jpg","images/tutalien2","images/tutalien1","images/tutrocket2","images/tutalien2","images/nothing.png","2","practice","false","2","rare","0","2023-01-14 00:18:40.018"
"two-step-fixation","117","533989","0.0-61.0-2.18","3331","5834","8","Female","true","true","true","true","""event"",""trial"",""time""
""fullscreenenter"",""5"",""18277""
","
","
","""event"",""trial"",""time""
""fullscreenenter"",""5"",""18277""
","
","","images/earth.jpg","","","","","","","","","","","","","","fixation","","","","","",""
"d3-animate-choice","118","536356","0.0-61.0-0.19","3331","5834","8","Female","true","true","true","true","""event"",""trial"",""time""
""fullscreenenter"",""5"",""18277""
","
","
","""event"",""trial"",""time""
""fullscreenenter"",""5"",""18277""
","
","363.60000002384186","","49","","","3000","1","","","images/earth.jpg","images/tutrocket1","images/tutrocket2","null","images/tutrocket2","","1","practice","null","1","","",""
"d3-animate-choice","119","538716","0.0-61.0-1.19","3331","5834","8","Female","true","true","true","true","""event"",""trial"",""time""
""fullscreenenter"",""5"",""18277""
","
","
","""event"",""trial"",""time""
""fullscreenenter"",""5"",""18277""
","
","351.19999998807907","","49","","","3000","1","","","images/tutyellowplanet.jpg","images/tutalien4","images/tutalien3","images/tutrocket2","images/tutalien3","images/nothing.png","2","practice","true","1","common","0","2023-01-14 00:18:45.749"
"two-step-fixation","120","539724","0.0-61.0-2.19","3331","5834","8","Female","true","true","true","true","""event"",""trial"",""time""
""fullscreenenter"",""5"",""18277""
","
","
","""event"",""trial"",""time""
""fullscreenenter"",""5"",""18277""
","
","","images/earth.jpg","","","","","","","","","","","","","","fixation","","","","","",""
"d3-instructions","121","547446","0.0-62.0","3331","5834","8","Female","true","true","true","true","""event"",""trial"",""time""
""fullscreenenter"",""5"",""18277""
","
","
","""event"",""trial"",""time""
""fullscreenenter"",""5"",""18277""
","
","","","","","","","","","","","","","","","","","","","","","",""
"audio-keyboard-response","122","551549","0.0-63.0","3331","5834","8","Female","true","true","true","true","""event"",""trial"",""time""
""fullscreenenter"",""5"",""18277""
","
","
","""event"",""trial"",""time""
""fullscreenenter"",""5"",""18277""
","
","4099","audio/instructions/treasure_feedback.wav","32","","","","","","","","","","","","","","","","","","",""
"d3-instructions","123","570956","0.0-64.0","3331","5834","8","Female","true","true","true","true","""event"",""trial"",""time""
""fullscreenenter"",""5"",""18277""
","
","
","""event"",""trial"",""time""
""fullscreenenter"",""5"",""18277""
","
","","","","","","","","","","","","","","","","","","","","","",""
"d3-instructions","124","585820","0.0-65.0","3331","5834","8","Female","true","true","true","true","""event"",""trial"",""time""
""fullscreenenter"",""5"",""18277""
","
","
","""event"",""trial"",""time""
""fullscreenenter"",""5"",""18277""
","
","","","","","","","","","","","","","","","","","","","","","",""
"d3-instructions","125","614305","0.0-66.0","3331","5834","8","Female","true","true","true","true","""event"",""trial"",""time""
""fullscreenenter"",""5"",""18277""
","
","
","""event"",""trial"",""time""
""fullscreenenter"",""5"",""18277""
","
","","","","","","","","","","","","","","","","","","","","","",""
"d3-instructions","126","630819","0.0-67.0","3331","5834","8","Female","true","true","true","true","""event"",""trial"",""time""
""fullscreenenter"",""5"",""18277""
","
","
","""event"",""trial"",""time""
""fullscreenenter"",""5"",""18277""
","
","","","","","","","","","","","","","","","","","","","","","",""
"d3-instructions","127","639791","0.0-68.0","3331","5834","8","Female","true","true","true","true","""event"",""trial"",""time""
""fullscreenenter"",""5"",""18277""
","
","
","""event"",""trial"",""time""
""fullscreenenter"",""5"",""18277""
","
","","","","","","","","","","","","","","","","","","","","","",""
"instructions-quiz","128","645327","0.0-69.0","3331","5834","8","Female","true","true","true","true","""event"",""trial"",""time""
""fullscreenenter"",""5"",""18277""
","
","
","""event"",""trial"",""time""
""fullscreenenter"",""5"",""18277""
","
","5534.100000023842","audio/quiz/Q1_Prompt.wav","","0","","","","","","","","","","","","","","","","","",""
"audio-keyboard-response","129","655591","0.0-70.0","3331","5834","8","Female","true","true","true","true","""event"",""trial"",""time""
""fullscreenenter"",""5"",""18277""
","
","
","""event"",""trial"",""time""
""fullscreenenter"",""5"",""18277""
","
","null","audio/quiz/Q1_Incorrect.wav","null","","","","","","","","","","","","","","","","","","",""
"instructions-quiz","130","665884","0.0-71.0","3331","5834","8","Female","true","true","true","true","""event"",""trial"",""time""
""fullscreenenter"",""5"",""18277""
","
","
","""event"",""trial"",""time""
""fullscreenenter"",""5"",""18277""
","
","10291.300000011921","audio/quiz/Q2_Prompt.wav","","0","","","","","","","","","","","","","","","","","",""
"audio-keyboard-response","131","678752","0.0-72.0","3331","5834","8","Female","true","true","true","true","""event"",""trial"",""time""
""fullscreenenter"",""5"",""18277""
","
","
","""event"",""trial"",""time""
""fullscreenenter"",""5"",""18277""
","
","null","audio/quiz/Q2_Correct.wav","null","","","","","","","","","","","","","","","","","","",""
"instructions-quiz","132","687510","0.0-73.0","3331","5834","8","Female","true","true","true","true","""event"",""trial"",""time""
""fullscreenenter"",""5"",""18277""
","
","
","""event"",""trial"",""time""
""fullscreenenter"",""5"",""18277""
","
","8756.100000023842","audio/quiz/Q3_Prompt.wav","","1","","","","","","","","","","","","","","","","","",""
"audio-keyboard-response","133","693312","0.0-74.0","3331","5834","8","Female","true","true","true","true","""event"",""trial"",""time""
""fullscreenenter"",""5"",""18277""
","
","
","""event"",""trial"",""time""
""fullscreenenter"",""5"",""18277""
","
","null","audio/quiz/Q3_Correct.wav","null","","","","","","","","","","","","","","","","","","",""
"d3-instructions","134","707757","0.0-75.0","3331","5834","8","Female","true","true","true","true","""event"",""trial"",""time""
""fullscreenenter"",""5"",""18277""
","
","
","""event"",""trial"",""time""
""fullscreenenter"",""5"",""18277""
","
","","","","","","","","","","","","","","","","","","","","","",""
"pavlovia","135","707758","0.0-76.0","3331","5834","8","Female","true","true","true","true","""event"",""trial"",""time""
""fullscreenenter"",""5"",""18277""
","
","
","""event"",""trial"",""time""
""fullscreenenter"",""5"",""18277""
","
","","","","","","","","","","","","","","","","","","","","","",""
"d3-animate-choice","136","711627","0.0-77.0-0.0","3331","5834","8","Female","true","true","true","true","""event"",""trial"",""time""
""fullscreenenter"",""5"",""18277""
","
","
","""event"",""trial"",""time""
""fullscreenenter"",""5"",""18277""
","
","1864.8999999761581","","49","","","3000","1","","","images/earth.jpg","images/rocket2","images/rocket1","null","images/rocket1","","1","real","null","1","","",""
"d3-animate-choice","137","715637","0.0-77.0-1.0","3331","5834","8","Female","true","true","true","true","""event"",""trial"",""time""
""fullscreenenter"",""5"",""18277""
","
","
","""event"",""trial"",""time""
""fullscreenenter"",""5"",""18277""
","
","486.39999997615814","","45","","","3000","1","1183.1000000238419,3054","45,48","images/purpleplanet.jpg","images/alien4","images/alien3","images/rocket1","images/alien4","","2","real","false","","rare","0","2023-01-14 00:21:42.670"
"two-step-fixation","138","716645","0.0-77.0-2.0","3331","5834","8","Female","true","true","true","true","""event"",""trial"",""time""
""fullscreenenter"",""5"",""18277""
","
","
","""event"",""trial"",""time""
""fullscreenenter"",""5"",""18277""
","
","","images/earth.jpg","","","","","","","","","","","","","","fixation","","","","","",""
"d3-animate-choice","139","719414","0.0-77.0-0.1","3331","5834","8","Female","true","true","true","true","""event"",""trial"",""time""
""fullscreenenter"",""5"",""18277""
","
","
","""event"",""trial"",""time""
""fullscreenenter"",""5"",""18277""
","
","751.5","","48","","","3000","1","","","images/earth.jpg","images/rocket2","images/rocket1","null","images/rocket2","","1","real","null","2","","",""
"d3-animate-choice","140","722228","0.0-77.0-1.1","3331","5834","8","Female","true","true","true","true","""event"",""trial"",""time""
""fullscreenenter"",""5"",""18277""
","
","
","""event"",""trial"",""time""
""fullscreenenter"",""5"",""18277""
","
","810.8000000119209","","49","","","3000","1","","","images/purpleplanet.jpg","images/alien4","images/alien3","images/rocket2","images/alien3","images/t.png","2","real","true","1","common","1","2023-01-14 00:21:49.262"
"two-step-fixation","141","723237","0.0-77.0-2.1","3331","5834","8","Female","true","true","true","true","""event"",""trial"",""time""
""fullscreenenter"",""5"",""18277""
","
","
","""event"",""trial"",""time""
""fullscreenenter"",""5"",""18277""
","
","","images/earth.jpg","","","","","","","","","","","","","","fixation","","","","","",""
"d3-animate-choice","142","725846","0.0-77.0-0.2","3331","5834","8","Female","true","true","true","true","""event"",""trial"",""time""
""fullscreenenter"",""5"",""18277""
","
","
","""event"",""trial"",""time""
""fullscreenenter"",""5"",""18277""
","
","607.1999999880791","","49","","","3000","1","","","images/earth.jpg","images/rocket2","images/rocket1","null","images/rocket1","","1","real","null","1","","",""
"d3-animate-choice","143","728320","0.0-77.0-1.2","3331","5834","8","Female","true","true","true","true","""event"",""trial"",""time""
""fullscreenenter"",""5"",""18277""
","
","
","""event"",""trial"",""time""
""fullscreenenter"",""5"",""18277""
","
","460.5","","48","","","3000","1","","","images/purpleplanet.jpg","images/alien4","images/alien3","images/rocket1","images/alien4","images/nothing.png","2","real","false","2","rare","0","2023-01-14 00:21:55.353"
"two-step-fixation","144","729324","0.0-77.0-2.2","3331","5834","8","Female","true","true","true","true","""event"",""trial"",""time""
""fullscreenenter"",""5"",""18277""
","
","
","""event"",""trial"",""time""
""fullscreenenter"",""5"",""18277""
","
","","images/earth.jpg","","","","","","","","","","","","","","fixation","","","","","",""
"d3-animate-choice","145","731836","0.0-77.0-0.3","3331","5834","8","Female","true","true","true","true","""event"",""trial"",""time""
""fullscreenenter"",""5"",""18277""
","
","
","""event"",""trial"",""time""
""fullscreenenter"",""5"",""18277""
","
","509","","49","","","3000","1","","","images/earth.jpg","images/rocket2","images/rocket1","null","images/rocket1","","1","real","null","1","","",""
"d3-animate-choice","146","734652","0.0-77.0-1.3","3331","5834","8","Female","true","true","true","true","""event"",""trial"",""time""
""fullscreenenter"",""5"",""18277""
","
","
","""event"",""trial"",""time""
""fullscreenenter"",""5"",""18277""
","
","813.6999999880791","","48","","","3000","1","","","images/redplanet1.jpg","images/alien2","images/alien1","images/rocket1","images/alien2","images/t.png","2","real","true","2","common","1","2023-01-14 00:22:01.685"
"two-step-fixation","147","735660","0.0-77.0-2.3","3331","5834","8","Female","true","true","true","true","""event"",""trial"",""time""
""fullscreenenter"",""5"",""18277""
","
","
","""event"",""trial"",""time""
""fullscreenenter"",""5"",""18277""
","
","","images/earth.jpg","","","","","","","","","","","","","","fixation","","","","","",""
"d3-animate-choice","148","737853","0.0-77.0-0.4","3331","5834","8","Female","true","true","true","true","""event"",""trial"",""time""
""fullscreenenter"",""5"",""18277""
","
","
","""event"",""trial"",""time""
""fullscreenenter"",""5"",""18277""
","
","188.69999998807907","","49","","","3000","1","","","images/earth.jpg","images/rocket2","images/rocket1","null","images/rocket1","","1","real","null","1","","",""
"d3-animate-choice","149","740292","0.0-77.0-1.4","3331","5834","8","Female","true","true","true","true","""event"",""trial"",""time""
""fullscreenenter"",""5"",""18277""
","
","
","""event"",""trial"",""time""
""fullscreenenter"",""5"",""18277""
","
","431.69999998807907","","48","","","3000","1","","","images/redplanet1.jpg","images/alien2","images/alien1","images/rocket1","images/alien2","images/t.png","2","real","true","2","common","1","2023-01-14 00:22:07.325"
"two-step-fixation","150","741301","0.0-77.0-2.4","3331","5834","8","Female","true","true","true","true","""event"",""trial"",""time""
""fullscreenenter"",""5"",""18277""
","
","
","""event"",""trial"",""time""
""fullscreenenter"",""5"",""18277""
","
","","images/earth.jpg","","","","","","","","","","","","","","fixation","","","","","",""
"d3-animate-choice","151","743310","0.0-77.0-0.5","3331","5834","8","Female","true","true","true","true","""event"",""trial"",""time""
""fullscreenenter"",""5"",""18277""
","
","
","""event"",""trial"",""time""
""fullscreenenter"",""5"",""18277""
","
","0","","49","","","3000","1","","","images/earth.jpg","images/rocket2","images/rocket1","null","images/rocket1","","1","real","null","1","","",""
"d3-animate-choice","152","745813","0.0-77.0-1.5","3331","5834","8","Female","true","true","true","true","""event"",""trial"",""time""
""fullscreenenter"",""5"",""18277""
","
","
","""event"",""trial"",""time""
""fullscreenenter"",""5"",""18277""
","
","500.39999997615814","","48","","","3000","1","","","images/redplanet1.jpg","images/alien2","images/alien1","images/rocket1","images/alien2","images/t.png","2","real","true","2","common","1","2023-01-14 00:22:12.846"
"two-step-fixation","153","746820","0.0-77.0-2.5","3331","5834","8","Female","true","true","true","true","""event"",""trial"",""time""
""fullscreenenter"",""5"",""18277""
","
","
","""event"",""trial"",""time""
""fullscreenenter"",""5"",""18277""
","
","","images/earth.jpg","","","","","","","","","","","","","","fixation","","","","","",""
"d3-animate-choice","154","748857","0.0-77.0-0.6","3331","5834","8","Female","true","true","true","true","""event"",""trial"",""time""
""fullscreenenter"",""5"",""18277""
","
","
","""event"",""trial"",""time""
""fullscreenenter"",""5"",""18277""
","
","32.5","","49","","","3000","1","","","images/earth.jpg","images/rocket2","images/rocket1","null","images/rocket1","","1","real","null","1","","",""
"d3-animate-choice","155","751453","0.0-77.0-1.6","3331","5834","8","Female","true","true","true","true","""event"",""trial"",""time""
""fullscreenenter"",""5"",""18277""
","
","
","""event"",""trial"",""time""
""fullscreenenter"",""5"",""18277""
","
","588","","48","","","3000","1","","","images/purpleplanet.jpg","images/alien4","images/alien3","images/rocket1","images/alien4","images/t.png","2","real","false","2","rare","1","2023-01-14 00:22:18.486"
"two-step-fixation","156","752461","0.0-77.0-2.6","3331","5834","8","Female","true","true","true","true","""event"",""trial"",""time""
""fullscreenenter"",""5"",""18277""
","
","
","""event"",""trial"",""time""
""fullscreenenter"",""5"",""18277""
","
","","images/earth.jpg","","","","","","","","","","","","","","fixation","","","","","",""
"d3-animate-choice","157","754886","0.0-77.0-0.7","3331","5834","8","Female","true","true","true","true","""event"",""trial"",""time""
""fullscreenenter"",""5"",""18277""
","
","
","""event"",""trial"",""time""
""fullscreenenter"",""5"",""18277""
","
","416.9000000357628","","49","","","3000","1","","","images/earth.jpg","images/rocket2","images/rocket1","null","images/rocket1","","1","real","null","1","","",""
"d3-animate-choice","158","757941","0.0-77.0-1.7","3331","5834","8","Female","true","true","true","true","""event"",""trial"",""time""
""fullscreenenter"",""5"",""18277""
","
","
","""event"",""trial"",""time""
""fullscreenenter"",""5"",""18277""
","
","1051.9000000357628","","49","","","3000","1","","","images/purpleplanet.jpg","images/alien4","images/alien3","images/rocket1","images/alien3","images/nothing.png","2","real","false","1","rare","0","2023-01-14 00:22:24.974"
"two-step-fixation","159","758948","0.0-77.0-2.7","3331","5834","8","Female","true","true","true","true","""event"",""trial"",""time""
""fullscreenenter"",""5"",""18277""
","
","
","""event"",""trial"",""time""
""fullscreenenter"",""5"",""18277""
","
","","images/earth.jpg","","","","","","","","","","","","","","fixation","","","","","",""
"d3-animate-choice","160","761261","0.0-77.0-0.8","3331","5834","8","Female","true","true","true","true","""event"",""trial"",""time""
""fullscreenenter"",""5"",""18277""
","
","
","""event"",""trial"",""time""
""fullscreenenter"",""5"",""18277""
","
","309","","49","","","3000","1","","","images/earth.jpg","images/rocket2","images/rocket1","null","images/rocket1","","1","real","null","1","","",""
"d3-animate-choice","161","763805","0.0-77.0-1.8","3331","5834","8","Female","true","true","true","true","""event"",""trial"",""time""
""fullscreenenter"",""5"",""18277""
","
","
","""event"",""trial"",""time""
""fullscreenenter"",""5"",""18277""
","
","533.8999999761581","","48","","","3000","1","","","images/purpleplanet.jpg","images/alien4","images/alien3","images/rocket1","images/alien4","images/nothing.png","2","real","false","2","rare","0","2023-01-14 00:22:30.838"
"two-step-fixation","162","764813","0.0-77.0-2.8","3331","5834","8","Female","true","true","true","true","""event"",""trial"",""time""
""fullscreenenter"",""5"",""18277""
","
","
","""event"",""trial"",""time""
""fullscreenenter"",""5"",""18277""
","
","","images/earth.jpg","","","","","","","","","","","","","","fixation","","","","","",""
"d3-animate-choice","163","767052","0.0-77.0-0.9","3331","5834","8","Female","true","true","true","true","""event"",""trial"",""time""
""fullscreenenter"",""5"",""18277""
","
","
","""event"",""trial"",""time""
""fullscreenenter"",""5"",""18277""
","
","233.5","","48","","","3000","1","","","images/earth.jpg","images/rocket2","images/rocket1","null","images/rocket2","","1","real","null","2","","",""
"d3-animate-choice","164","769554","0.0-77.0-1.9","3331","5834","8","Female","true","true","true","true","""event"",""trial"",""time""
""fullscreenenter"",""5"",""18277""
","
","
","""event"",""trial"",""time""
""fullscreenenter"",""5"",""18277""
","
","495.0999999642372","","48","","","3000","1","","","images/purpleplanet.jpg","images/alien4","images/alien3","images/rocket2","images/alien4","images/nothing.png","2","real","true","2","common","0","2023-01-14 00:22:36.587"
"two-step-fixation","165","770558","0.0-77.0-2.9","3331","5834","8","Female","true","true","true","true","""event"",""trial"",""time""
""fullscreenenter"",""5"",""18277""
","
","
","""event"",""trial"",""time""
""fullscreenenter"",""5"",""18277""
","
","","images/earth.jpg","","","","","","","","","","","","","","fixation","","","","","",""
"d3-animate-choice","166","772852","0.0-77.0-0.10","3331","5834","8","Female","true","true","true","true","""event"",""trial"",""time""
""fullscreenenter"",""5"",""18277""
","
","
","""event"",""trial"",""time""
""fullscreenenter"",""5"",""18277""
","
","289","","48","","","3000","1","","","images/earth.jpg","images/rocket2","images/rocket1","null","images/rocket2","","1","real","null","2","","",""
"d3-animate-choice","167","775268","0.0-77.0-1.10","3331","5834","8","Female","true","true","true","true","""event"",""trial"",""time""
""fullscreenenter"",""5"",""18277""
","
","
","""event"",""trial"",""time""
""fullscreenenter"",""5"",""18277""
","
","411.30000001192093","","49","","","3000","1","","","images/purpleplanet.jpg","images/alien4","images/alien3","images/rocket2","images/alien3","images/nothing.png","2","real","true","1","common","0","2023-01-14 00:22:42.302"
"two-step-fixation","168","776277","0.0-77.0-2.10","3331","5834","8","Female","true","true","true","true","""event"",""trial"",""time""
""fullscreenenter"",""5"",""18277""
","
","
","""event"",""trial"",""time""
""fullscreenenter"",""5"",""18277""
","
","","images/earth.jpg","","","","","","","","","","","","","","fixation","","","","","",""
"d3-animate-choice","169","778580","0.0-77.0-0.11","3331","5834","8","Female","true","true","true","true","""event"",""trial"",""time""
""fullscreenenter"",""5"",""18277""
","
","
","""event"",""trial"",""time""
""fullscreenenter"",""5"",""18277""
","
","300.5","","48","","","3000","1","","","images/earth.jpg","images/rocket2","images/rocket1","null","images/rocket2","","1","real","null","2","","",""
"d3-animate-choice","170","780893","0.0-77.0-1.11","3331","5834","8","Female","true","true","true","true","""event"",""trial"",""time""
""fullscreenenter"",""5"",""18277""
","
","
","""event"",""trial"",""time""
""fullscreenenter"",""5"",""18277""
","
","302.30000001192093","","49","","","3000","1","","","images/purpleplanet.jpg","images/alien4","images/alien3","images/rocket2","images/alien3","images/nothing.png","2","real","true","1","common","0","2023-01-14 00:22:47.927"
"two-step-fixation","171","781901","0.0-77.0-2.11","3331","5834","8","Female","true","true","true","true","""event"",""trial"",""time""
""fullscreenenter"",""5"",""18277""
","
","
","""event"",""trial"",""time""
""fullscreenenter"",""5"",""18277""
","
","","images/earth.jpg","","","","","","","","","","","","","","fixation","","","","","",""
"d3-animate-choice","172","784254","0.0-77.0-0.12","3331","5834","8","Female","true","true","true","true","""event"",""trial"",""time""
""fullscreenenter"",""5"",""18277""
","
","
","""event"",""trial"",""time""
""fullscreenenter"",""5"",""18277""
","
","345.10000002384186","","49","","","3000","1","","","images/earth.jpg","images/rocket2","images/rocket1","null","images/rocket1","","1","real","null","1","","",""
"d3-animate-choice","173","786629","0.0-77.0-1.12","3331","5834","8","Female","true","true","true","true","""event"",""trial"",""time""
""fullscreenenter"",""5"",""18277""
","
","
","""event"",""trial"",""time""
""fullscreenenter"",""5"",""18277""
","
","363.9000000357628","","48","","","3000","1","","","images/redplanet1.jpg","images/alien2","images/alien1","images/rocket1","images/alien2","images/t.png","2","real","true","2","common","1","2023-01-14 00:22:53.662"
"two-step-fixation","174","787637","0.0-77.0-2.12","3331","5834","8","Female","true","true","true","true","""event"",""trial"",""time""
""fullscreenenter"",""5"",""18277""
","
","
","""event"",""trial"",""time""
""fullscreenenter"",""5"",""18277""
","
","","images/earth.jpg","","","","","","","","","","","","","","fixation","","","","","",""
"d3-animate-choice","175","789901","0.0-77.0-0.13","3331","5834","8","Female","true","true","true","true","""event"",""trial"",""time""
""fullscreenenter"",""5"",""18277""
","
","
","""event"",""trial"",""time""
""fullscreenenter"",""5"",""18277""
","
","256.80000001192093","","49","","","3000","1","","","images/earth.jpg","images/rocket2","images/rocket1","null","images/rocket1","","1","real","null","1","","",""
"d3-animate-choice","176","792413","0.0-77.0-1.13","3331","5834","8","Female","true","true","true","true","""event"",""trial"",""time""
""fullscreenenter"",""5"",""18277""
","
","
","""event"",""trial"",""time""
""fullscreenenter"",""5"",""18277""
","
","502.69999998807907","","48","","","3000","1","","","images/redplanet1.jpg","images/alien2","images/alien1","images/rocket1","images/alien2","images/nothing.png","2","real","true","2","common","0","2023-01-14 00:22:59.446"
"two-step-fixation","177","793420","0.0-77.0-2.13","3331","5834","8","Female","true","true","true","true","""event"",""trial"",""time""
""fullscreenenter"",""5"",""18277""
","
","
","""event"",""trial"",""time""
""fullscreenenter"",""5"",""18277""
","
","","images/earth.jpg","","","","","","","","","","","","","","fixation","","","","","",""
"d3-animate-choice","178","795789","0.0-77.0-0.14","3331","5834","8","Female","true","true","true","true","""event"",""trial"",""time""
""fullscreenenter"",""5"",""18277""
","
","
","""event"",""trial"",""time""
""fullscreenenter"",""5"",""18277""
","
","363.10000002384186","","49","","","3000","1","","","images/earth.jpg","images/rocket2","images/rocket1","null","images/rocket1","","1","real","null","1","","",""
"d3-animate-choice","179","798109","0.0-77.0-1.14","3331","5834","8","Female","true","true","true","true","""event"",""trial"",""time""
""fullscreenenter"",""5"",""18277""
","
","
","""event"",""trial"",""time""
""fullscreenenter"",""5"",""18277""
","
","313.30000001192093","","49","","","3000","1","","","images/redplanet1.jpg","images/alien2","images/alien1","images/rocket1","images/alien1","images/t.png","2","real","true","1","common","1","2023-01-14 00:23:05.142"
"two-step-fixation","180","799116","0.0-77.0-2.14","3331","5834","8","Female","true","true","true","true","""event"",""trial"",""time""
""fullscreenenter"",""5"",""18277""
","
","
","""event"",""trial"",""time""
""fullscreenenter"",""5"",""18277""
","
","","images/earth.jpg","","","","","","","","","","","","","","fixation","","","","","",""
"d3-animate-choice","181","801477","0.0-77.0-0.15","3331","5834","8","Female","true","true","true","true","""event"",""trial"",""time""
""fullscreenenter"",""5"",""18277""
","
","
","""event"",""trial"",""time""
""fullscreenenter"",""5"",""18277""
","
","355.60000002384186","","49","","","3000","1","","","images/earth.jpg","images/rocket2","images/rocket1","null","images/rocket1","","1","real","null","1","","",""
"d3-animate-choice","182","803987","0.0-77.0-1.15","3331","5834","8","Female","true","true","true","true","""event"",""trial"",""time""
""fullscreenenter"",""5"",""18277""
","
","
","""event"",""trial"",""time""
""fullscreenenter"",""5"",""18277""
","
","501.2000000476837","","49","","","3000","1","","","images/redplanet1.jpg","images/alien2","images/alien1","images/rocket1","images/alien1","images/nothing.png","2","real","true","1","common","0","2023-01-14 00:23:11.020"
"two-step-fixation","183","804997","0.0-77.0-2.15","3331","5834","8","Female","true","true","true","true","""event"",""trial"",""time""
""fullscreenenter"",""5"",""18277""
","
","
","""event"",""trial"",""time""
""fullscreenenter"",""5"",""18277""
","
","","images/earth.jpg","","","","","","","","","","","","","","fixation","","","","","",""
"d3-animate-choice","184","807334","0.0-77.0-0.16","3331","5834","8","Female","true","true","true","true","""event"",""trial"",""time""
""fullscreenenter"",""5"",""18277""
","
","
","""event"",""trial"",""time""
""fullscreenenter"",""5"",""18277""
","
","324.80000001192093","","48","","","3000","1","","","images/earth.jpg","images/rocket2","images/rocket1","null","images/rocket2","","1","real","null","2","","",""
"d3-animate-choice","185","809724","0.0-77.0-1.16","3331","5834","8","Female","true","true","true","true","""event"",""trial"",""time""
""fullscreenenter"",""5"",""18277""
","
","
","""event"",""trial"",""time""
""fullscreenenter"",""5"",""18277""
","
","386","","49","","","3000","1","","","images/purpleplanet.jpg","images/alien4","images/alien3","images/rocket2","images/alien3","images/nothing.png","2","real","true","1","common","0","2023-01-14 00:23:16.757"
"two-step-fixation","186","810732","0.0-77.0-2.16","3331","5834","8","Female","true","true","true","true","""event"",""trial"",""time""
""fullscreenenter"",""5"",""18277""
","
","
","""event"",""trial"",""time""
""fullscreenenter"",""5"",""18277""
","
","","images/earth.jpg","","","","","","","","","","","","","","fixation","","","","","",""
"d3-animate-choice","187","813278","0.0-77.0-0.17","3331","5834","8","Female","true","true","true","true","""event"",""trial"",""time""
""fullscreenenter"",""5"",""18277""
","
","
","""event"",""trial"",""time""
""fullscreenenter"",""5"",""18277""
","
","533.3999999761581","","49","","","3000","1","","","images/earth.jpg","images/rocket2","images/rocket1","null","images/rocket1","","1","real","null","1","","",""
"d3-animate-choice","188","816677","0.0-77.0-1.17","3331","5834","8","Female","true","true","true","true","""event"",""trial"",""time""
""fullscreenenter"",""5"",""18277""
","
","
","""event"",""trial"",""time""
""fullscreenenter"",""5"",""18277""
","
","1394.6000000238419","","49","","","3000","1","","","images/purpleplanet.jpg","images/alien4","images/alien3","images/rocket1","images/alien3","images/t.png","2","real","false","1","rare","1","2023-01-14 00:23:23.710"
"two-step-fixation","189","817685","0.0-77.0-2.17","3331","5834","8","Female","true","true","true","true","""event"",""trial"",""time""
""fullscreenenter"",""5"",""18277""
","
","
","""event"",""trial"",""time""
""fullscreenenter"",""5"",""18277""
","
","","images/earth.jpg","","","","","","","","","","","","","","fixation","","","","","",""
"d3-animate-choice","190","820060","0.0-77.0-0.18","3331","5834","8","Female","true","true","true","true","""event"",""trial"",""time""
""fullscreenenter"",""5"",""18277""
","
","
","""event"",""trial"",""time""
""fullscreenenter"",""5"",""18277""
","
","370.89999997615814","","49","","","3000","1","","","images/earth.jpg","images/rocket2","images/rocket1","null","images/rocket1","","1","real","null","1","","",""
"d3-animate-choice","191","822766","0.0-77.0-1.18","3331","5834","8","Female","true","true","true","true","""event"",""trial"",""time""
""fullscreenenter"",""5"",""18277""
","
","
","""event"",""trial"",""time""
""fullscreenenter"",""5"",""18277""
","
","698.8999999761581","","49","","","3000","1","","","images/purpleplanet.jpg","images/alien4","images/alien3","images/rocket1","images/alien3","images/nothing.png","2","real","false","1","rare","0","2023-01-14 00:23:29.799"
"two-step-fixation","192","823774","0.0-77.0-2.18","3331","5834","8","Female","true","true","true","true","""event"",""trial"",""time""
""fullscreenenter"",""5"",""18277""
","
","
","""event"",""trial"",""time""
""fullscreenenter"",""5"",""18277""
","
","","images/earth.jpg","","","","","","","","","","","","","","fixation","","","","","",""
"d3-animate-choice","193","826228","0.0-77.0-0.19","3331","5834","8","Female","true","true","true","true","""event"",""trial"",""time""
""fullscreenenter"",""5"",""18277""
","
","
","""event"",""trial"",""time""
""fullscreenenter"",""5"",""18277""
","
","447.5999999642372","","48","","","3000","1","","","images/earth.jpg","images/rocket2","images/rocket1","null","images/rocket2","","1","real","null","2","","",""
"d3-animate-choice","194","828804","0.0-77.0-1.19","3331","5834","8","Female","true","true","true","true","""event"",""trial"",""time""
""fullscreenenter"",""5"",""18277""
","
","
","""event"",""trial"",""time""
""fullscreenenter"",""5"",""18277""
","
","566.7000000476837","","49","","","3000","1","","","images/redplanet1.jpg","images/alien2","images/alien1","images/rocket2","images/alien1","images/t.png","2","real","false","1","rare","1","2023-01-14 00:23:35.837"
"two-step-fixation","195","829812","0.0-77.0-2.19","3331","5834","8","Female","true","true","true","true","""event"",""trial"",""time""
""fullscreenenter"",""5"",""18277""
","
","
","""event"",""trial"",""time""
""fullscreenenter"",""5"",""18277""
","
","","images/earth.jpg","","","","","","","","","","","","","","fixation","","","","","",""
"d3-animate-choice","196","832285","0.0-77.0-0.20","3331","5834","8","Female","true","true","true","true","""event"",""trial"",""time""
""fullscreenenter"",""5"",""18277""
","
","
","""event"",""trial"",""time""
""fullscreenenter"",""5"",""18277""
","
","465.9000000357628","","48","","","3000","1","","","images/earth.jpg","images/rocket2","images/rocket1","null","images/rocket2","","1","real","null","2","","",""
"d3-animate-choice","197","834741","0.0-77.0-1.20","3331","5834","8","Female","true","true","true","true","""event"",""trial"",""time""
""fullscreenenter"",""5"",""18277""
","
","
","""event"",""trial"",""time""
""fullscreenenter"",""5"",""18277""
","
","447.4000000357628","","49","","","3000","1","","","images/purpleplanet.jpg","images/alien4","images/alien3","images/rocket2","images/alien3","images/nothing.png","2","real","true","1","common","0","2023-01-14 00:23:41.774"
"two-step-fixation","198","835749","0.0-77.0-2.20","3331","5834","8","Female","true","true","true","true","""event"",""trial"",""time""
""fullscreenenter"",""5"",""18277""
","
","
","""event"",""trial"",""time""
""fullscreenenter"",""5"",""18277""
","
","","images/earth.jpg","","","","","","","","","","","","","","fixation","","","","","",""
"d3-animate-choice","199","838120","0.0-77.0-0.21","3331","5834","8","Female","true","true","true","true","""event"",""trial"",""time""
""fullscreenenter"",""5"",""18277""
","
","
","""event"",""trial"",""time""
""fullscreenenter"",""5"",""18277""
","
","366.60000002384186","","48","","","3000","1","","","images/earth.jpg","images/rocket2","images/rocket1","null","images/rocket2","","1","real","null","2","","",""
"d3-animate-choice","200","840568","0.0-77.0-1.21","3331","5834","8","Female","true","true","true","true","""event"",""trial"",""time""
""fullscreenenter"",""5"",""18277""
","
","
","""event"",""trial"",""time""
""fullscreenenter"",""5"",""18277""
","
","443.89999997615814","","48","","","3000","1","1972.199999988079","48","images/purpleplanet.jpg","images/alien4","images/alien3","images/rocket2","images/alien4","images/t.png","2","real","true","2","common","1","2023-01-14 00:23:47.601"
"two-step-fixation","201","841573","0.0-77.0-2.21","3331","5834","8","Female","true","true","true","true","""event"",""trial"",""time""
""fullscreenenter"",""5"",""18277""
","
","
","""event"",""trial"",""time""
""fullscreenenter"",""5"",""18277""
","
","","images/earth.jpg","","","","","","","","","","","","","","fixation","","","","","",""
"d3-animate-choice","202","843669","0.0-77.0-0.22","3331","5834","8","Female","true","true","true","true","""event"",""trial"",""time""
""fullscreenenter"",""5"",""18277""
","
","
","""event"",""trial"",""time""
""fullscreenenter"",""5"",""18277""
","
","92.90000003576279","","48","","","3000","1","","","images/earth.jpg","images/rocket2","images/rocket1","null","images/rocket2","","1","real","null","2","","",""
"d3-animate-choice","203","846285","0.0-77.0-1.22","3331","5834","8","Female","true","true","true","true","""event"",""trial"",""time""
""fullscreenenter"",""5"",""18277""
","
","
","""event"",""trial"",""time""
""fullscreenenter"",""5"",""18277""
","
","611.3999999761581","","48","","","3000","1","","","images/redplanet1.jpg","images/alien2","images/alien1","images/rocket2","images/alien2","images/t.png","2","real","false","2","rare","1","2023-01-14 00:23:53.319"
"two-step-fixation","204","847292","0.0-77.0-2.22","3331","5834","8","Female","true","true","true","true","""event"",""trial"",""time""
""fullscreenenter"",""5"",""18277""
","
","
","""event"",""trial"",""time""
""fullscreenenter"",""5"",""18277""
","
","","images/earth.jpg","","","","","","","","","","","","","","fixation","","","","","",""
"d3-animate-choice","205","849820","0.0-77.0-0.23","3331","5834","8","Female","true","true","true","true","""event"",""trial"",""time""
""fullscreenenter"",""5"",""18277""
","
","
","""event"",""trial"",""time""
""fullscreenenter"",""5"",""18277""
","
","521.5","","48","","","3000","1","","","images/earth.jpg","images/rocket2","images/rocket1","null","images/rocket2","","1","real","null","2","","",""
"d3-animate-choice","206","853589","0.0-77.0-1.23","3331","5834","8","Female","true","true","true","true","""event"",""trial"",""time""
""fullscreenenter"",""5"",""18277""
","
","
","""event"",""trial"",""time""
""fullscreenenter"",""5"",""18277""
","
","1764.6000000238419","","49","","","3000","1","","","images/purpleplanet.jpg","images/alien4","images/alien3","images/rocket2","images/alien3","images/nothing.png","2","real","true","1","common","0","2023-01-14 00:24:00.622"
"two-step-fixation","207","854598","0.0-77.0-2.23","3331","5834","8","Female","true","true","true","true","""event"",""trial"",""time""
""fullscreenenter"",""5"",""18277""
","
","
","""event"",""trial"",""time""
""fullscreenenter"",""5"",""18277""
","
","","images/earth.jpg","","","","","","","","","","","","","","fixation","","","","","",""
"d3-animate-choice","208","858613","0.0-77.0-0.24","3331","5834","8","Female","true","true","true","true","""event"",""trial"",""time""
""fullscreenenter"",""5"",""18277""
","
","
","""event"",""trial"",""time""
""fullscreenenter"",""5"",""18277""
","
","3235.099999964237","","48","","","3000","0","","","images/earth.jpg","images/rocket2","images/rocket1","null","","","1","real","null","2","","",""
"d3-animate-choice","209","859629","0.0-77.0-1.24","3331","5834","8","Female","true","true","true","true","""event"",""trial"",""time""
""fullscreenenter"",""5"",""18277""
","
","
","""event"",""trial"",""time""
""fullscreenenter"",""5"",""18277""
","
","null","","null","","","0","0","","","images/earth.jpg","images/rocket2","images/rocket1","null","","","2","real","null","","","0","2023-01-14 00:24:06.662"
"two-step-fixation","210","860637","0.0-77.0-2.24","3331","5834","8","Female","true","true","true","true","""event"",""trial"",""time""
""fullscreenenter"",""5"",""18277""
","
","
","""event"",""trial"",""time""
""fullscreenenter"",""5"",""18277""
","
","","images/earth.jpg","","","","","","","","","","","","","","fixation","","","","","",""
"d3-animate-choice","211","863845","0.0-77.0-0.25","3331","5834","8","Female","true","true","true","true","""event"",""trial"",""time""
""fullscreenenter"",""5"",""18277""
","
","
","""event"",""trial"",""time""
""fullscreenenter"",""5"",""18277""
","
","1203.699999988079","","48","","","3000","1","","","images/earth.jpg","images/rocket2","images/rocket1","null","images/rocket2","","1","real","null","2","","",""
"d3-animate-choice","212","867858","0.0-77.0-1.25","3331","5834","8","Female","true","true","true","true","""event"",""trial"",""time""
""fullscreenenter"",""5"",""18277""
","
","
","""event"",""trial"",""time""
""fullscreenenter"",""5"",""18277""
","
","2797","","48","","","3000","1","","","images/purpleplanet.jpg","images/alien4","images/alien3","images/rocket2","images/alien4","","2","real","true","2","common","0","2023-01-14 00:24:14.891"
"two-step-fixation","213","868861","0.0-77.0-2.25","3331","5834","8","Female","true","true","true","true","""event"",""trial"",""time""
""fullscreenenter"",""5"",""18277""
","
","
","""event"",""trial"",""time""
""fullscreenenter"",""5"",""18277""
","
","","images/earth.jpg","","","","","","","","","","","","","","fixation","","","","","",""
"d3-animate-choice","214","872438","0.0-77.0-0.26","3331","5834","8","Female","true","true","true","true","""event"",""trial"",""time""
""fullscreenenter"",""5"",""18277""
","
","
","""event"",""trial"",""time""
""fullscreenenter"",""5"",""18277""
","
","1573.3999999761581","","49","","","3000","1","","","images/earth.jpg","images/rocket2","images/rocket1","null","images/rocket1","","1","real","null","1","","",""
"d3-animate-choice","215","875964","0.0-77.0-1.26","3331","5834","8","Female","true","true","true","true","""event"",""trial"",""time""
""fullscreenenter"",""5"",""18277""
","
","
","""event"",""trial"",""time""
""fullscreenenter"",""5"",""18277""
","
","1518","","49","","","3000","1","","","images/redplanet1.jpg","images/alien2","images/alien1","images/rocket1","images/alien1","images/t.png","2","real","true","1","common","1","2023-01-14 00:24:22.997"
"two-step-fixation","216","876973","0.0-77.0-2.26","3331","5834","8","Female","true","true","true","true","""event"",""trial"",""time""
""fullscreenenter"",""5"",""18277""
","
","
","""event"",""trial"",""time""
""fullscreenenter"",""5"",""18277""
","
","","images/earth.jpg","","","","","","","","","","","","","","fixation","","","","","",""
"d3-animate-choice","217","879788","0.0-77.0-0.27","3331","5834","8","Female","true","true","true","true","""event"",""trial"",""time""
""fullscreenenter"",""5"",""18277""
","
","
","""event"",""trial"",""time""
""fullscreenenter"",""5"",""18277""
","
","812.6000000238419","","48","","","3000","1","","","images/earth.jpg","images/rocket2","images/rocket1","null","images/rocket2","","1","real","null","2","","",""
"d3-animate-choice","218","883796","0.0-77.0-1.27","3331","5834","8","Female","true","true","true","true","""event"",""trial"",""time""
""fullscreenenter"",""5"",""18277""
","
","
","""event"",""trial"",""time""
""fullscreenenter"",""5"",""18277""
","
","2534","","49","","","3000","1","","","images/purpleplanet.jpg","images/alien4","images/alien3","images/rocket2","images/alien3","images/nothing.png","2","real","true","1","common","0","2023-01-14 00:24:30.829"
"two-step-fixation","219","884804","0.0-77.0-2.27","3331","5834","8","Female","true","true","true","true","""event"",""trial"",""time""
""fullscreenenter"",""5"",""18277""
","
","
","""event"",""trial"",""time""
""fullscreenenter"",""5"",""18277""
","
","","images/earth.jpg","","","","","","","","","","","","","","fixation","","","","","",""
"d3-animate-choice","220","888820","0.0-77.0-0.28","3331","5834","8","Female","true","true","true","true","""event"",""trial"",""time""
""fullscreenenter"",""5"",""18277""
","
","
","""event"",""trial"",""time""
""fullscreenenter"",""5"",""18277""
","
","null","","null","","","3000","0","","","images/earth.jpg","images/rocket2","images/rocket1","null","","","1","real","null","","","",""
"d3-animate-choice","221","889829","0.0-77.0-1.28","3331","5834","8","Female","true","true","true","true","""event"",""trial"",""time""
""fullscreenenter"",""5"",""18277""
","
","
","""event"",""trial"",""time""
""fullscreenenter"",""5"",""18277""
","
","null","","null","","","0","0","","","images/earth.jpg","images/rocket2","images/rocket1","null","","","2","real","null","","","0","2023-01-14 00:24:36.862"
"two-step-fixation","222","890837","0.0-77.0-2.28","3331","5834","8","Female","true","true","true","true","""event"",""trial"",""time""
""fullscreenenter"",""5"",""18277""
","
","
","""event"",""trial"",""time""
""fullscreenenter"",""5"",""18277""
","
","","images/earth.jpg","","","","","","","","","","","","","","fixation","","","","","",""
"d3-animate-choice","223","893076","0.0-77.0-0.29","3331","5834","8","Female","true","true","true","true","""event"",""trial"",""time""
""fullscreenenter"",""5"",""18277""
","
","
","""event"",""trial"",""time""
""fullscreenenter"",""5"",""18277""
","
","234.4000000357628","","48","","","3000","1","1999.9000000357628","48","images/earth.jpg","images/rocket2","images/rocket1","null","images/rocket2","","1","real","null","2","","",""
"d3-animate-choice","224","895148","0.0-77.0-1.29","3331","5834","8","Female","true","true","true","true","""event"",""trial"",""time""
""fullscreenenter"",""5"",""18277""
","
","
","""event"",""trial"",""time""
""fullscreenenter"",""5"",""18277""
","
","63","","48","","","3000","1","344.89999997615814,624,938.6999999880791,1193.800000011921,1458.6000000238419,1738.1000000238419,2023.199999988079","48,48,48,48,48,48,48","images/purpleplanet.jpg","images/alien4","images/alien3","images/rocket2","images/alien4","images/t.png","2","real","true","2","common","1","2023-01-14 00:24:42.181"
"two-step-fixation","225","896157","0.0-77.0-2.29","3331","5834","8","Female","true","true","true","true","""event"",""trial"",""time""
""fullscreenenter"",""5"",""18277""
","
","
","""event"",""trial"",""time""
""fullscreenenter"",""5"",""18277""
","
","","images/earth.jpg","","","","","","","","","","","","","","fixation","","","","","",""
"d3-animate-choice","226","898189","0.0-77.0-0.30","3331","5834","8","Female","true","true","true","true","""event"",""trial"",""time""
""fullscreenenter"",""5"",""18277""
","
","
","""event"",""trial"",""time""
""fullscreenenter"",""5"",""18277""
","
","21.400000035762787","","49","","","3000","1","421.9000000357628,761.5,1057.1000000238419,1327.300000011921,1574.800000011921,1859.9000000357628","49,49,49,49,49,49","images/earth.jpg","images/rocket2","images/rocket1","null","images/rocket1","","1","real","null","1","","",""
"d3-animate-choice","227","900293","0.0-77.0-1.30","3331","5834","8","Female","true","true","true","true","""event"",""trial"",""time""
""fullscreenenter"",""5"",""18277""
","
","
","""event"",""trial"",""time""
""fullscreenenter"",""5"",""18277""
","
","101.59999996423721","","49","","","3000","1","398.19999998807907,731.5,1070.300000011921,1396.5,1726.8999999761581","49,49,49,49,49","images/purpleplanet.jpg","images/alien4","images/alien3","images/rocket1","images/alien3","images/nothing.png","2","real","false","1","rare","0","2023-01-14 00:24:47.326"
"two-step-fixation","228","901301","0.0-77.0-2.30","3331","5834","8","Female","true","true","true","true","""event"",""trial"",""time""
""fullscreenenter"",""5"",""18277""
","
","
","""event"",""trial"",""time""
""fullscreenenter"",""5"",""18277""
","
","","images/earth.jpg","","","","","","","","","","","","","","fixation","","","","","",""
"d3-animate-choice","229","903373","0.0-77.0-0.31","3331","5834","8","Female","true","true","true","true","""event"",""trial"",""time""
""fullscreenenter"",""5"",""18277""
","
","
","""event"",""trial"",""time""
""fullscreenenter"",""5"",""18277""
","
","65.39999997615814","","48","","","3000","1","","","images/earth.jpg","images/rocket2","images/rocket1","null","images/rocket2","","1","real","null","2","","",""
"d3-animate-choice","230","905869","0.0-77.0-1.31","3331","5834","8","Female","true","true","true","true","""event"",""trial"",""time""
""fullscreenenter"",""5"",""18277""
","
","
","""event"",""trial"",""time""
""fullscreenenter"",""5"",""18277""
","
","489.89999997615814","","49","","","3000","1","","","images/purpleplanet.jpg","images/alien4","images/alien3","images/rocket2","images/alien3","images/nothing.png","2","real","true","1","common","0","2023-01-14 00:24:52.903"
"two-step-fixation","231","906876","0.0-77.0-2.31","3331","5834","8","Female","true","true","true","true","""event"",""trial"",""time""
""fullscreenenter"",""5"",""18277""
","
","
","""event"",""trial"",""time""
""fullscreenenter"",""5"",""18277""
","
","","images/earth.jpg","","","","","","","","","","","","","","fixation","","","","","",""
"d3-animate-choice","232","909101","0.0-77.0-0.32","3331","5834","8","Female","true","true","true","true","""event"",""trial"",""time""
""fullscreenenter"",""5"",""18277""
","
","
","""event"",""trial"",""time""
""fullscreenenter"",""5"",""18277""
","
","222.5","","48","","","3000","1","","","images/earth.jpg","images/rocket2","images/rocket1","null","images/rocket2","","1","real","null","2","","",""
"d3-animate-choice","233","911748","0.0-77.0-1.32","3331","5834","8","Female","true","true","true","true","""event"",""trial"",""time""
""fullscreenenter"",""5"",""18277""
","
","
","""event"",""trial"",""time""
""fullscreenenter"",""5"",""18277""
","
","638","","48","","","3000","1","934.4000000357628,1165.800000011921,1435.6000000238419,1676.300000011921,1931.2000000476837,2209.800000011921,2473.900000035763","48,48,48,48,48,48,48","images/purpleplanet.jpg","images/alien4","images/alien3","images/rocket2","images/alien4","images/t.png","2","real","true","2","common","1","2023-01-14 00:24:58.781"
"two-step-fixation","234","912757","0.0-77.0-2.32","3331","5834","8","Female","true","true","true","true","""event"",""trial"",""time""
""fullscreenenter"",""5"",""18277""
","
","
","""event"",""trial"",""time""
""fullscreenenter"",""5"",""18277""
","
","","images/earth.jpg","","","","","","","","","","","","","","fixation","","","","","",""
"d3-animate-choice","235","914962","0.0-77.0-0.33","3331","5834","8","Female","true","true","true","true","""event"",""trial"",""time""
""fullscreenenter"",""5"",""18277""
","
","
","""event"",""trial"",""time""
""fullscreenenter"",""5"",""18277""
","
","200.10000002384186","","49","","","3000","1","443.9000000357628,668.8000000119209,908.3000000119209,1175.1000000238419,1415.4000000357628,1694,1991","49,49,49,49,49,49,49","images/earth.jpg","images/rocket2","images/rocket1","null","images/rocket1","","1","real","null","1","","",""
"d3-animate-choice","236","918189","0.0-77.0-1.33","3331","5834","8","Female","true","true","true","true","""event"",""trial"",""time""
""fullscreenenter"",""5"",""18277""
","
","
","""event"",""trial"",""time""
""fullscreenenter"",""5"",""18277""
","
","1223","","48","","","3000","1","","","images/redplanet1.jpg","images/alien2","images/alien1","images/rocket1","images/alien2","images/t.png","2","real","true","2","common","1","2023-01-14 00:25:05.223"
"two-step-fixation","237","919196","0.0-77.0-2.33","3331","5834","8","Female","true","true","true","true","""event"",""trial"",""time""
""fullscreenenter"",""5"",""18277""
","
","
","""event"",""trial"",""time""
""fullscreenenter"",""5"",""18277""
","
","","images/earth.jpg","","","","","","","","","","","","","","fixation","","","","","",""
"d3-animate-choice","238","921223","0.0-77.0-0.34","3331","5834","8","Female","true","true","true","true","""event"",""trial"",""time""
""fullscreenenter"",""5"",""18277""
","
","
","""event"",""trial"",""time""
""fullscreenenter"",""5"",""18277""
","
","23.700000047683716","","49","","","3000","1","341.30000001192093,729.3000000119209,1000.1000000238419,1321.6000000238419","49,49,49,49","images/earth.jpg","images/rocket2","images/rocket1","null","images/rocket1","","1","real","null","1","","",""
"d3-animate-choice","239","923685","0.0-77.0-1.34","3331","5834","8","Female","true","true","true","true","""event"",""trial"",""time""
""fullscreenenter"",""5"",""18277""
","
","
","""event"",""trial"",""time""
""fullscreenenter"",""5"",""18277""
","
","458.2999999523163","","48","","","3000","1","","","images/redplanet1.jpg","images/alien2","images/alien1","images/rocket1","images/alien2","images/t.png","2","real","true","2","common","1","2023-01-14 00:25:10.718"
"two-step-fixation","240","924693","0.0-77.0-2.34","3331","5834","8","Female","true","true","true","true","""event"",""trial"",""time""
""fullscreenenter"",""5"",""18277""
","
","
","""event"",""trial"",""time""
""fullscreenenter"",""5"",""18277""
","
","","images/earth.jpg","","","","","","","","","","","","","","fixation","","","","","",""
"d3-animate-choice","241","926988","0.0-77.0-0.35","3331","5834","8","Female","true","true","true","true","""event"",""trial"",""time""
""fullscreenenter"",""5"",""18277""
","
","
","""event"",""trial"",""time""
""fullscreenenter"",""5"",""18277""
","
","289.9000000357628","","49","","","3000","1","","","images/earth.jpg","images/rocket2","images/rocket1","null","images/rocket1","","1","real","null","1","","",""
"d3-animate-choice","242","929805","0.0-77.0-1.35","3331","5834","8","Female","true","true","true","true","""event"",""trial"",""time""
""fullscreenenter"",""5"",""18277""
","
","
","""event"",""trial"",""time""
""fullscreenenter"",""5"",""18277""
","
","811.6999999880791","","49","","","3000","1","2728.800000011921","49","images/purpleplanet.jpg","images/alien4","images/alien3","images/rocket1","images/alien3","images/nothing.png","2","real","false","1","rare","0","2023-01-14 00:25:16.838"
"two-step-fixation","243","930812","0.0-77.0-2.35","3331","5834","8","Female","true","true","true","true","""event"",""trial"",""time""
""fullscreenenter"",""5"",""18277""
","
","
","""event"",""trial"",""time""
""fullscreenenter"",""5"",""18277""
","
","","images/earth.jpg","","","","","","","","","","","","","","fixation","","","","","",""
"d3-animate-choice","244","933210","0.0-77.0-0.36","3331","5834","8","Female","true","true","true","true","""event"",""trial"",""time""
""fullscreenenter"",""5"",""18277""
","
","
","""event"",""trial"",""time""
""fullscreenenter"",""5"",""18277""
","
","393.60000002384186","","49","","","3000","1","","","images/earth.jpg","images/rocket2","images/rocket1","null","images/rocket1","","1","real","null","1","","",""
"d3-animate-choice","245","936174","0.0-77.0-1.36","3331","5834","8","Female","true","true","true","true","""event"",""trial"",""time""
""fullscreenenter"",""5"",""18277""
","
","
","""event"",""trial"",""time""
""fullscreenenter"",""5"",""18277""
","
