"trial_type","trial_index","time_elapsed","internal_node_id","participant_id","subject_id","age","gender","rocket_sides","red_planet_first_rocket","red_display_order","purple_display_order","interactions","blur_events","focus_events","fullscreenenter_events","fullscreenexit_events","rt","stimulus","key_press","button_pressed","success","duration","valid_pressed","rts","keys","planet_text","right_text","left_text","center_text","chosen_text","reward_text","trial_stage","practice_trial","transition_type","choice","reward","timestamp","transition"
"pavlovia","0","3","0.0-0.0","1979","3352","8","Male","true","true","true","true","
","
","
","
","
","","","","","","","","","","","","","","","","","","","","","",""
"html-keyboard-response","1","2701","0.0-1.0","1979","3352","8","Male","true","true","true","true","
","
","
","
","
","2696.5","Welcome! Press the space bar to begin.","32","","","","","","","","","","","","","","","","","","",""
"audio-keyboard-response","2","4828","0.0-2.0","1979","3352","8","Male","true","true","true","true","
","
","
","
","
","1962","audio/beep_loop.wav","32","","","","","","","","","","","","","","","","","","",""
"audio-button-response","3","10111","0.0-3.0","1979","3352","8","Male","true","true","true","true","
","
","
","
","
","NaN","audio/fish.mp3","","1","","","","","","","","","","","","","","","","","",""
"audio-button-response","4","12650","0.0-4.0","1979","3352","8","Male","true","true","true","true","""event"",""trial"",""time""
""fullscreenenter"",""5"",""15993""
","
","
","""event"",""trial"",""time""
""fullscreenenter"",""5"",""15993""
","
","NaN","audio/tiger.mp3","","4","","","","","","","","","","","","","","","","","",""
"fullscreen","5","16985","0.0-5.0","1979","3352","8","Male","true","true","true","true","""event"",""trial"",""time""
""fullscreenenter"",""5"",""15993""
","
","
","""event"",""trial"",""time""
""fullscreenenter"",""5"",""15993""
","
","","","","","true","","","","","","","","","","","","","","","","",""
"d3-instructions","6","29208","0.0-6.0","1979","3352","8","Male","true","true","true","true","""event"",""trial"",""time""
""fullscreenenter"",""5"",""15993""
","
","
","""event"",""trial"",""time""
""fullscreenenter"",""5"",""15993""
","
","","","","","","","","","","","","","","","","","","","","","",""
"d3-instructions","7","37545","0.0-7.0","1979","3352","8","Male","true","true","true","true","""event"",""trial"",""time""
""fullscreenenter"",""5"",""15993""
","
","
","""event"",""trial"",""time""
""fullscreenenter"",""5"",""15993""
","
","","","","","","","","","","","","","","","","","","","","","",""
"d3-instructions","8","44296","0.0-8.0","1979","3352","8","Male","true","true","true","true","""event"",""trial"",""time""
""fullscreenenter"",""5"",""15993""
","
","
","""event"",""trial"",""time""
""fullscreenenter"",""5"",""15993""
","
","","","","","","","","","","","","","","","","","","","","","",""
"d3-instructions","9","55713","0.0-9.0","1979","3352","8","Male","true","true","true","true","""event"",""trial"",""time""
""fullscreenenter"",""5"",""15993""
","
","
","""event"",""trial"",""time""
""fullscreenenter"",""5"",""15993""
","
","","","","","","","","","","","","","","","","","","","","","",""
"d3-instructions","10","75167","0.0-10.0","1979","3352","8","Male","true","true","true","true","""event"",""trial"",""time""
""fullscreenenter"",""5"",""15993""
","
","
","""event"",""trial"",""time""
""fullscreenenter"",""5"",""15993""
","
","","","","","","","","","","","","","","","","","","","","","",""
"d3-animate-choice","11","82200","0.0-11.0","1979","3352","8","Male","true","true","true","true","""event"",""trial"",""time""
""fullscreenenter"",""5"",""15993""
","
","
","""event"",""trial"",""time""
""fullscreenenter"",""5"",""15993""
","
","5022.899999991059","","49","","","3000","1","","","images/tutgreenplanet.jpg","images/tutalien1","images/tutalien2","null","images/tutalien2","","NA","practice","null","","","",""
"d3-animate-choice","12","85033","0.0-12.0","1979","3352","8","Male","true","true","true","true","""event"",""trial"",""time""
""fullscreenenter"",""5"",""15993""
","
","
","""event"",""trial"",""time""
""fullscreenenter"",""5"",""15993""
","
","829.7999999970198","","48","","","3000","1","","","images/tutgreenplanet.jpg","images/tutalien1","images/tutalien2","null","images/tutalien1","","NA","practice","null","","","",""
"d3-animate-choice","13","87668","0.0-13.0","1979","3352","8","Male","true","true","true","true","""event"",""trial"",""time""
""fullscreenenter"",""5"",""15993""
","
","
","""event"",""trial"",""time""
""fullscreenenter"",""5"",""15993""
","
","631.2999999970198","","49","","","3000","1","","","images/tutgreenplanet.jpg","images/tutalien1","images/tutalien2","null","images/tutalien2","","NA","practice","null","","","",""
"d3-animate-choice","14","90222","0.0-14.0","1979","3352","8","Male","true","true","true","true","""event"",""trial"",""time""
""fullscreenenter"",""5"",""15993""
","
","
","""event"",""trial"",""time""
""fullscreenenter"",""5"",""15993""
","
","547.1000000089407","","49","","","3000","1","","","images/tutgreenplanet.jpg","images/tutalien1","images/tutalien2","null","images/tutalien2","","NA","practice","null","","","",""
"d3-instructions","15","96514","0.0-15.0","1979","3352","8","Male","true","true","true","true","""event"",""trial"",""time""
""fullscreenenter"",""5"",""15993""
","
","
","""event"",""trial"",""time""
""fullscreenenter"",""5"",""15993""
","
","","","","","","","","","","","","","","","","","","","","","",""
"d3-instructions","16","104027","0.0-16.0","1979","3352","8","Male","true","true","true","true","""event"",""trial"",""time""
""fullscreenenter"",""5"",""15993""
","
","
","""event"",""trial"",""time""
""fullscreenenter"",""5"",""15993""
","
","","","","","","","","","","","","","","","","","","","","","",""
"d3-instructions","17","113282","0.0-17.0","1979","3352","8","Male","true","true","true","true","""event"",""trial"",""time""
""fullscreenenter"",""5"",""15993""
","
","
","""event"",""trial"",""time""
""fullscreenenter"",""5"",""15993""
","
","","","","","","","","","","","","","","","","","","","","","",""
"d3-instructions","18","126140","0.0-18.0","1979","3352","8","Male","true","true","true","true","""event"",""trial"",""time""
""fullscreenenter"",""5"",""15993""
","
","
","""event"",""trial"",""time""
""fullscreenenter"",""5"",""15993""
","
","","","","","","","","","","","","","","","","","","","","","",""
"d3-instructions","19","140138","0.0-19.0","1979","3352","8","Male","true","true","true","true","""event"",""trial"",""time""
""fullscreenenter"",""5"",""15993""
","
","
","""event"",""trial"",""time""
""fullscreenenter"",""5"",""15993""
","
","","","","","","","","","","","","","","","","","","","","","",""
"d3-animate-choice","20","143606","0.0-20.0","1979","3352","8","Male","true","true","true","true","""event"",""trial"",""time""
""fullscreenenter"",""5"",""15993""
","
","
","""event"",""trial"",""time""
""fullscreenenter"",""5"",""15993""
","
","1465.1000000089407","","49","","","3000","1","","","images/tutyellowplanet.jpg","null","images/tutalien3","null","images/tutalien3","images/t.png","NA","practice","null","","","",""
"d3-animate-choice","21","146102","0.0-21.0","1979","3352","8","Male","true","true","true","true","""event"",""trial"",""time""
""fullscreenenter"",""5"",""15993""
","
","
","""event"",""trial"",""time""
""fullscreenenter"",""5"",""15993""
","
","489.59999999403954","","49","","","3000","1","","","images/tutyellowplanet.jpg","null","images/tutalien3","null","images/tutalien3","images/t.png","NA","practice","null","","","",""
"d3-animate-choice","22","148749","0.0-22.0","1979","3352","8","Male","true","true","true","true","""event"",""trial"",""time""
""fullscreenenter"",""5"",""15993""
","
","
","""event"",""trial"",""time""
""fullscreenenter"",""5"",""15993""
","
","643.4000000059605","","49","","","3000","1","","","images/tutyellowplanet.jpg","null","images/tutalien3","null","images/tutalien3","images/nothing.png","NA","practice","null","","","",""
"d3-animate-choice","23","151289","0.0-23.0","1979","3352","8","Male","true","true","true","true","""event"",""trial"",""time""
""fullscreenenter"",""5"",""15993""
","
","
","""event"",""trial"",""time""
""fullscreenenter"",""5"",""15993""
","
","533.9000000059605","","49","","","3000","1","","","images/tutyellowplanet.jpg","null","images/tutalien3","null","images/tutalien3","images/t.png","NA","practice","null","","","",""
"d3-animate-choice","24","153852","0.0-24.0","1979","3352","8","Male","true","true","true","true","""event"",""trial"",""time""
""fullscreenenter"",""5"",""15993""
","
","
","""event"",""trial"",""time""
""fullscreenenter"",""5"",""15993""
","
","558.5999999940395","","49","","","3000","1","","","images/tutyellowplanet.jpg","null","images/tutalien3","null","images/tutalien3","images/t.png","NA","practice","null","","","",""
"d3-animate-choice","25","156418","0.0-25.0","1979","3352","8","Male","true","true","true","true","""event"",""trial"",""time""
""fullscreenenter"",""5"",""15993""
","
","
","""event"",""trial"",""time""
""fullscreenenter"",""5"",""15993""
","
","560.3999999910593","","49","","","3000","1","","","images/tutyellowplanet.jpg","null","images/tutalien3","null","images/tutalien3","images/t.png","NA","practice","null","","","",""
"d3-animate-choice","26","158943","0.0-26.0","1979","3352","8","Male","true","true","true","true","""event"",""trial"",""time""
""fullscreenenter"",""5"",""15993""
","
","
","""event"",""trial"",""time""
""fullscreenenter"",""5"",""15993""
","
","520.9000000059605","","49","","","3000","1","","","images/tutyellowplanet.jpg","null","images/tutalien3","null","images/tutalien3","images/t.png","NA","practice","null","","","",""
"d3-animate-choice","27","161556","0.0-27.0","1979","3352","8","Male","true","true","true","true","""event"",""trial"",""time""
""fullscreenenter"",""5"",""15993""
","
","
","""event"",""trial"",""time""
""fullscreenenter"",""5"",""15993""
","
","608","","49","","","3000","1","","","images/tutyellowplanet.jpg","null","images/tutalien3","null","images/tutalien3","images/t.png","NA","practice","null","","","",""
"d3-animate-choice","28","164115","0.0-28.0","1979","3352","8","Male","true","true","true","true","""event"",""trial"",""time""
""fullscreenenter"",""5"",""15993""
","
","
","""event"",""trial"",""time""
""fullscreenenter"",""5"",""15993""
","
","552.7000000029802","","49","","","3000","1","","","images/tutyellowplanet.jpg","null","images/tutalien3","null","images/tutalien3","images/nothing.png","NA","practice","null","","","",""
"d3-animate-choice","29","166867","0.0-29.0","1979","3352","8","Male","true","true","true","true","""event"",""trial"",""time""
""fullscreenenter"",""5"",""15993""
","
","
","""event"",""trial"",""time""
""fullscreenenter"",""5"",""15993""
","
","748.0999999940395","","49","","","3000","1","","","images/tutyellowplanet.jpg","null","images/tutalien3","null","images/tutalien3","images/nothing.png","NA","practice","null","","","",""
"d3-instructions","30","173896","0.0-30.0","1979","3352","8","Male","true","true","true","true","""event"",""trial"",""time""
""fullscreenenter"",""5"",""15993""
","
","
","""event"",""trial"",""time""
""fullscreenenter"",""5"",""15993""
","
","","","","","","","","","","","","","","","","","","","","","",""
"d3-instructions","31","184536","0.0-31.0","1979","3352","8","Male","true","true","true","true","""event"",""trial"",""time""
""fullscreenenter"",""5"",""15993""
","
","
","""event"",""trial"",""time""
""fullscreenenter"",""5"",""15993""
","
","","","","","","","","","","","","","","","","","","","","","",""
"d3-instructions","32","192592","0.0-32.0","1979","3352","8","Male","true","true","true","true","""event"",""trial"",""time""
""fullscreenenter"",""5"",""15993""
","
","
","""event"",""trial"",""time""
""fullscreenenter"",""5"",""15993""
","
","","","","","","","","","","","","","","","","","","","","","",""
"d3-instructions","33","201637","0.0-33.0","1979","3352","8","Male","true","true","true","true","""event"",""trial"",""time""
""fullscreenenter"",""5"",""15993""
","
","
","""event"",""trial"",""time""
""fullscreenenter"",""5"",""15993""
","
","","","","","","","","","","","","","","","","","","","","","",""
"d3-animate-choice","34","205465","0.0-34.0","1979","3352","8","Male","true","true","true","true","""event"",""trial"",""time""
""fullscreenenter"",""5"",""15993""
","
","
","""event"",""trial"",""time""
""fullscreenenter"",""5"",""15993""
","
","1826","","48","","","3000","1","","","images/tutgreenplanet.jpg","images/tutalien1","images/tutalien2","null","images/tutalien1","images/nothing.png","NA","practice","null","","","",""
"d3-animate-choice","35","207944","0.0-35.0","1979","3352","8","Male","true","true","true","true","""event"",""trial"",""time""
""fullscreenenter"",""5"",""15993""
","
","
","""event"",""trial"",""time""
""fullscreenenter"",""5"",""15993""
","
","476.09999999403954","","48","","","3000","1","","","images/tutgreenplanet.jpg","images/tutalien1","images/tutalien2","null","images/tutalien1","images/nothing.png","NA","practice","null","","","",""
"d3-animate-choice","36","210325","0.0-36.0","1979","3352","8","Male","true","true","true","true","""event"",""trial"",""time""
""fullscreenenter"",""5"",""15993""
","
","
","""event"",""trial"",""time""
""fullscreenenter"",""5"",""15993""
","
","373.5","","49","","","3000","1","","","images/tutgreenplanet.jpg","images/tutalien1","images/tutalien2","null","images/tutalien2","images/t.png","NA","practice","null","","","",""
"d3-animate-choice","37","212760","0.0-37.0","1979","3352","8","Male","true","true","true","true","""event"",""trial"",""time""
""fullscreenenter"",""5"",""15993""
","
","
","""event"",""trial"",""time""
""fullscreenenter"",""5"",""15993""
","
","432.29999999701977","","49","","","3000","1","","","images/tutgreenplanet.jpg","images/tutalien1","images/tutalien2","null","images/tutalien2","images/t.png","NA","practice","null","","","",""
"d3-animate-choice","38","215229","0.0-38.0","1979","3352","8","Male","true","true","true","true","""event"",""trial"",""time""
""fullscreenenter"",""5"",""15993""
","
","
","""event"",""trial"",""time""
""fullscreenenter"",""5"",""15993""
","
","464.1000000089407","","49","","","3000","1","","","images/tutgreenplanet.jpg","images/tutalien1","images/tutalien2","null","images/tutalien2","images/t.png","NA","practice","null","","","",""
"d3-animate-choice","39","217652","0.0-39.0","1979","3352","8","Male","true","true","true","true","""event"",""trial"",""time""
""fullscreenenter"",""5"",""15993""
","
","
","""event"",""trial"",""time""
""fullscreenenter"",""5"",""15993""
","
","420","","49","","","3000","1","","","images/tutgreenplanet.jpg","images/tutalien1","images/tutalien2","null","images/tutalien2","images/t.png","NA","practice","null","","","",""
"d3-animate-choice","40","220069","0.0-40.0","1979","3352","8","Male","true","true","true","true","""event"",""trial"",""time""
""fullscreenenter"",""5"",""15993""
","
","
","""event"",""trial"",""time""
""fullscreenenter"",""5"",""15993""
","
","414.90000000596046","","49","","","3000","1","","","images/tutgreenplanet.jpg","images/tutalien1","images/tutalien2","null","images/tutalien2","images/nothing.png","NA","practice","null","","","",""
"d3-animate-choice","41","222434","0.0-41.0","1979","3352","8","Male","true","true","true","true","""event"",""trial"",""time""
""fullscreenenter"",""5"",""15993""
","
","
","""event"",""trial"",""time""
""fullscreenenter"",""5"",""15993""
","
","361.40000000596046","","49","","","3000","1","","","images/tutgreenplanet.jpg","images/tutalien1","images/tutalien2","null","images/tutalien2","images/t.png","NA","practice","null","","","",""
"d3-animate-choice","42","225220","0.0-42.0","1979","3352","8","Male","true","true","true","true","""event"",""trial"",""time""
""fullscreenenter"",""5"",""15993""
","
","
","""event"",""trial"",""time""
""fullscreenenter"",""5"",""15993""
","
","783.0999999940395","","49","","","3000","1","","","images/tutgreenplanet.jpg","images/tutalien1","images/tutalien2","null","images/tutalien2","images/t.png","NA","practice","null","","","",""
"d3-animate-choice","43","228123","0.0-43.0","1979","3352","8","Male","true","true","true","true","""event"",""trial"",""time""
""fullscreenenter"",""5"",""15993""
","
","
","""event"",""trial"",""time""
""fullscreenenter"",""5"",""15993""
","
","898.2999999970198","","49","","","3000","1","","","images/tutgreenplanet.jpg","images/tutalien1","images/tutalien2","null","images/tutalien2","images/t.png","NA","practice","null","","","",""
"d3-instructions","44","241670","0.0-44.0","1979","3352","8","Male","true","true","true","true","""event"",""trial"",""time""
""fullscreenenter"",""5"",""15993""
","
","
","""event"",""trial"",""time""
""fullscreenenter"",""5"",""15993""
","
","","","","","","","","","","","","","","","","","","","","","",""
"d3-instructions","45","249107","0.0-45.0","1979","3352","8","Male","true","true","true","true","""event"",""trial"",""time""
""fullscreenenter"",""5"",""15993""
","
","
","""event"",""trial"",""time""
""fullscreenenter"",""5"",""15993""
","
","","","","","","","","","","","","","","","","","","","","","",""
"d3-instructions","46","257965","0.0-46.0","1979","3352","8","Male","true","true","true","true","""event"",""trial"",""time""
""fullscreenenter"",""5"",""15993""
","
","
","""event"",""trial"",""time""
""fullscreenenter"",""5"",""15993""
","
","","","","","","","","","","","","","","","","","","","","","",""
"d3-instructions","47","275726","0.0-47.0","1979","3352","8","Male","true","true","true","true","""event"",""trial"",""time""
""fullscreenenter"",""5"",""15993""
","
","
","""event"",""trial"",""time""
""fullscreenenter"",""5"",""15993""
","
","","","","","","","","","","","","","","","","","","","","","",""
"d3-instructions","48","283359","0.0-48.0","1979","3352","8","Male","true","true","true","true","""event"",""trial"",""time""
""fullscreenenter"",""5"",""15993""
","
","
","""event"",""trial"",""time""
""fullscreenenter"",""5"",""15993""
","
","","","","","","","","","","","","","","","","","","","","","",""
"d3-instructions","49","295911","0.0-49.0","1979","3352","8","Male","true","true","true","true","""event"",""trial"",""time""
""fullscreenenter"",""5"",""15993""
","
","
","""event"",""trial"",""time""
""fullscreenenter"",""5"",""15993""
","
","","","","","","","","","","","","","","","","","","","","","",""
"d3-instructions","50","306715","0.0-50.0","1979","3352","8","Male","true","true","true","true","""event"",""trial"",""time""
""fullscreenenter"",""5"",""15993""
","
","
","""event"",""trial"",""time""
""fullscreenenter"",""5"",""15993""
","
","","","","","","","","","","","","","","","","","","","","","",""
"d3-instructions","51","311577","0.0-51.0","1979","3352","8","Male","true","true","true","true","""event"",""trial"",""time""
""fullscreenenter"",""5"",""15993""
","
","
","""event"",""trial"",""time""
""fullscreenenter"",""5"",""15993""
","
","","","","","","","","","","","","","","","","","","","","","",""
"d3-instructions","52","316038","0.0-52.0","1979","3352","8","Male","true","true","true","true","""event"",""trial"",""time""
""fullscreenenter"",""5"",""15993""
","
","
","""event"",""trial"",""time""
""fullscreenenter"",""5"",""15993""
","
","","","","","","","","","","","","","","","","","","","","","",""
"d3-instructions","53","327892","0.0-53.0","1979","3352","8","Male","true","true","true","true","""event"",""trial"",""time""
""fullscreenenter"",""5"",""15993""
","
","
","""event"",""trial"",""time""
""fullscreenenter"",""5"",""15993""
","
","","","","","","","","","","","","","","","","","","","","","",""
"d3-instructions","54","340244","0.0-54.0","1979","3352","8","Male","true","true","true","true","""event"",""trial"",""time""
""fullscreenenter"",""5"",""15993""
","
","
","""event"",""trial"",""time""
""fullscreenenter"",""5"",""15993""
","
","","","","","","","","","","","","","","","","","","","","","",""
"d3-instructions","55","349977","0.0-55.0","1979","3352","8","Male","true","true","true","true","""event"",""trial"",""time""
""fullscreenenter"",""5"",""15993""
","
","
","""event"",""trial"",""time""
""fullscreenenter"",""5"",""15993""
","
","","","","","","","","","","","","","","","","","","","","","",""
"d3-instructions","56","358727","0.0-56.0","1979","3352","8","Male","true","true","true","true","""event"",""trial"",""time""
""fullscreenenter"",""5"",""15993""
","
","
","""event"",""trial"",""time""
""fullscreenenter"",""5"",""15993""
","
","","","","","","","","","","","","","","","","","","","","","",""
"d3-instructions","57","369318","0.0-57.0","1979","3352","8","Male","true","true","true","true","""event"",""trial"",""time""
""fullscreenenter"",""5"",""15993""
","
","
","""event"",""trial"",""time""
""fullscreenenter"",""5"",""15993""
","
","","","","","","","","","","","","","","","","","","","","","",""
"d3-instructions","58","379698","0.0-58.0","1979","3352","8","Male","true","true","true","true","""event"",""trial"",""time""
""fullscreenenter"",""5"",""15993""
","
","
","""event"",""trial"",""time""
""fullscreenenter"",""5"",""15993""
","
","","","","","","","","","","","","","","","","","","","","","",""
"d3-instructions","59","389029","0.0-59.0","1979","3352","8","Male","true","true","true","true","""event"",""trial"",""time""
""fullscreenenter"",""5"",""15993""
","
","
","""event"",""trial"",""time""
""fullscreenenter"",""5"",""15993""
","
","","","","","","","","","","","","","","","","","","","","","",""
"d3-instructions","60","395583","0.0-60.0","1979","3352","8","Male","true","true","true","true","""event"",""trial"",""time""
""fullscreenenter"",""5"",""15993""
","
","
","""event"",""trial"",""time""
""fullscreenenter"",""5"",""15993""
","
","","","","","","","","","","","","","","","","","","","","","",""
"d3-animate-choice","61","399591","0.0-61.0-0.0","1979","3352","8","Male","true","true","true","true","""event"",""trial"",""time""
""fullscreenenter"",""5"",""15993""
","
","
","""event"",""trial"",""time""
""fullscreenenter"",""5"",""15993""
","
","null","","null","","","3000","0","","","images/earth.jpg","images/tutrocket1","images/tutrocket2","null","","","1","practice","null","","","",""
"d3-animate-choice","62","400594","0.0-61.0-1.0","1979","3352","8","Male","true","true","true","true","""event"",""trial"",""time""
""fullscreenenter"",""5"",""15993""
","
","
","""event"",""trial"",""time""
""fullscreenenter"",""5"",""15993""
","
","496.8999999910593","","49","","","0","0","","","images/earth.jpg","images/tutrocket1","images/tutrocket2","null","","","2","practice","null","1","0","2022-10-25 14:30:02.228",""
"two-step-fixation","63","401598","0.0-61.0-2.0","1979","3352","8","Male","true","true","true","true","""event"",""trial"",""time""
""fullscreenenter"",""5"",""15993""
","
","
","""event"",""trial"",""time""
""fullscreenenter"",""5"",""15993""
","
","","images/earth.jpg","","","","","","","","","","","","","","fixation","","","","","",""
"d3-animate-choice","64","404242","0.0-61.0-0.1","1979","3352","8","Male","true","true","true","true","""event"",""trial"",""time""
""fullscreenenter"",""5"",""15993""
","
","
","""event"",""trial"",""time""
""fullscreenenter"",""5"",""15993""
","
","638.5","","49","","","3000","1","","","images/earth.jpg","images/tutrocket1","images/tutrocket2","null","images/tutrocket2","","1","practice","null","1","","",""
"d3-animate-choice","65","408247","0.0-61.0-1.1","1979","3352","8","Male","true","true","true","true","""event"",""trial"",""time""
""fullscreenenter"",""5"",""15993""
","
","
","""event"",""trial"",""time""
""fullscreenenter"",""5"",""15993""
","
","null","","null","","","3000","0","","","images/tutyellowplanet.jpg","images/tutalien4","images/tutalien3","images/tutrocket2","","","2","practice","true","","0","2022-10-25 14:30:09.880","common"
"two-step-fixation","66","409253","0.0-61.0-2.1","1979","3352","8","Male","true","true","true","true","""event"",""trial"",""time""
""fullscreenenter"",""5"",""15993""
","
","
","""event"",""trial"",""time""
""fullscreenenter"",""5"",""15993""
","
","","images/earth.jpg","","","","","","","","","","","","","","fixation","","","","","",""
"d3-animate-choice","67","412334","0.0-61.0-0.2","1979","3352","8","Male","true","true","true","true","""event"",""trial"",""time""
""fullscreenenter"",""5"",""15993""
","
","
","""event"",""trial"",""time""
""fullscreenenter"",""5"",""15993""
","
","1077.7000000029802","","49","","","3000","1","","","images/earth.jpg","images/tutrocket1","images/tutrocket2","null","images/tutrocket2","","1","practice","null","1","","",""
"d3-animate-choice","68","416338","0.0-61.0-1.2","1979","3352","8","Male","true","true","true","true","""event"",""trial"",""time""
""fullscreenenter"",""5"",""15993""
","
","
","""event"",""trial"",""time""
""fullscreenenter"",""5"",""15993""
","
","null","","null","","","3000","0","","","images/tutgreenplanet.jpg","images/tutalien2","images/tutalien1","images/tutrocket2","","","2","practice","false","","0","2022-10-25 14:30:17.971","rare"
"two-step-fixation","69","417344","0.0-61.0-2.2","1979","3352","8","Male","true","true","true","true","""event"",""trial"",""time""
""fullscreenenter"",""5"",""15993""
","
","
","""event"",""trial"",""time""
""fullscreenenter"",""5"",""15993""
","
","","images/earth.jpg","","","","","","","","","","","","","","fixation","","","","","",""
"d3-animate-choice","70","420422","0.0-61.0-0.3","1979","3352","8","Male","true","true","true","true","""event"",""trial"",""time""
""fullscreenenter"",""5"",""15993""
","
","
","""event"",""trial"",""time""
""fullscreenenter"",""5"",""15993""
","
","1070.7000000029802","","48","","","3000","1","","","images/earth.jpg","images/tutrocket1","images/tutrocket2","null","images/tutrocket1","","1","practice","null","2","","",""
"d3-animate-choice","71","424428","0.0-61.0-1.3","1979","3352","8","Male","true","true","true","true","""event"",""trial"",""time""
""fullscreenenter"",""5"",""15993""
","
","
","""event"",""trial"",""time""
""fullscreenenter"",""5"",""15993""
","
","null","","null","","","3000","0","","","images/tutyellowplanet.jpg","images/tutalien4","images/tutalien3","images/tutrocket1","","","2","practice","false","","0","2022-10-25 14:30:26.061","rare"
"two-step-fixation","72","425431","0.0-61.0-2.3","1979","3352","8","Male","true","true","true","true","""event"",""trial"",""time""
""fullscreenenter"",""5"",""15993""
","
","
","""event"",""trial"",""time""
""fullscreenenter"",""5"",""15993""
","
","","images/earth.jpg","","","","","","","","","","","","","","fixation","","","","","",""
"d3-animate-choice","73","428789","0.0-61.0-0.4","1979","3352","8","Male","true","true","true","true","""event"",""trial"",""time""
""fullscreenenter"",""5"",""15993""
","
","
","""event"",""trial"",""time""
""fullscreenenter"",""5"",""15993""
","
","1349.7000000029802","","48","","","3000","1","","","images/earth.jpg","images/tutrocket1","images/tutrocket2","null","images/tutrocket1","","1","practice","null","2","","",""
"d3-animate-choice","74","432797","0.0-61.0-1.4","1979","3352","8","Male","true","true","true","true","""event"",""trial"",""time""
""fullscreenenter"",""5"",""15993""
","
","
","""event"",""trial"",""time""
""fullscreenenter"",""5"",""15993""
","
","null","","null","","","3000","0","","","images/tutyellowplanet.jpg","images/tutalien4","images/tutalien3","images/tutrocket1","","","2","practice","false","","0","2022-10-25 14:30:34.430","rare"
"two-step-fixation","75","433804","0.0-61.0-2.4","1979","3352","8","Male","true","true","true","true","""event"",""trial"",""time""
""fullscreenenter"",""5"",""15993""
","
","
","""event"",""trial"",""time""
""fullscreenenter"",""5"",""15993""
","
","","images/earth.jpg","","","","","","","","","","","","","","fixation","","","","","",""
"d3-animate-choice","76","436301","0.0-61.0-0.5","1979","3352","8","Male","true","true","true","true","""event"",""trial"",""time""
""fullscreenenter"",""5"",""15993""
","
","
","""event"",""trial"",""time""
""fullscreenenter"",""5"",""15993""
","
","488.90000000596046","","49","","","3000","1","","","images/earth.jpg","images/tutrocket1","images/tutrocket2","null","images/tutrocket2","","1","practice","null","1","","",""
"d3-animate-choice","77","440308","0.0-61.0-1.5","1979","3352","8","Male","true","true","true","true","""event"",""trial"",""time""
""fullscreenenter"",""5"",""15993""
","
","
","""event"",""trial"",""time""
""fullscreenenter"",""5"",""15993""
","
","null","","null","","","3000","0","","","images/tutgreenplanet.jpg","images/tutalien2","images/tutalien1","images/tutrocket2","","","2","practice","false","","0","2022-10-25 14:30:41.941","rare"
"two-step-fixation","78","441316","0.0-61.0-2.5","1979","3352","8","Male","true","true","true","true","""event"",""trial"",""time""
""fullscreenenter"",""5"",""15993""
","
","
","""event"",""trial"",""time""
""fullscreenenter"",""5"",""15993""
","
","","images/earth.jpg","","","","","","","","","","","","","","fixation","","","","","",""
"d3-animate-choice","79","444505","0.0-61.0-0.6","1979","3352","8","Male","true","true","true","true","""event"",""trial"",""time""
""fullscreenenter"",""5"",""15993""
","
","
","""event"",""trial"",""time""
""fullscreenenter"",""5"",""15993""
","
","1181.2999999970198","","49","","","3000","1","","","images/earth.jpg","images/tutrocket1","images/tutrocket2","null","images/tutrocket2","","1","practice","null","1","","",""
"d3-animate-choice","80","448512","0.0-61.0-1.6","1979","3352","8","Male","true","true","true","true","""event"",""trial"",""time""
""fullscreenenter"",""5"",""15993""
","
","
","""event"",""trial"",""time""
""fullscreenenter"",""5"",""15993""
","
","null","","null","","","3000","0","","","images/tutyellowplanet.jpg","images/tutalien4","images/tutalien3","images/tutrocket2","","","2","practice","true","","0","2022-10-25 14:30:50.145","common"
"two-step-fixation","81","449519","0.0-61.0-2.6","1979","3352","8","Male","true","true","true","true","""event"",""trial"",""time""
""fullscreenenter"",""5"",""15993""
","
","
","""event"",""trial"",""time""
""fullscreenenter"",""5"",""15993""
","
","","images/earth.jpg","","","","","","","","","","","","","","fixation","","","","","",""
"d3-animate-choice","82","451957","0.0-61.0-0.7","1979","3352","8","Male","true","true","true","true","""event"",""trial"",""time""
""fullscreenenter"",""5"",""15993""
","
","
","""event"",""trial"",""time""
""fullscreenenter"",""5"",""15993""
","
","432","","48","","","3000","1","","","images/earth.jpg","images/tutrocket1","images/tutrocket2","null","images/tutrocket1","","1","practice","null","2","","",""
"d3-animate-choice","83","455963","0.0-61.0-1.7","1979","3352","8","Male","true","true","true","true","""event"",""trial"",""time""
""fullscreenenter"",""5"",""15993""
","
","
","""event"",""trial"",""time""
""fullscreenenter"",""5"",""15993""
","
","null","","null","","","3000","0","","","images/tutyellowplanet.jpg","images/tutalien4","images/tutalien3","images/tutrocket1","","","2","practice","false","","0","2022-10-25 14:30:57.596","rare"
"two-step-fixation","84","456966","0.0-61.0-2.7","1979","3352","8","Male","true","true","true","true","""event"",""trial"",""time""
""fullscreenenter"",""5"",""15993""
","
","
","""event"",""trial"",""time""
""fullscreenenter"",""5"",""15993""
","
","","images/earth.jpg","","","","","","","","","","","","","","fixation","","","","","",""
"d3-animate-choice","85","459452","0.0-61.0-0.8","1979","3352","8","Male","true","true","true","true","""event"",""trial"",""time""
""fullscreenenter"",""5"",""15993""
","
","
","""event"",""trial"",""time""
""fullscreenenter"",""5"",""15993""
","
","481.1000000089407","","48","","","3000","1","","","images/earth.jpg","images/tutrocket1","images/tutrocket2","null","images/tutrocket1","","1","practice","null","2","","",""
"d3-animate-choice","86","463459","0.0-61.0-1.8","1979","3352","8","Male","true","true","true","true","""event"",""trial"",""time""
""fullscreenenter"",""5"",""15993""
","
","
","""event"",""trial"",""time""
""fullscreenenter"",""5"",""15993""
","
","null","","null","","","3000","0","","","images/tutgreenplanet.jpg","images/tutalien2","images/tutalien1","images/tutrocket1","","","2","practice","true","","0","2022-10-25 14:31:05.092","common"
"two-step-fixation","87","464467","0.0-61.0-2.8","1979","3352","8","Male","true","true","true","true","""event"",""trial"",""time""
""fullscreenenter"",""5"",""15993""
","
","
","""event"",""trial"",""time""
""fullscreenenter"",""5"",""15993""
","
","","images/earth.jpg","","","","","","","","","","","","","","fixation","","","","","",""
"d3-animate-choice","88","468474","0.0-61.0-0.9","1979","3352","8","Male","true","true","true","true","""event"",""trial"",""time""
""fullscreenenter"",""5"",""15993""
","
","
","""event"",""trial"",""time""
""fullscreenenter"",""5"",""15993""
","
","3413.2999999970198","","48","","","3000","0","","","images/earth.jpg","images/tutrocket1","images/tutrocket2","null","","","1","practice","null","2","","",""
"d3-animate-choice","89","469483","0.0-61.0-1.9","1979","3352","8","Male","true","true","true","true","""event"",""trial"",""time""
""fullscreenenter"",""5"",""15993""
","
","
","""event"",""trial"",""time""
""fullscreenenter"",""5"",""15993""
","
","null","","null","","","0","0","","","images/earth.jpg","images/tutrocket1","images/tutrocket2","null","","","2","practice","null","","0","2022-10-25 14:31:11.116",""
"two-step-fixation","90","470487","0.0-61.0-2.9","1979","3352","8","Male","true","true","true","true","""event"",""trial"",""time""
""fullscreenenter"",""5"",""15993""
","
","
","""event"",""trial"",""time""
""fullscreenenter"",""5"",""15993""
","
","","images/earth.jpg","","","","","","","","","","","","","","fixation","","","","","",""
"d3-animate-choice","91","473291","0.0-61.0-0.10","1979","3352","8","Male","true","true","true","true","""event"",""trial"",""time""
""fullscreenenter"",""5"",""15993""
","
","
","""event"",""trial"",""time""
""fullscreenenter"",""5"",""15993""
","
","798.5999999940395","","48","","","3000","1","","","images/earth.jpg","images/tutrocket1","images/tutrocket2","null","images/tutrocket1","","1","practice","null","2","","",""
"d3-animate-choice","92","477299","0.0-61.0-1.10","1979","3352","8","Male","true","true","true","true","""event"",""trial"",""time""
""fullscreenenter"",""5"",""15993""
","
","
","""event"",""trial"",""time""
""fullscreenenter"",""5"",""15993""
","
","null","","null","","","3000","0","","","images/tutgreenplanet.jpg","images/tutalien2","images/tutalien1","images/tutrocket1","","","2","practice","true","","0","2022-10-25 14:31:18.932","common"
"two-step-fixation","93","478304","0.0-61.0-2.10","1979","3352","8","Male","true","true","true","true","""event"",""trial"",""time""
""fullscreenenter"",""5"",""15993""
","
","
","""event"",""trial"",""time""
""fullscreenenter"",""5"",""15993""
","
","","images/earth.jpg","","","","","","","","","","","","","","fixation","","","","","",""
"d3-animate-choice","94","482049","0.0-61.0-0.11","1979","3352","8","Male","true","true","true","true","""event"",""trial"",""time""
""fullscreenenter"",""5"",""15993""
","
","
","""event"",""trial"",""time""
""fullscreenenter"",""5"",""15993""
","
","1741.5","","49","","","3000","1","","","images/earth.jpg","images/tutrocket1","images/tutrocket2","null","images/tutrocket2","","1","practice","null","1","","",""
"d3-animate-choice","95","486054","0.0-61.0-1.11","1979","3352","8","Male","true","true","true","true","""event"",""trial"",""time""
""fullscreenenter"",""5"",""15993""
","
","
","""event"",""trial"",""time""
""fullscreenenter"",""5"",""15993""
","
","null","","null","","","3000","0","","","images/tutgreenplanet.jpg","images/tutalien2","images/tutalien1","images/tutrocket2","","","2","practice","false","","0","2022-10-25 14:31:27.687","rare"
"two-step-fixation","96","487058","0.0-61.0-2.11","1979","3352","8","Male","true","true","true","true","""event"",""trial"",""time""
""fullscreenenter"",""5"",""15993""
","
","
","""event"",""trial"",""time""
""fullscreenenter"",""5"",""15993""
","
","","images/earth.jpg","","","","","","","","","","","","","","fixation","","","","","",""
"d3-animate-choice","97","491061","0.0-61.0-0.12","1979","3352","8","Male","true","true","true","true","""event"",""trial"",""time""
""fullscreenenter"",""5"",""15993""
","
","
","""event"",""trial"",""time""
""fullscreenenter"",""5"",""15993""
","
","2536.7999999970198","","49","","","3000","1","","","images/earth.jpg","images/tutrocket1","images/tutrocket2","null","images/tutrocket2","","1","practice","null","1","","",""
"d3-animate-choice","98","495066","0.0-61.0-1.12","1979","3352","8","Male","true","true","true","true","""event"",""trial"",""time""
""fullscreenenter"",""5"",""15993""
","
","
","""event"",""trial"",""time""
""fullscreenenter"",""5"",""15993""
","
","null","","null","","","3000","0","","","images/tutyellowplanet.jpg","images/tutalien4","images/tutalien3","images/tutrocket2","","","2","practice","true","","0","2022-10-25 14:31:36.699","common"
"two-step-fixation","99","496070","0.0-61.0-2.12","1979","3352","8","Male","true","true","true","true","""event"",""trial"",""time""
""fullscreenenter"",""5"",""15993""
","
","
","""event"",""trial"",""time""
""fullscreenenter"",""5"",""15993""
","
","","images/earth.jpg","","","","","","","","","","","","","","fixation","","","","","",""
"d3-animate-choice","100","500076","0.0-61.0-0.13","1979","3352","8","Male","true","true","true","true","""event"",""trial"",""time""
""fullscreenenter"",""5"",""15993""
","
","
","""event"",""trial"",""time""
""fullscreenenter"",""5"",""15993""
","
","null","","null","","","3000","0","","","images/earth.jpg","images/tutrocket1","images/tutrocket2","null","","","1","practice","null","","","",""
"d3-animate-choice","101","501086","0.0-61.0-1.13","1979","3352","8","Male","true","true","true","true","""event"",""trial"",""time""
""fullscreenenter"",""5"",""15993""
","
","
","""event"",""trial"",""time""
""fullscreenenter"",""5"",""15993""
","
","null","","null","","","0","0","","","images/earth.jpg","images/tutrocket1","images/tutrocket2","null","","","2","practice","null","","0","2022-10-25 14:31:42.719",""
"two-step-fixation","102","502090","0.0-61.0-2.13","1979","3352","8","Male","true","true","true","true","""event"",""trial"",""time""
""fullscreenenter"",""5"",""15993""
","
","
","""event"",""trial"",""time""
""fullscreenenter"",""5"",""15993""
","
","","images/earth.jpg","","","","","","","","","","","","","","fixation","","","","","",""
"d3-animate-choice","103","506099","0.0-61.0-0.14","1979","3352","8","Male","true","true","true","true","""event"",""trial"",""time""
""fullscreenenter"",""5"",""15993""
","
","
","""event"",""trial"",""time""
""fullscreenenter"",""5"",""15993""
","
","null","","null","","","3000","0","","","images/earth.jpg","images/tutrocket1","images/tutrocket2","null","","","1","practice","null","","","",""
"d3-animate-choice","104","507106","0.0-61.0-1.14","1979","3352","8","Male","true","true","true","true","""event"",""trial"",""time""
""fullscreenenter"",""5"",""15993""
","
","
","""event"",""trial"",""time""
""fullscreenenter"",""5"",""15993""
","
","203.8999999910593","","49","","","0","0","","","images/earth.jpg","images/tutrocket1","images/tutrocket2","null","","","2","practice","null","1","0","2022-10-25 14:31:48.739",""
"two-step-fixation","105","508110","0.0-61.0-2.14","1979","3352","8","Male","true","true","true","true","""event"",""trial"",""time""
""fullscreenenter"",""5"",""15993""
","
","
","""event"",""trial"",""time""
""fullscreenenter"",""5"",""15993""
","
","","images/earth.jpg","","","","","","","","","","","","","","fixation","","","","","",""
"d3-animate-choice","106","512120","0.0-61.0-0.15","1979","3352","8","Male","true","true","true","true","""event"",""trial"",""time""
""fullscreenenter"",""5"",""15993""
","
","
","""event"",""trial"",""time""
""fullscreenenter"",""5"",""15993""
","
","null","","null","","","3000","0","","","images/earth.jpg","images/tutrocket1","images/tutrocket2","null","","","1","practice","null","","","",""
"d3-animate-choice","107","513126","0.0-61.0-1.15","1979","3352","8","Male","true","true","true","true","""event"",""trial"",""time""
""fullscreenenter"",""5"",""15993""
","
","
","""event"",""trial"",""time""
""fullscreenenter"",""5"",""15993""
","
","null","","null","","","0","0","","","images/earth.jpg","images/tutrocket1","images/tutrocket2","null","","","2","practice","null","","0","2022-10-25 14:31:54.759",""
"two-step-fixation","108","514129","0.0-61.0-2.15","1979","3352","8","Male","true","true","true","true","""event"",""trial"",""time""
""fullscreenenter"",""5"",""15993""
","
","
","""event"",""trial"",""time""
""fullscreenenter"",""5"",""15993""
","
","","images/earth.jpg","","","","","","","","","","","","","","fixation","","","","","",""
"d3-animate-choice","109","518138","0.0-61.0-0.16","1979","3352","8","Male","true","true","true","true","""event"",""trial"",""time""
""fullscreenenter"",""5"",""15993""
","
","
","""event"",""trial"",""time""
""fullscreenenter"",""5"",""15993""
","
","null","","null","","","3000","0","","","images/earth.jpg","images/tutrocket1","images/tutrocket2","null","","","1","practice","null","","","",""
"d3-animate-choice","110","519146","0.0-61.0-1.16","1979","3352","8","Male","true","true","true","true","""event"",""trial"",""time""
""fullscreenenter"",""5"",""15993""
","
","
","""event"",""trial"",""time""
""fullscreenenter"",""5"",""15993""
","
","null","","null","","","0","0","","","images/earth.jpg","images/tutrocket1","images/tutrocket2","null","","","2","practice","null","","0","2022-10-25 14:32:00.779",""
"two-step-fixation","111","520150","0.0-61.0-2.16","1979","3352","8","Male","true","true","true","true","""event"",""trial"",""time""
""fullscreenenter"",""5"",""15993""
","
","
","""event"",""trial"",""time""
""fullscreenenter"",""5"",""15993""
","
","","images/earth.jpg","","","","","","","","","","","","","","fixation","","","","","",""
"d3-animate-choice","112","523012","0.0-61.0-0.17","1979","3352","8","Male","true","true","true","true","""event"",""trial"",""time""
""fullscreenenter"",""5"",""15993""
","
","
","""event"",""trial"",""time""
""fullscreenenter"",""5"",""15993""
","
","855.3000000119209","","49","","","3000","1","","","images/earth.jpg","images/tutrocket1","images/tutrocket2","null","images/tutrocket2","","1","practice","null","1","","",""
"d3-animate-choice","113","527020","0.0-61.0-1.17","1979","3352","8","Male","true","true","true","true","""event"",""trial"",""time""
""fullscreenenter"",""5"",""15993""
","
","
","""event"",""trial"",""time""
""fullscreenenter"",""5"",""15993""
","
","null","","null","","","3000","0","","","images/tutyellowplanet.jpg","images/tutalien4","images/tutalien3","images/tutrocket2","","","2","practice","true","","0","2022-10-25 14:32:08.653","common"
"two-step-fixation","114","528028","0.0-61.0-2.17","1979","3352","8","Male","true","true","true","true","""event"",""trial"",""time""
""fullscreenenter"",""5"",""15993""
","
","
","""event"",""trial"",""time""
""fullscreenenter"",""5"",""15993""
","
","","images/earth.jpg","","","","","","","","","","","","","","fixation","","","","","",""
"d3-animate-choice","115","531029","0.0-61.0-0.18","1979","3352","8","Male","true","true","true","true","""event"",""trial"",""time""
""fullscreenenter"",""5"",""15993""
","
","
","""event"",""trial"",""time""
""fullscreenenter"",""5"",""15993""
","
","995.9000000059605","","49","","","3000","1","","","images/earth.jpg","images/tutrocket1","images/tutrocket2","null","images/tutrocket2","","1","practice","null","1","","",""
"d3-animate-choice","116","535036","0.0-61.0-1.18","1979","3352","8","Male","true","true","true","true","""event"",""trial"",""time""
""fullscreenenter"",""5"",""15993""
","
","
","""event"",""trial"",""time""
""fullscreenenter"",""5"",""15993""
","
","null","","null","","","3000","0","","","images/tutyellowplanet.jpg","images/tutalien4","images/tutalien3","images/tutrocket2","","","2","practice","true","","0","2022-10-25 14:32:16.669","common"
"two-step-fixation","117","536043","0.0-61.0-2.18","1979","3352","8","Male","true","true","true","true","""event"",""trial"",""time""
""fullscreenenter"",""5"",""15993""
","
","
","""event"",""trial"",""time""
""fullscreenenter"",""5"",""15993""
","
","","images/earth.jpg","","","","","","","","","","","","","","fixation","","","","","",""
"d3-animate-choice","118","539487","0.0-61.0-0.19","1979","3352","8","Male","true","true","true","true","""event"",""trial"",""time""
""fullscreenenter"",""5"",""15993""
","
","
","""event"",""trial"",""time""
""fullscreenenter"",""5"",""15993""
","
","1435.9000000059605","","49","","","3000","1","","","images/earth.jpg","images/tutrocket1","images/tutrocket2","null","images/tutrocket2","","1","practice","null","1","","",""
"d3-animate-choice","119","543496","0.0-61.0-1.19","1979","3352","8","Male","true","true","true","true","""event"",""trial"",""time""
""fullscreenenter"",""5"",""15993""
","
","
","""event"",""trial"",""time""
""fullscreenenter"",""5"",""15993""
","
","3488.4000000059605","","49","","","3000","0","","","images/tutgreenplanet.jpg","images/tutalien2","images/tutalien1","images/tutrocket2","","","2","practice","false","1","0","2022-10-25 14:32:25.129","rare"
"two-step-fixation","120","544502","0.0-61.0-2.19","1979","3352","8","Male","true","true","true","true","""event"",""trial"",""time""
""fullscreenenter"",""5"",""15993""
","
","
","""event"",""trial"",""time""
""fullscreenenter"",""5"",""15993""
","
","","images/earth.jpg","","","","","","","","","","","","","","fixation","","","","","",""
"d3-instructions","121","549629","0.0-62.0","1979","3352","8","Male","true","true","true","true","""event"",""trial"",""time""
""fullscreenenter"",""5"",""15993""
","
","
","""event"",""trial"",""time""
""fullscreenenter"",""5"",""15993""
","
","","","","","","","","","","","","","","","","","","","","","",""
"audio-keyboard-response","122","551577","0.0-63.0","1979","3352","8","Male","true","true","true","true","""event"",""trial"",""time""
""fullscreenenter"",""5"",""15993""
","
","
","""event"",""trial"",""time""
""fullscreenenter"",""5"",""15993""
","
","1945","audio/instructions/treasure_feedback.wav","32","","","","","","","","","","","","","","","","","","",""
"d3-instructions","123","573069","0.0-64.0","1979","3352","8","Male","true","true","true","true","""event"",""trial"",""time""
""fullscreenenter"",""5"",""15993""
","
","
","""event"",""trial"",""time""
""fullscreenenter"",""5"",""15993""
","
","","","","","","","","","","","","","","","","","","","","","",""
"d3-instructions","124","588769","0.0-65.0","1979","3352","8","Male","true","true","true","true","""event"",""trial"",""time""
""fullscreenenter"",""5"",""15993""
","
","
","""event"",""trial"",""time""
""fullscreenenter"",""5"",""15993""
","
","","","","","","","","","","","","","","","","","","","","","",""
"d3-instructions","125","612724","0.0-66.0","1979","3352","8","Male","true","true","true","true","""event"",""trial"",""time""
""fullscreenenter"",""5"",""15993""
","
","
","""event"",""trial"",""time""
""fullscreenenter"",""5"",""15993""
","
","","","","","","","","","","","","","","","","","","","","","",""
"d3-instructions","126","628311","0.0-67.0","1979","3352","8","Male","true","true","true","true","""event"",""trial"",""time""
""fullscreenenter"",""5"",""15993""
","
","
","""event"",""trial"",""time""
""fullscreenenter"",""5"",""15993""
","
","","","","","","","","","","","","","","","","","","","","","",""
"d3-instructions","127","638016","0.0-68.0","1979","3352","8","Male","true","true","true","true","""event"",""trial"",""time""
""fullscreenenter"",""5"",""15993""
","
","
","""event"",""trial"",""time""
""fullscreenenter"",""5"",""15993""
","
","","","","","","","","","","","","","","","","","","","","","",""
"instructions-quiz","128","643525","0.0-69.0","1979","3352","8","Male","true","true","true","true","""event"",""trial"",""time""
""fullscreenenter"",""5"",""15993""
","
","
","""event"",""trial"",""time""
""fullscreenenter"",""5"",""15993""
","
","5506.79999999702","audio/quiz/Q1_Prompt.wav","","1","","","","","","","","","","","","","","","","","",""
"audio-keyboard-response","129","652696","0.0-70.0","1979","3352","8","Male","true","true","true","true","""event"",""trial"",""time""
""fullscreenenter"",""5"",""15993""
","
","
","""event"",""trial"",""time""
""fullscreenenter"",""5"",""15993""
","
","null","audio/quiz/Q1_Correct.wav","null","","","","","","","","","","","","","","","","","","",""
"instructions-quiz","130","657003","0.0-71.0","1979","3352","8","Male","true","true","true","true","""event"",""trial"",""time""
""fullscreenenter"",""5"",""15993""
","
","
","""event"",""trial"",""time""
""fullscreenenter"",""5"",""15993""
","
","4304.899999991059","audio/quiz/Q2_Prompt.wav","","0","","","","","","","","","","","","","","","","","",""
"audio-keyboard-response","131","669874","0.0-72.0","1979","3352","8","Male","true","true","true","true","""event"",""trial"",""time""
""fullscreenenter"",""5"",""15993""
","
","
","""event"",""trial"",""time""
""fullscreenenter"",""5"",""15993""
","
","null","audio/quiz/Q2_Correct.wav","null","","","","","","","","","","","","","","","","","","",""
"instructions-quiz","132","674314","0.0-73.0","1979","3352","8","Male","true","true","true","true","""event"",""trial"",""time""
""fullscreenenter"",""5"",""15993""
","
","
","""event"",""trial"",""time""
""fullscreenenter"",""5"",""15993""
","
","4438.20000000298","audio/quiz/Q3_Prompt.wav","","0","","","","","","","","","","","","","","","","","",""
"audio-keyboard-response","133","681734","0.0-74.0","1979","3352","8","Male","true","true","true","true","""event"",""trial"",""time""
""fullscreenenter"",""5"",""15993""
","
","
","""event"",""trial"",""time""
""fullscreenenter"",""5"",""15993""
","
","null","audio/quiz/Q3_Incorrect.wav","null","","","","","","","","","","","","","","","","","","",""
"d3-instructions","134","684928","0.0-75.0","1979","3352","8","Male","true","true","true","true","""event"",""trial"",""time""
""fullscreenenter"",""5"",""15993""
","
","
","""event"",""trial"",""time""
""fullscreenenter"",""5"",""15993""
","
","","","","","","","","","","","","","","","","","","","","","",""
"d3-animate-choice","135","688934","0.0-76.0-0.0","1979","3352","8","Male","true","true","true","true","""event"",""trial"",""time""
""fullscreenenter"",""5"",""15993""
","
","
","""event"",""trial"",""time""
""fullscreenenter"",""5"",""15993""
","
","null","","null","","","3000","0","","","images/earth.jpg","images/rocket2","images/rocket1","null","","","1","real","null","","","",""
"d3-animate-choice","136","689938","0.0-76.0-1.0","1979","3352","8","Male","true","true","true","true","""event"",""trial"",""time""
""fullscreenenter"",""5"",""15993""
","
","
","""event"",""trial"",""time""
""fullscreenenter"",""5"",""15993""
","
","null","","null","","","0","0","","","images/earth.jpg","images/rocket2","images/rocket1","null","","","2","real","null","","0","2022-10-25 14:34:51.571",""
"two-step-fixation","137","690940","0.0-76.0-2.0","1979","3352","8","Male","true","true","true","true","""event"",""trial"",""time""
""fullscreenenter"",""5"",""15993""
","
","
","""event"",""trial"",""time""
""fullscreenenter"",""5"",""15993""
","
","","images/earth.jpg","","","","","","","","","","","","","","fixation","","","","","",""
"d3-animate-choice","138","694947","0.0-76.0-0.1","1979","3352","8","Male","true","true","true","true","""event"",""trial"",""time""
""fullscreenenter"",""5"",""15993""
","
","
","""event"",""trial"",""time""
""fullscreenenter"",""5"",""15993""
","
","3474.0999999940395","","49","","","3000","0","","","images/earth.jpg","images/rocket2","images/rocket1","null","","","1","real","null","1","","",""
"d3-animate-choice","139","695955","0.0-76.0-1.1","1979","3352","8","Male","true","true","true","true","""event"",""trial"",""time""
""fullscreenenter"",""5"",""15993""
","
","
","""event"",""trial"",""time""
""fullscreenenter"",""5"",""15993""
","
","null","","null","","","0","0","","","images/earth.jpg","images/rocket2","images/rocket1","null","","","2","real","null","","0","2022-10-25 14:34:57.588",""
"two-step-fixation","140","696958","0.0-76.0-2.1","1979","3352","8","Male","true","true","true","true","""event"",""trial"",""time""
""fullscreenenter"",""5"",""15993""
","
","
","""event"",""trial"",""time""
""fullscreenenter"",""5"",""15993""
","
","","images/earth.jpg","","","","","","","","","","","","","","fixation","","","","","",""
"d3-animate-choice","141","699248","0.0-76.0-0.2","1979","3352","8","Male","true","true","true","true","""event"",""trial"",""time""
""fullscreenenter"",""5"",""15993""
","
","
","""event"",""trial"",""time""
""fullscreenenter"",""5"",""15993""
","
","286.6000000089407","","49","","","3000","1","","","images/earth.jpg","images/rocket2","images/rocket1","null","images/rocket1","","1","real","null","1","","",""
"d3-animate-choice","142","703253","0.0-76.0-1.2","1979","3352","8","Male","true","true","true","true","""event"",""trial"",""time""
""fullscreenenter"",""5"",""15993""
","
","
","""event"",""trial"",""time""
""fullscreenenter"",""5"",""15993""
","
","null","","null","","","3000","0","","","images/redplanet1.jpg","images/alien2","images/alien1","images/rocket1","","","2","real","true","","0","2022-10-25 14:35:04.886","common"
"two-step-fixation","143","704256","0.0-76.0-2.2","1979","3352","8","Male","true","true","true","true","""event"",""trial"",""time""
""fullscreenenter"",""5"",""15993""
","
","
","""event"",""trial"",""time""
""fullscreenenter"",""5"",""15993""
","
","","images/earth.jpg","","","","","","","","","","","","","","fixation","","","","","",""
"d3-animate-choice","144","707027","0.0-76.0-0.3","1979","3352","8","Male","true","true","true","true","""event"",""trial"",""time""
""fullscreenenter"",""5"",""15993""
","
","
","""event"",""trial"",""time""
""fullscreenenter"",""5"",""15993""
","
","762.5","","48","","","3000","1","","","images/earth.jpg","images/rocket2","images/rocket1","null","images/rocket2","","1","real","null","2","","",""
"d3-animate-choice","145","711035","0.0-76.0-1.3","1979","3352","8","Male","true","true","true","true","""event"",""trial"",""time""
""fullscreenenter"",""5"",""15993""
","
","
","""event"",""trial"",""time""
""fullscreenenter"",""5"",""15993""
","
","null","","null","","","3000","0","","","images/purpleplanet.jpg","images/alien4","images/alien3","images/rocket2","","","2","real","true","","0","2022-10-25 14:35:12.668","common"
"two-step-fixation","146","712042","0.0-76.0-2.3","1979","3352","8","Male","true","true","true","true","""event"",""trial"",""time""
""fullscreenenter"",""5"",""15993""
","
","
","""event"",""trial"",""time""
""fullscreenenter"",""5"",""15993""
","
","","images/earth.jpg","","","","","","","","","","","","","","fixation","","","","","",""
"d3-animate-choice","147","714498","0.0-76.0-0.4","1979","3352","8","Male","true","true","true","true","""event"",""trial"",""time""
""fullscreenenter"",""5"",""15993""
","
","
","""event"",""trial"",""time""
""fullscreenenter"",""5"",""15993""
","
","449.20000000298023","","48","","","3000","1","","","images/earth.jpg","images/rocket2","images/rocket1","null","images/rocket2","","1","real","null","2","","",""
"d3-animate-choice","148","718506","0.0-76.0-1.4","1979","3352","8","Male","true","true","true","true","""event"",""trial"",""time""
""fullscreenenter"",""5"",""15993""
","
","
","""event"",""trial"",""time""
""fullscreenenter"",""5"",""15993""
","
","null","","null","","","3000","0","","","images/purpleplanet.jpg","images/alien4","images/alien3","images/rocket2","","","2","real","true","","0","2022-10-25 14:35:20.140","common"
"two-step-fixation","149","719515","0.0-76.0-2.4","1979","3352","8","Male","true","true","true","true","""event"",""trial"",""time""
""fullscreenenter"",""5"",""15993""
","
","
","""event"",""trial"",""time""
""fullscreenenter"",""5"",""15993""
","
","","images/earth.jpg","","","","","","","","","","","","","","fixation","","","","","",""
"d3-animate-choice","150","723015","0.0-76.0-0.5","1979","3352","8","Male","true","true","true","true","""event"",""trial"",""time""
""fullscreenenter"",""5"",""15993""
","
","
","""event"",""trial"",""time""
""fullscreenenter"",""5"",""15993""
","
","1493.5","","49","","","3000","1","","","images/earth.jpg","images/rocket2","images/rocket1","null","images/rocket1","","1","real","null","1","","",""
"d3-animate-choice","151","727023","0.0-76.0-1.5","1979","3352","8","Male","true","true","true","true","""event"",""trial"",""time""
""fullscreenenter"",""5"",""15993""
","
","
","""event"",""trial"",""time""
""fullscreenenter"",""5"",""15993""
","
","null","","null","","","3000","0","","","images/redplanet1.jpg","images/alien2","images/alien1","images/rocket1","","","2","real","true","","0","2022-10-25 14:35:28.656","common"
"two-step-fixation","152","728030","0.0-76.0-2.5","1979","3352","8","Male","true","true","true","true","""event"",""trial"",""time""
""fullscreenenter"",""5"",""15993""
","
","
","""event"",""trial"",""time""
""fullscreenenter"",""5"",""15993""
","
","","images/earth.jpg","","","","","","","","","","","","","","fixation","","","","","",""
"d3-animate-choice","153","730469","0.0-76.0-0.6","1979","3352","8","Male","true","true","true","true","""event"",""trial"",""time""
""fullscreenenter"",""5"",""15993""
","
","
","""event"",""trial"",""time""
""fullscreenenter"",""5"",""15993""
","
","435.09999999403954","","49","","","3000","1","","","images/earth.jpg","images/rocket2","images/rocket1","null","images/rocket1","","1","real","null","1","","",""
"d3-animate-choice","154","734478","0.0-76.0-1.6","1979","3352","8","Male","true","true","true","true","""event"",""trial"",""time""
""fullscreenenter"",""5"",""15993""
","
","
","""event"",""trial"",""time""
""fullscreenenter"",""5"",""15993""
","
","null","","null","","","3000","0","","","images/purpleplanet.jpg","images/alien4","images/alien3","images/rocket1","","","2","real","false","","0","2022-10-25 14:35:36.111","rare"
"two-step-fixation","155","735484","0.0-76.0-2.6","1979","3352","8","Male","true","true","true","true","""event"",""trial"",""time""
""fullscreenenter"",""5"",""15993""
","
","
","""event"",""trial"",""time""
""fullscreenenter"",""5"",""15993""
","
","","images/earth.jpg","","","","","","","","","","","","","","fixation","","","","","",""
"d3-animate-choice","156","737909","0.0-76.0-0.7","1979","3352","8","Male","true","true","true","true","""event"",""trial"",""time""
""fullscreenenter"",""5"",""15993""
","
","
","""event"",""trial"",""time""
""fullscreenenter"",""5"",""15993""
","
","418.20000000298023","","49","","","3000","1","","","images/earth.jpg","images/rocket2","images/rocket1","null","images/rocket1","","1","real","null","1","","",""
"d3-animate-choice","157","741912","0.0-76.0-1.7","1979","3352","8","Male","true","true","true","true","""event"",""trial"",""time""
""fullscreenenter"",""5"",""15993""
","
","
","""event"",""trial"",""time""
""fullscreenenter"",""5"",""15993""
","
","null","","null","","","3000","0","","","images/purpleplanet.jpg","images/alien4","images/alien3","images/rocket1","","","2","real","false","","0","2022-10-25 14:35:43.546","rare"
"two-step-fixation","158","742915","0.0-76.0-2.7","1979","3352","8","Male","true","true","true","true","""event"",""trial"",""time""
""fullscreenenter"",""5"",""15993""
","
","
","""event"",""trial"",""time""
""fullscreenenter"",""5"",""15993""
","
","","images/earth.jpg","","","","","","","","","","","","","","fixation","","","","","",""
"d3-animate-choice","159","745572","0.0-76.0-0.8","1979","3352","8","Male","true","true","true","true","""event"",""trial"",""time""
""fullscreenenter"",""5"",""15993""
","
","
","""event"",""trial"",""time""
""fullscreenenter"",""5"",""15993""
","
","653.6999999880791","","49","","","3000","1","","","images/earth.jpg","images/rocket2","images/rocket1","null","images/rocket1","","1","real","null","1","","",""
"d3-animate-choice","160","749576","0.0-76.0-1.8","1979","3352","8","Male","true","true","true","true","""event"",""trial"",""time""
""fullscreenenter"",""5"",""15993""
","
","
","""event"",""trial"",""time""
""fullscreenenter"",""5"",""15993""
","
","null","","null","","","3000","0","","","images/redplanet1.jpg","images/alien2","images/alien1","images/rocket1","","","2","real","true","","0","2022-10-25 14:35:51.209","common"
"two-step-fixation","161","750581","0.0-76.0-2.8","1979","3352","8","Male","true","true","true","true","""event"",""trial"",""time""
""fullscreenenter"",""5"",""15993""
","
","
","""event"",""trial"",""time""
""fullscreenenter"",""5"",""15993""
","
","","images/earth.jpg","","","","","","","","","","","","","","fixation","","","","","",""
"d3-animate-choice","162","753520","0.0-76.0-0.9","1979","3352","8","Male","true","true","true","true","""event"",""trial"",""time""
""fullscreenenter"",""5"",""15993""
","
","
","""event"",""trial"",""time""
""fullscreenenter"",""5"",""15993""
","
","931.2000000029802","","48","","","3000","1","","","images/earth.jpg","images/rocket2","images/rocket1","null","images/rocket2","","1","real","null","2","","",""
"d3-animate-choice","163","757524","0.0-76.0-1.9","1979","3352","8","Male","true","true","true","true","""event"",""trial"",""time""
""fullscreenenter"",""5"",""15993""
","
","
","""event"",""trial"",""time""
""fullscreenenter"",""5"",""15993""
","
","null","","null","","","3000","0","","","images/redplanet1.jpg","images/alien2","images/alien1","images/rocket2","","","2","real","false","","0","2022-10-25 14:35:59.157","rare"
"two-step-fixation","164","758527","0.0-76.0-2.9","1979","3352","8","Male","true","true","true","true","""event"",""trial"",""time""
""fullscreenenter"",""5"",""15993""
","
","
","""event"",""trial"",""time""
""fullscreenenter"",""5"",""15993""
","
","","images/earth.jpg","","","","","","","","","","","","","","fixation","","","","","",""
"d3-animate-choice","165","760913","0.0-76.0-0.10","1979","3352","8","Male","true","true","true","true","""event"",""trial"",""time""
""fullscreenenter"",""5"",""15993""
","
","
","""event"",""trial"",""time""
""fullscreenenter"",""5"",""15993""
","
","381.30000001192093","","48","","","3000","1","","","images/earth.jpg","images/rocket2","images/rocket1","null","images/rocket2","","1","real","null","2","","",""
"d3-animate-choice","166","764919","0.0-76.0-1.10","1979","3352","8","Male","true","true","true","true","""event"",""trial"",""time""
""fullscreenenter"",""5"",""15993""
","
","
","""event"",""trial"",""time""
""fullscreenenter"",""5"",""15993""
","
","null","","null","","","3000","0","","","images/purpleplanet.jpg","images/alien4","images/alien3","images/rocket2","","","2","real","true","","0","2022-10-25 14:36:06.552","common"
"two-step-fixation","167","765926","0.0-76.0-2.10","1979","3352","8","Male","true","true","true","true","""event"",""trial"",""time""
""fullscreenenter"",""5"",""15993""
","
","
","""event"",""trial"",""time""
""fullscreenenter"",""5"",""15993""
","
","","images/earth.jpg","","","","","","","","","","","","","","fixation","","","","","",""
"d3-animate-choice","168","768351","0.0-76.0-0.11","1979","3352","8","Male","true","true","true","true","""event"",""trial"",""time""
""fullscreenenter"",""5"",""15993""
","
","
","""event"",""trial"",""time""
""fullscreenenter"",""5"",""15993""
","
","419.59999999403954","","48","","","3000","1","","","images/earth.jpg","images/rocket2","images/rocket1","null","images/rocket2","","1","real","null","2","","",""
"d3-animate-choice","169","772356","0.0-76.0-1.11","1979","3352","8","Male","true","true","true","true","""event"",""trial"",""time""
""fullscreenenter"",""5"",""15993""
","
","
","""event"",""trial"",""time""
""fullscreenenter"",""5"",""15993""
","
","null","","null","","","3000","0","","","images/purpleplanet.jpg","images/alien4","images/alien3","images/rocket2","","","2","real","true","","0","2022-10-25 14:36:13.989","common"
"two-step-fixation","170","773360","0.0-76.0-2.11","1979","3352","8","Male","true","true","true","true","""event"",""trial"",""time""
""fullscreenenter"",""5"",""15993""
","
","
","""event"",""trial"",""time""
""fullscreenenter"",""5"",""15993""
","
","","images/earth.jpg","","","","","","","","","","","","","","fixation","","","","","",""
"d3-animate-choice","171","775775","0.0-76.0-0.12","1979","3352","8","Male","true","true","true","true","""event"",""trial"",""time""
""fullscreenenter"",""5"",""15993""
","
","
","""event"",""trial"",""time""
""fullscreenenter"",""5"",""15993""
","
","409.70000000298023","","48","","","3000","1","","","images/earth.jpg","images/rocket2","images/rocket1","null","images/rocket2","","1","real","null","2","","",""
"d3-animate-choice","172","779782","0.0-76.0-1.12","1979","3352","8","Male","true","true","true","true","""event"",""trial"",""time""
""fullscreenenter"",""5"",""15993""
","
","
","""event"",""trial"",""time""
""fullscreenenter"",""5"",""15993""
","
","null","","null","","","3000","0","","","images/purpleplanet.jpg","images/alien4","images/alien3","images/rocket2","","","2","real","true","","0","2022-10-25 14:36:21.415","common"
"two-step-fixation","173","780787","0.0-76.0-2.12","1979","3352","8","Male","true","true","true","true","""event"",""trial"",""time""
""fullscreenenter"",""5"",""15993""
","
","
","""event"",""trial"",""time""
""fullscreenenter"",""5"",""15993""
","
","","images/earth.jpg","","","","","","","","","","","","","","fixation","","","","","",""
"d3-animate-choice","174","784792","0.0-76.0-0.13","1979","3352","8","Male","true","true","true","true","""event"",""trial"",""time""
""fullscreenenter"",""5"",""15993""
","
","
","""event"",""trial"",""time""
""fullscreenenter"",""5"",""15993""
","
","2087.5999999940395","","48","","","3000","1","","","images/earth.jpg","images/rocket2","images/rocket1","null","images/rocket2","","1","real","null","2","","",""
"d3-animate-choice","175","788801","0.0-76.0-1.13","1979","3352","8","Male","true","true","true","true","""event"",""trial"",""time""
""fullscreenenter"",""5"",""15993""
","
","
","""event"",""trial"",""time""
""fullscreenenter"",""5"",""15993""
","
","null","","null","","","3000","0","","","images/purpleplanet.jpg","images/alien4","images/alien3","images/rocket2","","","2","real","true","","0","2022-10-25 14:36:30.434","common"
"two-step-fixation","176","789805","0.0-76.0-2.13","1979","3352","8","Male","true","true","true","true","""event"",""trial"",""time""
""fullscreenenter"",""5"",""15993""
","
","
","""event"",""trial"",""time""
""fullscreenenter"",""5"",""15993""
","
","","images/earth.jpg","","","","","","","","","","","","","","fixation","","","","","",""
"d3-animate-choice","177","793258","0.0-76.0-0.14","1979","3352","8","Male","true","true","true","true","""event"",""trial"",""time""
""fullscreenenter"",""5"",""15993""
","
","
","""event"",""trial"",""time""
""fullscreenenter"",""5"",""15993""
","
","1449.7999999970198","","48","","","3000","1","","","images/earth.jpg","images/rocket2","images/rocket1","null","images/rocket2","","1","real","null","2","","",""
"d3-animate-choice","178","797262","0.0-76.0-1.14","1979","3352","8","Male","true","true","true","true","""event"",""trial"",""time""
""fullscreenenter"",""5"",""15993""
","
","
","""event"",""trial"",""time""
""fullscreenenter"",""5"",""15993""
","
","null","","null","","","3000","0","","","images/redplanet1.jpg","images/alien2","images/alien1","images/rocket2","","","2","real","false","","0","2022-10-25 14:36:38.895","rare"
"two-step-fixation","179","798266","0.0-76.0-2.14","1979","3352","8","Male","true","true","true","true","""event"",""trial"",""time""
""fullscreenenter"",""5"",""15993""
","
","
","""event"",""trial"",""time""
""fullscreenenter"",""5"",""15993""
","
","","images/earth.jpg","","","","","","","","","","","","","","fixation","","","","","",""
"d3-animate-choice","180","800647","0.0-76.0-0.15","1979","3352","8","Male","true","true","true","true","""event"",""trial"",""time""
""fullscreenenter"",""5"",""15993""
","
","
","""event"",""trial"",""time""
""fullscreenenter"",""5"",""15993""
","
","377","","49","","","3000","1","","","images/earth.jpg","images/rocket2","images/rocket1","null","images/rocket1","","1","real","null","1","","",""
"d3-animate-choice","181","804657","0.0-76.0-1.15","1979","3352","8","Male","true","true","true","true","""event"",""trial"",""time""
""fullscreenenter"",""5"",""15993""
","
","
","""event"",""trial"",""time""
""fullscreenenter"",""5"",""15993""
","
","null","","null","","","3000","0","","","images/redplanet1.jpg","images/alien2","images/alien1","images/rocket1","","","2","real","true","","0","2022-10-25 14:36:46.290","common"
"two-step-fixation","182","805662","0.0-76.0-2.15","1979","3352","8","Male","true","true","true","true","""event"",""trial"",""time""
""fullscreenenter"",""5"",""15993""
","
","
","""event"",""trial"",""time""
""fullscreenenter"",""5"",""15993""
","
","","images/earth.jpg","","","","","","","","","","","","","","fixation","","","","","",""
"d3-animate-choice","183","809569","0.0-76.0-0.16","1979","3352","8","Male","true","true","true","true","""event"",""trial"",""time""
""fullscreenenter"",""5"",""15993""
","
","
","""event"",""trial"",""time""
""fullscreenenter"",""5"",""15993""
","
","1903.8999999910593","","48","","","3000","1","","","images/earth.jpg","images/rocket2","images/rocket1","null","images/rocket2","","1","real","null","2","","",""
"d3-animate-choice","184","813574","0.0-76.0-1.16","1979","3352","8","Male","true","true","true","true","""event"",""trial"",""time""
""fullscreenenter"",""5"",""15993""
","
","
","""event"",""trial"",""time""
""fullscreenenter"",""5"",""15993""
","
","null","","null","","","3000","0","","","images/redplanet1.jpg","images/alien2","images/alien1","images/rocket2","","","2","real","false","","0","2022-10-25 14:36:55.207","rare"
"two-step-fixation","185","814577","0.0-76.0-2.16","1979","3352","8","Male","true","true","true","true","""event"",""trial"",""time""
""fullscreenenter"",""5"",""15993""
","
","
","""event"",""trial"",""time""
""fullscreenenter"",""5"",""15993""
","
","","images/earth.jpg","","","","","","","","","","","","","","fixation","","","","","",""
"d3-animate-choice","186","816965","0.0-76.0-0.17","1979","3352","8","Male","true","true","true","true","""event"",""trial"",""time""
""fullscreenenter"",""5"",""15993""
","
","
","""event"",""trial"",""time""
""fullscreenenter"",""5"",""15993""
","
","383.90000000596046","","48","","","3000","1","","","images/earth.jpg","images/rocket2","images/rocket1","null","images/rocket2","","1","real","null","2","","",""
"d3-animate-choice","187","820969","0.0-76.0-1.17","1979","3352","8","Male","true","true","true","true","""event"",""trial"",""time""
""fullscreenenter"",""5"",""15993""
","
","
","""event"",""trial"",""time""
""fullscreenenter"",""5"",""15993""
","
","null","","null","","","3000","0","","","images/purpleplanet.jpg","images/alien4","images/alien3","images/rocket2","","","2","real","true","","0","2022-10-25 14:37:02.602","common"
"two-step-fixation","188","821973","0.0-76.0-2.17","1979","3352","8","Male","true","true","true","true","""event"",""trial"",""time""
""fullscreenenter"",""5"",""15993""
","
","
","""event"",""trial"",""time""
""fullscreenenter"",""5"",""15993""
","
","","images/earth.jpg","","","","","","","","","","","","","","fixation","","","","","",""
"d3-animate-choice","189","824389","0.0-76.0-0.18","1979","3352","8","Male","true","true","true","true","""event"",""trial"",""time""
""fullscreenenter"",""5"",""15993""
","
","
","""event"",""trial"",""time""
""fullscreenenter"",""5"",""15993""
","
","412.29999999701977","","48","","","3000","1","","","images/earth.jpg","images/rocket2","images/rocket1","null","images/rocket2","","1","real","null","2","","",""
"d3-animate-choice","190","828397","0.0-76.0-1.18","1979","3352","8","Male","true","true","true","true","""event"",""trial"",""time""
""fullscreenenter"",""5"",""15993""
","
","
","""event"",""trial"",""time""
""fullscreenenter"",""5"",""15993""
","
","null","","null","","","3000","0","","","images/purpleplanet.jpg","images/alien4","images/alien3","images/rocket2","","","2","real","true","","0","2022-10-25 14:37:10.030","common"
"two-step-fixation","191","829401","0.0-76.0-2.18","1979","3352","8","Male","true","true","true","true","""event"",""trial"",""time""
""fullscreenenter"",""5"",""15993""
","
","
","""event"",""trial"",""time""
""fullscreenenter"",""5"",""15993""
","
","","images/earth.jpg","","","","","","","","","","","","","","fixation","","","","","",""
"d3-animate-choice","192","832023","0.0-76.0-0.19","1979","3352","8","Male","true","true","true","true","""event"",""trial"",""time""
""fullscreenenter"",""5"",""15993""
","
","
","""event"",""trial"",""time""
""fullscreenenter"",""5"",""15993""
","
","616.7999999970198","","49","","","3000","1","","","images/earth.jpg","images/rocket2","images/rocket1","null","images/rocket1","","1","real","null","1","","",""
"d3-animate-choice","193","836031","0.0-76.0-1.19","1979","3352","8","Male","true","true","true","true","""event"",""trial"",""time""
""fullscreenenter"",""5"",""15993""
","
","
","""event"",""trial"",""time""
""fullscreenenter"",""5"",""15993""
","
","null","","null","","","3000","0","","","images/purpleplanet.jpg","images/alien4","images/alien3","images/rocket1","","","2","real","false","","0","2022-10-25 14:37:17.664","rare"
"two-step-fixation","194","837038","0.0-76.0-2.19","1979","3352","8","Male","true","true","true","true","""event"",""trial"",""time""
""fullscreenenter"",""5"",""15993""
","
","
","""event"",""trial"",""time""
""fullscreenenter"",""5"",""15993""
","
","","images/earth.jpg","","","","","","","","","","","","","","fixation","","","","","",""
"d3-animate-choice","195","840187","0.0-76.0-0.20","1979","3352","8","Male","true","true","true","true","""event"",""trial"",""time""
""fullscreenenter"",""5"",""15993""
","
","
","""event"",""trial"",""time""
""fullscreenenter"",""5"",""15993""
","
","1144.2999999970198","","49","","","3000","1","","","images/earth.jpg","images/rocket2","images/rocket1","null","images/rocket1","","1","real","null","1","","",""
"d3-animate-choice","196","844192","0.0-76.0-1.20","1979","3352","8","Male","true","true","true","true","""event"",""trial"",""time""
""fullscreenenter"",""5"",""15993""
","
","
","""event"",""trial"",""time""
""fullscreenenter"",""5"",""15993""
","
","null","","null","","","3000","0","","","images/redplanet1.jpg","images/alien2","images/alien1","images/rocket1","","","2","real","true","","0","2022-10-25 14:37:25.825","common"
"two-step-fixation","197","845195","0.0-76.0-2.20","1979","3352","8","Male","true","true","true","true","""event"",""trial"",""time""
""fullscreenenter"",""5"",""15993""
","
","
","""event"",""trial"",""time""
""fullscreenenter"",""5"",""15993""
","
","","images/earth.jpg","","","","","","","","","","","","","","fixation","","","","","",""
"d3-animate-choice","198","849044","0.0-76.0-0.21","1979","3352","8","Male","true","true","true","true","""event"",""trial"",""time""
""fullscreenenter"",""5"",""15993""
","
","
","""event"",""trial"",""time""
""fullscreenenter"",""5"",""15993""
","
","1845.7999999970198","","49","","","3000","1","","","images/earth.jpg","images/rocket2","images/rocket1","null","images/rocket1","","1","real","null","1","","",""
"d3-animate-choice","199","853053","0.0-76.0-1.21","1979","3352","8","Male","true","true","true","true","""event"",""trial"",""time""
""fullscreenenter"",""5"",""15993""
","
","
","""event"",""trial"",""time""
""fullscreenenter"",""5"",""15993""
","
","null","","null","","","3000","0","","","images/redplanet1.jpg","images/alien2","images/alien1","images/rocket1","","","2","real","true","","0","2022-10-25 14:37:34.686","common"
"two-step-fixation","200","854056","0.0-76.0-2.21","1979","3352","8","Male","true","true","true","true","""event"",""trial"",""time""
""fullscreenenter"",""5"",""15993""
","
","
","""event"",""trial"",""time""
""fullscreenenter"",""5"",""15993""
","
","","images/earth.jpg","","","","","","","","","","","","","","fixation","","","","","",""
"d3-animate-choice","201","858059","0.0-76.0-0.22","1979","3352","8","Male","true","true","true","true","""event"",""trial"",""time""
""fullscreenenter"",""5"",""15993""
","
","
","""event"",""trial"",""time""
""fullscreenenter"",""5"",""15993""
","
","null","","null","","","3000","0","","","images/earth.jpg","images/rocket2","images/rocket1","null","","","1","real","null","","","",""
"d3-animate-choice","202","859068","0.0-76.0-1.22","1979","3352","8","Male","true","true","true","true","""event"",""trial"",""time""
""fullscreenenter"",""5"",""15993""
","
","
","""event"",""trial"",""time""
""fullscreenenter"",""5"",""15993""
","
","839.5","","49","","","0","0","","","images/earth.jpg","images/rocket2","images/rocket1","null","","","2","real","null","1","0","2022-10-25 14:37:40.701",""
"two-step-fixation","203","860073","0.0-76.0-2.22","1979","3352","8","Male","true","true","true","true","""event"",""trial"",""time""
""fullscreenenter"",""5"",""15993""
","
","
","""event"",""trial"",""time""
""fullscreenenter"",""5"",""15993""
","
","","images/earth.jpg","","","","","","","","","","","","","","fixation","","","","","",""
"d3-animate-choice","204","862412","0.0-76.0-0.23","1979","3352","8","Male","true","true","true","true","""event"",""trial"",""time""
""fullscreenenter"",""5"",""15993""
","
","
","""event"",""trial"",""time""
""fullscreenenter"",""5"",""15993""
","
","335.1000000089407","","49","","","3000","1","","","images/earth.jpg","images/rocket2","images/rocket1","null","images/rocket1","","1","real","null","1","","",""
"d3-animate-choice","205","866416","0.0-76.0-1.23","1979","3352","8","Male","true","true","true","true","""event"",""trial"",""time""
""fullscreenenter"",""5"",""15993""
","
","
","""event"",""trial"",""time""
""fullscreenenter"",""5"",""15993""
","
","null","","null","","","3000","0","","","images/purpleplanet.jpg","images/alien4","images/alien3","images/rocket1","","","2","real","false","","0","2022-10-25 14:37:48.049","rare"
"two-step-fixation","206","867418","0.0-76.0-2.23","1979","3352","8","Male","true","true","true","true","""event"",""trial"",""time""
""fullscreenenter"",""5"",""15993""
","
","
","""event"",""trial"",""time""
""fullscreenenter"",""5"",""15993""
","
","","images/earth.jpg","","","","","","","","","","","","","","fixation","","","","","",""
"d3-animate-choice","207","869877","0.0-76.0-0.24","1979","3352","8","Male","true","true","true","true","""event"",""trial"",""time""
""fullscreenenter"",""5"",""15993""
","
","
","""event"",""trial"",""time""
""fullscreenenter"",""5"",""15993""
","
","456.20000000298023","","48","","","3000","1","","","images/earth.jpg","images/rocket2","images/rocket1","null","images/rocket2","","1","real","null","2","","",""
"d3-animate-choice","208","873889","0.0-76.0-1.24","1979","3352","8","Male","true","true","true","true","""event"",""trial"",""time""
""fullscreenenter"",""5"",""15993""
","
","
","""event"",""trial"",""time""
""fullscreenenter"",""5"",""15993""
","
","2177.8999999910593","","48","","","3000","1","","","images/purpleplanet.jpg","images/alien4","images/alien3","images/rocket2","images/alien4","images/t.png","2","real","true","2","1","2022-10-25 14:37:55.522","common"
"two-step-fixation","209","874894","0.0-76.0-2.24","1979","3352","8","Male","true","true","true","true","""event"",""trial"",""time""
""fullscreenenter"",""5"",""15993""
","
","
","""event"",""trial"",""time""
""fullscreenenter"",""5"",""15993""
","
","","images/earth.jpg","","","","","","","","","","","","","","fixation","","","","","",""
"d3-animate-choice","210","877552","0.0-76.0-0.25","1979","3352","8","Male","true","true","true","true","""event"",""trial"",""time""
""fullscreenenter"",""5"",""15993""
","
","
","""event"",""trial"",""time""
""fullscreenenter"",""5"",""15993""
","
","654.4000000059605","","48","","","3000","1","","","images/earth.jpg","images/rocket2","images/rocket1","null","images/rocket2","","1","real","null","2","","",""
"d3-animate-choice","211","881555","0.0-76.0-1.25","1979","3352","8","Male","true","true","true","true","""event"",""trial"",""time""
""fullscreenenter"",""5"",""15993""
","
","
","""event"",""trial"",""time""
""fullscreenenter"",""5"",""15993""
","
","null","","null","","","3000","0","","","images/redplanet1.jpg","images/alien2","images/alien1","images/rocket2","","","2","real","false","","0","2022-10-25 14:38:03.188","rare"
"two-step-fixation","212","882558","0.0-76.0-2.25","1979","3352","8","Male","true","true","true","true","""event"",""trial"",""time""
""fullscreenenter"",""5"",""15993""
","
","
","""event"",""trial"",""time""
""fullscreenenter"",""5"",""15993""
","
","","images/earth.jpg","","","","","","","","","","","","","","fixation","","","","","",""
"d3-animate-choice","213","884942","0.0-76.0-0.26","1979","3352","8","Male","true","true","true","true","""event"",""trial"",""time""
""fullscreenenter"",""5"",""15993""
","
","
","""event"",""trial"",""time""
""fullscreenenter"",""5"",""15993""
","
","379.6000000089407","","48","","","3000","1","","","images/earth.jpg","images/rocket2","images/rocket1","null","images/rocket2","","1","real","null","2","","",""
"d3-animate-choice","214","888952","0.0-76.0-1.26","1979","3352","8","Male","true","true","true","true","""event"",""trial"",""time""
""fullscreenenter"",""5"",""15993""
","
","
","""event"",""trial"",""time""
""fullscreenenter"",""5"",""15993""
","
","null","","null","","","3000","0","","","images/purpleplanet.jpg","images/alien4","images/alien3","images/rocket2","","","2","real","true","","0","2022-10-25 14:38:10.585","common"
"two-step-fixation","215","889958","0.0-76.0-2.26","1979","3352","8","Male","true","true","true","true","""event"",""trial"",""time""
""fullscreenenter"",""5"",""15993""
","
","
","""event"",""trial"",""time""
""fullscreenenter"",""5"",""15993""
","
","","images/earth.jpg","","","","","","","","","","","","","","fixation","","","","","",""
"d3-animate-choice","216","892327","0.0-76.0-0.27","1979","3352","8","Male","true","true","true","true","""event"",""trial"",""time""
""fullscreenenter"",""5"",""15993""
","
","
","""event"",""trial"",""time""
""fullscreenenter"",""5"",""15993""
","
","365.6000000089407","","48","","","3000","1","","","images/earth.jpg","images/rocket2","images/rocket1","null","images/rocket2","","1","real","null","2","","",""
"d3-animate-choice","217","896336","0.0-76.0-1.27","1979","3352","8","Male","true","true","true","true","""event"",""trial"",""time""
""fullscreenenter"",""5"",""15993""
","
","
","""event"",""trial"",""time""
""fullscreenenter"",""5"",""15993""
","
","null","","null","","","3000","0","","","images/purpleplanet.jpg","images/alien4","images/alien3","images/rocket2","","","2","real","true","","0","2022-10-25 14:38:17.969","common"
"two-step-fixation","218","897342","0.0-76.0-2.27","1979","3352","8","Male","true","true","true","true","""event"",""trial"",""time""
""fullscreenenter"",""5"",""15993""
","
","
","""event"",""trial"",""time""
""fullscreenenter"",""5"",""15993""
","
","","images/earth.jpg","","","","","","","","","","","","","","fixation","","","","","",""
"d3-animate-choice","219","900152","0.0-76.0-0.28","1979","3352","8","Male","true","true","true","true","""event"",""trial"",""time""
""fullscreenenter"",""5"",""15993""
","
","
","""event"",""trial"",""time""
""fullscreenenter"",""5"",""15993""
","
","806.7999999970198","","48","","","3000","1","","","images/earth.jpg","images/rocket2","images/rocket1","null","images/rocket2","","1","real","null","2","","",""
"d3-animate-choice","220","904161","0.0-76.0-1.28","1979","3352","8","Male","true","true","true","true","""event"",""trial"",""time""
""fullscreenenter"",""5"",""15993""
","
","
","""event"",""trial"",""time""
""fullscreenenter"",""5"",""15993""
","
","null","","null","","","3000","0","","","images/redplanet1.jpg","images/alien2","images/alien1","images/rocket2","","","2","real","false","","0","2022-10-25 14:38:25.794","rare"
"two-step-fixation","221","905167","0.0-76.0-2.28","1979","3352","8","Male","true","true","true","true","""event"",""trial"",""time""
""fullscreenenter"",""5"",""15993""
","
","
","""event"",""trial"",""time""
""fullscreenenter"",""5"",""15993""
","
","","images/earth.jpg","","","","","","","","","","","","","","fixation","","","","","",""
"d3-animate-choice","222","909179","0.0-76.0-0.29","1979","3352","8","Male","true","true","true","true","""event"",""trial"",""time""
""fullscreenenter"",""5"",""15993""
","
","
","""event"",""trial"",""time""
""fullscreenenter"",""5"",""15993""
","
","2554.2000000029802","","48","","","3000","1","","","images/earth.jpg","images/rocket2","images/rocket1","null","images/rocket2","","1","real","null","2","","",""
"d3-animate-choice","223","913183","0.0-76.0-1.29","1979","3352","8","Male","true","true","true","true","""event"",""trial"",""time""
""fullscreenenter"",""5"",""15993""
","
","
","""event"",""trial"",""time""
""fullscreenenter"",""5"",""15993""
","
","null","","null","","","3000","0","","","images/redplanet1.jpg","images/alien2","images/alien1","images/rocket2","","","2","real","false","","0","2022-10-25 14:38:34.816","rare"
"two-step-fixation","224","914187","0.0-76.0-2.29","1979","3352","8","Male","true","true","true","true","""event"",""trial"",""time""
""fullscreenenter"",""5"",""15993""
","
","
","""event"",""trial"",""time""
""fullscreenenter"",""5"",""15993""
","
","","images/earth.jpg","","","","","","","","","","","","","","fixation","","","","","",""
"d3-animate-choice","225","916789","0.0-76.0-0.30","1979","3352","8","Male","true","true","true","true","""event"",""trial"",""time""
""fullscreenenter"",""5"",""15993""
","
","
","""event"",""trial"",""time""
""fullscreenenter"",""5"",""15993""
","
","598.5999999940395","","48","","","3000","1","","","images/earth.jpg","images/rocket2","images/rocket1","null","images/rocket2","","1","real","null","2","","",""
"d3-animate-choice","226","920800","0.0-76.0-1.30","1979","3352","8","Male","true","true","true","true","""event"",""trial"",""time""
""fullscreenenter"",""5"",""15993""
","
","
","""event"",""trial"",""time""
""fullscreenenter"",""5"",""15993""
","
","null","","null","","","3000","0","","","images/redplanet1.jpg","images/alien2","images/alien1","images/rocket2","","","2","real","false","","0","2022-10-25 14:38:42.433","rare"
"two-step-fixation","227","921805","0.0-76.0-2.30","1979","3352","8","Male","true","true","true","true","""event"",""trial"",""time""
""fullscreenenter"",""5"",""15993""
","
","
","""event"",""trial"",""time""
""fullscreenenter"",""5"",""15993""
","
","","images/earth.jpg","","","","","","","","","","","","","","fixation","","","","","",""
"d3-animate-choice","228","924307","0.0-76.0-0.31","1979","3352","8","Male","true","true","true","true","""event"",""trial"",""time""
""fullscreenenter"",""5"",""15993""
","
","
","""event"",""trial"",""time""
""fullscreenenter"",""5"",""15993""
","
","498.29999999701977","","48","","","3000","1","","","images/earth.jpg","images/rocket2","images/rocket1","null","images/rocket2","","1","real","null","2","","",""
"d3-animate-choice","229","927105","0.0-76.0-1.31","1979","3352","8","Male","true","true","true","true","""event"",""trial"",""time""
""fullscreenenter"",""5"",""15993""
","
","
","""event"",""trial"",""time""
""fullscreenenter"",""5"",""15993""
","
","790.7000000029802","","48","","","3000","1","","","images/purpleplanet.jpg","images/alien4","images/alien3","images/rocket2","images/alien4","images/t.png","2","real","true","2","1","2022-10-25 14:38:48.738","common"
"two-step-fixation","230","928109","0.0-76.0-2.31","1979","3352","8","Male","true","true","true","true","""event"",""trial"",""time""
""fullscreenenter"",""5"",""15993""
","
","
","""event"",""trial"",""time""
""fullscreenenter"",""5"",""15993""
","
","","images/earth.jpg","","","","","","","","","","","","","","fixation","","","","","",""
"d3-animate-choice","231","930526","0.0-76.0-0.32","1979","3352","8","Male","true","true","true","true","""event"",""trial"",""time""
""fullscreenenter"",""5"",""15993""
","
","
","""event"",""trial"",""time""
""fullscreenenter"",""5"",""15993""
","
","412.70000000298023","","48","","","3000","1","","","images/earth.jpg","images/rocket2","images/rocket1","null","images/rocket2","","1","real","null","2","","",""
"d3-animate-choice","232","934532","0.0-76.0-1.32","1979","3352","8","Male","true","true","true","true","""event"",""trial"",""time""
""fullscreenenter"",""5"",""15993""
","
","
","""event"",""trial"",""time""
""fullscreenenter"",""5"",""15993""
","
","null","","null","","","3000","0","","","images/redplanet1.jpg","images/alien2","images/alien1","images/rocket2","","","2","real","false","","0","2022-10-25 14:38:56.165","rare"
"two-step-fixation","233","935534","0.0-76.0-2.32","1979","3352","8","Male","true","true","true","true","""event"",""trial"",""time""
""fullscreenenter"",""5"",""15993""
","
","
","""event"",""trial"",""time""
""fullscreenenter"",""5"",""15993""
","
","","images/earth.jpg","","","","","","","","","","","","","","fixation","","","","","",""
"d3-animate-choice","234","937901","0.0-76.0-0.33","1979","3352","8","Male","true","true","true","true","""event"",""trial"",""time""
""fullscreenenter"",""5"",""15993""
","
","
","""event"",""trial"",""time""
""fullscreenenter"",""5"",""15993""
","
","363.40000000596046","","48","","","3000","1","","","images/earth.jpg","images/rocket2","images/rocket1","null","images/rocket2","","1","real","null","2","","",""
"d3-animate-choice","235","941164","0.0-76.0-1.33","1979","3352","8","Male","true","true","true","true","""event"",""trial"",""time""
""fullscreenenter"",""5"",""15993""
","
","
","""event"",""trial"",""time""
""fullscreenenter"",""5"",""15993""
","
","1254.8999999910593","","48","","","3000","1","","","images/purpleplanet.jpg","images/alien4","images/alien3","images/rocket2","images/alien4","images/t.png","2","real","true","2","1","2022-10-25 14:39:02.797","common"
"two-step-fixation","236","942169","0.0-76.0-2.33","1979","3352","8","Male","true","true","true","true","""event"",""trial"",""time""
""fullscreenenter"",""5"",""15993""
","
","
","""event"",""trial"",""time""
""fullscreenenter"",""5"",""15993""
","
","","images/earth.jpg","","","","","","","","","","","","","","fixation","","","","","",""
"d3-animate-choice","237","944717","0.0-76.0-0.34","1979","3352","8","Male","true","true","true","true","""event"",""trial"",""time""
""fullscreenenter"",""5"",""15993""
","
","
","""event"",""trial"",""time""
""fullscreenenter"",""5"",""15993""
","
","543.4000000059605","","48","","","3000","1","","","images/earth.jpg","images/rocket2","images/rocket1","null","images/rocket2","","1","real","null","2","","",""
"d3-animate-choice","238","947179","0.0-76.0-1.34","1979","3352","8","Male","true","true","true","true","""event"",""trial"",""time""
""fullscreenenter"",""5"",""15993""
","
","
","""event"",""trial"",""time""
""fullscreenenter"",""5"",""15993""
","
","458.5","","48","","","3000","1","","","images/purpleplanet.jpg","images/alien4","images/alien3","images/rocket2","images/alien4","images/nothing.png","2","real","true","2","0","2022-10-25 14:39:08.812","common"
"two-step-fixation","239","948183","0.0-76.0-2.34","1979","3352","8","Male","true","true","true","true","""event"",""trial"",""time""
""fullscreenenter"",""5"",""15993""
","
","
","""event"",""trial"",""time""
""fullscreenenter"",""5"",""15993""
","
","","images/earth.jpg","","","","","","","","","","","","","","fixation","","","","","",""
"d3-animate-choice","240","950615","0.0-76.0-0.35","1979","3352","8","Male","true","true","true","true","""event"",""trial"",""time""
""fullscreenenter"",""5"",""15993""
","
","
","""event"",""trial"",""time""
""fullscreenenter"",""5"",""15993""
","
","428.30000001192093","","48","","","3000","1","","","images/earth.jpg","images/rocket2","images/rocket1","null","images/rocket2","","1","real","null","2","","",""
"d3-animate-choice","241","953274","0.0-76.0-1.35","1979","3352","8","Male","true","true","true","true","""event"",""trial"",""time""
""fullscreenenter"",""5"",""15993""
","
","
","""event"",""trial"",""time""
""fullscreenenter"",""5"",""15993""
","
","655","","49","","","3000","1","","","images/purpleplanet.jpg","images/alien4","images/alien3","images/rocket2","images/alien3","images/nothing.png","2","real","true","1","0","2022-10-25 14:39:14.907","common"
"two-step-fixation","242","954279","0.0-76.0-2.35","1979","3352","8","Male","true","true","true","true","""event"",""trial"",""time""
""fullscreenenter"",""5"",""15993""
","
","
","""event"",""trial"",""time""
""fullscreenenter"",""5"",""15993""
","
","","images/earth.jpg","","","","","","","","","","","","","","fixation","","","","","",""
"d3-animate-choice","243","957055","0.0-76.0-0.36","1979","3352","8","Male","true","true","true","true","""event"",""trial"",""time""
""fullscreenenter"",""5"",""15993""
","
","
","""event"",""trial"",""time""
""fullscreenenter"",""5"",""15993""
","
","772.9000000059605","","48","","","3000","1","","","images/earth.jpg","images/rocket2","images/rocket1","null","images/rocket2","","1","real","null","2","","",""
"d3-animate-choice","244","959596","0.0-76.0-1.36","1979","3352","8","Male","true","true","true","true","""event"",""trial"",""time""
""fullscreenenter"",""5"",""15993""
","
","
","""event"",""trial"",""time""
""fullscreenenter"",""5"",""15993""
","
","537.2000000029802","","49","","","3000","1","","","images/purpleplanet.jpg","images/alien4","images/alien3","images/rocket2","images/alien3","images/t.png","2","real","true","1","1","2022-10-25 14:39:21.229","common"
"two-step-fixation","245","960600","0.0-76.0-2.36","1979","3352","8","Male","true","true","true","true","""event"",""trial"",""time""
""fullscreenenter"",""5"",""15993""
","
","
","""event"",""trial"",""time""
""fullscreenenter"",""5"",""15993""
","
","","images/earth.jpg","","","","","","","","","","","","","","fixation","","","","","",""
"d3-animate-choice","246","963222","0.0-76.0-0.37","1979","3352","8","Male","true","true","true","true","""event"",""trial"",""time""
""fullscreenenter"",""5"",""15993""
","
","
","""event"",""trial"",""time""
""fullscreenenter"",""5"",""15993""
","
","617.7999999970198","","48","","","3000","1","","","images/earth.jpg","images/rocket2","images/rocket1","null","images/rocket2","","1","real","null","2","","",""
"d3-animate-choice","247","966858","0.0-76.0-1.37","1979","3352","8","Male","true","true","true","true","""event"",""trial"",""time""
""fullscreenenter"",""5"",""15993""
","
","
","""event"",""trial"",""time""
""fullscreenenter"",""5"",""15993""
","
","1634","","48","","","3000","1","","","images/redplanet1.jpg","images/alien2","images/alien1","images/rocket2","images/alien2","images/nothing.png","2","real","false","2","0","2022-10-25 14:39:28.492","rare"
"two-step-fixation","248","967862","0.0-76.0-2.37","1979","3352","8","Male","true","true","true","true","""event"",""trial"",""time""
""fullscreenenter"",""5"",""15993""
","
","
","""event"",""trial"",""time""
""fullscreenenter"",""5"",""15993""
","
","","images/earth.jpg","","","","","","","","","","","","","","fixation","","","","","",""
"d3-animate-choice","249","970552","0.0-76.0-0.38","1979","3352","8","Male","true","true","true","true","""event"",""trial"",""time""
""fullscreenenter"",""5"",""15993""
","
","
","""event"",""trial"",""time""
""fullscreenenter"",""5"",""15993""
","
","686.9000000059605","","48","","","3000","1","","","images/earth.jpg","images/rocket2","images/rocket1","null","images/rocket2","","1","real","null","2","","",""
"d3-animate-choice","250","973656","0.0-76.0-1.38","1979","3352","8","Male","true","true","true","true","""event"",""trial"",""time""
""fullscreenenter"",""5"",""15993""
","
","
","""event"",""trial"",""time""
""fullscreenenter"",""5"",""15993""
","
","1097.7000000029802","","48","","","3000","1","","","images/redplanet1.jpg","images/alien2","images/alien1","images/rocket2","images/alien2","images/nothing.png","2","real","false","2","0","2022-10-25 14:39:35.289","rare"
"two-step-fixation","251","974662","0.0-76.0-2.38","1979","3352","8","Male","true","true","true","true","""event"",""trial"",""time""
""fullscreenenter"",""5"",""15993""
","
","
","""event"",""trial"",""time""
""fullscreenenter"",""5"",""15993""
","
","","images/earth.jpg","","","","","","","","","","","","","","fixation","","","","","",""
"d3-animate-choice","252","977149","0.0-76.0-0.39","1979","3352","8","Male","true","true","true","true","""event"",""trial"",""time""
""fullscreenenter"",""5"",""15993""
","
","
","""event"",""trial"",""time""
""fullscreenenter"",""5"",""15993""
","
","481","","48","","","3000","1","","","images/earth.jpg","images/rocket2","images/rocket1","null","images/rocket2","","1","real","null","2","","",""
"d3-animate-choice","253","979895","0.0-76.0-1.39","1979","3352","8","Male","true","true","true","true","""event"",""trial"",""time""
""fullscreenenter"",""5"",""15993""
","
","
","""event"",""trial"",""time""
""fullscreenenter"",""5"",""15993""
","
","742.2999999970198","","48","","","3000","1","","","images/redplanet1.jpg","images/alien2","images/alien1","images/rocket2","images/alien2","images/t.png","2","real","false","2","1","2022-10-25 14:39:41.528","rare"
