"trial_type","trial_index","time_elapsed","internal_node_id","participant_id","subject_id","age","gender","rocket_sides","red_planet_first_rocket","red_display_order","purple_display_order","interactions","blur_events","focus_events","fullscreenenter_events","fullscreenexit_events","rt","stimulus","key_press","button_pressed","success","duration","valid_pressed","rts","keys","planet_text","right_text","left_text","center_text","chosen_text","reward_text","trial_stage","practice_trial","transition_type","choice","transition","reward","timestamp"
"pavlovia","0","5","0.0-0.0","3595","6340","16","Male","true","true","false","true","
","
","
","
","
","","","","","","","","","","","","","","","","","","","","","",""
"html-keyboard-response","1","123742","0.0-1.0","3595","6340","16","Male","true","true","false","true","
","
","
","
","
","123736.30000001192","Welcome! Press the space bar to begin.","32","","","","","","","","","","","","","","","","","","",""
"audio-keyboard-response","2","140061","0.0-2.0","3595","6340","16","Male","true","true","false","true","
","
","
","
","
","16160","audio/beep_loop.wav","32","","","","","","","","","","","","","","","","","","",""
"audio-button-response","3","145894","0.0-3.0","3595","6340","16","Male","true","true","false","true","
","
","
","
","
","NaN","audio/fish.mp3","","1","","","","","","","","","","","","","","","","","",""
"audio-button-response","4","149298","0.0-4.0","3595","6340","16","Male","true","true","false","true","""event"",""trial"",""time""
""fullscreenenter"",""5"",""152790""
","
","
","""event"",""trial"",""time""
""fullscreenenter"",""5"",""152790""
","
","NaN","audio/tiger.mp3","","4","","","","","","","","","","","","","","","","","",""
"fullscreen","5","153765","0.0-5.0","3595","6340","16","Male","true","true","false","true","""event"",""trial"",""time""
""fullscreenenter"",""5"",""152790""
","
","
","""event"",""trial"",""time""
""fullscreenenter"",""5"",""152790""
","
","","","","","true","","","","","","","","","","","","","","","","",""
"d3-instructions","6","1582700","0.0-6.0","3595","6340","16","Male","true","true","false","true","""event"",""trial"",""time""
""fullscreenenter"",""5"",""152790""
","
","
","""event"",""trial"",""time""
""fullscreenenter"",""5"",""152790""
","
","","","","","","","","","","","","","","","","","","","","","",""
"d3-instructions","7","1589204","0.0-7.0","3595","6340","16","Male","true","true","false","true","""event"",""trial"",""time""
""fullscreenenter"",""5"",""152790""
","
","
","""event"",""trial"",""time""
""fullscreenenter"",""5"",""152790""
","
","","","","","","","","","","","","","","","","","","","","","",""
"d3-instructions","8","1593004","0.0-8.0","3595","6340","16","Male","true","true","false","true","""event"",""trial"",""time""
""fullscreenenter"",""5"",""152790""
","
","
","""event"",""trial"",""time""
""fullscreenenter"",""5"",""152790""
","
","","","","","","","","","","","","","","","","","","","","","",""
"d3-instructions","9","1601219","0.0-9.0","3595","6340","16","Male","true","true","false","true","""event"",""trial"",""time""
""fullscreenenter"",""5"",""152790""
","
","
","""event"",""trial"",""time""
""fullscreenenter"",""5"",""152790""
","
","","","","","","","","","","","","","","","","","","","","","",""
"d3-instructions","10","1618243","0.0-10.0","3595","6340","16","Male","true","true","false","true","""event"",""trial"",""time""
""fullscreenenter"",""5"",""152790""
","
","
","""event"",""trial"",""time""
""fullscreenenter"",""5"",""152790""
","
","","","","","","","","","","","","","","","","","","","","","",""
"d3-animate-choice","11","1621701","0.0-11.0","3595","6340","16","Male","true","true","false","true","""event"",""trial"",""time""
""fullscreenenter"",""5"",""152790""
","
","
","""event"",""trial"",""time""
""fullscreenenter"",""5"",""152790""
","
","1445.800000011921","","48","","","3000","1","3165.800000011921","49","images/tutgreenplanet.jpg","images/tutalien1","images/tutalien2","null","images/tutalien1","","NA","practice","null","","","",""
"d3-animate-choice","12","1624425","0.0-12.0","3595","6340","16","Male","true","true","false","true","""event"",""trial"",""time""
""fullscreenenter"",""5"",""152790""
","
","
","""event"",""trial"",""time""
""fullscreenenter"",""5"",""152790""
","
","708.0999999940395","","49","","","3000","1","","","images/tutgreenplanet.jpg","images/tutalien1","images/tutalien2","null","images/tutalien2","","NA","practice","null","","","",""
"d3-animate-choice","13","1626995","0.0-13.0","3595","6340","16","Male","true","true","false","true","""event"",""trial"",""time""
""fullscreenenter"",""5"",""152790""
","
","
","""event"",""trial"",""time""
""fullscreenenter"",""5"",""152790""
","
","561.1999999880791","","48","","","3000","1","","","images/tutgreenplanet.jpg","images/tutalien1","images/tutalien2","null","images/tutalien1","","NA","practice","null","","","",""
"d3-animate-choice","14","1629341","0.0-14.0","3595","6340","16","Male","true","true","false","true","""event"",""trial"",""time""
""fullscreenenter"",""5"",""152790""
","
","
","""event"",""trial"",""time""
""fullscreenenter"",""5"",""152790""
","
","342.5","","49","","","3000","1","","","images/tutgreenplanet.jpg","images/tutalien1","images/tutalien2","null","images/tutalien2","","NA","practice","null","","","",""
"d3-instructions","15","1636890","0.0-15.0","3595","6340","16","Male","true","true","false","true","""event"",""trial"",""time""
""fullscreenenter"",""5"",""152790""
","
","
","""event"",""trial"",""time""
""fullscreenenter"",""5"",""152790""
","
","","","","","","","","","","","","","","","","","","","","","",""
"d3-instructions","16","1639234","0.0-16.0","3595","6340","16","Male","true","true","false","true","""event"",""trial"",""time""
""fullscreenenter"",""5"",""152790""
","
","
","""event"",""trial"",""time""
""fullscreenenter"",""5"",""152790""
","
","","","","","","","","","","","","","","","","","","","","","",""
"d3-instructions","17","1644122","0.0-17.0","3595","6340","16","Male","true","true","false","true","""event"",""trial"",""time""
""fullscreenenter"",""5"",""152790""
","
","
","""event"",""trial"",""time""
""fullscreenenter"",""5"",""152790""
","
","","","","","","","","","","","","","","","","","","","","","",""
"d3-instructions","18","1652450","0.0-18.0","3595","6340","16","Male","true","true","false","true","""event"",""trial"",""time""
""fullscreenenter"",""5"",""152790""
","
","
","""event"",""trial"",""time""
""fullscreenenter"",""5"",""152790""
","
","","","","","","","","","","","","","","","","","","","","","",""
"d3-instructions","19","1660538","0.0-19.0","3595","6340","16","Male","true","true","false","true","""event"",""trial"",""time""
""fullscreenenter"",""5"",""152790""
","
","
","""event"",""trial"",""time""
""fullscreenenter"",""5"",""152790""
","
","","","","","","","","","","","","","","","","","","","","","",""
"d3-animate-choice","20","1663767","0.0-20.0","3595","6340","16","Male","true","true","false","true","""event"",""trial"",""time""
""fullscreenenter"",""5"",""152790""
","
","
","""event"",""trial"",""time""
""fullscreenenter"",""5"",""152790""
","
","1221.9000000059605","","49","","","3000","1","2958.2000000178814","49","images/tutyellowplanet.jpg","null","images/tutalien3","null","images/tutalien3","images/nothing.png","NA","practice","null","","","",""
"d3-animate-choice","21","1666070","0.0-21.0","3595","6340","16","Male","true","true","false","true","""event"",""trial"",""time""
""fullscreenenter"",""5"",""152790""
","
","
","""event"",""trial"",""time""
""fullscreenenter"",""5"",""152790""
","
","297.40000000596046","","49","","","3000","1","","","images/tutyellowplanet.jpg","null","images/tutalien3","null","images/tutalien3","images/t.png","NA","practice","null","","","",""
"d3-animate-choice","22","1668391","0.0-22.0","3595","6340","16","Male","true","true","false","true","""event"",""trial"",""time""
""fullscreenenter"",""5"",""152790""
","
","
","""event"",""trial"",""time""
""fullscreenenter"",""5"",""152790""
","
","306.5","","49","","","3000","1","","","images/tutyellowplanet.jpg","null","images/tutalien3","null","images/tutalien3","images/nothing.png","NA","practice","null","","","",""
"d3-animate-choice","23","1670710","0.0-23.0","3595","6340","16","Male","true","true","false","true","""event"",""trial"",""time""
""fullscreenenter"",""5"",""152790""
","
","
","""event"",""trial"",""time""
""fullscreenenter"",""5"",""152790""
","
","305.09999999403954","","49","","","3000","1","","","images/tutyellowplanet.jpg","null","images/tutalien3","null","images/tutalien3","images/t.png","NA","practice","null","","","",""
"d3-animate-choice","24","1673155","0.0-24.0","3595","6340","16","Male","true","true","false","true","""event"",""trial"",""time""
""fullscreenenter"",""5"",""152790""
","
","
","""event"",""trial"",""time""
""fullscreenenter"",""5"",""152790""
","
","434.2000000178814","","49","","","3000","1","","","images/tutyellowplanet.jpg","null","images/tutalien3","null","images/tutalien3","images/t.png","NA","practice","null","","","",""
"d3-animate-choice","25","1675470","0.0-25.0","3595","6340","16","Male","true","true","false","true","""event"",""trial"",""time""
""fullscreenenter"",""5"",""152790""
","
","
","""event"",""trial"",""time""
""fullscreenenter"",""5"",""152790""
","
","300.59999999403954","","49","","","3000","1","","","images/tutyellowplanet.jpg","null","images/tutalien3","null","images/tutalien3","images/t.png","NA","practice","null","","","",""
"d3-animate-choice","26","1677816","0.0-26.0","3595","6340","16","Male","true","true","false","true","""event"",""trial"",""time""
""fullscreenenter"",""5"",""152790""
","
","
","""event"",""trial"",""time""
""fullscreenenter"",""5"",""152790""
","
","330.59999999403954","","49","","","3000","1","1834.199999988079,2105.9000000059605,2298","49,49,49","images/tutyellowplanet.jpg","null","images/tutalien3","null","images/tutalien3","images/t.png","NA","practice","null","","","",""
"d3-animate-choice","27","1679982","0.0-27.0","3595","6340","16","Male","true","true","false","true","""event"",""trial"",""time""
""fullscreenenter"",""5"",""152790""
","
","
","""event"",""trial"",""time""
""fullscreenenter"",""5"",""152790""
","
","160.90000000596046","","49","","","3000","1","392.80000001192093","49","images/tutyellowplanet.jpg","null","images/tutalien3","null","images/tutalien3","images/t.png","NA","practice","null","","","",""
"d3-animate-choice","28","1682072","0.0-28.0","3595","6340","16","Male","true","true","false","true","""event"",""trial"",""time""
""fullscreenenter"",""5"",""152790""
","
","
","""event"",""trial"",""time""
""fullscreenenter"",""5"",""152790""
","
","82.2000000178814","","49","","","3000","1","322.10000002384186","49","images/tutyellowplanet.jpg","null","images/tutalien3","null","images/tutalien3","images/t.png","NA","practice","null","","","",""
"d3-animate-choice","29","1684338","0.0-29.0","3595","6340","16","Male","true","true","false","true","""event"",""trial"",""time""
""fullscreenenter"",""5"",""152790""
","
","
","""event"",""trial"",""time""
""fullscreenenter"",""5"",""152790""
","
","255.59999999403954","","49","","","3000","1","2063.699999988079","49","images/tutyellowplanet.jpg","null","images/tutalien3","null","images/tutalien3","images/nothing.png","NA","practice","null","","","",""
"d3-instructions","30","1687266","0.0-30.0","3595","6340","16","Male","true","true","false","true","""event"",""trial"",""time""
""fullscreenenter"",""5"",""152790""
","
","
","""event"",""trial"",""time""
""fullscreenenter"",""5"",""152790""
","
","","","","","","","","","","","","","","","","","","","","","",""
"d3-instructions","31","1699665","0.0-31.0","3595","6340","16","Male","true","true","false","true","""event"",""trial"",""time""
""fullscreenenter"",""5"",""152790""
","
","
","""event"",""trial"",""time""
""fullscreenenter"",""5"",""152790""
","
","","","","","","","","","","","","","","","","","","","","","",""
"d3-instructions","32","1702721","0.0-32.0","3595","6340","16","Male","true","true","false","true","""event"",""trial"",""time""
""fullscreenenter"",""5"",""152790""
","
","
","""event"",""trial"",""time""
""fullscreenenter"",""5"",""152790""
","
","","","","","","","","","","","","","","","","","","","","","",""
"d3-instructions","33","1706289","0.0-33.0","3595","6340","16","Male","true","true","false","true","""event"",""trial"",""time""
""fullscreenenter"",""5"",""152790""
","
","
","""event"",""trial"",""time""
""fullscreenenter"",""5"",""152790""
","
","","","","","","","","","","","","","","","","","","","","","",""
"d3-animate-choice","34","1709519","0.0-34.0","3595","6340","16","Male","true","true","false","true","""event"",""trial"",""time""
""fullscreenenter"",""5"",""152790""
","
","
","""event"",""trial"",""time""
""fullscreenenter"",""5"",""152790""
","
","1214.5999999940395","","48","","","3000","1","","","images/tutgreenplanet.jpg","images/tutalien1","images/tutalien2","null","images/tutalien1","images/nothing.png","NA","practice","null","","","",""
"d3-animate-choice","35","1711883","0.0-35.0","3595","6340","16","Male","true","true","false","true","""event"",""trial"",""time""
""fullscreenenter"",""5"",""152790""
","
","
","""event"",""trial"",""time""
""fullscreenenter"",""5"",""152790""
","
","361.59999999403954","","48","","","3000","1","","","images/tutgreenplanet.jpg","images/tutalien1","images/tutalien2","null","images/tutalien1","images/nothing.png","NA","practice","null","","","",""
"d3-animate-choice","36","1714265","0.0-36.0","3595","6340","16","Male","true","true","false","true","""event"",""trial"",""time""
""fullscreenenter"",""5"",""152790""
","
","
","""event"",""trial"",""time""
""fullscreenenter"",""5"",""152790""
","
","372.69999998807907","","49","","","3000","1","","","images/tutgreenplanet.jpg","images/tutalien1","images/tutalien2","null","images/tutalien2","images/nothing.png","NA","practice","null","","","",""
"d3-animate-choice","37","1716526","0.0-37.0","3595","6340","16","Male","true","true","false","true","""event"",""trial"",""time""
""fullscreenenter"",""5"",""152790""
","
","
","""event"",""trial"",""time""
""fullscreenenter"",""5"",""152790""
","
","254.09999999403954","","49","","","3000","1","2021.800000011921","49","images/tutgreenplanet.jpg","images/tutalien1","images/tutalien2","null","images/tutalien2","images/t.png","NA","practice","null","","","",""
"d3-animate-choice","38","1718658","0.0-38.0","3595","6340","16","Male","true","true","false","true","""event"",""trial"",""time""
""fullscreenenter"",""5"",""152790""
","
","
","""event"",""trial"",""time""
""fullscreenenter"",""5"",""152790""
","
","129.59999999403954","","49","","","3000","1","","","images/tutgreenplanet.jpg","images/tutalien1","images/tutalien2","null","images/tutalien2","images/t.png","NA","practice","null","","","",""
"d3-animate-choice","39","1720987","0.0-39.0","3595","6340","16","Male","true","true","false","true","""event"",""trial"",""time""
""fullscreenenter"",""5"",""152790""
","
","
","""event"",""trial"",""time""
""fullscreenenter"",""5"",""152790""
","
","326","","49","","","3000","1","","","images/tutgreenplanet.jpg","images/tutalien1","images/tutalien2","null","images/tutalien2","images/t.png","NA","practice","null","","","",""
"d3-animate-choice","40","1723063","0.0-40.0","3595","6340","16","Male","true","true","false","true","""event"",""trial"",""time""
""fullscreenenter"",""5"",""152790""
","
","
","""event"",""trial"",""time""
""fullscreenenter"",""5"",""152790""
","
","61.19999998807907","","49","","","3000","1","","","images/tutgreenplanet.jpg","images/tutalien1","images/tutalien2","null","images/tutalien2","images/t.png","NA","practice","null","","","",""
"d3-animate-choice","41","1725249","0.0-41.0","3595","6340","16","Male","true","true","false","true","""event"",""trial"",""time""
""fullscreenenter"",""5"",""152790""
","
","
","""event"",""trial"",""time""
""fullscreenenter"",""5"",""152790""
","
","176.5","","49","","","3000","1","","","images/tutgreenplanet.jpg","images/tutalien1","images/tutalien2","null","images/tutalien2","images/t.png","NA","practice","null","","","",""
"d3-animate-choice","42","1727371","0.0-42.0","3595","6340","16","Male","true","true","false","true","""event"",""trial"",""time""
""fullscreenenter"",""5"",""152790""
","
","
","""event"",""trial"",""time""
""fullscreenenter"",""5"",""152790""
","
","119.09999999403954","","49","","","3000","1","2103","49","images/tutgreenplanet.jpg","images/tutalien1","images/tutalien2","null","images/tutalien2","images/t.png","NA","practice","null","","","",""
"d3-animate-choice","43","1729875","0.0-43.0","3595","6340","16","Male","true","true","false","true","""event"",""trial"",""time""
""fullscreenenter"",""5"",""152790""
","
","
","""event"",""trial"",""time""
""fullscreenenter"",""5"",""152790""
","
","500.30000001192093","","49","","","3000","1","","","images/tutgreenplanet.jpg","images/tutalien1","images/tutalien2","null","images/tutalien2","images/t.png","NA","practice","null","","","",""
"d3-instructions","44","1739361","0.0-44.0","3595","6340","16","Male","true","true","false","true","""event"",""trial"",""time""
""fullscreenenter"",""5"",""152790""
","
","
","""event"",""trial"",""time""
""fullscreenenter"",""5"",""152790""
","
","","","","","","","","","","","","","","","","","","","","","",""
"d3-instructions","45","1743105","0.0-45.0","3595","6340","16","Male","true","true","false","true","""event"",""trial"",""time""
""fullscreenenter"",""5"",""152790""
","
","
","""event"",""trial"",""time""
""fullscreenenter"",""5"",""152790""
","
","","","","","","","","","","","","","","","","","","","","","",""
"d3-instructions","46","1746425","0.0-46.0","3595","6340","16","Male","true","true","false","true","""event"",""trial"",""time""
""fullscreenenter"",""5"",""152790""
","
","
","""event"",""trial"",""time""
""fullscreenenter"",""5"",""152790""
","
","","","","","","","","","","","","","","","","","","","","","",""
"d3-instructions","47","1760217","0.0-47.0","3595","6340","16","Male","true","true","false","true","""event"",""trial"",""time""
""fullscreenenter"",""5"",""152790""
","
","
","""event"",""trial"",""time""
""fullscreenenter"",""5"",""152790""
","
","","","","","","","","","","","","","","","","","","","","","",""
"d3-instructions","48","1766953","0.0-48.0","3595","6340","16","Male","true","true","false","true","""event"",""trial"",""time""
""fullscreenenter"",""5"",""152790""
","
","
","""event"",""trial"",""time""
""fullscreenenter"",""5"",""152790""
","
","","","","","","","","","","","","","","","","","","","","","",""
"d3-instructions","49","1772273","0.0-49.0","3595","6340","16","Male","true","true","false","true","""event"",""trial"",""time""
""fullscreenenter"",""5"",""152790""
","
","
","""event"",""trial"",""time""
""fullscreenenter"",""5"",""152790""
","
","","","","","","","","","","","","","","","","","","","","","",""
"d3-instructions","50","1777009","0.0-50.0","3595","6340","16","Male","true","true","false","true","""event"",""trial"",""time""
""fullscreenenter"",""5"",""152790""
","
","
","""event"",""trial"",""time""
""fullscreenenter"",""5"",""152790""
","
","","","","","","","","","","","","","","","","","","","","","",""
"d3-instructions","51","1778889","0.0-51.0","3595","6340","16","Male","true","true","false","true","""event"",""trial"",""time""
""fullscreenenter"",""5"",""152790""
","
","
","""event"",""trial"",""time""
""fullscreenenter"",""5"",""152790""
","
","","","","","","","","","","","","","","","","","","","","","",""
"d3-instructions","52","1780225","0.0-52.0","3595","6340","16","Male","true","true","false","true","""event"",""trial"",""time""
""fullscreenenter"",""5"",""152790""
","
","
","""event"",""trial"",""time""
""fullscreenenter"",""5"",""152790""
","
","","","","","","","","","","","","","","","","","","","","","",""
"d3-instructions","53","1788329","0.0-53.0","3595","6340","16","Male","true","true","false","true","""event"",""trial"",""time""
""fullscreenenter"",""5"",""152790""
","
","
","""event"",""trial"",""time""
""fullscreenenter"",""5"",""152790""
","
","","","","","","","","","","","","","","","","","","","","","",""
"d3-instructions","54","1800297","0.0-54.0","3595","6340","16","Male","true","true","false","true","""event"",""trial"",""time""
""fullscreenenter"",""5"",""152790""
","
","
","""event"",""trial"",""time""
""fullscreenenter"",""5"",""152790""
","
","","","","","","","","","","","","","","","","","","","","","",""
"d3-instructions","55","1802849","0.0-55.0","3595","6340","16","Male","true","true","false","true","""event"",""trial"",""time""
""fullscreenenter"",""5"",""152790""
","
","
","""event"",""trial"",""time""
""fullscreenenter"",""5"",""152790""
","
","","","","","","","","","","","","","","","","","","","","","",""
"d3-instructions","56","1805297","0.0-56.0","3595","6340","16","Male","true","true","false","true","""event"",""trial"",""time""
""fullscreenenter"",""5"",""152790""
","
","
","""event"",""trial"",""time""
""fullscreenenter"",""5"",""152790""
","
","","","","","","","","","","","","","","","","","","","","","",""
"d3-instructions","57","1810793","0.0-57.0","3595","6340","16","Male","true","true","false","true","""event"",""trial"",""time""
""fullscreenenter"",""5"",""152790""
","
","
","""event"",""trial"",""time""
""fullscreenenter"",""5"",""152790""
","
","","","","","","","","","","","","","","","","","","","","","",""
"d3-instructions","58","1815192","0.0-58.0","3595","6340","16","Male","true","true","false","true","""event"",""trial"",""time""
""fullscreenenter"",""5"",""152790""
","
","
","""event"",""trial"",""time""
""fullscreenenter"",""5"",""152790""
","
","","","","","","","","","","","","","","","","","","","","","",""
"d3-instructions","59","1816992","0.0-59.0","3595","6340","16","Male","true","true","false","true","""event"",""trial"",""time""
""fullscreenenter"",""5"",""152790""
","
","
","""event"",""trial"",""time""
""fullscreenenter"",""5"",""152790""
","
","","","","","","","","","","","","","","","","","","","","","",""
"d3-instructions","60","1819752","0.0-60.0","3595","6340","16","Male","true","true","false","true","""event"",""trial"",""time""
""fullscreenenter"",""5"",""152790""
","
","
","""event"",""trial"",""time""
""fullscreenenter"",""5"",""152790""
","
","","","","","","","","","","","","","","","","","","","","","",""
"d3-animate-choice","61","1822864","0.0-61.0-0.0","3595","6340","16","Male","true","true","false","true","""event"",""trial"",""time""
""fullscreenenter"",""5"",""152790""
","
","
","""event"",""trial"",""time""
""fullscreenenter"",""5"",""152790""
","
","1094.4000000059605","","48","","","3000","1","","","images/earth.jpg","images/tutrocket2","images/tutrocket1","null","images/tutrocket2","","1","practice","null","2","","",""
"d3-animate-choice","62","1825986","0.0-61.0-1.0","3595","6340","16","Male","true","true","false","true","""event"",""trial"",""time""
""fullscreenenter"",""5"",""152790""
","
","
","""event"",""trial"",""time""
""fullscreenenter"",""5"",""152790""
","
","1116","","49","","","3000","1","","","images/tutgreenplanet.jpg","images/tutalien2","images/tutalien1","images/tutrocket2","images/tutalien1","images/nothing.png","2","practice","false","1","rare","0","2023-02-17 15:43:37.849"
"two-step-fixation","63","1826989","0.0-61.0-2.0","3595","6340","16","Male","true","true","false","true","""event"",""trial"",""time""
""fullscreenenter"",""5"",""152790""
","
","
","""event"",""trial"",""time""
""fullscreenenter"",""5"",""152790""
","
","","images/earth.jpg","","","","","","","","","","","","","","fixation","","","","","",""
"d3-animate-choice","64","1830278","0.0-61.0-0.1","3595","6340","16","Male","true","true","false","true","""event"",""trial"",""time""
""fullscreenenter"",""5"",""152790""
","
","
","""event"",""trial"",""time""
""fullscreenenter"",""5"",""152790""
","
","1273.2999999821186","","48","","","3000","1","","","images/earth.jpg","images/tutrocket2","images/tutrocket1","null","images/tutrocket2","","1","practice","null","2","","",""
"d3-animate-choice","65","1833017","0.0-61.0-1.1","3595","6340","16","Male","true","true","false","true","""event"",""trial"",""time""
""fullscreenenter"",""5"",""152790""
","
","
","""event"",""trial"",""time""
""fullscreenenter"",""5"",""152790""
","
","736.8000000119209","","49","","","3000","1","","","images/tutgreenplanet.jpg","images/tutalien2","images/tutalien1","images/tutrocket2","images/tutalien1","images/t.png","2","practice","false","1","rare","1","2023-02-17 15:43:44.880"
"two-step-fixation","66","1834019","0.0-61.0-2.1","3595","6340","16","Male","true","true","false","true","""event"",""trial"",""time""
""fullscreenenter"",""5"",""152790""
","
","
","""event"",""trial"",""time""
""fullscreenenter"",""5"",""152790""
","
","","images/earth.jpg","","","","","","","","","","","","","","fixation","","","","","",""
"d3-animate-choice","67","1836458","0.0-61.0-0.2","3595","6340","16","Male","true","true","false","true","""event"",""trial"",""time""
""fullscreenenter"",""5"",""152790""
","
","
","""event"",""trial"",""time""
""fullscreenenter"",""5"",""152790""
","
","435.19999998807907","","48","","","3000","1","","","images/earth.jpg","images/tutrocket2","images/tutrocket1","null","images/tutrocket2","","1","practice","null","2","","",""
"d3-animate-choice","68","1839306","0.0-61.0-1.2","3595","6340","16","Male","true","true","false","true","""event"",""trial"",""time""
""fullscreenenter"",""5"",""152790""
","
","
","""event"",""trial"",""time""
""fullscreenenter"",""5"",""152790""
","
","836.4000000059605","","49","","","3000","1","","","images/tutyellowplanet.jpg","images/tutalien4","images/tutalien3","images/tutrocket2","images/tutalien3","images/nothing.png","2","practice","true","1","common","0","2023-02-17 15:43:51.169"
"two-step-fixation","69","1840314","0.0-61.0-2.2","3595","6340","16","Male","true","true","false","true","""event"",""trial"",""time""
""fullscreenenter"",""5"",""152790""
","
","
","""event"",""trial"",""time""
""fullscreenenter"",""5"",""152790""
","
","","images/earth.jpg","","","","","","","","","","","","","","fixation","","","","","",""
"d3-animate-choice","70","1842641","0.0-61.0-0.3","3595","6340","16","Male","true","true","false","true","""event"",""trial"",""time""
""fullscreenenter"",""5"",""152790""
","
","
","""event"",""trial"",""time""
""fullscreenenter"",""5"",""152790""
","
","324.5","","48","","","3000","1","","","images/earth.jpg","images/tutrocket2","images/tutrocket1","null","images/tutrocket2","","1","practice","null","2","","",""
"d3-animate-choice","71","1845194","0.0-61.0-1.3","3595","6340","16","Male","true","true","false","true","""event"",""trial"",""time""
""fullscreenenter"",""5"",""152790""
","
","
","""event"",""trial"",""time""
""fullscreenenter"",""5"",""152790""
","
","549.8000000119209","","49","","","3000","1","","","images/tutyellowplanet.jpg","images/tutalien4","images/tutalien3","images/tutrocket2","images/tutalien3","images/nothing.png","2","practice","true","1","common","0","2023-02-17 15:43:57.057"
"two-step-fixation","72","1846197","0.0-61.0-2.3","3595","6340","16","Male","true","true","false","true","""event"",""trial"",""time""
""fullscreenenter"",""5"",""152790""
","
","
","""event"",""trial"",""time""
""fullscreenenter"",""5"",""152790""
","
","","images/earth.jpg","","","","","","","","","","","","","","fixation","","","","","",""
"d3-animate-choice","73","1849050","0.0-61.0-0.4","3595","6340","16","Male","true","true","false","true","""event"",""trial"",""time""
""fullscreenenter"",""5"",""152790""
","
","
","""event"",""trial"",""time""
""fullscreenenter"",""5"",""152790""
","
","849","","48","","","3000","1","","","images/earth.jpg","images/tutrocket2","images/tutrocket1","null","images/tutrocket2","","1","practice","null","2","","",""
"d3-animate-choice","74","1851505","0.0-61.0-1.4","3595","6340","16","Male","true","true","false","true","""event"",""trial"",""time""
""fullscreenenter"",""5"",""152790""
","
","
","""event"",""trial"",""time""
""fullscreenenter"",""5"",""152790""
","
","452.7999999821186","","49","","","3000","1","","","images/tutgreenplanet.jpg","images/tutalien2","images/tutalien1","images/tutrocket2","images/tutalien1","images/t.png","2","practice","false","1","rare","1","2023-02-17 15:44:03.368"
"two-step-fixation","75","1852507","0.0-61.0-2.4","3595","6340","16","Male","true","true","false","true","""event"",""trial"",""time""
""fullscreenenter"",""5"",""152790""
","
","
","""event"",""trial"",""time""
""fullscreenenter"",""5"",""152790""
","
","","images/earth.jpg","","","","","","","","","","","","","","fixation","","","","","",""
"d3-animate-choice","76","1855024","0.0-61.0-0.5","3595","6340","16","Male","true","true","false","true","""event"",""trial"",""time""
""fullscreenenter"",""5"",""152790""
","
","
","""event"",""trial"",""time""
""fullscreenenter"",""5"",""152790""
","
","514.5","","49","","","3000","1","","","images/earth.jpg","images/tutrocket2","images/tutrocket1","null","images/tutrocket1","","1","practice","null","1","","",""
"d3-animate-choice","77","1857937","0.0-61.0-1.5","3595","6340","16","Male","true","true","false","true","""event"",""trial"",""time""
""fullscreenenter"",""5"",""152790""
","
","
","""event"",""trial"",""time""
""fullscreenenter"",""5"",""152790""
","
","910.6999999880791","","49","","","3000","1","","","images/tutgreenplanet.jpg","images/tutalien2","images/tutalien1","images/tutrocket1","images/tutalien1","images/nothing.png","2","practice","true","1","common","0","2023-02-17 15:44:09.800"
"two-step-fixation","78","1858940","0.0-61.0-2.5","3595","6340","16","Male","true","true","false","true","""event"",""trial"",""time""
""fullscreenenter"",""5"",""152790""
","
","
","""event"",""trial"",""time""
""fullscreenenter"",""5"",""152790""
","
","","images/earth.jpg","","","","","","","","","","","","","","fixation","","","","","",""
"d3-animate-choice","79","1861345","0.0-61.0-0.6","3595","6340","16","Male","true","true","false","true","""event"",""trial"",""time""
""fullscreenenter"",""5"",""152790""
","
","
","""event"",""trial"",""time""
""fullscreenenter"",""5"",""152790""
","
","402.40000000596046","","48","","","3000","1","","","images/earth.jpg","images/tutrocket2","images/tutrocket1","null","images/tutrocket2","","1","practice","null","2","","",""
"d3-animate-choice","80","1863952","0.0-61.0-1.6","3595","6340","16","Male","true","true","false","true","""event"",""trial"",""time""
""fullscreenenter"",""5"",""152790""
","
","
","""event"",""trial"",""time""
""fullscreenenter"",""5"",""152790""
","
","605.1999999880791","","49","","","3000","1","","","images/tutgreenplanet.jpg","images/tutalien2","images/tutalien1","images/tutrocket2","images/tutalien1","images/t.png","2","practice","false","1","rare","1","2023-02-17 15:44:15.815"
"two-step-fixation","81","1864955","0.0-61.0-2.6","3595","6340","16","Male","true","true","false","true","""event"",""trial"",""time""
""fullscreenenter"",""5"",""152790""
","
","
","""event"",""trial"",""time""
""fullscreenenter"",""5"",""152790""
","
","","images/earth.jpg","","","","","","","","","","","","","","fixation","","","","","",""
"d3-animate-choice","82","1867049","0.0-61.0-0.7","3595","6340","16","Male","true","true","false","true","""event"",""trial"",""time""
""fullscreenenter"",""5"",""152790""
","
","
","""event"",""trial"",""time""
""fullscreenenter"",""5"",""152790""
","
","91.5","","48","","","3000","1","","","images/earth.jpg","images/tutrocket2","images/tutrocket1","null","images/tutrocket2","","1","practice","null","2","","",""
"d3-animate-choice","83","1869667","0.0-61.0-1.7","3595","6340","16","Male","true","true","false","true","""event"",""trial"",""time""
""fullscreenenter"",""5"",""152790""
","
","
","""event"",""trial"",""time""
""fullscreenenter"",""5"",""152790""
","
","613","","49","","","3000","1","","","images/tutgreenplanet.jpg","images/tutalien2","images/tutalien1","images/tutrocket2","images/tutalien1","images/nothing.png","2","practice","false","1","rare","0","2023-02-17 15:44:21.530"
"two-step-fixation","84","1870669","0.0-61.0-2.7","3595","6340","16","Male","true","true","false","true","""event"",""trial"",""time""
""fullscreenenter"",""5"",""152790""
","
","
","""event"",""trial"",""time""
""fullscreenenter"",""5"",""152790""
","
","","images/earth.jpg","","","","","","","","","","","","","","fixation","","","","","",""
"d3-animate-choice","85","1873328","0.0-61.0-0.8","3595","6340","16","Male","true","true","false","true","""event"",""trial"",""time""
""fullscreenenter"",""5"",""152790""
","
","
","""event"",""trial"",""time""
""fullscreenenter"",""5"",""152790""
","
","656.5","","48","","","3000","1","","","images/earth.jpg","images/tutrocket2","images/tutrocket1","null","images/tutrocket2","","1","practice","null","2","","",""
"d3-animate-choice","86","1876065","0.0-61.0-1.8","3595","6340","16","Male","true","true","false","true","""event"",""trial"",""time""
""fullscreenenter"",""5"",""152790""
","
","
","""event"",""trial"",""time""
""fullscreenenter"",""5"",""152790""
","
","733.5999999940395","","48","","","3000","1","","","images/tutyellowplanet.jpg","images/tutalien4","images/tutalien3","images/tutrocket2","images/tutalien4","images/t.png","2","practice","true","2","common","1","2023-02-17 15:44:27.928"
"two-step-fixation","87","1877068","0.0-61.0-2.8","3595","6340","16","Male","true","true","false","true","""event"",""trial"",""time""
""fullscreenenter"",""5"",""152790""
","
","
","""event"",""trial"",""time""
""fullscreenenter"",""5"",""152790""
","
","","images/earth.jpg","","","","","","","","","","","","","","fixation","","","","","",""
"d3-animate-choice","88","1879801","0.0-61.0-0.9","3595","6340","16","Male","true","true","false","true","""event"",""trial"",""time""
""fullscreenenter"",""5"",""152790""
","
","
","""event"",""trial"",""time""
""fullscreenenter"",""5"",""152790""
","
","730.0999999940395","","49","","","3000","1","","","images/earth.jpg","images/tutrocket2","images/tutrocket1","null","images/tutrocket1","","1","practice","null","1","","",""
"d3-animate-choice","89","1882353","0.0-61.0-1.9","3595","6340","16","Male","true","true","false","true","""event"",""trial"",""time""
""fullscreenenter"",""5"",""152790""
","
","
","""event"",""trial"",""time""
""fullscreenenter"",""5"",""152790""
","
","548.3000000119209","","49","","","3000","1","","","images/tutgreenplanet.jpg","images/tutalien2","images/tutalien1","images/tutrocket1","images/tutalien1","images/nothing.png","2","practice","true","1","common","0","2023-02-17 15:44:34.216"
"two-step-fixation","90","1883355","0.0-61.0-2.9","3595","6340","16","Male","true","true","false","true","""event"",""trial"",""time""
""fullscreenenter"",""5"",""152790""
","
","
","""event"",""trial"",""time""
""fullscreenenter"",""5"",""152790""
","
","","images/earth.jpg","","","","","","","","","","","","","","fixation","","","","","",""
"d3-animate-choice","91","1886601","0.0-61.0-0.10","3595","6340","16","Male","true","true","false","true","""event"",""trial"",""time""
""fullscreenenter"",""5"",""152790""
","
","
","""event"",""trial"",""time""
""fullscreenenter"",""5"",""152790""
","
","1243","","49","","","3000","1","","","images/earth.jpg","images/tutrocket2","images/tutrocket1","null","images/tutrocket1","","1","practice","null","1","","",""
"d3-animate-choice","92","1889505","0.0-61.0-1.10","3595","6340","16","Male","true","true","false","true","""event"",""trial"",""time""
""fullscreenenter"",""5"",""152790""
","
","
","""event"",""trial"",""time""
""fullscreenenter"",""5"",""152790""
","
","900.4000000059605","","48","","","3000","1","","","images/tutgreenplanet.jpg","images/tutalien2","images/tutalien1","images/tutrocket1","images/tutalien2","images/t.png","2","practice","true","2","common","1","2023-02-17 15:44:41.368"
"two-step-fixation","93","1890508","0.0-61.0-2.10","3595","6340","16","Male","true","true","false","true","""event"",""trial"",""time""
""fullscreenenter"",""5"",""152790""
","
","
","""event"",""trial"",""time""
""fullscreenenter"",""5"",""152790""
","
","","images/earth.jpg","","","","","","","","","","","","","","fixation","","","","","",""
"d3-animate-choice","94","1893137","0.0-61.0-0.11","3595","6340","16","Male","true","true","false","true","""event"",""trial"",""time""
""fullscreenenter"",""5"",""152790""
","
","
","""event"",""trial"",""time""
""fullscreenenter"",""5"",""152790""
","
","626.7000000178814","","48","","","3000","1","","","images/earth.jpg","images/tutrocket2","images/tutrocket1","null","images/tutrocket2","","1","practice","null","2","","",""
"d3-animate-choice","95","1895656","0.0-61.0-1.11","3595","6340","16","Male","true","true","false","true","""event"",""trial"",""time""
""fullscreenenter"",""5"",""152790""
","
","
","""event"",""trial"",""time""
""fullscreenenter"",""5"",""152790""
","
","516.4000000059605","","48","","","3000","1","","","images/tutyellowplanet.jpg","images/tutalien4","images/tutalien3","images/tutrocket2","images/tutalien4","images/t.png","2","practice","true","2","common","1","2023-02-17 15:44:47.519"
"two-step-fixation","96","1896658","0.0-61.0-2.11","3595","6340","16","Male","true","true","false","true","""event"",""trial"",""time""
""fullscreenenter"",""5"",""152790""
","
","
","""event"",""trial"",""time""
""fullscreenenter"",""5"",""152790""
","
","","images/earth.jpg","","","","","","","","","","","","","","fixation","","","","","",""
"d3-animate-choice","97","1899297","0.0-61.0-0.12","3595","6340","16","Male","true","true","false","true","""event"",""trial"",""time""
""fullscreenenter"",""5"",""152790""
","
","
","""event"",""trial"",""time""
""fullscreenenter"",""5"",""152790""
","
","635.5999999940395","","48","","","3000","1","","","images/earth.jpg","images/tutrocket2","images/tutrocket1","null","images/tutrocket2","","1","practice","null","2","","",""
"d3-animate-choice","98","1901801","0.0-61.0-1.12","3595","6340","16","Male","true","true","false","true","""event"",""trial"",""time""
""fullscreenenter"",""5"",""152790""
","
","
","""event"",""trial"",""time""
""fullscreenenter"",""5"",""152790""
","
","500.40000000596046","","48","","","3000","1","","","images/tutyellowplanet.jpg","images/tutalien4","images/tutalien3","images/tutrocket2","images/tutalien4","images/t.png","2","practice","true","2","common","1","2023-02-17 15:44:53.664"
"two-step-fixation","99","1902805","0.0-61.0-2.12","3595","6340","16","Male","true","true","false","true","""event"",""trial"",""time""
""fullscreenenter"",""5"",""152790""
","
","
","""event"",""trial"",""time""
""fullscreenenter"",""5"",""152790""
","
","","images/earth.jpg","","","","","","","","","","","","","","fixation","","","","","",""
"d3-animate-choice","100","1905145","0.0-61.0-0.13","3595","6340","16","Male","true","true","false","true","""event"",""trial"",""time""
""fullscreenenter"",""5"",""152790""
","
","
","""event"",""trial"",""time""
""fullscreenenter"",""5"",""152790""
","
","337.19999998807907","","49","","","3000","1","","","images/earth.jpg","images/tutrocket2","images/tutrocket1","null","images/tutrocket1","","1","practice","null","1","","",""
"d3-animate-choice","101","1908009","0.0-61.0-1.13","3595","6340","16","Male","true","true","false","true","""event"",""trial"",""time""
""fullscreenenter"",""5"",""152790""
","
","
","""event"",""trial"",""time""
""fullscreenenter"",""5"",""152790""
","
","860.2000000178814","","49","","","3000","1","","","images/tutgreenplanet.jpg","images/tutalien2","images/tutalien1","images/tutrocket1","images/tutalien1","images/nothing.png","2","practice","true","1","common","0","2023-02-17 15:44:59.872"
"two-step-fixation","102","1909011","0.0-61.0-2.13","3595","6340","16","Male","true","true","false","true","""event"",""trial"",""time""
""fullscreenenter"",""5"",""152790""
","
","
","""event"",""trial"",""time""
""fullscreenenter"",""5"",""152790""
","
","","images/earth.jpg","","","","","","","","","","","","","","fixation","","","","","",""
"d3-animate-choice","103","1911313","0.0-61.0-0.14","3595","6340","16","Male","true","true","false","true","""event"",""trial"",""time""
""fullscreenenter"",""5"",""152790""
","
","
","""event"",""trial"",""time""
""fullscreenenter"",""5"",""152790""
","
","298.2999999821186","","48","","","3000","1","","","images/earth.jpg","images/tutrocket2","images/tutrocket1","null","images/tutrocket2","","1","practice","null","2","","",""
"d3-animate-choice","104","1913841","0.0-61.0-1.14","3595","6340","16","Male","true","true","false","true","""event"",""trial"",""time""
""fullscreenenter"",""5"",""152790""
","
","
","""event"",""trial"",""time""
""fullscreenenter"",""5"",""152790""
","
","525","","48","","","3000","1","","","images/tutyellowplanet.jpg","images/tutalien4","images/tutalien3","images/tutrocket2","images/tutalien4","images/t.png","2","practice","true","2","common","1","2023-02-17 15:45:05.704"
"two-step-fixation","105","1914843","0.0-61.0-2.14","3595","6340","16","Male","true","true","false","true","""event"",""trial"",""time""
""fullscreenenter"",""5"",""152790""
","
","
","""event"",""trial"",""time""
""fullscreenenter"",""5"",""152790""
","
","","images/earth.jpg","","","","","","","","","","","","","","fixation","","","","","",""
"d3-animate-choice","106","1917441","0.0-61.0-0.15","3595","6340","16","Male","true","true","false","true","""event"",""trial"",""time""
""fullscreenenter"",""5"",""152790""
","
","
","""event"",""trial"",""time""
""fullscreenenter"",""5"",""152790""
","
","594.9000000059605","","49","","","3000","1","","","images/earth.jpg","images/tutrocket2","images/tutrocket1","null","images/tutrocket1","","1","practice","null","1","","",""
"d3-animate-choice","107","1920400","0.0-61.0-1.15","3595","6340","16","Male","true","true","false","true","""event"",""trial"",""time""
""fullscreenenter"",""5"",""152790""
","
","
","""event"",""trial"",""time""
""fullscreenenter"",""5"",""152790""
","
","956.9000000059605","","48","","","3000","1","","","images/tutgreenplanet.jpg","images/tutalien2","images/tutalien1","images/tutrocket1","images/tutalien2","images/nothing.png","2","practice","true","2","common","0","2023-02-17 15:45:12.263"
"two-step-fixation","108","1921403","0.0-61.0-2.15","3595","6340","16","Male","true","true","false","true","""event"",""trial"",""time""
""fullscreenenter"",""5"",""152790""
","
","
","""event"",""trial"",""time""
""fullscreenenter"",""5"",""152790""
","
","","images/earth.jpg","","","","","","","","","","","","","","fixation","","","","","",""
"d3-animate-choice","109","1923792","0.0-61.0-0.16","3595","6340","16","Male","true","true","false","true","""event"",""trial"",""time""
""fullscreenenter"",""5"",""152790""
","
","
","""event"",""trial"",""time""
""fullscreenenter"",""5"",""152790""
","
","386.30000001192093","","48","","","3000","1","","","images/earth.jpg","images/tutrocket2","images/tutrocket1","null","images/tutrocket2","","1","practice","null","2","","",""
"d3-animate-choice","110","1926514","0.0-61.0-1.16","3595","6340","16","Male","true","true","false","true","""event"",""trial"",""time""
""fullscreenenter"",""5"",""152790""
","
","
","""event"",""trial"",""time""
""fullscreenenter"",""5"",""152790""
","
","717.3000000119209","","49","","","3000","1","","","images/tutgreenplanet.jpg","images/tutalien2","images/tutalien1","images/tutrocket2","images/tutalien1","images/nothing.png","2","practice","false","1","rare","0","2023-02-17 15:45:18.377"
"two-step-fixation","111","1927516","0.0-61.0-2.16","3595","6340","16","Male","true","true","false","true","""event"",""trial"",""time""
""fullscreenenter"",""5"",""152790""
","
","
","""event"",""trial"",""time""
""fullscreenenter"",""5"",""152790""
","
","","images/earth.jpg","","","","","","","","","","","","","","fixation","","","","","",""
"d3-animate-choice","112","1930096","0.0-61.0-0.17","3595","6340","16","Male","true","true","false","true","""event"",""trial"",""time""
""fullscreenenter"",""5"",""152790""
","
","
","""event"",""trial"",""time""
""fullscreenenter"",""5"",""152790""
","
","578.1000000238419","","49","","","3000","1","","","images/earth.jpg","images/tutrocket2","images/tutrocket1","null","images/tutrocket1","","1","practice","null","1","","",""
"d3-animate-choice","113","1932848","0.0-61.0-1.17","3595","6340","16","Male","true","true","false","true","""event"",""trial"",""time""
""fullscreenenter"",""5"",""152790""
","
","
","""event"",""trial"",""time""
""fullscreenenter"",""5"",""152790""
","
","749","","49","","","3000","1","","","images/tutgreenplanet.jpg","images/tutalien2","images/tutalien1","images/tutrocket1","images/tutalien1","images/nothing.png","2","practice","true","1","common","0","2023-02-17 15:45:24.711"
"two-step-fixation","114","1933850","0.0-61.0-2.17","3595","6340","16","Male","true","true","false","true","""event"",""trial"",""time""
""fullscreenenter"",""5"",""152790""
","
","
","""event"",""trial"",""time""
""fullscreenenter"",""5"",""152790""
","
","","images/earth.jpg","","","","","","","","","","","","","","fixation","","","","","",""
"d3-animate-choice","115","1936496","0.0-61.0-0.18","3595","6340","16","Male","true","true","false","true","""event"",""trial"",""time""
""fullscreenenter"",""5"",""152790""
","
","
","""event"",""trial"",""time""
""fullscreenenter"",""5"",""152790""
","
","643.8000000119209","","48","","","3000","1","","","images/earth.jpg","images/tutrocket2","images/tutrocket1","null","images/tutrocket2","","1","practice","null","2","","",""
"d3-animate-choice","116","1938895","0.0-61.0-1.18","3595","6340","16","Male","true","true","false","true","""event"",""trial"",""time""
""fullscreenenter"",""5"",""152790""
","
","
","""event"",""trial"",""time""
""fullscreenenter"",""5"",""152790""
","
","397.2000000178814","","48","","","3000","1","","","images/tutyellowplanet.jpg","images/tutalien4","images/tutalien3","images/tutrocket2","images/tutalien4","images/t.png","2","practice","true","2","common","1","2023-02-17 15:45:30.759"
"two-step-fixation","117","1939898","0.0-61.0-2.18","3595","6340","16","Male","true","true","false","true","""event"",""trial"",""time""
""fullscreenenter"",""5"",""152790""
","
","
","""event"",""trial"",""time""
""fullscreenenter"",""5"",""152790""
","
","","images/earth.jpg","","","","","","","","","","","","","","fixation","","","","","",""
"d3-animate-choice","118","1942201","0.0-61.0-0.19","3595","6340","16","Male","true","true","false","true","""event"",""trial"",""time""
""fullscreenenter"",""5"",""152790""
","
","
","""event"",""trial"",""time""
""fullscreenenter"",""5"",""152790""
","
","299.5","","48","","","3000","1","","","images/earth.jpg","images/tutrocket2","images/tutrocket1","null","images/tutrocket2","","1","practice","null","2","","",""
"d3-animate-choice","119","1944655","0.0-61.0-1.19","3595","6340","16","Male","true","true","false","true","""event"",""trial"",""time""
""fullscreenenter"",""5"",""152790""
","
","
","""event"",""trial"",""time""
""fullscreenenter"",""5"",""152790""
","
","451.7999999821186","","48","","","3000","1","","","images/tutgreenplanet.jpg","images/tutalien2","images/tutalien1","images/tutrocket2","images/tutalien2","images/nothing.png","2","practice","false","2","rare","0","2023-02-17 15:45:36.518"
"two-step-fixation","120","1945658","0.0-61.0-2.19","3595","6340","16","Male","true","true","false","true","""event"",""trial"",""time""
""fullscreenenter"",""5"",""152790""
","
","
","""event"",""trial"",""time""
""fullscreenenter"",""5"",""152790""
","
","","images/earth.jpg","","","","","","","","","","","","","","fixation","","","","","",""
"d3-instructions","121","1950840","0.0-62.0","3595","6340","16","Male","true","true","false","true","""event"",""trial"",""time""
""fullscreenenter"",""5"",""152790""
","
","
","""event"",""trial"",""time""
""fullscreenenter"",""5"",""152790""
","
","","","","","","","","","","","","","","","","","","","","","",""
"audio-keyboard-response","122","1952967","0.0-63.0","3595","6340","16","Male","true","true","false","true","""event"",""trial"",""time""
""fullscreenenter"",""5"",""152790""
","
","
","""event"",""trial"",""time""
""fullscreenenter"",""5"",""152790""
","
","2131","audio/instructions/treasure_feedback.wav","32","","","","","","","","","","","","","","","","","","",""
"d3-instructions","123","1961391","0.0-64.0","3595","6340","16","Male","true","true","false","true","""event"",""trial"",""time""
""fullscreenenter"",""5"",""152790""
","
","
","""event"",""trial"",""time""
""fullscreenenter"",""5"",""152790""
","
","","","","","","","","","","","","","","","","","","","","","",""
"d3-instructions","124","1969999","0.0-65.0","3595","6340","16","Male","true","true","false","true","""event"",""trial"",""time""
""fullscreenenter"",""5"",""152790""
","
","
","""event"",""trial"",""time""
""fullscreenenter"",""5"",""152790""
","
","","","","","","","","","","","","","","","","","","","","","",""
"d3-instructions","125","1977287","0.0-66.0","3595","6340","16","Male","true","true","false","true","""event"",""trial"",""time""
""fullscreenenter"",""5"",""152790""
","
","
","""event"",""trial"",""time""
""fullscreenenter"",""5"",""152790""
","
","","","","","","","","","","","","","","","","","","","","","",""
"d3-instructions","126","1989326","0.0-67.0","3595","6340","16","Male","true","true","false","true","""event"",""trial"",""time""
""fullscreenenter"",""5"",""152790""
","
","
","""event"",""trial"",""time""
""fullscreenenter"",""5"",""152790""
","
","","","","","","","","","","","","","","","","","","","","","",""
"d3-instructions","127","1992303","0.0-68.0","3595","6340","16","Male","true","true","false","true","""event"",""trial"",""time""
""fullscreenenter"",""5"",""152790""
","
","
","""event"",""trial"",""time""
""fullscreenenter"",""5"",""152790""
","
","","","","","","","","","","","","","","","","","","","","","",""
"instructions-quiz","128","1994780","0.0-69.0","3595","6340","16","Male","true","true","false","true","""event"",""trial"",""time""
""fullscreenenter"",""5"",""152790""
","
","
","""event"",""trial"",""time""
""fullscreenenter"",""5"",""152790""
","
","2475.9000000059605","audio/quiz/Q1_Prompt.wav","","1","","","","","","","","","","","","","","","","","",""
"audio-keyboard-response","129","1995942","0.0-70.0","3595","6340","16","Male","true","true","false","true","""event"",""trial"",""time""
""fullscreenenter"",""5"",""152790""
","
","
","""event"",""trial"",""time""
""fullscreenenter"",""5"",""152790""
","
","1160","audio/quiz/Q1_Correct.wav","32","","","","","","","","","","","","","","","","","","",""
"instructions-quiz","130","2002994","0.0-71.0","3595","6340","16","Male","true","true","false","true","""event"",""trial"",""time""
""fullscreenenter"",""5"",""152790""
","
","
","""event"",""trial"",""time""
""fullscreenenter"",""5"",""152790""
","
","7050.4000000059605","audio/quiz/Q2_Prompt.wav","","0","","","","","","","","","","","","","","","","","",""
"audio-keyboard-response","131","2003686","0.0-72.0","3595","6340","16","Male","true","true","false","true","""event"",""trial"",""time""
""fullscreenenter"",""5"",""152790""
","
","
","""event"",""trial"",""time""
""fullscreenenter"",""5"",""152790""
","
","691","audio/quiz/Q2_Correct.wav","32","","","","","","","","","","","","","","","","","","",""
"instructions-quiz","132","2007099","0.0-73.0","3595","6340","16","Male","true","true","false","true","""event"",""trial"",""time""
""fullscreenenter"",""5"",""152790""
","
","
","""event"",""trial"",""time""
""fullscreenenter"",""5"",""152790""
","
","3411.699999988079","audio/quiz/Q3_Prompt.wav","","1","","","","","","","","","","","","","","","","","",""
"audio-keyboard-response","133","2007254","0.0-74.0","3595","6340","16","Male","true","true","false","true","""event"",""trial"",""time""
""fullscreenenter"",""5"",""152790""
","
","
","""event"",""trial"",""time""
""fullscreenenter"",""5"",""152790""
","
","160","audio/quiz/Q3_Correct.wav","32","","","","","","","","","","","","","","","","","","",""
"d3-instructions","134","2015575","0.0-75.0","3595","6340","16","Male","true","true","false","true","""event"",""trial"",""time""
""fullscreenenter"",""5"",""152790""
","
","
","""event"",""trial"",""time""
""fullscreenenter"",""5"",""152790""
","
","","","","","","","","","","","","","","","","","","","","","",""
"pavlovia","135","2015578","0.0-76.0","3595","6340","16","Male","true","true","false","true","""event"",""trial"",""time""
""fullscreenenter"",""5"",""152790""
","
","
","""event"",""trial"",""time""
""fullscreenenter"",""5"",""152790""
","
","","","","","","","","","","","","","","","","","","","","","",""
"d3-animate-choice","136","2019095","0.0-77.0-0.0","3595","6340","16","Male","true","true","false","true","""event"",""trial"",""time""
""fullscreenenter"",""5"",""152790""
","
","
","""event"",""trial"",""time""
""fullscreenenter"",""5"",""152790""
","
","1514.300000011921","","49","","","3000","1","","","images/earth.jpg","images/rocket2","images/rocket1","null","images/rocket1","","1","real","null","1","","",""
"d3-animate-choice","137","2022007","0.0-77.0-1.0","3595","6340","16","Male","true","true","false","true","""event"",""trial"",""time""
""fullscreenenter"",""5"",""152790""
","
","
","""event"",""trial"",""time""
""fullscreenenter"",""5"",""152790""
","
","908.8000000119209","","49","","","3000","1","","","images/redplanet1.jpg","images/alien2","images/alien1","images/rocket1","images/alien1","images/nothing.png","2","real","true","1","common","0","2023-02-17 15:46:53.870"
"two-step-fixation","138","2023010","0.0-77.0-2.0","3595","6340","16","Male","true","true","false","true","""event"",""trial"",""time""
""fullscreenenter"",""5"",""152790""
","
","
","""event"",""trial"",""time""
""fullscreenenter"",""5"",""152790""
","
","","images/earth.jpg","","","","","","","","","","","","","","fixation","","","","","",""
"d3-animate-choice","139","2025609","0.0-77.0-0.1","3595","6340","16","Male","true","true","false","true","""event"",""trial"",""time""
""fullscreenenter"",""5"",""152790""
","
","
","""event"",""trial"",""time""
""fullscreenenter"",""5"",""152790""
","
","586.9000000059605","","49","","","3000","1","","","images/earth.jpg","images/rocket2","images/rocket1","null","images/rocket1","","1","real","null","1","","",""
"d3-animate-choice","140","2028621","0.0-77.0-1.1","3595","6340","16","Male","true","true","false","true","""event"",""trial"",""time""
""fullscreenenter"",""5"",""152790""
","
","
","""event"",""trial"",""time""
""fullscreenenter"",""5"",""152790""
","
","1003.8000000119209","","48","","","3000","1","","","images/redplanet1.jpg","images/alien2","images/alien1","images/rocket1","images/alien2","images/t.png","2","real","true","2","common","1","2023-02-17 15:47:00.484"
"two-step-fixation","141","2029624","0.0-77.0-2.1","3595","6340","16","Male","true","true","false","true","""event"",""trial"",""time""
""fullscreenenter"",""5"",""152790""
","
","
","""event"",""trial"",""time""
""fullscreenenter"",""5"",""152790""
","
","","images/earth.jpg","","","","","","","","","","","","","","fixation","","","","","",""
"d3-animate-choice","142","2032528","0.0-77.0-0.2","3595","6340","16","Male","true","true","false","true","""event"",""trial"",""time""
""fullscreenenter"",""5"",""152790""
","
","
","""event"",""trial"",""time""
""fullscreenenter"",""5"",""152790""
","
","900.5","","48","","","3000","1","","","images/earth.jpg","images/rocket2","images/rocket1","null","images/rocket2","","1","real","null","2","","",""
"d3-animate-choice","143","2035879","0.0-77.0-1.2","3595","6340","16","Male","true","true","false","true","""event"",""trial"",""time""
""fullscreenenter"",""5"",""152790""
","
","
","""event"",""trial"",""time""
""fullscreenenter"",""5"",""152790""
","
","1347.7999999821186","","48","","","3000","1","","","images/redplanet1.jpg","images/alien2","images/alien1","images/rocket2","images/alien2","images/t.png","2","real","false","2","rare","1","2023-02-17 15:47:07.742"
"two-step-fixation","144","2036881","0.0-77.0-2.2","3595","6340","16","Male","true","true","false","true","""event"",""trial"",""time""
""fullscreenenter"",""5"",""152790""
","
","
","""event"",""trial"",""time""
""fullscreenenter"",""5"",""152790""
","
","","images/earth.jpg","","","","","","","","","","","","","","fixation","","","","","",""
"d3-animate-choice","145","2039351","0.0-77.0-0.3","3595","6340","16","Male","true","true","false","true","""event"",""trial"",""time""
""fullscreenenter"",""5"",""152790""
","
","
","""event"",""trial"",""time""
""fullscreenenter"",""5"",""152790""
","
","467.59999999403954","","49","","","3000","1","","","images/earth.jpg","images/rocket2","images/rocket1","null","images/rocket1","","1","real","null","1","","",""
"d3-animate-choice","146","2041967","0.0-77.0-1.3","3595","6340","16","Male","true","true","false","true","""event"",""trial"",""time""
""fullscreenenter"",""5"",""152790""
","
","
","""event"",""trial"",""time""
""fullscreenenter"",""5"",""152790""
","
","613.4000000059605","","48","","","3000","1","","","images/redplanet1.jpg","images/alien2","images/alien1","images/rocket1","images/alien2","images/t.png","2","real","true","2","common","1","2023-02-17 15:47:13.830"
"two-step-fixation","147","2042970","0.0-77.0-2.3","3595","6340","16","Male","true","true","false","true","""event"",""trial"",""time""
""fullscreenenter"",""5"",""152790""
","
","
","""event"",""trial"",""time""
""fullscreenenter"",""5"",""152790""
","
","","images/earth.jpg","","","","","","","","","","","","","","fixation","","","","","",""
"d3-animate-choice","148","2045613","0.0-77.0-0.4","3595","6340","16","Male","true","true","false","true","""event"",""trial"",""time""
""fullscreenenter"",""5"",""152790""
","
","
","""event"",""trial"",""time""
""fullscreenenter"",""5"",""152790""
","
","634.2999999821186","","48","","","3000","1","","","images/earth.jpg","images/rocket2","images/rocket1","null","images/rocket2","","1","real","null","2","","",""
"d3-animate-choice","149","2048399","0.0-77.0-1.4","3595","6340","16","Male","true","true","false","true","""event"",""trial"",""time""
""fullscreenenter"",""5"",""152790""
","
","
","""event"",""trial"",""time""
""fullscreenenter"",""5"",""152790""
","
","783.1999999880791","","48","","","3000","1","","","images/purpleplanet.jpg","images/alien4","images/alien3","images/rocket2","images/alien4","images/nothing.png","2","real","true","2","common","0","2023-02-17 15:47:20.262"
"two-step-fixation","150","2049402","0.0-77.0-2.4","3595","6340","16","Male","true","true","false","true","""event"",""trial"",""time""
""fullscreenenter"",""5"",""152790""
","
","
","""event"",""trial"",""time""
""fullscreenenter"",""5"",""152790""
","
","","images/earth.jpg","","","","","","","","","","","","","","fixation","","","","","",""
"d3-animate-choice","151","2051800","0.0-77.0-0.5","3595","6340","16","Male","true","true","false","true","""event"",""trial"",""time""
""fullscreenenter"",""5"",""152790""
","
","
","""event"",""trial"",""time""
""fullscreenenter"",""5"",""152790""
","
","394.90000000596046","","49","","","3000","1","578.1999999880791","49","images/earth.jpg","images/rocket2","images/rocket1","null","images/rocket1","","1","real","null","1","","",""
"d3-animate-choice","152","2054287","0.0-77.0-1.5","3595","6340","16","Male","true","true","false","true","""event"",""trial"",""time""
""fullscreenenter"",""5"",""152790""
","
","
","""event"",""trial"",""time""
""fullscreenenter"",""5"",""152790""
","
","483.80000001192093","","48","","","3000","1","","","images/redplanet1.jpg","images/alien2","images/alien1","images/rocket1","images/alien2","images/nothing.png","2","real","true","2","common","0","2023-02-17 15:47:26.150"
"two-step-fixation","153","2055289","0.0-77.0-2.5","3595","6340","16","Male","true","true","false","true","""event"",""trial"",""time""
""fullscreenenter"",""5"",""152790""
","
","
","""event"",""trial"",""time""
""fullscreenenter"",""5"",""152790""
","
","","images/earth.jpg","","","","","","","","","","","","","","fixation","","","","","",""
"d3-animate-choice","154","2057504","0.0-77.0-0.6","3595","6340","16","Male","true","true","false","true","""event"",""trial"",""time""
""fullscreenenter"",""5"",""152790""
","
","
","""event"",""trial"",""time""
""fullscreenenter"",""5"",""152790""
","
","211.19999998807907","","49","","","3000","1","419","49","images/earth.jpg","images/rocket2","images/rocket1","null","images/rocket1","","1","real","null","1","","",""
"d3-animate-choice","155","2060039","0.0-77.0-1.6","3595","6340","16","Male","true","true","false","true","""event"",""trial"",""time""
""fullscreenenter"",""5"",""152790""
","
","
","""event"",""trial"",""time""
""fullscreenenter"",""5"",""152790""
","
","532.5","","48","","","3000","1","","","images/redplanet1.jpg","images/alien2","images/alien1","images/rocket1","images/alien2","images/t.png","2","real","true","2","common","1","2023-02-17 15:47:31.902"
"two-step-fixation","156","2061041","0.0-77.0-2.6","3595","6340","16","Male","true","true","false","true","""event"",""trial"",""time""
""fullscreenenter"",""5"",""152790""
","
","
","""event"",""trial"",""time""
""fullscreenenter"",""5"",""152790""
","
","","images/earth.jpg","","","","","","","","","","","","","","fixation","","","","","",""
"d3-animate-choice","157","2063465","0.0-77.0-0.7","3595","6340","16","Male","true","true","false","true","""event"",""trial"",""time""
""fullscreenenter"",""5"",""152790""
","
","
","""event"",""trial"",""time""
""fullscreenenter"",""5"",""152790""
","
","420","","49","","","3000","1","","","images/earth.jpg","images/rocket2","images/rocket1","null","images/rocket1","","1","real","null","1","","",""
"d3-animate-choice","158","2065958","0.0-77.0-1.7","3595","6340","16","Male","true","true","false","true","""event"",""trial"",""time""
""fullscreenenter"",""5"",""152790""
","
","
","""event"",""trial"",""time""
""fullscreenenter"",""5"",""152790""
","
","490.90000000596046","","48","","","3000","1","","","images/redplanet1.jpg","images/alien2","images/alien1","images/rocket1","images/alien2","images/nothing.png","2","real","true","2","common","0","2023-02-17 15:47:37.821"
"two-step-fixation","159","2066961","0.0-77.0-2.7","3595","6340","16","Male","true","true","false","true","""event"",""trial"",""time""
""fullscreenenter"",""5"",""152790""
","
","
","""event"",""trial"",""time""
""fullscreenenter"",""5"",""152790""
","
","","images/earth.jpg","","","","","","","","","","","","","","fixation","","","","","",""
"d3-animate-choice","160","2069271","0.0-77.0-0.8","3595","6340","16","Male","true","true","false","true","""event"",""trial"",""time""
""fullscreenenter"",""5"",""152790""
","
","
","""event"",""trial"",""time""
""fullscreenenter"",""5"",""152790""
","
","306.19999998807907","","49","","","3000","1","","","images/earth.jpg","images/rocket2","images/rocket1","null","images/rocket1","","1","real","null","1","","",""
"d3-animate-choice","161","2071894","0.0-77.0-1.8","3595","6340","16","Male","true","true","false","true","""event"",""trial"",""time""
""fullscreenenter"",""5"",""152790""
","
","
","""event"",""trial"",""time""
""fullscreenenter"",""5"",""152790""
","
","620.7999999821186","","48","","","3000","1","","","images/redplanet1.jpg","images/alien2","images/alien1","images/rocket1","images/alien2","images/t.png","2","real","true","2","common","1","2023-02-17 15:47:43.757"
"two-step-fixation","162","2072898","0.0-77.0-2.8","3595","6340","16","Male","true","true","false","true","""event"",""trial"",""time""
""fullscreenenter"",""5"",""152790""
","
","
","""event"",""trial"",""time""
""fullscreenenter"",""5"",""152790""
","
","","images/earth.jpg","","","","","","","","","","","","","","fixation","","","","","",""
"d3-animate-choice","163","2075336","0.0-77.0-0.9","3595","6340","16","Male","true","true","false","true","""event"",""trial"",""time""
""fullscreenenter"",""5"",""152790""
","
","
","""event"",""trial"",""time""
""fullscreenenter"",""5"",""152790""
","
","433.80000001192093","","48","","","3000","1","","","images/earth.jpg","images/rocket2","images/rocket1","null","images/rocket2","","1","real","null","2","","",""
"d3-animate-choice","164","2078504","0.0-77.0-1.9","3595","6340","16","Male","true","true","false","true","""event"",""trial"",""time""
""fullscreenenter"",""5"",""152790""
","
","
","""event"",""trial"",""time""
""fullscreenenter"",""5"",""152790""
","
","1164.0999999940395","","49","","","3000","1","","","images/purpleplanet.jpg","images/alien4","images/alien3","images/rocket2","images/alien3","images/nothing.png","2","real","true","1","common","0","2023-02-17 15:47:50.367"
"two-step-fixation","165","2079507","0.0-77.0-2.9","3595","6340","16","Male","true","true","false","true","""event"",""trial"",""time""
""fullscreenenter"",""5"",""152790""
","
","
","""event"",""trial"",""time""
""fullscreenenter"",""5"",""152790""
","
","","images/earth.jpg","","","","","","","","","","","","","","fixation","","","","","",""
"d3-animate-choice","166","2082623","0.0-77.0-0.10","3595","6340","16","Male","true","true","false","true","""event"",""trial"",""time""
""fullscreenenter"",""5"",""152790""
","
","
","""event"",""trial"",""time""
""fullscreenenter"",""5"",""152790""
","
","1112.699999988079","","49","","","3000","1","","","images/earth.jpg","images/rocket2","images/rocket1","null","images/rocket1","","1","real","null","1","","",""
"d3-animate-choice","167","2085127","0.0-77.0-1.10","3595","6340","16","Male","true","true","false","true","""event"",""trial"",""time""
""fullscreenenter"",""5"",""152790""
","
","
","""event"",""trial"",""time""
""fullscreenenter"",""5"",""152790""
","
","501.19999998807907","","48","","","3000","1","","","images/purpleplanet.jpg","images/alien4","images/alien3","images/rocket1","images/alien4","images/t.png","2","real","false","2","rare","1","2023-02-17 15:47:56.990"
"two-step-fixation","168","2086129","0.0-77.0-2.10","3595","6340","16","Male","true","true","false","true","""event"",""trial"",""time""
""fullscreenenter"",""5"",""152790""
","
","
","""event"",""trial"",""time""
""fullscreenenter"",""5"",""152790""
","
","","images/earth.jpg","","","","","","","","","","","","","","fixation","","","","","",""
"d3-animate-choice","169","2089738","0.0-77.0-0.11","3595","6340","16","Male","true","true","false","true","""event"",""trial"",""time""
""fullscreenenter"",""5"",""152790""
","
","
","""event"",""trial"",""time""
""fullscreenenter"",""5"",""152790""
","
","1602.9000000059605","","48","","","3000","1","2818,3081.9000000059605","48,48","images/earth.jpg","images/rocket2","images/rocket1","null","images/rocket2","","1","real","null","2","","",""
"d3-animate-choice","170","2092215","0.0-77.0-1.11","3595","6340","16","Male","true","true","false","true","""event"",""trial"",""time""
""fullscreenenter"",""5"",""152790""
","
","
","""event"",""trial"",""time""
""fullscreenenter"",""5"",""152790""
","
","473.59999999403954","","48","","","3000","1","","","images/purpleplanet.jpg","images/alien4","images/alien3","images/rocket2","images/alien4","images/t.png","2","real","true","2","common","1","2023-02-17 15:48:04.078"
"two-step-fixation","171","2093218","0.0-77.0-2.11","3595","6340","16","Male","true","true","false","true","""event"",""trial"",""time""
""fullscreenenter"",""5"",""152790""
","
","
","""event"",""trial"",""time""
""fullscreenenter"",""5"",""152790""
","
","","images/earth.jpg","","","","","","","","","","","","","","fixation","","","","","",""
"d3-animate-choice","172","2095736","0.0-77.0-0.12","3595","6340","16","Male","true","true","false","true","""event"",""trial"",""time""
""fullscreenenter"",""5"",""152790""
","
","
","""event"",""trial"",""time""
""fullscreenenter"",""5"",""152790""
","
","513.8999999761581","","48","","","3000","1","","","images/earth.jpg","images/rocket2","images/rocket1","null","images/rocket2","","1","real","null","2","","",""
"d3-animate-choice","173","2098414","0.0-77.0-1.12","3595","6340","16","Male","true","true","false","true","""event"",""trial"",""time""
""fullscreenenter"",""5"",""152790""
","
","
","""event"",""trial"",""time""
""fullscreenenter"",""5"",""152790""
","
","675.5999999940395","","48","","","3000","1","","","images/purpleplanet.jpg","images/alien4","images/alien3","images/rocket2","images/alien4","images/nothing.png","2","real","true","2","common","0","2023-02-17 15:48:10.277"
"two-step-fixation","174","2099418","0.0-77.0-2.12","3595","6340","16","Male","true","true","false","true","""event"",""trial"",""time""
""fullscreenenter"",""5"",""152790""
","
","
","""event"",""trial"",""time""
""fullscreenenter"",""5"",""152790""
","
","","images/earth.jpg","","","","","","","","","","","","","","fixation","","","","","",""
"d3-animate-choice","175","2101831","0.0-77.0-0.13","3595","6340","16","Male","true","true","false","true","""event"",""trial"",""time""
""fullscreenenter"",""5"",""152790""
","
","
","""event"",""trial"",""time""
""fullscreenenter"",""5"",""152790""
","
","410.7000000178814","","48","","","3000","1","","","images/earth.jpg","images/rocket2","images/rocket1","null","images/rocket2","","1","real","null","2","","",""
"d3-animate-choice","176","2104222","0.0-77.0-1.13","3595","6340","16","Male","true","true","false","true","""event"",""trial"",""time""
""fullscreenenter"",""5"",""152790""
","
","
","""event"",""trial"",""time""
""fullscreenenter"",""5"",""152790""
","
","387.60000002384186","","49","","","3000","1","","","images/purpleplanet.jpg","images/alien4","images/alien3","images/rocket2","images/alien3","images/nothing.png","2","real","true","1","common","0","2023-02-17 15:48:16.085"
"two-step-fixation","177","2105224","0.0-77.0-2.13","3595","6340","16","Male","true","true","false","true","""event"",""trial"",""time""
""fullscreenenter"",""5"",""152790""
","
","
","""event"",""trial"",""time""
""fullscreenenter"",""5"",""152790""
","
","","images/earth.jpg","","","","","","","","","","","","","","fixation","","","","","",""
"d3-animate-choice","178","2107271","0.0-77.0-0.14","3595","6340","16","Male","true","true","false","true","""event"",""trial"",""time""
""fullscreenenter"",""5"",""152790""
","
","
","""event"",""trial"",""time""
""fullscreenenter"",""5"",""152790""
","
","43.900000005960464","","48","","","3000","1","","","images/earth.jpg","images/rocket2","images/rocket1","null","images/rocket2","","1","real","null","2","","",""
"d3-animate-choice","179","2109894","0.0-77.0-1.14","3595","6340","16","Male","true","true","false","true","""event"",""trial"",""time""
""fullscreenenter"",""5"",""152790""
","
","
","""event"",""trial"",""time""
""fullscreenenter"",""5"",""152790""
","
","620.5","","49","","","3000","1","","","images/purpleplanet.jpg","images/alien4","images/alien3","images/rocket2","images/alien3","images/nothing.png","2","real","true","1","common","0","2023-02-17 15:48:21.757"
"two-step-fixation","180","2110898","0.0-77.0-2.14","3595","6340","16","Male","true","true","false","true","""event"",""trial"",""time""
""fullscreenenter"",""5"",""152790""
","
","
","""event"",""trial"",""time""
""fullscreenenter"",""5"",""152790""
","
","","images/earth.jpg","","","","","","","","","","","","","","fixation","","","","","",""
"d3-animate-choice","181","2113047","0.0-77.0-0.15","3595","6340","16","Male","true","true","false","true","""event"",""trial"",""time""
""fullscreenenter"",""5"",""152790""
","
","
","""event"",""trial"",""time""
""fullscreenenter"",""5"",""152790""
","
","145.5","","49","","","3000","1","","","images/earth.jpg","images/rocket2","images/rocket1","null","images/rocket1","","1","real","null","1","","",""
"d3-animate-choice","182","2116134","0.0-77.0-1.15","3595","6340","16","Male","true","true","false","true","""event"",""trial"",""time""
""fullscreenenter"",""5"",""152790""
","
","
","""event"",""trial"",""time""
""fullscreenenter"",""5"",""152790""
","
","1084.9000000059605","","48","","","3000","1","","","images/purpleplanet.jpg","images/alien4","images/alien3","images/rocket1","images/alien4","images/t.png","2","real","false","2","rare","1","2023-02-17 15:48:27.997"
"two-step-fixation","183","2117136","0.0-77.0-2.15","3595","6340","16","Male","true","true","false","true","""event"",""trial"",""time""
""fullscreenenter"",""5"",""152790""
","
","
","""event"",""trial"",""time""
""fullscreenenter"",""5"",""152790""
","
","","images/earth.jpg","","","","","","","","","","","","","","fixation","","","","","",""
"d3-animate-choice","184","2119438","0.0-77.0-0.16","3595","6340","16","Male","true","true","false","true","""event"",""trial"",""time""
""fullscreenenter"",""5"",""152790""
","
","
","""event"",""trial"",""time""
""fullscreenenter"",""5"",""152790""
","
","298.7999999821186","","49","","","3000","1","","","images/earth.jpg","images/rocket2","images/rocket1","null","images/rocket1","","1","real","null","1","","",""
"d3-animate-choice","185","2122141","0.0-77.0-1.16","3595","6340","16","Male","true","true","false","true","""event"",""trial"",""time""
""fullscreenenter"",""5"",""152790""
","
","
","""event"",""trial"",""time""
""fullscreenenter"",""5"",""152790""
","
","701.6000000238419","","49","","","3000","1","","","images/redplanet1.jpg","images/alien2","images/alien1","images/rocket1","images/alien1","images/nothing.png","2","real","true","1","common","0","2023-02-17 15:48:34.005"
"two-step-fixation","186","2123144","0.0-77.0-2.16","3595","6340","16","Male","true","true","false","true","""event"",""trial"",""time""
""fullscreenenter"",""5"",""152790""
","
","
","""event"",""trial"",""time""
""fullscreenenter"",""5"",""152790""
","
","","images/earth.jpg","","","","","","","","","","","","","","fixation","","","","","",""
"d3-animate-choice","187","2125454","0.0-77.0-0.17","3595","6340","16","Male","true","true","false","true","""event"",""trial"",""time""
""fullscreenenter"",""5"",""152790""
","
","
","""event"",""trial"",""time""
""fullscreenenter"",""5"",""152790""
","
","306.69999998807907","","49","","","3000","1","","","images/earth.jpg","images/rocket2","images/rocket1","null","images/rocket1","","1","real","null","1","","",""
"d3-animate-choice","188","2127798","0.0-77.0-1.17","3595","6340","16","Male","true","true","false","true","""event"",""trial"",""time""
""fullscreenenter"",""5"",""152790""
","
","
","""event"",""trial"",""time""
""fullscreenenter"",""5"",""152790""
","
","341.19999998807907","","48","","","3000","1","","","images/redplanet1.jpg","images/alien2","images/alien1","images/rocket1","images/alien2","images/nothing.png","2","real","true","2","common","0","2023-02-17 15:48:39.661"
"two-step-fixation","189","2128802","0.0-77.0-2.17","3595","6340","16","Male","true","true","false","true","""event"",""trial"",""time""
""fullscreenenter"",""5"",""152790""
","
","
","""event"",""trial"",""time""
""fullscreenenter"",""5"",""152790""
","
","","images/earth.jpg","","","","","","","","","","","","","","fixation","","","","","",""
"d3-animate-choice","190","2131247","0.0-77.0-0.18","3595","6340","16","Male","true","true","false","true","""event"",""trial"",""time""
""fullscreenenter"",""5"",""152790""
","
","
","""event"",""trial"",""time""
""fullscreenenter"",""5"",""152790""
","
","441.09999999403954","","49","","","3000","1","","","images/earth.jpg","images/rocket2","images/rocket1","null","images/rocket1","","1","real","null","1","","",""
"d3-animate-choice","191","2134174","0.0-77.0-1.18","3595","6340","16","Male","true","true","false","true","""event"",""trial"",""time""
""fullscreenenter"",""5"",""152790""
","
","
","""event"",""trial"",""time""
""fullscreenenter"",""5"",""152790""
","
","924.1999999880791","","48","","","3000","1","","","images/redplanet1.jpg","images/alien2","images/alien1","images/rocket1","images/alien2","images/t.png","2","real","true","2","common","1","2023-02-17 15:48:46.037"
"two-step-fixation","192","2135176","0.0-77.0-2.18","3595","6340","16","Male","true","true","false","true","""event"",""trial"",""time""
""fullscreenenter"",""5"",""152790""
","
","
","""event"",""trial"",""time""
""fullscreenenter"",""5"",""152790""
","
","","images/earth.jpg","","","","","","","","","","","","","","fixation","","","","","",""
"d3-animate-choice","193","2137454","0.0-77.0-0.19","3595","6340","16","Male","true","true","false","true","""event"",""trial"",""time""
""fullscreenenter"",""5"",""152790""
","
","
","""event"",""trial"",""time""
""fullscreenenter"",""5"",""152790""
","
","275","","49","","","3000","1","","","images/earth.jpg","images/rocket2","images/rocket1","null","images/rocket1","","1","real","null","1","","",""
"d3-animate-choice","194","2139854","0.0-77.0-1.19","3595","6340","16","Male","true","true","false","true","""event"",""trial"",""time""
""fullscreenenter"",""5"",""152790""
","
","
","""event"",""trial"",""time""
""fullscreenenter"",""5"",""152790""
","
","396.7000000178814","","48","","","3000","1","","","images/redplanet1.jpg","images/alien2","images/alien1","images/rocket1","images/alien2","images/t.png","2","real","true","2","common","1","2023-02-17 15:48:51.717"
"two-step-fixation","195","2140856","0.0-77.0-2.19","3595","6340","16","Male","true","true","false","true","""event"",""trial"",""time""
""fullscreenenter"",""5"",""152790""
","
","
","""event"",""trial"",""time""
""fullscreenenter"",""5"",""152790""
","
","","images/earth.jpg","","","","","","","","","","","","","","fixation","","","","","",""
"d3-animate-choice","196","2143149","0.0-77.0-0.20","3595","6340","16","Male","true","true","false","true","""event"",""trial"",""time""
""fullscreenenter"",""5"",""152790""
","
","
","""event"",""trial"",""time""
""fullscreenenter"",""5"",""152790""
","
","290.80000001192093","","49","","","3000","1","","","images/earth.jpg","images/rocket2","images/rocket1","null","images/rocket1","","1","real","null","1","","",""
"d3-animate-choice","197","2146126","0.0-77.0-1.20","3595","6340","16","Male","true","true","false","true","""event"",""trial"",""time""
""fullscreenenter"",""5"",""152790""
","
","
","""event"",""trial"",""time""
""fullscreenenter"",""5"",""152790""
","
","973.4000000059605","","48","","","3000","1","","","images/purpleplanet.jpg","images/alien4","images/alien3","images/rocket1","images/alien4","images/t.png","2","real","false","2","rare","1","2023-02-17 15:48:57.990"
"two-step-fixation","198","2147130","0.0-77.0-2.20","3595","6340","16","Male","true","true","false","true","""event"",""trial"",""time""
""fullscreenenter"",""5"",""152790""
","
","
","""event"",""trial"",""time""
""fullscreenenter"",""5"",""152790""
","
","","images/earth.jpg","","","","","","","","","","","","","","fixation","","","","","",""
"d3-animate-choice","199","2149542","0.0-77.0-0.21","3595","6340","16","Male","true","true","false","true","""event"",""trial"",""time""
""fullscreenenter"",""5"",""152790""
","
","
","""event"",""trial"",""time""
""fullscreenenter"",""5"",""152790""
","
","408","","49","","","3000","1","","","images/earth.jpg","images/rocket2","images/rocket1","null","images/rocket1","","1","real","null","1","","",""
"d3-animate-choice","200","2152199","0.0-77.0-1.21","3595","6340","16","Male","true","true","false","true","""event"",""trial"",""time""
""fullscreenenter"",""5"",""152790""
","
","
","""event"",""trial"",""time""
""fullscreenenter"",""5"",""152790""
","
","653","","48","","","3000","1","","","images/redplanet1.jpg","images/alien2","images/alien1","images/rocket1","images/alien2","images/nothing.png","2","real","true","2","common","0","2023-02-17 15:49:04.062"
"two-step-fixation","201","2153202","0.0-77.0-2.21","3595","6340","16","Male","true","true","false","true","""event"",""trial"",""time""
""fullscreenenter"",""5"",""152790""
","
","
","""event"",""trial"",""time""
""fullscreenenter"",""5"",""152790""
","
","","images/earth.jpg","","","","","","","","","","","","","","fixation","","","","","",""
"d3-animate-choice","202","2155485","0.0-77.0-0.22","3595","6340","16","Male","true","true","false","true","""event"",""trial"",""time""
""fullscreenenter"",""5"",""152790""
","
","
","""event"",""trial"",""time""
""fullscreenenter"",""5"",""152790""
","
","280.5","","49","","","3000","1","","","images/earth.jpg","images/rocket2","images/rocket1","null","images/rocket1","","1","real","null","1","","",""
"d3-animate-choice","203","2158031","0.0-77.0-1.22","3595","6340","16","Male","true","true","false","true","""event"",""trial"",""time""
""fullscreenenter"",""5"",""152790""
","
","
","""event"",""trial"",""time""
""fullscreenenter"",""5"",""152790""
","
","541.6999999880791","","48","","","3000","1","","","images/purpleplanet.jpg","images/alien4","images/alien3","images/rocket1","images/alien4","images/t.png","2","real","false","2","rare","1","2023-02-17 15:49:09.894"
"two-step-fixation","204","2159035","0.0-77.0-2.22","3595","6340","16","Male","true","true","false","true","""event"",""trial"",""time""
""fullscreenenter"",""5"",""152790""
","
","
","""event"",""trial"",""time""
""fullscreenenter"",""5"",""152790""
","
","","images/earth.jpg","","","","","","","","","","","","","","fixation","","","","","",""
"d3-animate-choice","205","2162214","0.0-77.0-0.23","3595","6340","16","Male","true","true","false","true","""event"",""trial"",""time""
""fullscreenenter"",""5"",""152790""
","
","
","""event"",""trial"",""time""
""fullscreenenter"",""5"",""152790""
","
","1175.7999999821186","","49","","","3000","1","1543.2999999821186,2039.4000000059605,2255.199999988079,2415.199999988079,2567.5,2711.4000000059605,2871.4000000059605,3039.2999999821186","48,48,48,48,48,48,48,48","images/earth.jpg","images/rocket2","images/rocket1","null","images/rocket1","","1","real","null","1","","",""
"d3-animate-choice","206","2164246","0.0-77.0-1.23","3595","6340","16","Male","true","true","false","true","""event"",""trial"",""time""
""fullscreenenter"",""5"",""152790""
","
","
","""event"",""trial"",""time""
""fullscreenenter"",""5"",""152790""
","
","29","","48","","","3000","1","204.90000000596046,340.90000000596046,485.10000002384186","48,48,48","images/purpleplanet.jpg","images/alien4","images/alien3","images/rocket1","images/alien4","images/t.png","2","real","false","2","rare","1","2023-02-17 15:49:16.109"
"two-step-fixation","207","2165248","0.0-77.0-2.23","3595","6340","16","Male","true","true","false","true","""event"",""trial"",""time""
""fullscreenenter"",""5"",""152790""
","
","
","""event"",""trial"",""time""
""fullscreenenter"",""5"",""152790""
","
","","images/earth.jpg","","","","","","","","","","","","","","fixation","","","","","",""
"d3-animate-choice","208","2167502","0.0-77.0-0.24","3595","6340","16","Male","true","true","false","true","""event"",""trial"",""time""
""fullscreenenter"",""5"",""152790""
","
","
","""event"",""trial"",""time""
""fullscreenenter"",""5"",""152790""
","
","250.2000000178814","","49","","","3000","1","","","images/earth.jpg","images/rocket2","images/rocket1","null","images/rocket1","","1","real","null","1","","",""
"d3-animate-choice","209","2169949","0.0-77.0-1.24","3595","6340","16","Male","true","true","false","true","""event"",""trial"",""time""
""fullscreenenter"",""5"",""152790""
","
","
","""event"",""trial"",""time""
""fullscreenenter"",""5"",""152790""
","
","444.7999999821186","","48","","","3000","1","","","images/redplanet1.jpg","images/alien2","images/alien1","images/rocket1","images/alien2","images/nothing.png","2","real","true","2","common","0","2023-02-17 15:49:21.812"
"two-step-fixation","210","2170951","0.0-77.0-2.24","3595","6340","16","Male","true","true","false","true","""event"",""trial"",""time""
""fullscreenenter"",""5"",""152790""
","
","
","""event"",""trial"",""time""
""fullscreenenter"",""5"",""152790""
","
","","images/earth.jpg","","","","","","","","","","","","","","fixation","","","","","",""
"d3-animate-choice","211","2173294","0.0-77.0-0.25","3595","6340","16","Male","true","true","false","true","""event"",""trial"",""time""
""fullscreenenter"",""5"",""152790""
","
","
","""event"",""trial"",""time""
""fullscreenenter"",""5"",""152790""
","
","339.7999999821186","","49","","","3000","1","","","images/earth.jpg","images/rocket2","images/rocket1","null","images/rocket1","","1","real","null","1","","",""
"d3-animate-choice","212","2175709","0.0-77.0-1.25","3595","6340","16","Male","true","true","false","true","""event"",""trial"",""time""
""fullscreenenter"",""5"",""152790""
","
","
","""event"",""trial"",""time""
""fullscreenenter"",""5"",""152790""
","
","412.19999998807907","","48","","","3000","1","","","images/purpleplanet.jpg","images/alien4","images/alien3","images/rocket1","images/alien4","images/t.png","2","real","false","2","rare","1","2023-02-17 15:49:27.572"
"two-step-fixation","213","2176712","0.0-77.0-2.25","3595","6340","16","Male","true","true","false","true","""event"",""trial"",""time""
""fullscreenenter"",""5"",""152790""
","
","
","""event"",""trial"",""time""
""fullscreenenter"",""5"",""152790""
","
","","images/earth.jpg","","","","","","","","","","","","","","fixation","","","","","",""
"d3-animate-choice","214","2179302","0.0-77.0-0.26","3595","6340","16","Male","true","true","false","true","""event"",""trial"",""time""
""fullscreenenter"",""5"",""152790""
","
","
","""event"",""trial"",""time""
""fullscreenenter"",""5"",""152790""
","
","586.9000000059605","","49","","","3000","1","","","images/earth.jpg","images/rocket2","images/rocket1","null","images/rocket1","","1","real","null","1","","",""
"d3-animate-choice","215","2181894","0.0-77.0-1.26","3595","6340","16","Male","true","true","false","true","""event"",""trial"",""time""
""fullscreenenter"",""5"",""152790""
","
","
","""event"",""trial"",""time""
""fullscreenenter"",""5"",""152790""
","
","588.8000000119209","","48","","","3000","1","","","images/redplanet1.jpg","images/alien2","images/alien1","images/rocket1","images/alien2","images/t.png","2","real","true","2","common","1","2023-02-17 15:49:33.757"
"two-step-fixation","216","2182898","0.0-77.0-2.26","3595","6340","16","Male","true","true","false","true","""event"",""trial"",""time""
""fullscreenenter"",""5"",""152790""
","
","
","""event"",""trial"",""time""
""fullscreenenter"",""5"",""152790""
","
","","images/earth.jpg","","","","","","","","","","","","","","fixation","","","","","",""
"d3-animate-choice","217","2185335","0.0-77.0-0.27","3595","6340","16","Male","true","true","false","true","""event"",""trial"",""time""
""fullscreenenter"",""5"",""152790""
","
","
","""event"",""trial"",""time""
""fullscreenenter"",""5"",""152790""
","
","432.80000001192093","","49","","","3000","1","","","images/earth.jpg","images/rocket2","images/rocket1","null","images/rocket1","","1","real","null","1","","",""
"d3-animate-choice","218","2187989","0.0-77.0-1.27","3595","6340","16","Male","true","true","false","true","""event"",""trial"",""time""
""fullscreenenter"",""5"",""152790""
","
","
","""event"",""trial"",""time""
""fullscreenenter"",""5"",""152790""
","
","651.0999999940395","","48","","","3000","1","","","images/redplanet1.jpg","images/alien2","images/alien1","images/rocket1","images/alien2","images/nothing.png","2","real","true","2","common","0","2023-02-17 15:49:39.852"
"two-step-fixation","219","2188991","0.0-77.0-2.27","3595","6340","16","Male","true","true","false","true","""event"",""trial"",""time""
""fullscreenenter"",""5"",""152790""
","
","
","""event"",""trial"",""time""
""fullscreenenter"",""5"",""152790""
","
","","images/earth.jpg","","","","","","","","","","","","","","fixation","","","","","",""
"d3-animate-choice","220","2191341","0.0-77.0-0.28","3595","6340","16","Male","true","true","false","true","""event"",""trial"",""time""
""fullscreenenter"",""5"",""152790""
","
","
","""event"",""trial"",""time""
""fullscreenenter"",""5"",""152790""
","
","346.90000000596046","","49","","","3000","1","","","images/earth.jpg","images/rocket2","images/rocket1","null","images/rocket1","","1","real","null","1","","",""
"d3-animate-choice","221","2193743","0.0-77.0-1.28","3595","6340","16","Male","true","true","false","true","""event"",""trial"",""time""
""fullscreenenter"",""5"",""152790""
","
","
","""event"",""trial"",""time""
""fullscreenenter"",""5"",""152790""
","
","397.59999999403954","","48","","","3000","1","","","images/redplanet1.jpg","images/alien2","images/alien1","images/rocket1","images/alien2","images/t.png","2","real","true","2","common","1","2023-02-17 15:49:45.606"
"two-step-fixation","222","2194760","0.0-77.0-2.28","3595","6340","16","Male","true","true","false","true","""event"",""trial"",""time""
""fullscreenenter"",""5"",""152790""
","
","
","""event"",""trial"",""time""
""fullscreenenter"",""5"",""152790""
","
","","images/earth.jpg","","","","","","","","","","","","","","fixation","","","","","",""
"d3-animate-choice","223","2197078","0.0-77.0-0.29","3595","6340","16","Male","true","true","false","true","""event"",""trial"",""time""
""fullscreenenter"",""5"",""152790""
","
","
","""event"",""trial"",""time""
""fullscreenenter"",""5"",""152790""
","
","314.39999997615814","","49","","","3000","1","","","images/earth.jpg","images/rocket2","images/rocket1","null","images/rocket1","","1","real","null","1","","",""
"d3-animate-choice","224","2199453","0.0-77.0-1.29","3595","6340","16","Male","true","true","false","true","""event"",""trial"",""time""
""fullscreenenter"",""5"",""152790""
","
","
","""event"",""trial"",""time""
""fullscreenenter"",""5"",""152790""
","
","372.30000001192093","","48","","","3000","1","","","images/redplanet1.jpg","images/alien2","images/alien1","images/rocket1","images/alien2","images/nothing.png","2","real","true","2","common","0","2023-02-17 15:49:51.316"
"two-step-fixation","225","2200456","0.0-77.0-2.29","3595","6340","16","Male","true","true","false","true","""event"",""trial"",""time""
""fullscreenenter"",""5"",""152790""
","
","
","""event"",""trial"",""time""
""fullscreenenter"",""5"",""152790""
","
","","images/earth.jpg","","","","","","","","","","","","","","fixation","","","","","",""
"d3-animate-choice","226","2202798","0.0-77.0-0.30","3595","6340","16","Male","true","true","false","true","""event"",""trial"",""time""
""fullscreenenter"",""5"",""152790""
","
","
","""event"",""trial"",""time""
""fullscreenenter"",""5"",""152790""
","
","338.5","","49","","","3000","1","","","images/earth.jpg","images/rocket2","images/rocket1","null","images/rocket1","","1","real","null","1","","",""
"d3-animate-choice","227","2205333","0.0-77.0-1.30","3595","6340","16","Male","true","true","false","true","""event"",""trial"",""time""
""fullscreenenter"",""5"",""152790""
","
","
","""event"",""trial"",""time""
""fullscreenenter"",""5"",""152790""
","
","532.5999999940395","","48","","","3000","1","","","images/redplanet1.jpg","images/alien2","images/alien1","images/rocket1","images/alien2","images/t.png","2","real","true","2","common","1","2023-02-17 15:49:57.196"
"two-step-fixation","228","2206336","0.0-77.0-2.30","3595","6340","16","Male","true","true","false","true","""event"",""trial"",""time""
""fullscreenenter"",""5"",""152790""
","
","
","""event"",""trial"",""time""
""fullscreenenter"",""5"",""152790""
","
","","images/earth.jpg","","","","","","","","","","","","","","fixation","","","","","",""
"d3-animate-choice","229","2209325","0.0-77.0-0.31","3595","6340","16","Male","true","true","false","true","""event"",""trial"",""time""
""fullscreenenter"",""5"",""152790""
","
","
","""event"",""trial"",""time""
""fullscreenenter"",""5"",""152790""
","
","986.4000000059605","","49","","","3000","1","","","images/earth.jpg","images/rocket2","images/rocket1","null","images/rocket1","","1","real","null","1","","",""
"d3-animate-choice","230","2211597","0.0-77.0-1.31","3595","6340","16","Male","true","true","false","true","""event"",""trial"",""time""
""fullscreenenter"",""5"",""152790""
","
","
","""event"",""trial"",""time""
""fullscreenenter"",""5"",""152790""
","
","268.7999999821186","","48","","","3000","1","","","images/redplanet1.jpg","images/alien2","images/alien1","images/rocket1","images/alien2","images/nothing.png","2","real","true","2","common","0","2023-02-17 15:50:03.460"
"two-step-fixation","231","2212601","0.0-77.0-2.31","3595","6340","16","Male","true","true","false","true","""event"",""trial"",""time""
""fullscreenenter"",""5"",""152790""
","
","
","""event"",""trial"",""time""
""fullscreenenter"",""5"",""152790""
","
","","images/earth.jpg","","","","","","","","","","","","","","fixation","","","","","",""
"d3-animate-choice","232","2214613","0.0-77.0-0.32","3595","6340","16","Male","true","true","false","true","""event"",""trial"",""time""
""fullscreenenter"",""5"",""152790""
","
","
","""event"",""trial"",""time""
""fullscreenenter"",""5"",""152790""
","
","8.599999994039536","","49","","","3000","1","280.69999998807907","49","images/earth.jpg","images/rocket2","images/rocket1","null","images/rocket1","","1","real","null","1","","",""
"d3-animate-choice","233","2217141","0.0-77.0-1.32","3595","6340","16","Male","true","true","false","true","""event"",""trial"",""time""
""fullscreenenter"",""5"",""152790""
","
","
","""event"",""trial"",""time""
""fullscreenenter"",""5"",""152790""
","
","524.6999999880791","","48","","","3000","1","","","images/purpleplanet.jpg","images/alien4","images/alien3","images/rocket1","images/alien4","images/t.png","2","real","false","2","rare","1","2023-02-17 15:50:09.004"
"two-step-fixation","234","2218143","0.0-77.0-2.32","3595","6340","16","Male","true","true","false","true","""event"",""trial"",""time""
""fullscreenenter"",""5"",""152790""
","
","
","""event"",""trial"",""time""
""fullscreenenter"",""5"",""152790""
","
","","images/earth.jpg","","","","","","","","","","","","","","fixation","","","","","",""
"d3-animate-choice","235","2222147","0.0-77.0-0.33","3595","6340","16","Male","true","true","false","true","""event"",""trial"",""time""
""fullscreenenter"",""5"",""152790""
","
","
","""event"",""trial"",""time""
""fullscreenenter"",""5"",""152790""
","
","null","","null","","","3000","0","","","images/earth.jpg","images/rocket2","images/rocket1","null","","","1","real","null","","","",""
"d3-animate-choice","236","2223155","0.0-77.0-1.33","3595","6340","16","Male","true","true","false","true","""event"",""trial"",""time""
""fullscreenenter"",""5"",""152790""
","
","
","""event"",""trial"",""time""
""fullscreenenter"",""5"",""152790""
","
","null","","null","","","0","0","","","images/earth.jpg","images/rocket2","images/rocket1","null","","","2","real","null","","","0","2023-02-17 15:50:15.018"
"two-step-fixation","237","2224158","0.0-77.0-2.33","3595","6340","16","Male","true","true","false","true","""event"",""trial"",""time""
""fullscreenenter"",""5"",""152790""
","
","
","""event"",""trial"",""time""
""fullscreenenter"",""5"",""152790""
","
","","images/earth.jpg","","","","","","","","","","","","","","fixation","","","","","",""
"d3-animate-choice","238","2228162","0.0-77.0-0.34","3595","6340","16","Male","true","true","false","true","""event"",""trial"",""time""
""fullscreenenter"",""5"",""152790""
","
","
","""event"",""trial"",""time""
""fullscreenenter"",""5"",""152790""
","
","null","","null","","","3000","0","","","images/earth.jpg","images/rocket2","images/rocket1","null","","","1","real","null","","","",""
"d3-animate-choice","239","2229171","0.0-77.0-1.34","3595","6340","16","Male","true","true","false","true","""event"",""trial"",""time""
""fullscreenenter"",""5"",""152790""
","
","
","""event"",""trial"",""time""
""fullscreenenter"",""5"",""152790""
","
","null","","null","","","0","0","","","images/earth.jpg","images/rocket2","images/rocket1","null","","","2","real","null","","","0","2023-02-17 15:50:21.034"
"two-step-fixation","240","2230173","0.0-77.0-2.34","3595","6340","16","Male","true","true","false","true","""event"",""trial"",""time""
""fullscreenenter"",""5"",""152790""
","
","
","""event"",""trial"",""time""
""fullscreenenter"",""5"",""152790""
","
","","images/earth.jpg","","","","","","","","","","","","","","fixation","","","","","",""
"d3-animate-choice","241","2234176","0.0-77.0-0.35","3595","6340","16","Male","true","true","false","true","""event"",""trial"",""time""
""fullscreenenter"",""5"",""152790""
","
","
","""event"",""trial"",""time""
""fullscreenenter"",""5"",""152790""
","
","null","","null","","","3000","0","","","images/earth.jpg","images/rocket2","images/rocket1","null","","","1","real","null","","","",""
"d3-animate-choice","242","2235183","0.0-77.0-1.35","3595","6340","16","Male","true","true","false","true","""event"",""trial"",""time""
""fullscreenenter"",""5"",""152790""
","
","
","""event"",""trial"",""time""
""fullscreenenter"",""5"",""152790""
","
","null","","null","","","0","0","","","images/earth.jpg","images/rocket2","images/rocket1","null","","","2","real","null","","","0","2023-02-17 15:50:27.046"
"two-step-fixation","243","2236185","0.0-77.0-2.35","3595","6340","16","Male","true","true","false","true","""event"",""trial"",""time""
""fullscreenenter"",""5"",""152790""
","
","
","""event"",""trial"",""time""
""fullscreenenter"",""5"",""152790""
","
","","images/earth.jpg","","","","","","","","","","","","","","fixation","","","","","",""
"d3-animate-choice","244","2240188","0.0-77.0-0.36","3595","6340","16","Male","true","true","false","true","""event"",""trial"",""time""
""fullscreenenter"",""5"",""152790""
","
","
","""event"",""trial"",""time""
""fullscreenenter"",""5"",""152790""
","
","null","","null","","","3000","0","","","images/earth.jpg","images/rocket2","images/rocket1","null","","","1","real","null","","","",""
"d3-animate-choice","245","2241195","0.0-77.0-1.36","3595","6340","16","Male","true","true","false","true","""event"",""trial"",""time""
""fullscreenenter"",""5"",""152790""
","
","
","""event"",""trial"",""time""
