"trial_type","trial_index","time_elapsed","internal_node_id","participant_id","subject_id","age","gender","rocket_sides","red_planet_first_rocket","red_display_order","purple_display_order","interactions","blur_events","focus_events","fullscreenenter_events","fullscreenexit_events","rt","stimulus","key_press","button_pressed","success","duration","valid_pressed","rts","keys","planet_text","right_text","left_text","center_text","chosen_text","reward_text","trial_stage","practice_trial","transition_type","choice","transition","reward","timestamp"
"pavlovia","0","5","0.0-0.0","946","1306","14","Female","false","false","false","false","""event"",""trial"",""time""
""blur"",""0"",""0""
""focus"",""0"",""0""
""blur"",""0"",""0""
""focus"",""1"",""3262""
","""event"",""trial"",""time""
""blur"",""0"",""0""
""blur"",""0"",""0""
","""event"",""trial"",""time""
""focus"",""0"",""0""
""focus"",""1"",""3262""
","
","
","","","","","","","","","","","","","","","","","","","","","",""
"html-keyboard-response","1","4984","0.0-1.0","946","1306","14","Female","false","false","false","false","""event"",""trial"",""time""
""blur"",""0"",""0""
""focus"",""0"",""0""
""blur"",""0"",""0""
""focus"",""1"",""3262""
","""event"",""trial"",""time""
""blur"",""0"",""0""
""blur"",""0"",""0""
","""event"",""trial"",""time""
""focus"",""0"",""0""
""focus"",""1"",""3262""
","
","
","4977.199999988079","Welcome! Press the space bar to begin.","32","","","","","","","","","","","","","","","","","","",""
"audio-keyboard-response","2","7285","0.0-2.0","946","1306","14","Female","false","false","false","false","""event"",""trial"",""time""
""blur"",""0"",""0""
""focus"",""0"",""0""
""blur"",""0"",""0""
""focus"",""1"",""3262""
","""event"",""trial"",""time""
""blur"",""0"",""0""
""blur"",""0"",""0""
","""event"",""trial"",""time""
""focus"",""0"",""0""
""focus"",""1"",""3262""
","
","
","2149","audio/beep_loop.wav","32","","","","","","","","","","","","","","","","","","",""
"audio-button-response","3","8893","0.0-3.0","946","1306","14","Female","false","false","false","false","""event"",""trial"",""time""
""blur"",""0"",""0""
""focus"",""0"",""0""
""blur"",""0"",""0""
""focus"",""1"",""3262""
","""event"",""trial"",""time""
""blur"",""0"",""0""
""blur"",""0"",""0""
","""event"",""trial"",""time""
""focus"",""0"",""0""
""focus"",""1"",""3262""
","
","
","NaN","audio/fish.mp3","","1","","","","","","","","","","","","","","","","","",""
"audio-button-response","4","11837","0.0-4.0","946","1306","14","Female","false","false","false","false","""event"",""trial"",""time""
""blur"",""0"",""0""
""focus"",""0"",""0""
""blur"",""0"",""0""
""focus"",""1"",""3262""
""fullscreenenter"",""5"",""14389""
","""event"",""trial"",""time""
""blur"",""0"",""0""
""blur"",""0"",""0""
","""event"",""trial"",""time""
""focus"",""0"",""0""
""focus"",""1"",""3262""
","""event"",""trial"",""time""
""fullscreenenter"",""5"",""14389""
","
","NaN","audio/tiger.mp3","","4","","","","","","","","","","","","","","","","","",""
"fullscreen","5","15365","0.0-5.0","946","1306","14","Female","false","false","false","false","""event"",""trial"",""time""
""blur"",""0"",""0""
""focus"",""0"",""0""
""blur"",""0"",""0""
""focus"",""1"",""3262""
""fullscreenenter"",""5"",""14389""
","""event"",""trial"",""time""
""blur"",""0"",""0""
""blur"",""0"",""0""
","""event"",""trial"",""time""
""focus"",""0"",""0""
""focus"",""1"",""3262""
","""event"",""trial"",""time""
""fullscreenenter"",""5"",""14389""
","
","","","","","true","","","","","","","","","","","","","","","","",""
"d3-instructions","6","21183","0.0-6.0","946","1306","14","Female","false","false","false","false","""event"",""trial"",""time""
""blur"",""0"",""0""
""focus"",""0"",""0""
""blur"",""0"",""0""
""focus"",""1"",""3262""
""fullscreenenter"",""5"",""14389""
","""event"",""trial"",""time""
""blur"",""0"",""0""
""blur"",""0"",""0""
","""event"",""trial"",""time""
""focus"",""0"",""0""
""focus"",""1"",""3262""
","""event"",""trial"",""time""
""fullscreenenter"",""5"",""14389""
","
","","","","","","","","","","","","","","","","","","","","","",""
"d3-instructions","7","25230","0.0-7.0","946","1306","14","Female","false","false","false","false","""event"",""trial"",""time""
""blur"",""0"",""0""
""focus"",""0"",""0""
""blur"",""0"",""0""
""focus"",""1"",""3262""
""fullscreenenter"",""5"",""14389""
","""event"",""trial"",""time""
""blur"",""0"",""0""
""blur"",""0"",""0""
","""event"",""trial"",""time""
""focus"",""0"",""0""
""focus"",""1"",""3262""
","""event"",""trial"",""time""
""fullscreenenter"",""5"",""14389""
","
","","","","","","","","","","","","","","","","","","","","","",""
"d3-instructions","8","27886","0.0-8.0","946","1306","14","Female","false","false","false","false","""event"",""trial"",""time""
""blur"",""0"",""0""
""focus"",""0"",""0""
""blur"",""0"",""0""
""focus"",""1"",""3262""
""fullscreenenter"",""5"",""14389""
","""event"",""trial"",""time""
""blur"",""0"",""0""
""blur"",""0"",""0""
","""event"",""trial"",""time""
""focus"",""0"",""0""
""focus"",""1"",""3262""
","""event"",""trial"",""time""
""fullscreenenter"",""5"",""14389""
","
","","","","","","","","","","","","","","","","","","","","","",""
"d3-instructions","9","29844","0.0-9.0","946","1306","14","Female","false","false","false","false","""event"",""trial"",""time""
""blur"",""0"",""0""
""focus"",""0"",""0""
""blur"",""0"",""0""
""focus"",""1"",""3262""
""fullscreenenter"",""5"",""14389""
","""event"",""trial"",""time""
""blur"",""0"",""0""
""blur"",""0"",""0""
","""event"",""trial"",""time""
""focus"",""0"",""0""
""focus"",""1"",""3262""
","""event"",""trial"",""time""
""fullscreenenter"",""5"",""14389""
","
","","","","","","","","","","","","","","","","","","","","","",""
"d3-instructions","10","33782","0.0-10.0","946","1306","14","Female","false","false","false","false","""event"",""trial"",""time""
""blur"",""0"",""0""
""focus"",""0"",""0""
""blur"",""0"",""0""
""focus"",""1"",""3262""
""fullscreenenter"",""5"",""14389""
","""event"",""trial"",""time""
""blur"",""0"",""0""
""blur"",""0"",""0""
","""event"",""trial"",""time""
""focus"",""0"",""0""
""focus"",""1"",""3262""
","""event"",""trial"",""time""
""fullscreenenter"",""5"",""14389""
","
","","","","","","","","","","","","","","","","","","","","","",""
"d3-animate-choice","11","39579","0.0-11.0","946","1306","14","Female","false","false","false","false","""event"",""trial"",""time""
""blur"",""0"",""0""
""focus"",""0"",""0""
""blur"",""0"",""0""
""focus"",""1"",""3262""
""fullscreenenter"",""5"",""14389""
","""event"",""trial"",""time""
""blur"",""0"",""0""
""blur"",""0"",""0""
","""event"",""trial"",""time""
""focus"",""0"",""0""
""focus"",""1"",""3262""
","""event"",""trial"",""time""
""fullscreenenter"",""5"",""14389""
","
","3777.600000023842","","49","","","3000","1","","","images/tutgreenplanet.jpg","images/tutalien1","images/tutalien2","null","images/tutalien2","","NA","practice","null","","","",""
"d3-animate-choice","12","41858","0.0-12.0","946","1306","14","Female","false","false","false","false","""event"",""trial"",""time""
""blur"",""0"",""0""
""focus"",""0"",""0""
""blur"",""0"",""0""
""focus"",""1"",""3262""
""fullscreenenter"",""5"",""14389""
","""event"",""trial"",""time""
""blur"",""0"",""0""
""blur"",""0"",""0""
","""event"",""trial"",""time""
""focus"",""0"",""0""
""focus"",""1"",""3262""
","""event"",""trial"",""time""
""fullscreenenter"",""5"",""14389""
","
","271.30000001192093","","48","","","3000","1","","","images/tutgreenplanet.jpg","images/tutalien1","images/tutalien2","null","images/tutalien1","","NA","practice","null","","","",""
"d3-animate-choice","13","44388","0.0-13.0","946","1306","14","Female","false","false","false","false","""event"",""trial"",""time""
""blur"",""0"",""0""
""focus"",""0"",""0""
""blur"",""0"",""0""
""focus"",""1"",""3262""
""fullscreenenter"",""5"",""14389""
","""event"",""trial"",""time""
""blur"",""0"",""0""
""blur"",""0"",""0""
","""event"",""trial"",""time""
""focus"",""0"",""0""
""focus"",""1"",""3262""
","""event"",""trial"",""time""
""fullscreenenter"",""5"",""14389""
","
","504.5","","49","","","3000","1","","","images/tutgreenplanet.jpg","images/tutalien1","images/tutalien2","null","images/tutalien2","","NA","practice","null","","","",""
"d3-animate-choice","14","46758","0.0-14.0","946","1306","14","Female","false","false","false","false","""event"",""trial"",""time""
""blur"",""0"",""0""
""focus"",""0"",""0""
""blur"",""0"",""0""
""focus"",""1"",""3262""
""fullscreenenter"",""5"",""14389""
","""event"",""trial"",""time""
""blur"",""0"",""0""
""blur"",""0"",""0""
","""event"",""trial"",""time""
""focus"",""0"",""0""
""focus"",""1"",""3262""
","""event"",""trial"",""time""
""fullscreenenter"",""5"",""14389""
","
","351","","48","","","3000","1","","","images/tutgreenplanet.jpg","images/tutalien1","images/tutalien2","null","images/tutalien1","","NA","practice","null","","","",""
"d3-instructions","15","49679","0.0-15.0","946","1306","14","Female","false","false","false","false","""event"",""trial"",""time""
""blur"",""0"",""0""
""focus"",""0"",""0""
""blur"",""0"",""0""
""focus"",""1"",""3262""
""fullscreenenter"",""5"",""14389""
","""event"",""trial"",""time""
""blur"",""0"",""0""
""blur"",""0"",""0""
","""event"",""trial"",""time""
""focus"",""0"",""0""
""focus"",""1"",""3262""
","""event"",""trial"",""time""
""fullscreenenter"",""5"",""14389""
","
","","","","","","","","","","","","","","","","","","","","","",""
"d3-instructions","16","51751","0.0-16.0","946","1306","14","Female","false","false","false","false","""event"",""trial"",""time""
""blur"",""0"",""0""
""focus"",""0"",""0""
""blur"",""0"",""0""
""focus"",""1"",""3262""
""fullscreenenter"",""5"",""14389""
","""event"",""trial"",""time""
""blur"",""0"",""0""
""blur"",""0"",""0""
","""event"",""trial"",""time""
""focus"",""0"",""0""
""focus"",""1"",""3262""
","""event"",""trial"",""time""
""fullscreenenter"",""5"",""14389""
","
","","","","","","","","","","","","","","","","","","","","","",""
"d3-instructions","17","52999","0.0-17.0","946","1306","14","Female","false","false","false","false","""event"",""trial"",""time""
""blur"",""0"",""0""
""focus"",""0"",""0""
""blur"",""0"",""0""
""focus"",""1"",""3262""
""fullscreenenter"",""5"",""14389""
","""event"",""trial"",""time""
""blur"",""0"",""0""
""blur"",""0"",""0""
","""event"",""trial"",""time""
""focus"",""0"",""0""
""focus"",""1"",""3262""
","""event"",""trial"",""time""
""fullscreenenter"",""5"",""14389""
","
","","","","","","","","","","","","","","","","","","","","","",""
"d3-instructions","18","55039","0.0-18.0","946","1306","14","Female","false","false","false","false","""event"",""trial"",""time""
""blur"",""0"",""0""
""focus"",""0"",""0""
""blur"",""0"",""0""
""focus"",""1"",""3262""
""fullscreenenter"",""5"",""14389""
","""event"",""trial"",""time""
""blur"",""0"",""0""
""blur"",""0"",""0""
","""event"",""trial"",""time""
""focus"",""0"",""0""
""focus"",""1"",""3262""
","""event"",""trial"",""time""
""fullscreenenter"",""5"",""14389""
","
","","","","","","","","","","","","","","","","","","","","","",""
"d3-instructions","19","56375","0.0-19.0","946","1306","14","Female","false","false","false","false","""event"",""trial"",""time""
""blur"",""0"",""0""
""focus"",""0"",""0""
""blur"",""0"",""0""
""focus"",""1"",""3262""
""fullscreenenter"",""5"",""14389""
","""event"",""trial"",""time""
""blur"",""0"",""0""
""blur"",""0"",""0""
","""event"",""trial"",""time""
""focus"",""0"",""0""
""focus"",""1"",""3262""
","""event"",""trial"",""time""
""fullscreenenter"",""5"",""14389""
","
","","","","","","","","","","","","","","","","","","","","","",""
"d3-animate-choice","20","59703","0.0-20.0","946","1306","14","Female","false","false","false","false","""event"",""trial"",""time""
""blur"",""0"",""0""
""focus"",""0"",""0""
""blur"",""0"",""0""
""focus"",""1"",""3262""
""fullscreenenter"",""5"",""14389""
","""event"",""trial"",""time""
""blur"",""0"",""0""
""blur"",""0"",""0""
","""event"",""trial"",""time""
""focus"",""0"",""0""
""focus"",""1"",""3262""
","""event"",""trial"",""time""
""fullscreenenter"",""5"",""14389""
","
","1315.199999988079","","49","","","3000","1","","","images/tutyellowplanet.jpg","null","images/tutalien3","null","images/tutalien3","images/nothing.png","NA","practice","null","","","",""
"d3-animate-choice","21","62738","0.0-21.0","946","1306","14","Female","false","false","false","false","""event"",""trial"",""time""
""blur"",""0"",""0""
""focus"",""0"",""0""
""blur"",""0"",""0""
""focus"",""1"",""3262""
""fullscreenenter"",""5"",""14389""
","""event"",""trial"",""time""
""blur"",""0"",""0""
""blur"",""0"",""0""
","""event"",""trial"",""time""
""focus"",""0"",""0""
""focus"",""1"",""3262""
","""event"",""trial"",""time""
""fullscreenenter"",""5"",""14389""
","
","467.80000001192093","","32","","","3000","1","1011.9000000357628","49","images/tutyellowplanet.jpg","null","images/tutalien3","null","images/tutalien3","images/t.png","NA","practice","null","","","",""
"d3-animate-choice","22","65329","0.0-22.0","946","1306","14","Female","false","false","false","false","""event"",""trial"",""time""
""blur"",""0"",""0""
""focus"",""0"",""0""
""blur"",""0"",""0""
""focus"",""1"",""3262""
""fullscreenenter"",""5"",""14389""
","""event"",""trial"",""time""
""blur"",""0"",""0""
""blur"",""0"",""0""
","""event"",""trial"",""time""
""focus"",""0"",""0""
""focus"",""1"",""3262""
","""event"",""trial"",""time""
""fullscreenenter"",""5"",""14389""
","
","584.8000000119209","","49","","","3000","1","","","images/tutyellowplanet.jpg","null","images/tutalien3","null","images/tutalien3","images/t.png","NA","practice","null","","","",""
"d3-animate-choice","23","68968","0.0-23.0","946","1306","14","Female","false","false","false","false","""event"",""trial"",""time""
""blur"",""0"",""0""
""focus"",""0"",""0""
""blur"",""0"",""0""
""focus"",""1"",""3262""
""fullscreenenter"",""5"",""14389""
","""event"",""trial"",""time""
""blur"",""0"",""0""
""blur"",""0"",""0""
","""event"",""trial"",""time""
""focus"",""0"",""0""
""focus"",""1"",""3262""
","""event"",""trial"",""time""
""fullscreenenter"",""5"",""14389""
","
","730.9000000357628","","48","","","3000","1","1346.6000000238419,1626.1000000238419","189,49","images/tutyellowplanet.jpg","null","images/tutalien3","null","images/tutalien3","images/t.png","NA","practice","null","","","",""
"d3-animate-choice","24","72009","0.0-24.0","946","1306","14","Female","false","false","false","false","""event"",""trial"",""time""
""blur"",""0"",""0""
""focus"",""0"",""0""
""blur"",""0"",""0""
""focus"",""1"",""3262""
""fullscreenenter"",""5"",""14389""
","""event"",""trial"",""time""
""blur"",""0"",""0""
""blur"",""0"",""0""
","""event"",""trial"",""time""
""focus"",""0"",""0""
""focus"",""1"",""3262""
","""event"",""trial"",""time""
""fullscreenenter"",""5"",""14389""
","
","538.1999999880791","","48","","","3000","1","1018.1000000238419","49","images/tutyellowplanet.jpg","null","images/tutalien3","null","images/tutalien3","images/t.png","NA","practice","null","","","",""
"d3-animate-choice","25","74428","0.0-25.0","946","1306","14","Female","false","false","false","false","""event"",""trial"",""time""
""blur"",""0"",""0""
""focus"",""0"",""0""
""blur"",""0"",""0""
""focus"",""1"",""3262""
""fullscreenenter"",""5"",""14389""
","""event"",""trial"",""time""
""blur"",""0"",""0""
""blur"",""0"",""0""
","""event"",""trial"",""time""
""focus"",""0"",""0""
""focus"",""1"",""3262""
","""event"",""trial"",""time""
""fullscreenenter"",""5"",""14389""
","
","393","","49","","","3000","1","","","images/tutyellowplanet.jpg","null","images/tutalien3","null","images/tutalien3","images/t.png","NA","practice","null","","","",""
"d3-animate-choice","26","76787","0.0-26.0","946","1306","14","Female","false","false","false","false","""event"",""trial"",""time""
""blur"",""0"",""0""
""focus"",""0"",""0""
""blur"",""0"",""0""
""focus"",""1"",""3262""
""fullscreenenter"",""5"",""14389""
","""event"",""trial"",""time""
""blur"",""0"",""0""
""blur"",""0"",""0""
","""event"",""trial"",""time""
""focus"",""0"",""0""
""focus"",""1"",""3262""
","""event"",""trial"",""time""
""fullscreenenter"",""5"",""14389""
","
","335.19999998807907","","49","","","3000","1","","","images/tutyellowplanet.jpg","null","images/tutalien3","null","images/tutalien3","images/t.png","NA","practice","null","","","",""
"d3-animate-choice","27","79134","0.0-27.0","946","1306","14","Female","false","false","false","false","""event"",""trial"",""time""
""blur"",""0"",""0""
""focus"",""0"",""0""
""blur"",""0"",""0""
""focus"",""1"",""3262""
""fullscreenenter"",""5"",""14389""
","""event"",""trial"",""time""
""blur"",""0"",""0""
""blur"",""0"",""0""
","""event"",""trial"",""time""
""focus"",""0"",""0""
""focus"",""1"",""3262""
","""event"",""trial"",""time""
""fullscreenenter"",""5"",""14389""
","
","328.30000001192093","","49","","","3000","1","","","images/tutyellowplanet.jpg","null","images/tutalien3","null","images/tutalien3","images/nothing.png","NA","practice","null","","","",""
"d3-animate-choice","28","81458","0.0-28.0","946","1306","14","Female","false","false","false","false","""event"",""trial"",""time""
""blur"",""0"",""0""
""focus"",""0"",""0""
""blur"",""0"",""0""
""focus"",""1"",""3262""
""fullscreenenter"",""5"",""14389""
","""event"",""trial"",""time""
""blur"",""0"",""0""
""blur"",""0"",""0""
","""event"",""trial"",""time""
""focus"",""0"",""0""
""focus"",""1"",""3262""
","""event"",""trial"",""time""
""fullscreenenter"",""5"",""14389""
","
","308.69999998807907","","49","","","3000","1","","","images/tutyellowplanet.jpg","null","images/tutalien3","null","images/tutalien3","images/t.png","NA","practice","null","","","",""
"d3-animate-choice","29","83778","0.0-29.0","946","1306","14","Female","false","false","false","false","""event"",""trial"",""time""
""blur"",""0"",""0""
""focus"",""0"",""0""
""blur"",""0"",""0""
""focus"",""1"",""3262""
""fullscreenenter"",""5"",""14389""
","""event"",""trial"",""time""
""blur"",""0"",""0""
""blur"",""0"",""0""
","""event"",""trial"",""time""
""focus"",""0"",""0""
""focus"",""1"",""3262""
","""event"",""trial"",""time""
""fullscreenenter"",""5"",""14389""
","
","304.30000001192093","","49","","","3000","1","","","images/tutyellowplanet.jpg","null","images/tutalien3","null","images/tutalien3","images/nothing.png","NA","practice","null","","","",""
"d3-instructions","30","86390","0.0-30.0","946","1306","14","Female","false","false","false","false","""event"",""trial"",""time""
""blur"",""0"",""0""
""focus"",""0"",""0""
""blur"",""0"",""0""
""focus"",""1"",""3262""
""fullscreenenter"",""5"",""14389""
","""event"",""trial"",""time""
""blur"",""0"",""0""
""blur"",""0"",""0""
","""event"",""trial"",""time""
""focus"",""0"",""0""
""focus"",""1"",""3262""
","""event"",""trial"",""time""
""fullscreenenter"",""5"",""14389""
","
","","","","","","","","","","","","","","","","","","","","","",""
"d3-instructions","31","87950","0.0-31.0","946","1306","14","Female","false","false","false","false","""event"",""trial"",""time""
""blur"",""0"",""0""
""focus"",""0"",""0""
""blur"",""0"",""0""
""focus"",""1"",""3262""
""fullscreenenter"",""5"",""14389""
","""event"",""trial"",""time""
""blur"",""0"",""0""
""blur"",""0"",""0""
","""event"",""trial"",""time""
""focus"",""0"",""0""
""focus"",""1"",""3262""
","""event"",""trial"",""time""
""fullscreenenter"",""5"",""14389""
","
","","","","","","","","","","","","","","","","","","","","","",""
"d3-instructions","32","89534","0.0-32.0","946","1306","14","Female","false","false","false","false","""event"",""trial"",""time""
""blur"",""0"",""0""
""focus"",""0"",""0""
""blur"",""0"",""0""
""focus"",""1"",""3262""
""fullscreenenter"",""5"",""14389""
","""event"",""trial"",""time""
""blur"",""0"",""0""
""blur"",""0"",""0""
","""event"",""trial"",""time""
""focus"",""0"",""0""
""focus"",""1"",""3262""
","""event"",""trial"",""time""
""fullscreenenter"",""5"",""14389""
","
","","","","","","","","","","","","","","","","","","","","","",""
"d3-instructions","33","91822","0.0-33.0","946","1306","14","Female","false","false","false","false","""event"",""trial"",""time""
""blur"",""0"",""0""
""focus"",""0"",""0""
""blur"",""0"",""0""
""focus"",""1"",""3262""
""fullscreenenter"",""5"",""14389""
","""event"",""trial"",""time""
""blur"",""0"",""0""
""blur"",""0"",""0""
","""event"",""trial"",""time""
""focus"",""0"",""0""
""focus"",""1"",""3262""
","""event"",""trial"",""time""
""fullscreenenter"",""5"",""14389""
","
","","","","","","","","","","","","","","","","","","","","","",""
"d3-animate-choice","34","94587","0.0-34.0","946","1306","14","Female","false","false","false","false","""event"",""trial"",""time""
""blur"",""0"",""0""
""focus"",""0"",""0""
""blur"",""0"",""0""
""focus"",""1"",""3262""
""fullscreenenter"",""5"",""14389""
","""event"",""trial"",""time""
""blur"",""0"",""0""
""blur"",""0"",""0""
","""event"",""trial"",""time""
""focus"",""0"",""0""
""focus"",""1"",""3262""
","""event"",""trial"",""time""
""fullscreenenter"",""5"",""14389""
","
","755.6999999880791","","49","","","3000","1","","","images/tutgreenplanet.jpg","images/tutalien1","images/tutalien2","null","images/tutalien2","images/t.png","NA","practice","null","","","",""
"d3-animate-choice","35","97008","0.0-35.0","946","1306","14","Female","false","false","false","false","""event"",""trial"",""time""
""blur"",""0"",""0""
""focus"",""0"",""0""
""blur"",""0"",""0""
""focus"",""1"",""3262""
""fullscreenenter"",""5"",""14389""
","""event"",""trial"",""time""
""blur"",""0"",""0""
""blur"",""0"",""0""
","""event"",""trial"",""time""
""focus"",""0"",""0""
""focus"",""1"",""3262""
","""event"",""trial"",""time""
""fullscreenenter"",""5"",""14389""
","
","398.5","","49","","","3000","1","","","images/tutgreenplanet.jpg","images/tutalien1","images/tutalien2","null","images/tutalien2","images/t.png","NA","practice","null","","","",""
"d3-animate-choice","36","99397","0.0-36.0","946","1306","14","Female","false","false","false","false","""event"",""trial"",""time""
""blur"",""0"",""0""
""focus"",""0"",""0""
""blur"",""0"",""0""
""focus"",""1"",""3262""
""fullscreenenter"",""5"",""14389""
","""event"",""trial"",""time""
""blur"",""0"",""0""
""blur"",""0"",""0""
","""event"",""trial"",""time""
""focus"",""0"",""0""
""focus"",""1"",""3262""
","""event"",""trial"",""time""
""fullscreenenter"",""5"",""14389""
","
","377.5","","49","","","3000","1","","","images/tutgreenplanet.jpg","images/tutalien1","images/tutalien2","null","images/tutalien2","images/t.png","NA","practice","null","","","",""
"d3-animate-choice","37","101777","0.0-37.0","946","1306","14","Female","false","false","false","false","""event"",""trial"",""time""
""blur"",""0"",""0""
""focus"",""0"",""0""
""blur"",""0"",""0""
""focus"",""1"",""3262""
""fullscreenenter"",""5"",""14389""
","""event"",""trial"",""time""
""blur"",""0"",""0""
""blur"",""0"",""0""
","""event"",""trial"",""time""
""focus"",""0"",""0""
""focus"",""1"",""3262""
","""event"",""trial"",""time""
""fullscreenenter"",""5"",""14389""
","
","366.19999998807907","","49","","","3000","1","","","images/tutgreenplanet.jpg","images/tutalien1","images/tutalien2","null","images/tutalien2","images/t.png","NA","practice","null","","","",""
"d3-animate-choice","38","104208","0.0-38.0","946","1306","14","Female","false","false","false","false","""event"",""trial"",""time""
""blur"",""0"",""0""
""focus"",""0"",""0""
""blur"",""0"",""0""
""focus"",""1"",""3262""
""fullscreenenter"",""5"",""14389""
","""event"",""trial"",""time""
""blur"",""0"",""0""
""blur"",""0"",""0""
","""event"",""trial"",""time""
""focus"",""0"",""0""
""focus"",""1"",""3262""
","""event"",""trial"",""time""
""fullscreenenter"",""5"",""14389""
","
","409.60000002384186","","49","","","3000","1","","","images/tutgreenplanet.jpg","images/tutalien1","images/tutalien2","null","images/tutalien2","images/t.png","NA","practice","null","","","",""
"d3-animate-choice","39","106608","0.0-39.0","946","1306","14","Female","false","false","false","false","""event"",""trial"",""time""
""blur"",""0"",""0""
""focus"",""0"",""0""
""blur"",""0"",""0""
""focus"",""1"",""3262""
""fullscreenenter"",""5"",""14389""
","""event"",""trial"",""time""
""blur"",""0"",""0""
""blur"",""0"",""0""
","""event"",""trial"",""time""
""focus"",""0"",""0""
""focus"",""1"",""3262""
","""event"",""trial"",""time""
""fullscreenenter"",""5"",""14389""
","
","387.30000001192093","","49","","","3000","1","","","images/tutgreenplanet.jpg","images/tutalien1","images/tutalien2","null","images/tutalien2","images/t.png","NA","practice","null","","","",""
"d3-animate-choice","40","109018","0.0-40.0","946","1306","14","Female","false","false","false","false","""event"",""trial"",""time""
""blur"",""0"",""0""
""focus"",""0"",""0""
""blur"",""0"",""0""
""focus"",""1"",""3262""
""fullscreenenter"",""5"",""14389""
","""event"",""trial"",""time""
""blur"",""0"",""0""
""blur"",""0"",""0""
","""event"",""trial"",""time""
""focus"",""0"",""0""
""focus"",""1"",""3262""
","""event"",""trial"",""time""
""fullscreenenter"",""5"",""14389""
","
","402.19999998807907","","49","","","3000","1","","","images/tutgreenplanet.jpg","images/tutalien1","images/tutalien2","null","images/tutalien2","images/t.png","NA","practice","null","","","",""
"d3-animate-choice","41","111457","0.0-41.0","946","1306","14","Female","false","false","false","false","""event"",""trial"",""time""
""blur"",""0"",""0""
""focus"",""0"",""0""
""blur"",""0"",""0""
""focus"",""1"",""3262""
""fullscreenenter"",""5"",""14389""
","""event"",""trial"",""time""
""blur"",""0"",""0""
""blur"",""0"",""0""
","""event"",""trial"",""time""
""focus"",""0"",""0""
""focus"",""1"",""3262""
","""event"",""trial"",""time""
""fullscreenenter"",""5"",""14389""
","
","425.19999998807907","","49","","","3000","1","","","images/tutgreenplanet.jpg","images/tutalien1","images/tutalien2","null","images/tutalien2","images/nothing.png","NA","practice","null","","","",""
"d3-animate-choice","42","113818","0.0-42.0","946","1306","14","Female","false","false","false","false","""event"",""trial"",""time""
""blur"",""0"",""0""
""focus"",""0"",""0""
""blur"",""0"",""0""
""focus"",""1"",""3262""
""fullscreenenter"",""5"",""14389""
","""event"",""trial"",""time""
""blur"",""0"",""0""
""blur"",""0"",""0""
","""event"",""trial"",""time""
""focus"",""0"",""0""
""focus"",""1"",""3262""
","""event"",""trial"",""time""
""fullscreenenter"",""5"",""14389""
","
","352.5999999642372","","49","","","3000","1","","","images/tutgreenplanet.jpg","images/tutalien1","images/tutalien2","null","images/tutalien2","images/t.png","NA","practice","null","","","",""
"d3-animate-choice","43","116158","0.0-43.0","946","1306","14","Female","false","false","false","false","""event"",""trial"",""time""
""blur"",""0"",""0""
""focus"",""0"",""0""
""blur"",""0"",""0""
""focus"",""1"",""3262""
""fullscreenenter"",""5"",""14389""
","""event"",""trial"",""time""
""blur"",""0"",""0""
""blur"",""0"",""0""
","""event"",""trial"",""time""
""focus"",""0"",""0""
""focus"",""1"",""3262""
","""event"",""trial"",""time""
""fullscreenenter"",""5"",""14389""
","
","320","","49","","","3000","1","","","images/tutgreenplanet.jpg","images/tutalien1","images/tutalien2","null","images/tutalien2","images/t.png","NA","practice","null","","","",""
"d3-instructions","44","118999","0.0-44.0","946","1306","14","Female","false","false","false","false","""event"",""trial"",""time""
""blur"",""0"",""0""
""focus"",""0"",""0""
""blur"",""0"",""0""
""focus"",""1"",""3262""
""fullscreenenter"",""5"",""14389""
","""event"",""trial"",""time""
""blur"",""0"",""0""
""blur"",""0"",""0""
","""event"",""trial"",""time""
""focus"",""0"",""0""
""focus"",""1"",""3262""
","""event"",""trial"",""time""
""fullscreenenter"",""5"",""14389""
","
","","","","","","","","","","","","","","","","","","","","","",""
"d3-instructions","45","120647","0.0-45.0","946","1306","14","Female","false","false","false","false","""event"",""trial"",""time""
""blur"",""0"",""0""
""focus"",""0"",""0""
""blur"",""0"",""0""
""focus"",""1"",""3262""
""fullscreenenter"",""5"",""14389""
","""event"",""trial"",""time""
""blur"",""0"",""0""
""blur"",""0"",""0""
","""event"",""trial"",""time""
""focus"",""0"",""0""
""focus"",""1"",""3262""
","""event"",""trial"",""time""
""fullscreenenter"",""5"",""14389""
","
","","","","","","","","","","","","","","","","","","","","","",""
"d3-instructions","46","121974","0.0-46.0","946","1306","14","Female","false","false","false","false","""event"",""trial"",""time""
""blur"",""0"",""0""
""focus"",""0"",""0""
""blur"",""0"",""0""
""focus"",""1"",""3262""
""fullscreenenter"",""5"",""14389""
","""event"",""trial"",""time""
""blur"",""0"",""0""
""blur"",""0"",""0""
","""event"",""trial"",""time""
""focus"",""0"",""0""
""focus"",""1"",""3262""
","""event"",""trial"",""time""
""fullscreenenter"",""5"",""14389""
","
","","","","","","","","","","","","","","","","","","","","","",""
"d3-instructions","47","123375","0.0-47.0","946","1306","14","Female","false","false","false","false","""event"",""trial"",""time""
""blur"",""0"",""0""
""focus"",""0"",""0""
""blur"",""0"",""0""
""focus"",""1"",""3262""
""fullscreenenter"",""5"",""14389""
","""event"",""trial"",""time""
""blur"",""0"",""0""
""blur"",""0"",""0""
","""event"",""trial"",""time""
""focus"",""0"",""0""
""focus"",""1"",""3262""
","""event"",""trial"",""time""
""fullscreenenter"",""5"",""14389""
","
","","","","","","","","","","","","","","","","","","","","","",""
"d3-instructions","48","124582","0.0-48.0","946","1306","14","Female","false","false","false","false","""event"",""trial"",""time""
""blur"",""0"",""0""
""focus"",""0"",""0""
""blur"",""0"",""0""
""focus"",""1"",""3262""
""fullscreenenter"",""5"",""14389""
","""event"",""trial"",""time""
""blur"",""0"",""0""
""blur"",""0"",""0""
","""event"",""trial"",""time""
""focus"",""0"",""0""
""focus"",""1"",""3262""
","""event"",""trial"",""time""
""fullscreenenter"",""5"",""14389""
","
","","","","","","","","","","","","","","","","","","","","","",""
"d3-instructions","49","125862","0.0-49.0","946","1306","14","Female","false","false","false","false","""event"",""trial"",""time""
""blur"",""0"",""0""
""focus"",""0"",""0""
""blur"",""0"",""0""
""focus"",""1"",""3262""
""fullscreenenter"",""5"",""14389""
","""event"",""trial"",""time""
""blur"",""0"",""0""
""blur"",""0"",""0""
","""event"",""trial"",""time""
""focus"",""0"",""0""
""focus"",""1"",""3262""
","""event"",""trial"",""time""
""fullscreenenter"",""5"",""14389""
","
","","","","","","","","","","","","","","","","","","","","","",""
"d3-instructions","50","127079","0.0-50.0","946","1306","14","Female","false","false","false","false","""event"",""trial"",""time""
""blur"",""0"",""0""
""focus"",""0"",""0""
""blur"",""0"",""0""
""focus"",""1"",""3262""
""fullscreenenter"",""5"",""14389""
","""event"",""trial"",""time""
""blur"",""0"",""0""
""blur"",""0"",""0""
","""event"",""trial"",""time""
""focus"",""0"",""0""
""focus"",""1"",""3262""
","""event"",""trial"",""time""
""fullscreenenter"",""5"",""14389""
","
","","","","","","","","","","","","","","","","","","","","","",""
"d3-instructions","51","128534","0.0-51.0","946","1306","14","Female","false","false","false","false","""event"",""trial"",""time""
""blur"",""0"",""0""
""focus"",""0"",""0""
""blur"",""0"",""0""
""focus"",""1"",""3262""
""fullscreenenter"",""5"",""14389""
","""event"",""trial"",""time""
""blur"",""0"",""0""
""blur"",""0"",""0""
","""event"",""trial"",""time""
""focus"",""0"",""0""
""focus"",""1"",""3262""
","""event"",""trial"",""time""
""fullscreenenter"",""5"",""14389""
","
","","","","","","","","","","","","","","","","","","","","","",""
"d3-instructions","52","129655","0.0-52.0","946","1306","14","Female","false","false","false","false","""event"",""trial"",""time""
""blur"",""0"",""0""
""focus"",""0"",""0""
""blur"",""0"",""0""
""focus"",""1"",""3262""
""fullscreenenter"",""5"",""14389""
","""event"",""trial"",""time""
""blur"",""0"",""0""
""blur"",""0"",""0""
","""event"",""trial"",""time""
""focus"",""0"",""0""
""focus"",""1"",""3262""
","""event"",""trial"",""time""
""fullscreenenter"",""5"",""14389""
","
","","","","","","","","","","","","","","","","","","","","","",""
"d3-instructions","53","130574","0.0-53.0","946","1306","14","Female","false","false","false","false","""event"",""trial"",""time""
""blur"",""0"",""0""
""focus"",""0"",""0""
""blur"",""0"",""0""
""focus"",""1"",""3262""
""fullscreenenter"",""5"",""14389""
","""event"",""trial"",""time""
""blur"",""0"",""0""
""blur"",""0"",""0""
","""event"",""trial"",""time""
""focus"",""0"",""0""
""focus"",""1"",""3262""
","""event"",""trial"",""time""
""fullscreenenter"",""5"",""14389""
","
","","","","","","","","","","","","","","","","","","","","","",""
"d3-instructions","54","131822","0.0-54.0","946","1306","14","Female","false","false","false","false","""event"",""trial"",""time""
""blur"",""0"",""0""
""focus"",""0"",""0""
""blur"",""0"",""0""
""focus"",""1"",""3262""
""fullscreenenter"",""5"",""14389""
","""event"",""trial"",""time""
""blur"",""0"",""0""
""blur"",""0"",""0""
","""event"",""trial"",""time""
""focus"",""0"",""0""
""focus"",""1"",""3262""
","""event"",""trial"",""time""
""fullscreenenter"",""5"",""14389""
","
","","","","","","","","","","","","","","","","","","","","","",""
"d3-instructions","55","132886","0.0-55.0","946","1306","14","Female","false","false","false","false","""event"",""trial"",""time""
""blur"",""0"",""0""
""focus"",""0"",""0""
""blur"",""0"",""0""
""focus"",""1"",""3262""
""fullscreenenter"",""5"",""14389""
","""event"",""trial"",""time""
""blur"",""0"",""0""
""blur"",""0"",""0""
","""event"",""trial"",""time""
""focus"",""0"",""0""
""focus"",""1"",""3262""
","""event"",""trial"",""time""
""fullscreenenter"",""5"",""14389""
","
","","","","","","","","","","","","","","","","","","","","","",""
"d3-instructions","56","133996","0.0-56.0","946","1306","14","Female","false","false","false","false","""event"",""trial"",""time""
""blur"",""0"",""0""
""focus"",""0"",""0""
""blur"",""0"",""0""
""focus"",""1"",""3262""
""fullscreenenter"",""5"",""14389""
","""event"",""trial"",""time""
""blur"",""0"",""0""
""blur"",""0"",""0""
","""event"",""trial"",""time""
""focus"",""0"",""0""
""focus"",""1"",""3262""
","""event"",""trial"",""time""
""fullscreenenter"",""5"",""14389""
","
","","","","","","","","","","","","","","","","","","","","","",""
"d3-instructions","57","135614","0.0-57.0","946","1306","14","Female","false","false","false","false","""event"",""trial"",""time""
""blur"",""0"",""0""
""focus"",""0"",""0""
""blur"",""0"",""0""
""focus"",""1"",""3262""
""fullscreenenter"",""5"",""14389""
","""event"",""trial"",""time""
""blur"",""0"",""0""
""blur"",""0"",""0""
","""event"",""trial"",""time""
""focus"",""0"",""0""
""focus"",""1"",""3262""
","""event"",""trial"",""time""
""fullscreenenter"",""5"",""14389""
","
","","","","","","","","","","","","","","","","","","","","","",""
"d3-instructions","58","137942","0.0-58.0","946","1306","14","Female","false","false","false","false","""event"",""trial"",""time""
""blur"",""0"",""0""
""focus"",""0"",""0""
""blur"",""0"",""0""
""focus"",""1"",""3262""
""fullscreenenter"",""5"",""14389""
","""event"",""trial"",""time""
""blur"",""0"",""0""
""blur"",""0"",""0""
","""event"",""trial"",""time""
""focus"",""0"",""0""
""focus"",""1"",""3262""
","""event"",""trial"",""time""
""fullscreenenter"",""5"",""14389""
","
","","","","","","","","","","","","","","","","","","","","","",""
"d3-instructions","59","139277","0.0-59.0","946","1306","14","Female","false","false","false","false","""event"",""trial"",""time""
""blur"",""0"",""0""
""focus"",""0"",""0""
""blur"",""0"",""0""
""focus"",""1"",""3262""
""fullscreenenter"",""5"",""14389""
","""event"",""trial"",""time""
""blur"",""0"",""0""
""blur"",""0"",""0""
","""event"",""trial"",""time""
""focus"",""0"",""0""
""focus"",""1"",""3262""
","""event"",""trial"",""time""
""fullscreenenter"",""5"",""14389""
","
","","","","","","","","","","","","","","","","","","","","","",""
"d3-instructions","60","141407","0.0-60.0","946","1306","14","Female","false","false","false","false","""event"",""trial"",""time""
""blur"",""0"",""0""
""focus"",""0"",""0""
""blur"",""0"",""0""
""focus"",""1"",""3262""
""fullscreenenter"",""5"",""14389""
","""event"",""trial"",""time""
""blur"",""0"",""0""
""blur"",""0"",""0""
","""event"",""trial"",""time""
""focus"",""0"",""0""
""focus"",""1"",""3262""
","""event"",""trial"",""time""
""fullscreenenter"",""5"",""14389""
","
","","","","","","","","","","","","","","","","","","","","","",""
"d3-animate-choice","61","144168","0.0-61.0-0.0","946","1306","14","Female","false","false","false","false","""event"",""trial"",""time""
""blur"",""0"",""0""
""focus"",""0"",""0""
""blur"",""0"",""0""
""focus"",""1"",""3262""
""fullscreenenter"",""5"",""14389""
","""event"",""trial"",""time""
""blur"",""0"",""0""
""blur"",""0"",""0""
","""event"",""trial"",""time""
""focus"",""0"",""0""
""focus"",""1"",""3262""
","""event"",""trial"",""time""
""fullscreenenter"",""5"",""14389""
","
","752.8000000119209","","49","","","3000","1","2033.1000000238419","49","images/earth.jpg","images/tutrocket1","images/tutrocket2","null","images/tutrocket2","","1","practice","null","1","","",""
"d3-animate-choice","62","148218","0.0-61.0-1.0","946","1306","14","Female","false","false","false","false","""event"",""trial"",""time""
""blur"",""0"",""0""
""focus"",""0"",""0""
""blur"",""0"",""0""
""focus"",""1"",""3262""
""fullscreenenter"",""5"",""14389""
","""event"",""trial"",""time""
""blur"",""0"",""0""
""blur"",""0"",""0""
","""event"",""trial"",""time""
""focus"",""0"",""0""
""focus"",""1"",""3262""
","""event"",""trial"",""time""
""fullscreenenter"",""5"",""14389""
","
","1527.0999999642372","","187","","","3000","1","2582","49","images/tutyellowplanet.jpg","images/tutalien4","images/tutalien3","images/tutrocket2","images/tutalien3","images/nothing.png","2","practice","false","","rare","0","2022-04-01 20:07:01.511"
"two-step-fixation","63","149238","0.0-61.0-2.0","946","1306","14","Female","false","false","false","false","""event"",""trial"",""time""
""blur"",""0"",""0""
""focus"",""0"",""0""
""blur"",""0"",""0""
""focus"",""1"",""3262""
""fullscreenenter"",""5"",""14389""
","""event"",""trial"",""time""
""blur"",""0"",""0""
""blur"",""0"",""0""
","""event"",""trial"",""time""
""focus"",""0"",""0""
""focus"",""1"",""3262""
","""event"",""trial"",""time""
""fullscreenenter"",""5"",""14389""
","
","","images/earth.jpg","","","","","","","","","","","","","","fixation","","","","","",""
"d3-animate-choice","64","151997","0.0-61.0-0.1","946","1306","14","Female","false","false","false","false","""event"",""trial"",""time""
""blur"",""0"",""0""
""focus"",""0"",""0""
""blur"",""0"",""0""
""focus"",""1"",""3262""
""fullscreenenter"",""5"",""14389""
","""event"",""trial"",""time""
""blur"",""0"",""0""
""blur"",""0"",""0""
","""event"",""trial"",""time""
""focus"",""0"",""0""
""focus"",""1"",""3262""
","""event"",""trial"",""time""
""fullscreenenter"",""5"",""14389""
","
","745.8999999761581","","49","","","3000","1","","","images/earth.jpg","images/tutrocket1","images/tutrocket2","null","images/tutrocket2","","1","practice","null","1","","",""
"d3-animate-choice","65","156018","0.0-61.0-1.1","946","1306","14","Female","false","false","false","false","""event"",""trial"",""time""
""blur"",""0"",""0""
""focus"",""0"",""0""
""blur"",""0"",""0""
""focus"",""1"",""3262""
""fullscreenenter"",""5"",""14389""
","""event"",""trial"",""time""
""blur"",""0"",""0""
""blur"",""0"",""0""
","""event"",""trial"",""time""
""focus"",""0"",""0""
""focus"",""1"",""3262""
","""event"",""trial"",""time""
""fullscreenenter"",""5"",""14389""
","
","354.69999998807907","","187","","","3000","1","2154","48","images/tutgreenplanet.jpg","images/tutalien2","images/tutalien1","images/tutrocket2","images/tutalien2","images/nothing.png","2","practice","true","","common","0","2022-04-01 20:07:09.310"
"two-step-fixation","66","157028","0.0-61.0-2.1","946","1306","14","Female","false","false","false","false","""event"",""trial"",""time""
""blur"",""0"",""0""
""focus"",""0"",""0""
""blur"",""0"",""0""
""focus"",""1"",""3262""
""fullscreenenter"",""5"",""14389""
","""event"",""trial"",""time""
""blur"",""0"",""0""
""blur"",""0"",""0""
","""event"",""trial"",""time""
""focus"",""0"",""0""
""focus"",""1"",""3262""
","""event"",""trial"",""time""
""fullscreenenter"",""5"",""14389""
","
","","images/earth.jpg","","","","","","","","","","","","","","fixation","","","","","",""
"d3-animate-choice","67","159658","0.0-61.0-0.2","946","1306","14","Female","false","false","false","false","""event"",""trial"",""time""
""blur"",""0"",""0""
""focus"",""0"",""0""
""blur"",""0"",""0""
""focus"",""1"",""3262""
""fullscreenenter"",""5"",""14389""
","""event"",""trial"",""time""
""blur"",""0"",""0""
""blur"",""0"",""0""
","""event"",""trial"",""time""
""focus"",""0"",""0""
""focus"",""1"",""3262""
","""event"",""trial"",""time""
""fullscreenenter"",""5"",""14389""
","
","612.5999999642372","","49","","","3000","1","","","images/earth.jpg","images/tutrocket1","images/tutrocket2","null","images/tutrocket2","","1","practice","null","1","","",""
"d3-animate-choice","68","162120","0.0-61.0-1.2","946","1306","14","Female","false","false","false","false","""event"",""trial"",""time""
""blur"",""0"",""0""
""focus"",""0"",""0""
""blur"",""0"",""0""
""focus"",""1"",""3262""
""fullscreenenter"",""5"",""14389""
","""event"",""trial"",""time""
""blur"",""0"",""0""
""blur"",""0"",""0""
","""event"",""trial"",""time""
""focus"",""0"",""0""
""focus"",""1"",""3262""
","""event"",""trial"",""time""
""fullscreenenter"",""5"",""14389""
","
","453.5","","48","","","3000","1","","","images/tutgreenplanet.jpg","images/tutalien2","images/tutalien1","images/tutrocket2","images/tutalien2","images/t.png","2","practice","true","2","common","1","2022-04-01 20:07:15.412"
"two-step-fixation","69","163126","0.0-61.0-2.2","946","1306","14","Female","false","false","false","false","""event"",""trial"",""time""
""blur"",""0"",""0""
""focus"",""0"",""0""
""blur"",""0"",""0""
""focus"",""1"",""3262""
""fullscreenenter"",""5"",""14389""
","""event"",""trial"",""time""
""blur"",""0"",""0""
""blur"",""0"",""0""
","""event"",""trial"",""time""
""focus"",""0"",""0""
""focus"",""1"",""3262""
","""event"",""trial"",""time""
""fullscreenenter"",""5"",""14389""
","
","","images/earth.jpg","","","","","","","","","","","","","","fixation","","","","","",""
"d3-animate-choice","70","165536","0.0-61.0-0.3","946","1306","14","Female","false","false","false","false","""event"",""trial"",""time""
""blur"",""0"",""0""
""focus"",""0"",""0""
""blur"",""0"",""0""
""focus"",""1"",""3262""
""fullscreenenter"",""5"",""14389""
","""event"",""trial"",""time""
""blur"",""0"",""0""
""blur"",""0"",""0""
","""event"",""trial"",""time""
""focus"",""0"",""0""
""focus"",""1"",""3262""
","""event"",""trial"",""time""
""fullscreenenter"",""5"",""14389""
","
","403.89999997615814","","49","","","3000","1","","","images/earth.jpg","images/tutrocket1","images/tutrocket2","null","images/tutrocket2","","1","practice","null","1","","",""
"d3-animate-choice","71","167948","0.0-61.0-1.3","946","1306","14","Female","false","false","false","false","""event"",""trial"",""time""
""blur"",""0"",""0""
""focus"",""0"",""0""
""blur"",""0"",""0""
""focus"",""1"",""3262""
""fullscreenenter"",""5"",""14389""
","""event"",""trial"",""time""
""blur"",""0"",""0""
""blur"",""0"",""0""
","""event"",""trial"",""time""
""focus"",""0"",""0""
""focus"",""1"",""3262""
","""event"",""trial"",""time""
""fullscreenenter"",""5"",""14389""
","
","392","","48","","","3000","1","","","images/tutyellowplanet.jpg","images/tutalien4","images/tutalien3","images/tutrocket2","images/tutalien4","images/t.png","2","practice","false","2","rare","1","2022-04-01 20:07:21.240"
"two-step-fixation","72","168957","0.0-61.0-2.3","946","1306","14","Female","false","false","false","false","""event"",""trial"",""time""
""blur"",""0"",""0""
""focus"",""0"",""0""
""blur"",""0"",""0""
""focus"",""1"",""3262""
""fullscreenenter"",""5"",""14389""
","""event"",""trial"",""time""
""blur"",""0"",""0""
""blur"",""0"",""0""
","""event"",""trial"",""time""
""focus"",""0"",""0""
""focus"",""1"",""3262""
","""event"",""trial"",""time""
""fullscreenenter"",""5"",""14389""
","
","","images/earth.jpg","","","","","","","","","","","","","","fixation","","","","","",""
"d3-animate-choice","73","171427","0.0-61.0-0.4","946","1306","14","Female","false","false","false","false","""event"",""trial"",""time""
""blur"",""0"",""0""
""focus"",""0"",""0""
""blur"",""0"",""0""
""focus"",""1"",""3262""
""fullscreenenter"",""5"",""14389""
","""event"",""trial"",""time""
""blur"",""0"",""0""
""blur"",""0"",""0""
","""event"",""trial"",""time""
""focus"",""0"",""0""
""focus"",""1"",""3262""
","""event"",""trial"",""time""
""fullscreenenter"",""5"",""14389""
","
","459.7999999523163","","49","","","3000","1","","","images/earth.jpg","images/tutrocket1","images/tutrocket2","null","images/tutrocket2","","1","practice","null","1","","",""
"d3-animate-choice","74","173855","0.0-61.0-1.4","946","1306","14","Female","false","false","false","false","""event"",""trial"",""time""
""blur"",""0"",""0""
""focus"",""0"",""0""
""blur"",""0"",""0""
""focus"",""1"",""3262""
""fullscreenenter"",""5"",""14389""
","""event"",""trial"",""time""
""blur"",""0"",""0""
""blur"",""0"",""0""
","""event"",""trial"",""time""
""focus"",""0"",""0""
""focus"",""1"",""3262""
","""event"",""trial"",""time""
""fullscreenenter"",""5"",""14389""
","
","420.5","","48","","","3000","1","","","images/tutyellowplanet.jpg","images/tutalien4","images/tutalien3","images/tutrocket2","images/tutalien4","images/t.png","2","practice","false","2","rare","1","2022-04-01 20:07:27.147"
"two-step-fixation","75","174860","0.0-61.0-2.4","946","1306","14","Female","false","false","false","false","""event"",""trial"",""time""
""blur"",""0"",""0""
""focus"",""0"",""0""
""blur"",""0"",""0""
""focus"",""1"",""3262""
""fullscreenenter"",""5"",""14389""
","""event"",""trial"",""time""
""blur"",""0"",""0""
""blur"",""0"",""0""
","""event"",""trial"",""time""
""focus"",""0"",""0""
""focus"",""1"",""3262""
","""event"",""trial"",""time""
""fullscreenenter"",""5"",""14389""
","
","","images/earth.jpg","","","","","","","","","","","","","","fixation","","","","","",""
"d3-animate-choice","76","177201","0.0-61.0-0.5","946","1306","14","Female","false","false","false","false","""event"",""trial"",""time""
""blur"",""0"",""0""
""focus"",""0"",""0""
""blur"",""0"",""0""
""focus"",""1"",""3262""
""fullscreenenter"",""5"",""14389""
","""event"",""trial"",""time""
""blur"",""0"",""0""
""blur"",""0"",""0""
","""event"",""trial"",""time""
""focus"",""0"",""0""
""focus"",""1"",""3262""
","""event"",""trial"",""time""
""fullscreenenter"",""5"",""14389""
","
","333.5","","49","","","3000","1","","","images/earth.jpg","images/tutrocket1","images/tutrocket2","null","images/tutrocket2","","1","practice","null","1","","",""
"d3-animate-choice","77","179551","0.0-61.0-1.5","946","1306","14","Female","false","false","false","false","""event"",""trial"",""time""
""blur"",""0"",""0""
""focus"",""0"",""0""
""blur"",""0"",""0""
""focus"",""1"",""3262""
""fullscreenenter"",""5"",""14389""
","""event"",""trial"",""time""
""blur"",""0"",""0""
""blur"",""0"",""0""
","""event"",""trial"",""time""
""focus"",""0"",""0""
""focus"",""1"",""3262""
","""event"",""trial"",""time""
""fullscreenenter"",""5"",""14389""
","
","343.39999997615814","","48","","","3000","1","","","images/tutyellowplanet.jpg","images/tutalien4","images/tutalien3","images/tutrocket2","images/tutalien4","images/t.png","2","practice","false","2","rare","1","2022-04-01 20:07:32.843"
"two-step-fixation","78","180556","0.0-61.0-2.5","946","1306","14","Female","false","false","false","false","""event"",""trial"",""time""
""blur"",""0"",""0""
""focus"",""0"",""0""
""blur"",""0"",""0""
""focus"",""1"",""3262""
""fullscreenenter"",""5"",""14389""
","""event"",""trial"",""time""
""blur"",""0"",""0""
""blur"",""0"",""0""
","""event"",""trial"",""time""
""focus"",""0"",""0""
""focus"",""1"",""3262""
","""event"",""trial"",""time""
""fullscreenenter"",""5"",""14389""
","
","","images/earth.jpg","","","","","","","","","","","","","","fixation","","","","","",""
"d3-animate-choice","79","182912","0.0-61.0-0.6","946","1306","14","Female","false","false","false","false","""event"",""trial"",""time""
""blur"",""0"",""0""
""focus"",""0"",""0""
""blur"",""0"",""0""
""focus"",""1"",""3262""
""fullscreenenter"",""5"",""14389""
","""event"",""trial"",""time""
""blur"",""0"",""0""
""blur"",""0"",""0""
","""event"",""trial"",""time""
""focus"",""0"",""0""
""focus"",""1"",""3262""
","""event"",""trial"",""time""
""fullscreenenter"",""5"",""14389""
","
","348.5","","49","","","3000","1","","","images/earth.jpg","images/tutrocket1","images/tutrocket2","null","images/tutrocket2","","1","practice","null","1","","",""
"d3-animate-choice","80","185335","0.0-61.0-1.6","946","1306","14","Female","false","false","false","false","""event"",""trial"",""time""
""blur"",""0"",""0""
""focus"",""0"",""0""
""blur"",""0"",""0""
""focus"",""1"",""3262""
""fullscreenenter"",""5"",""14389""
","""event"",""trial"",""time""
""blur"",""0"",""0""
""blur"",""0"",""0""
","""event"",""trial"",""time""
""focus"",""0"",""0""
""focus"",""1"",""3262""
","""event"",""trial"",""time""
""fullscreenenter"",""5"",""14389""
","
","416.5","","48","","","3000","1","","","images/tutgreenplanet.jpg","images/tutalien2","images/tutalien1","images/tutrocket2","images/tutalien2","images/nothing.png","2","practice","true","2","common","0","2022-04-01 20:07:38.627"
"two-step-fixation","81","186340","0.0-61.0-2.6","946","1306","14","Female","false","false","false","false","""event"",""trial"",""time""
""blur"",""0"",""0""
""focus"",""0"",""0""
""blur"",""0"",""0""
""focus"",""1"",""3262""
""fullscreenenter"",""5"",""14389""
","""event"",""trial"",""time""
""blur"",""0"",""0""
""blur"",""0"",""0""
","""event"",""trial"",""time""
""focus"",""0"",""0""
""focus"",""1"",""3262""
","""event"",""trial"",""time""
""fullscreenenter"",""5"",""14389""
","
","","images/earth.jpg","","","","","","","","","","","","","","fixation","","","","","",""
"d3-animate-choice","82","188696","0.0-61.0-0.7","946","1306","14","Female","false","false","false","false","""event"",""trial"",""time""
""blur"",""0"",""0""
""focus"",""0"",""0""
""blur"",""0"",""0""
""focus"",""1"",""3262""
""fullscreenenter"",""5"",""14389""
","""event"",""trial"",""time""
""blur"",""0"",""0""
""blur"",""0"",""0""
","""event"",""trial"",""time""
""focus"",""0"",""0""
""focus"",""1"",""3262""
","""event"",""trial"",""time""
""fullscreenenter"",""5"",""14389""
","
","348.5","","49","","","3000","1","","","images/earth.jpg","images/tutrocket1","images/tutrocket2","null","images/tutrocket2","","1","practice","null","1","","",""
"d3-animate-choice","83","191049","0.0-61.0-1.7","946","1306","14","Female","false","false","false","false","""event"",""trial"",""time""
""blur"",""0"",""0""
""focus"",""0"",""0""
""blur"",""0"",""0""
""focus"",""1"",""3262""
""fullscreenenter"",""5"",""14389""
","""event"",""trial"",""time""
""blur"",""0"",""0""
""blur"",""0"",""0""
","""event"",""trial"",""time""
""focus"",""0"",""0""
""focus"",""1"",""3262""
","""event"",""trial"",""time""
""fullscreenenter"",""5"",""14389""
","
","342.89999997615814","","48","","","3000","1","","","images/tutgreenplanet.jpg","images/tutalien2","images/tutalien1","images/tutrocket2","images/tutalien2","images/nothing.png","2","practice","true","2","common","0","2022-04-01 20:07:44.341"
"two-step-fixation","84","192055","0.0-61.0-2.7","946","1306","14","Female","false","false","false","false","""event"",""trial"",""time""
""blur"",""0"",""0""
""focus"",""0"",""0""
""blur"",""0"",""0""
""focus"",""1"",""3262""
""fullscreenenter"",""5"",""14389""
","""event"",""trial"",""time""
""blur"",""0"",""0""
""blur"",""0"",""0""
","""event"",""trial"",""time""
""focus"",""0"",""0""
""focus"",""1"",""3262""
","""event"",""trial"",""time""
""fullscreenenter"",""5"",""14389""
","
","","images/earth.jpg","","","","","","","","","","","","","","fixation","","","","","",""
"d3-animate-choice","85","194407","0.0-61.0-0.8","946","1306","14","Female","false","false","false","false","""event"",""trial"",""time""
""blur"",""0"",""0""
""focus"",""0"",""0""
""blur"",""0"",""0""
""focus"",""1"",""3262""
""fullscreenenter"",""5"",""14389""
","""event"",""trial"",""time""
""blur"",""0"",""0""
""blur"",""0"",""0""
","""event"",""trial"",""time""
""focus"",""0"",""0""
""focus"",""1"",""3262""
","""event"",""trial"",""time""
""fullscreenenter"",""5"",""14389""
","
","344.89999997615814","","49","","","3000","1","","","images/earth.jpg","images/tutrocket1","images/tutrocket2","null","images/tutrocket2","","1","practice","null","1","","",""
"d3-animate-choice","86","196887","0.0-61.0-1.8","946","1306","14","Female","false","false","false","false","""event"",""trial"",""time""
""blur"",""0"",""0""
""focus"",""0"",""0""
""blur"",""0"",""0""
""focus"",""1"",""3262""
""fullscreenenter"",""5"",""14389""
","""event"",""trial"",""time""
""blur"",""0"",""0""
""blur"",""0"",""0""
","""event"",""trial"",""time""
""focus"",""0"",""0""
""focus"",""1"",""3262""
","""event"",""trial"",""time""
""fullscreenenter"",""5"",""14389""
","
","472.69999998807907","","48","","","3000","1","","","images/tutgreenplanet.jpg","images/tutalien2","images/tutalien1","images/tutrocket2","images/tutalien2","images/t.png","2","practice","true","2","common","1","2022-04-01 20:07:50.179"
"two-step-fixation","87","197893","0.0-61.0-2.8","946","1306","14","Female","false","false","false","false","""event"",""trial"",""time""
""blur"",""0"",""0""
""focus"",""0"",""0""
""blur"",""0"",""0""
""focus"",""1"",""3262""
""fullscreenenter"",""5"",""14389""
","""event"",""trial"",""time""
""blur"",""0"",""0""
""blur"",""0"",""0""
","""event"",""trial"",""time""
""focus"",""0"",""0""
""focus"",""1"",""3262""
","""event"",""trial"",""time""
""fullscreenenter"",""5"",""14389""
","
","","images/earth.jpg","","","","","","","","","","","","","","fixation","","","","","",""
"d3-animate-choice","88","200280","0.0-61.0-0.9","946","1306","14","Female","false","false","false","false","""event"",""trial"",""time""
""blur"",""0"",""0""
""focus"",""0"",""0""
""blur"",""0"",""0""
""focus"",""1"",""3262""
""fullscreenenter"",""5"",""14389""
","""event"",""trial"",""time""
""blur"",""0"",""0""
""blur"",""0"",""0""
","""event"",""trial"",""time""
""focus"",""0"",""0""
""focus"",""1"",""3262""
","""event"",""trial"",""time""
""fullscreenenter"",""5"",""14389""
","
","379.39999997615814","","48","","","3000","1","","","images/earth.jpg","images/tutrocket1","images/tutrocket2","null","images/tutrocket1","","1","practice","null","2","","",""
"d3-animate-choice","89","202704","0.0-61.0-1.9","946","1306","14","Female","false","false","false","false","""event"",""trial"",""time""
""blur"",""0"",""0""
""focus"",""0"",""0""
""blur"",""0"",""0""
""focus"",""1"",""3262""
""fullscreenenter"",""5"",""14389""
","""event"",""trial"",""time""
""blur"",""0"",""0""
""blur"",""0"",""0""
","""event"",""trial"",""time""
""focus"",""0"",""0""
""focus"",""1"",""3262""
","""event"",""trial"",""time""
""fullscreenenter"",""5"",""14389""
","
","416.69999998807907","","49","","","3000","1","","","images/tutyellowplanet.jpg","images/tutalien4","images/tutalien3","images/tutrocket1","images/tutalien3","images/t.png","2","practice","true","1","common","1","2022-04-01 20:07:55.996"
"two-step-fixation","90","203710","0.0-61.0-2.9","946","1306","14","Female","false","false","false","false","""event"",""trial"",""time""
""blur"",""0"",""0""
""focus"",""0"",""0""
""blur"",""0"",""0""
""focus"",""1"",""3262""
""fullscreenenter"",""5"",""14389""
","""event"",""trial"",""time""
""blur"",""0"",""0""
""blur"",""0"",""0""
","""event"",""trial"",""time""
""focus"",""0"",""0""
""focus"",""1"",""3262""
","""event"",""trial"",""time""
""fullscreenenter"",""5"",""14389""
","
","","images/earth.jpg","","","","","","","","","","","","","","fixation","","","","","",""
"d3-animate-choice","91","206105","0.0-61.0-0.10","946","1306","14","Female","false","false","false","false","""event"",""trial"",""time""
""blur"",""0"",""0""
""focus"",""0"",""0""
""blur"",""0"",""0""
""focus"",""1"",""3262""
""fullscreenenter"",""5"",""14389""
","""event"",""trial"",""time""
""blur"",""0"",""0""
""blur"",""0"",""0""
","""event"",""trial"",""time""
""focus"",""0"",""0""
""focus"",""1"",""3262""
","""event"",""trial"",""time""
""fullscreenenter"",""5"",""14389""
","
","387.5","","48","","","3000","1","","","images/earth.jpg","images/tutrocket1","images/tutrocket2","null","images/tutrocket1","","1","practice","null","2","","",""
"d3-animate-choice","92","208607","0.0-61.0-1.10","946","1306","14","Female","false","false","false","false","""event"",""trial"",""time""
""blur"",""0"",""0""
""focus"",""0"",""0""
""blur"",""0"",""0""
""focus"",""1"",""3262""
""fullscreenenter"",""5"",""14389""
","""event"",""trial"",""time""
""blur"",""0"",""0""
""blur"",""0"",""0""
","""event"",""trial"",""time""
""focus"",""0"",""0""
""focus"",""1"",""3262""
","""event"",""trial"",""time""
""fullscreenenter"",""5"",""14389""
","
","495.39999997615814","","49","","","3000","1","","","images/tutgreenplanet.jpg","images/tutalien2","images/tutalien1","images/tutrocket1","images/tutalien1","images/nothing.png","2","practice","false","1","rare","0","2022-04-01 20:08:01.899"
"two-step-fixation","93","209614","0.0-61.0-2.10","946","1306","14","Female","false","false","false","false","""event"",""trial"",""time""
""blur"",""0"",""0""
""focus"",""0"",""0""
""blur"",""0"",""0""
""focus"",""1"",""3262""
""fullscreenenter"",""5"",""14389""
","""event"",""trial"",""time""
""blur"",""0"",""0""
""blur"",""0"",""0""
","""event"",""trial"",""time""
""focus"",""0"",""0""
""focus"",""1"",""3262""
","""event"",""trial"",""time""
""fullscreenenter"",""5"",""14389""
","
","","images/earth.jpg","","","","","","","","","","","","","","fixation","","","","","",""
"d3-animate-choice","94","211984","0.0-61.0-0.11","946","1306","14","Female","false","false","false","false","""event"",""trial"",""time""
""blur"",""0"",""0""
""focus"",""0"",""0""
""blur"",""0"",""0""
""focus"",""1"",""3262""
""fullscreenenter"",""5"",""14389""
","""event"",""trial"",""time""
""blur"",""0"",""0""
""blur"",""0"",""0""
","""event"",""trial"",""time""
""focus"",""0"",""0""
""focus"",""1"",""3262""
","""event"",""trial"",""time""
""fullscreenenter"",""5"",""14389""
","
","362.60000002384186","","48","","","3000","1","","","images/earth.jpg","images/tutrocket1","images/tutrocket2","null","images/tutrocket1","","1","practice","null","2","","",""
"d3-animate-choice","95","214390","0.0-61.0-1.11","946","1306","14","Female","false","false","false","false","""event"",""trial"",""time""
""blur"",""0"",""0""
""focus"",""0"",""0""
""blur"",""0"",""0""
""focus"",""1"",""3262""
""fullscreenenter"",""5"",""14389""
","""event"",""trial"",""time""
""blur"",""0"",""0""
""blur"",""0"",""0""
","""event"",""trial"",""time""
""focus"",""0"",""0""
""focus"",""1"",""3262""
","""event"",""trial"",""time""
""fullscreenenter"",""5"",""14389""
","
","400","","48","","","3000","1","","","images/tutgreenplanet.jpg","images/tutalien2","images/tutalien1","images/tutrocket1","images/tutalien2","images/nothing.png","2","practice","false","2","rare","0","2022-04-01 20:08:07.682"
"two-step-fixation","96","215396","0.0-61.0-2.11","946","1306","14","Female","false","false","false","false","""event"",""trial"",""time""
""blur"",""0"",""0""
""focus"",""0"",""0""
""blur"",""0"",""0""
""focus"",""1"",""3262""
""fullscreenenter"",""5"",""14389""
","""event"",""trial"",""time""
""blur"",""0"",""0""
""blur"",""0"",""0""
","""event"",""trial"",""time""
""focus"",""0"",""0""
""focus"",""1"",""3262""
","""event"",""trial"",""time""
""fullscreenenter"",""5"",""14389""
","
","","images/earth.jpg","","","","","","","","","","","","","","fixation","","","","","",""
"d3-animate-choice","97","217864","0.0-61.0-0.12","946","1306","14","Female","false","false","false","false","""event"",""trial"",""time""
""blur"",""0"",""0""
""focus"",""0"",""0""
""blur"",""0"",""0""
""focus"",""1"",""3262""
""fullscreenenter"",""5"",""14389""
","""event"",""trial"",""time""
""blur"",""0"",""0""
""blur"",""0"",""0""
","""event"",""trial"",""time""
""focus"",""0"",""0""
""focus"",""1"",""3262""
","""event"",""trial"",""time""
""fullscreenenter"",""5"",""14389""
","
","461.30000001192093","","48","","","3000","1","","","images/earth.jpg","images/tutrocket1","images/tutrocket2","null","images/tutrocket1","","1","practice","null","2","","",""
"d3-animate-choice","98","220231","0.0-61.0-1.12","946","1306","14","Female","false","false","false","false","""event"",""trial"",""time""
""blur"",""0"",""0""
""focus"",""0"",""0""
""blur"",""0"",""0""
""focus"",""1"",""3262""
""fullscreenenter"",""5"",""14389""
","""event"",""trial"",""time""
""blur"",""0"",""0""
""blur"",""0"",""0""
","""event"",""trial"",""time""
""focus"",""0"",""0""
""focus"",""1"",""3262""
","""event"",""trial"",""time""
""fullscreenenter"",""5"",""14389""
","
","359.5","","49","","","3000","1","","","images/tutyellowplanet.jpg","images/tutalien4","images/tutalien3","images/tutrocket1","images/tutalien3","images/t.png","2","practice","true","1","common","1","2022-04-01 20:08:13.523"
"two-step-fixation","99","221236","0.0-61.0-2.12","946","1306","14","Female","false","false","false","false","""event"",""trial"",""time""
""blur"",""0"",""0""
""focus"",""0"",""0""
""blur"",""0"",""0""
""focus"",""1"",""3262""
""fullscreenenter"",""5"",""14389""
","""event"",""trial"",""time""
""blur"",""0"",""0""
""blur"",""0"",""0""
","""event"",""trial"",""time""
""focus"",""0"",""0""
""focus"",""1"",""3262""
","""event"",""trial"",""time""
""fullscreenenter"",""5"",""14389""
","
","","images/earth.jpg","","","","","","","","","","","","","","fixation","","","","","",""
"d3-animate-choice","100","223601","0.0-61.0-0.13","946","1306","14","Female","false","false","false","false","""event"",""trial"",""time""
""blur"",""0"",""0""
""focus"",""0"",""0""
""blur"",""0"",""0""
""focus"",""1"",""3262""
""fullscreenenter"",""5"",""14389""
","""event"",""trial"",""time""
""blur"",""0"",""0""
""blur"",""0"",""0""
","""event"",""trial"",""time""
""focus"",""0"",""0""
""focus"",""1"",""3262""
","""event"",""trial"",""time""
""fullscreenenter"",""5"",""14389""
","
","356.9000000357628","","48","","","3000","1","","","images/earth.jpg","images/tutrocket1","images/tutrocket2","null","images/tutrocket1","","1","practice","null","2","","",""
"d3-animate-choice","101","226037","0.0-61.0-1.13","946","1306","14","Female","false","false","false","false","""event"",""trial"",""time""
""blur"",""0"",""0""
""focus"",""0"",""0""
""blur"",""0"",""0""
""focus"",""1"",""3262""
""fullscreenenter"",""5"",""14389""
","""event"",""trial"",""time""
""blur"",""0"",""0""
""blur"",""0"",""0""
","""event"",""trial"",""time""
""focus"",""0"",""0""
""focus"",""1"",""3262""
","""event"",""trial"",""time""
""fullscreenenter"",""5"",""14389""
","
","423.9000000357628","","49","","","3000","1","","","images/tutyellowplanet.jpg","images/tutalien4","images/tutalien3","images/tutrocket1","images/tutalien3","images/nothing.png","2","practice","true","1","common","0","2022-04-01 20:08:19.329"
"two-step-fixation","102","227043","0.0-61.0-2.13","946","1306","14","Female","false","false","false","false","""event"",""trial"",""time""
""blur"",""0"",""0""
""focus"",""0"",""0""
""blur"",""0"",""0""
""focus"",""1"",""3262""
""fullscreenenter"",""5"",""14389""
","""event"",""trial"",""time""
""blur"",""0"",""0""
""blur"",""0"",""0""
","""event"",""trial"",""time""
""focus"",""0"",""0""
""focus"",""1"",""3262""
","""event"",""trial"",""time""
""fullscreenenter"",""5"",""14389""
","
","","images/earth.jpg","","","","","","","","","","","","","","fixation","","","","","",""
"d3-animate-choice","103","229400","0.0-61.0-0.14","946","1306","14","Female","false","false","false","false","""event"",""trial"",""time""
""blur"",""0"",""0""
""focus"",""0"",""0""
""blur"",""0"",""0""
""focus"",""1"",""3262""
""fullscreenenter"",""5"",""14389""
","""event"",""trial"",""time""
""blur"",""0"",""0""
""blur"",""0"",""0""
","""event"",""trial"",""time""
""focus"",""0"",""0""
""focus"",""1"",""3262""
","""event"",""trial"",""time""
""fullscreenenter"",""5"",""14389""
","
","349.5","","48","","","3000","1","","","images/earth.jpg","images/tutrocket1","images/tutrocket2","null","images/tutrocket1","","1","practice","null","2","","",""
"d3-animate-choice","104","231959","0.0-61.0-1.14","946","1306","14","Female","false","false","false","false","""event"",""trial"",""time""
""blur"",""0"",""0""
""focus"",""0"",""0""
""blur"",""0"",""0""
""focus"",""1"",""3262""
""fullscreenenter"",""5"",""14389""
","""event"",""trial"",""time""
""blur"",""0"",""0""
""blur"",""0"",""0""
","""event"",""trial"",""time""
""focus"",""0"",""0""
""focus"",""1"",""3262""
","""event"",""trial"",""time""
""fullscreenenter"",""5"",""14389""
","
","552.6999999880791","","49","","","3000","1","","","images/tutyellowplanet.jpg","images/tutalien4","images/tutalien3","images/tutrocket1","images/tutalien3","images/t.png","2","practice","true","1","common","1","2022-04-01 20:08:25.251"
"two-step-fixation","105","232965","0.0-61.0-2.14","946","1306","14","Female","false","false","false","false","""event"",""trial"",""time""
""blur"",""0"",""0""
""focus"",""0"",""0""
""blur"",""0"",""0""
""focus"",""1"",""3262""
""fullscreenenter"",""5"",""14389""
","""event"",""trial"",""time""
""blur"",""0"",""0""
""blur"",""0"",""0""
","""event"",""trial"",""time""
""focus"",""0"",""0""
""focus"",""1"",""3262""
","""event"",""trial"",""time""
""fullscreenenter"",""5"",""14389""
","
","","images/earth.jpg","","","","","","","","","","","","","","fixation","","","","","",""
"d3-animate-choice","106","235464","0.0-61.0-0.15","946","1306","14","Female","false","false","false","false","""event"",""trial"",""time""
""blur"",""0"",""0""
""focus"",""0"",""0""
""blur"",""0"",""0""
""focus"",""1"",""3262""
""fullscreenenter"",""5"",""14389""
","""event"",""trial"",""time""
""blur"",""0"",""0""
""blur"",""0"",""0""
","""event"",""trial"",""time""
""focus"",""0"",""0""
""focus"",""1"",""3262""
","""event"",""trial"",""time""
""fullscreenenter"",""5"",""14389""
","
","492","","48","","","3000","1","","","images/earth.jpg","images/tutrocket1","images/tutrocket2","null","images/tutrocket1","","1","practice","null","2","","",""
"d3-animate-choice","107","238216","0.0-61.0-1.15","946","1306","14","Female","false","false","false","false","""event"",""trial"",""time""
""blur"",""0"",""0""
""focus"",""0"",""0""
""blur"",""0"",""0""
""focus"",""1"",""3262""
""fullscreenenter"",""5"",""14389""
","""event"",""trial"",""time""
""blur"",""0"",""0""
""blur"",""0"",""0""
","""event"",""trial"",""time""
""focus"",""0"",""0""
""focus"",""1"",""3262""
","""event"",""trial"",""time""
""fullscreenenter"",""5"",""14389""
","
","744.3000000119209","","48","","","3000","1","","","images/tutyellowplanet.jpg","images/tutalien4","images/tutalien3","images/tutrocket1","images/tutalien4","images/nothing.png","2","practice","true","2","common","0","2022-04-01 20:08:31.508"
"two-step-fixation","108","239222","0.0-61.0-2.15","946","1306","14","Female","false","false","false","false","""event"",""trial"",""time""
""blur"",""0"",""0""
""focus"",""0"",""0""
""blur"",""0"",""0""
""focus"",""1"",""3262""
""fullscreenenter"",""5"",""14389""
","""event"",""trial"",""time""
""blur"",""0"",""0""
""blur"",""0"",""0""
","""event"",""trial"",""time""
""focus"",""0"",""0""
""focus"",""1"",""3262""
","""event"",""trial"",""time""
""fullscreenenter"",""5"",""14389""
","
","","images/earth.jpg","","","","","","","","","","","","","","fixation","","","","","",""
"d3-animate-choice","109","241665","0.0-61.0-0.16","946","1306","14","Female","false","false","false","false","""event"",""trial"",""time""
""blur"",""0"",""0""
""focus"",""0"",""0""
""blur"",""0"",""0""
""focus"",""1"",""3262""
""fullscreenenter"",""5"",""14389""
","""event"",""trial"",""time""
""blur"",""0"",""0""
""blur"",""0"",""0""
","""event"",""trial"",""time""
""focus"",""0"",""0""
""focus"",""1"",""3262""
","""event"",""trial"",""time""
""fullscreenenter"",""5"",""14389""
","
","435.19999998807907","","48","","","3000","1","","","images/earth.jpg","images/tutrocket1","images/tutrocket2","null","images/tutrocket1","","1","practice","null","2","","",""
"d3-animate-choice","110","244479","0.0-61.0-1.16","946","1306","14","Female","false","false","false","false","""event"",""trial"",""time""
""blur"",""0"",""0""
""focus"",""0"",""0""
""blur"",""0"",""0""
""focus"",""1"",""3262""
""fullscreenenter"",""5"",""14389""
","""event"",""trial"",""time""
""blur"",""0"",""0""
""blur"",""0"",""0""
","""event"",""trial"",""time""
""focus"",""0"",""0""
""focus"",""1"",""3262""
","""event"",""trial"",""time""
""fullscreenenter"",""5"",""14389""
","
","804.0999999642372","","49","","","3000","1","","","images/tutgreenplanet.jpg","images/tutalien2","images/tutalien1","images/tutrocket1","images/tutalien1","images/t.png","2","practice","false","1","rare","1","2022-04-01 20:08:37.772"
"two-step-fixation","111","245485","0.0-61.0-2.16","946","1306","14","Female","false","false","false","false","""event"",""trial"",""time""
""blur"",""0"",""0""
""focus"",""0"",""0""
""blur"",""0"",""0""
""focus"",""1"",""3262""
""fullscreenenter"",""5"",""14389""
","""event"",""trial"",""time""
""blur"",""0"",""0""
""blur"",""0"",""0""
","""event"",""trial"",""time""
""focus"",""0"",""0""
""focus"",""1"",""3262""
","""event"",""trial"",""time""
""fullscreenenter"",""5"",""14389""
","
","","images/earth.jpg","","","","","","","","","","","","","","fixation","","","","","",""
"d3-animate-choice","112","248056","0.0-61.0-0.17","946","1306","14","Female","false","false","false","false","""event"",""trial"",""time""
""blur"",""0"",""0""
""focus"",""0"",""0""
""blur"",""0"",""0""
""focus"",""1"",""3262""
""fullscreenenter"",""5"",""14389""
","""event"",""trial"",""time""
""blur"",""0"",""0""
""blur"",""0"",""0""
","""event"",""trial"",""time""
""focus"",""0"",""0""
""focus"",""1"",""3262""
","""event"",""trial"",""time""
""fullscreenenter"",""5"",""14389""
","
","565.3999999761581","","48","","","3000","1","","","images/earth.jpg","images/tutrocket1","images/tutrocket2","null","images/tutrocket1","","1","practice","null","2","","",""
"d3-animate-choice","113","250831","0.0-61.0-1.17","946","1306","14","Female","false","false","false","false","""event"",""trial"",""time""
""blur"",""0"",""0""
""focus"",""0"",""0""
""blur"",""0"",""0""
""focus"",""1"",""3262""
""fullscreenenter"",""5"",""14389""
","""event"",""trial"",""time""
""blur"",""0"",""0""
""blur"",""0"",""0""
","""event"",""trial"",""time""
""focus"",""0"",""0""
""focus"",""1"",""3262""
","""event"",""trial"",""time""
""fullscreenenter"",""5"",""14389""
","
","767.8000000119209","","48","","","3000","1","","","images/tutyellowplanet.jpg","images/tutalien4","images/tutalien3","images/tutrocket1","images/tutalien4","images/t.png","2","practice","true","2","common","1","2022-04-01 20:08:44.123"
"two-step-fixation","114","251837","0.0-61.0-2.17","946","1306","14","Female","false","false","false","false","""event"",""trial"",""time""
""blur"",""0"",""0""
""focus"",""0"",""0""
""blur"",""0"",""0""
""focus"",""1"",""3262""
""fullscreenenter"",""5"",""14389""
","""event"",""trial"",""time""
""blur"",""0"",""0""
""blur"",""0"",""0""
","""event"",""trial"",""time""
""focus"",""0"",""0""
""focus"",""1"",""3262""
","""event"",""trial"",""time""
""fullscreenenter"",""5"",""14389""
","
","","images/earth.jpg","","","","","","","","","","","","","","fixation","","","","","",""
"d3-animate-choice","115","254328","0.0-61.0-0.18","946","1306","14","Female","false","false","false","false","""event"",""trial"",""time""
""blur"",""0"",""0""
""focus"",""0"",""0""
""blur"",""0"",""0""
""focus"",""1"",""3262""
""fullscreenenter"",""5"",""14389""
","""event"",""trial"",""time""
""blur"",""0"",""0""
""blur"",""0"",""0""
","""event"",""trial"",""time""
""focus"",""0"",""0""
""focus"",""1"",""3262""
","""event"",""trial"",""time""
""fullscreenenter"",""5"",""14389""
","
","483.0999999642372","","48","","","3000","1","","","images/earth.jpg","images/tutrocket1","images/tutrocket2","null","images/tutrocket1","","1","practice","null","2","","",""
"d3-animate-choice","116","256792","0.0-61.0-1.18","946","1306","14","Female","false","false","false","false","""event"",""trial"",""time""
""blur"",""0"",""0""
""focus"",""0"",""0""
""blur"",""0"",""0""
""focus"",""1"",""3262""
""fullscreenenter"",""5"",""14389""
","""event"",""trial"",""time""
""blur"",""0"",""0""
""blur"",""0"",""0""
","""event"",""trial"",""time""
""focus"",""0"",""0""
""focus"",""1"",""3262""
","""event"",""trial"",""time""
""fullscreenenter"",""5"",""14389""
","
","456.30000001192093","","49","","","3000","1","","","images/tutyellowplanet.jpg","images/tutalien4","images/tutalien3","images/tutrocket1","images/tutalien3","images/nothing.png","2","practice","true","1","common","0","2022-04-01 20:08:50.084"
"two-step-fixation","117","257798","0.0-61.0-2.18","946","1306","14","Female","false","false","false","false","""event"",""trial"",""time""
""blur"",""0"",""0""
""focus"",""0"",""0""
""blur"",""0"",""0""
""focus"",""1"",""3262""
""fullscreenenter"",""5"",""14389""
","""event"",""trial"",""time""
""blur"",""0"",""0""
""blur"",""0"",""0""
","""event"",""trial"",""time""
""focus"",""0"",""0""
""focus"",""1"",""3262""
","""event"",""trial"",""time""
""fullscreenenter"",""5"",""14389""
","
","","images/earth.jpg","","","","","","","","","","","","","","fixation","","","","","",""
"d3-animate-choice","118","260328","0.0-61.0-0.19","946","1306","14","Female","false","false","false","false","""event"",""trial"",""time""
""blur"",""0"",""0""
""focus"",""0"",""0""
""blur"",""0"",""0""
""focus"",""1"",""3262""
""fullscreenenter"",""5"",""14389""
","""event"",""trial"",""time""
""blur"",""0"",""0""
""blur"",""0"",""0""
","""event"",""trial"",""time""
""focus"",""0"",""0""
""focus"",""1"",""3262""
","""event"",""trial"",""time""
""fullscreenenter"",""5"",""14389""
","
","523.5999999642372","","49","","","3000","1","","","images/earth.jpg","images/tutrocket1","images/tutrocket2","null","images/tutrocket2","","1","practice","null","1","","",""
"d3-animate-choice","119","263895","0.0-61.0-1.19","946","1306","14","Female","false","false","false","false","""event"",""trial"",""time""
""blur"",""0"",""0""
""focus"",""0"",""0""
""blur"",""0"",""0""
""focus"",""1"",""3262""
""fullscreenenter"",""5"",""14389""
","""event"",""trial"",""time""
""blur"",""0"",""0""
""blur"",""0"",""0""
","""event"",""trial"",""time""
""focus"",""0"",""0""
""focus"",""1"",""3262""
","""event"",""trial"",""time""
""fullscreenenter"",""5"",""14389""
","
","1560.9000000357628","","48","","","3000","1","","","images/tutgreenplanet.jpg","images/tutalien2","images/tutalien1","images/tutrocket2","images/tutalien2","images/nothing.png","2","practice","true","2","common","0","2022-04-01 20:08:57.187"
"two-step-fixation","120","264901","0.0-61.0-2.19","946","1306","14","Female","false","false","false","false","""event"",""trial"",""time""
""blur"",""0"",""0""
""focus"",""0"",""0""
""blur"",""0"",""0""
""focus"",""1"",""3262""
""fullscreenenter"",""5"",""14389""
","""event"",""trial"",""time""
""blur"",""0"",""0""
""blur"",""0"",""0""
","""event"",""trial"",""time""
""focus"",""0"",""0""
""focus"",""1"",""3262""
","""event"",""trial"",""time""
""fullscreenenter"",""5"",""14389""
","
","","images/earth.jpg","","","","","","","","","","","","","","fixation","","","","","",""
"d3-instructions","121","268559","0.0-62.0","946","1306","14","Female","false","false","false","false","""event"",""trial"",""time""
""blur"",""0"",""0""
""focus"",""0"",""0""
""blur"",""0"",""0""
""focus"",""1"",""3262""
""fullscreenenter"",""5"",""14389""
","""event"",""trial"",""time""
""blur"",""0"",""0""
""blur"",""0"",""0""
","""event"",""trial"",""time""
""focus"",""0"",""0""
""focus"",""1"",""3262""
","""event"",""trial"",""time""
""fullscreenenter"",""5"",""14389""
","
","","","","","","","","","","","","","","","","","","","","","",""
"audio-keyboard-response","122","272246","0.0-63.0","946","1306","14","Female","false","false","false","false","""event"",""trial"",""time""
""blur"",""0"",""0""
""focus"",""0"",""0""
""blur"",""0"",""0""
""focus"",""1"",""3262""
""fullscreenenter"",""5"",""14389""
","""event"",""trial"",""time""
""blur"",""0"",""0""
""blur"",""0"",""0""
","""event"",""trial"",""time""
""focus"",""0"",""0""
""focus"",""1"",""3262""
","""event"",""trial"",""time""
""fullscreenenter"",""5"",""14389""
","
","3680","audio/instructions/treasure_feedback.wav","32","","","","","","","","","","","","","","","","","","",""
"d3-instructions","123","273638","0.0-64.0","946","1306","14","Female","false","false","false","false","""event"",""trial"",""time""
""blur"",""0"",""0""
""focus"",""0"",""0""
""blur"",""0"",""0""
""focus"",""1"",""3262""
""fullscreenenter"",""5"",""14389""
","""event"",""trial"",""time""
""blur"",""0"",""0""
""blur"",""0"",""0""
","""event"",""trial"",""time""
""focus"",""0"",""0""
""focus"",""1"",""3262""
","""event"",""trial"",""time""
""fullscreenenter"",""5"",""14389""
","
","","","","","","","","","","","","","","","","","","","","","",""
"d3-instructions","124","274870","0.0-65.0","946","1306","14","Female","false","false","false","false","""event"",""trial"",""time""
""blur"",""0"",""0""
""focus"",""0"",""0""
""blur"",""0"",""0""
""focus"",""1"",""3262""
""fullscreenenter"",""5"",""14389""
","""event"",""trial"",""time""
""blur"",""0"",""0""
""blur"",""0"",""0""
","""event"",""trial"",""time""
""focus"",""0"",""0""
""focus"",""1"",""3262""
","""event"",""trial"",""time""
""fullscreenenter"",""5"",""14389""
","
","","","","","","","","","","","","","","","","","","","","","",""
"d3-instructions","125","276030","0.0-66.0","946","1306","14","Female","false","false","false","false","""event"",""trial"",""time""
""blur"",""0"",""0""
""focus"",""0"",""0""
""blur"",""0"",""0""
""focus"",""1"",""3262""
""fullscreenenter"",""5"",""14389""
","""event"",""trial"",""time""
""blur"",""0"",""0""
""blur"",""0"",""0""
","""event"",""trial"",""time""
""focus"",""0"",""0""
""focus"",""1"",""3262""
","""event"",""trial"",""time""
""fullscreenenter"",""5"",""14389""
","
","","","","","","","","","","","","","","","","","","","","","",""
"d3-instructions","126","277101","0.0-67.0","946","1306","14","Female","false","false","false","false","""event"",""trial"",""time""
""blur"",""0"",""0""
""focus"",""0"",""0""
""blur"",""0"",""0""
""focus"",""1"",""3262""
""fullscreenenter"",""5"",""14389""
","""event"",""trial"",""time""
""blur"",""0"",""0""
""blur"",""0"",""0""
","""event"",""trial"",""time""
""focus"",""0"",""0""
""focus"",""1"",""3262""
","""event"",""trial"",""time""
""fullscreenenter"",""5"",""14389""
","
","","","","","","","","","","","","","","","","","","","","","",""
"d3-instructions","127","278037","0.0-68.0","946","1306","14","Female","false","false","false","false","""event"",""trial"",""time""
""blur"",""0"",""0""
""focus"",""0"",""0""
""blur"",""0"",""0""
""focus"",""1"",""3262""
""fullscreenenter"",""5"",""14389""
","""event"",""trial"",""time""
""blur"",""0"",""0""
""blur"",""0"",""0""
","""event"",""trial"",""time""
""focus"",""0"",""0""
""focus"",""1"",""3262""
","""event"",""trial"",""time""
""fullscreenenter"",""5"",""14389""
","
","","","","","","","","","","","","","","","","","","","","","",""
"instructions-quiz","128","283076","0.0-69.0","946","1306","14","Female","false","false","false","false","""event"",""trial"",""time""
""blur"",""0"",""0""
""focus"",""0"",""0""
""blur"",""0"",""0""
""focus"",""1"",""3262""
""fullscreenenter"",""5"",""14389""
","""event"",""trial"",""time""
""blur"",""0"",""0""
""blur"",""0"",""0""
","""event"",""trial"",""time""
""focus"",""0"",""0""
""focus"",""1"",""3262""
","""event"",""trial"",""time""
""fullscreenenter"",""5"",""14389""
","
","5035.599999964237","audio/quiz/Q1_Prompt.wav","","1","","","","","","","","","","","","","","","","","",""
"audio-keyboard-response","129","284789","0.0-70.0","946","1306","14","Female","false","false","false","false","""event"",""trial"",""time""
""blur"",""0"",""0""
""focus"",""0"",""0""
""blur"",""0"",""0""
""focus"",""1"",""3262""
""fullscreenenter"",""5"",""14389""
","""event"",""trial"",""time""
""blur"",""0"",""0""
""blur"",""0"",""0""
","""event"",""trial"",""time""
""focus"",""0"",""0""
""focus"",""1"",""3262""
","""event"",""trial"",""time""
""fullscreenenter"",""5"",""14389""
","
","1709","audio/quiz/Q1_Correct.wav","32","","","","","","","","","","","","","","","","","","",""
"instructions-quiz","130","289516","0.0-71.0","946","1306","14","Female","false","false","false","false","""event"",""trial"",""time""
""blur"",""0"",""0""
""focus"",""0"",""0""
""blur"",""0"",""0""
""focus"",""1"",""3262""
""fullscreenenter"",""5"",""14389""
","""event"",""trial"",""time""
""blur"",""0"",""0""
""blur"",""0"",""0""
","""event"",""trial"",""time""
""focus"",""0"",""0""
""focus"",""1"",""3262""
","""event"",""trial"",""time""
""fullscreenenter"",""5"",""14389""
","
","4724.199999988079","audio/quiz/Q2_Prompt.wav","","0","","","","","","","","","","","","","","","","","",""
"audio-keyboard-response","131","290973","0.0-72.0","946","1306","14","Female","false","false","false","false","""event"",""trial"",""time""
""blur"",""0"",""0""
""focus"",""0"",""0""
""blur"",""0"",""0""
""focus"",""1"",""3262""
""fullscreenenter"",""5"",""14389""
","""event"",""trial"",""time""
""blur"",""0"",""0""
""blur"",""0"",""0""
","""event"",""trial"",""time""
""focus"",""0"",""0""
""focus"",""1"",""3262""
","""event"",""trial"",""time""
""fullscreenenter"",""5"",""14389""
","
","1451","audio/quiz/Q2_Correct.wav","32","","","","","","","","","","","","","","","","","","",""
"instructions-quiz","132","293372","0.0-73.0","946","1306","14","Female","false","false","false","false","""event"",""trial"",""time""
""blur"",""0"",""0""
""focus"",""0"",""0""
""blur"",""0"",""0""
""focus"",""1"",""3262""
""fullscreenenter"",""5"",""14389""
","""event"",""trial"",""time""
""blur"",""0"",""0""
""blur"",""0"",""0""
","""event"",""trial"",""time""
""focus"",""0"",""0""
""focus"",""1"",""3262""
","""event"",""trial"",""time""
""fullscreenenter"",""5"",""14389""
","
","2395.399999976158","audio/quiz/Q3_Prompt.wav","","1","","","","","","","","","","","","","","","","","",""
"audio-keyboard-response","133","293654","0.0-74.0","946","1306","14","Female","false","false","false","false","""event"",""trial"",""time""
""blur"",""0"",""0""
""focus"",""0"",""0""
""blur"",""0"",""0""
""focus"",""1"",""3262""
""fullscreenenter"",""5"",""14389""
","""event"",""trial"",""time""
""blur"",""0"",""0""
""blur"",""0"",""0""
","""event"",""trial"",""time""
""focus"",""0"",""0""
""focus"",""1"",""3262""
","""event"",""trial"",""time""
""fullscreenenter"",""5"",""14389""
","
","280","audio/quiz/Q3_Correct.wav","32","","","","","","","","","","","","","","","","","","",""
"d3-instructions","134","295646","0.0-75.0","946","1306","14","Female","false","false","false","false","""event"",""trial"",""time""
""blur"",""0"",""0""
""focus"",""0"",""0""
""blur"",""0"",""0""
""focus"",""1"",""3262""
""fullscreenenter"",""5"",""14389""
","""event"",""trial"",""time""
""blur"",""0"",""0""
""blur"",""0"",""0""
","""event"",""trial"",""time""
""focus"",""0"",""0""
""focus"",""1"",""3262""
","""event"",""trial"",""time""
""fullscreenenter"",""5"",""14389""
","
","","","","","","","","","","","","","","","","","","","","","",""
"d3-animate-choice","135","298536","0.0-76.0-0.0","946","1306","14","Female","false","false","false","false","""event"",""trial"",""time""
""blur"",""0"",""0""
""focus"",""0"",""0""
""blur"",""0"",""0""
""focus"",""1"",""3262""
""fullscreenenter"",""5"",""14389""
","""event"",""trial"",""time""
""blur"",""0"",""0""
""blur"",""0"",""0""
","""event"",""trial"",""time""
""focus"",""0"",""0""
""focus"",""1"",""3262""
","""event"",""trial"",""time""
""fullscreenenter"",""5"",""14389""
","
","882.1999999880791","","49","","","3000","1","","","images/earth.jpg","images/rocket1","images/rocket2","null","images/rocket2","","1","real","null","1","","",""
"d3-animate-choice","136","300832","0.0-76.0-1.0","946","1306","14","Female","false","false","false","false","""event"",""trial"",""time""
""blur"",""0"",""0""
""focus"",""0"",""0""
""blur"",""0"",""0""
""focus"",""1"",""3262""
""fullscreenenter"",""5"",""14389""
","""event"",""trial"",""time""
""blur"",""0"",""0""
""blur"",""0"",""0""
","""event"",""trial"",""time""
""focus"",""0"",""0""
""focus"",""1"",""3262""
","""event"",""trial"",""time""
""fullscreenenter"",""5"",""14389""
","
","286.69999998807907","","48","","","3000","1","","","images/redplanet1.jpg","images/alien2","images/alien1","images/rocket2","images/alien2","images/t.png","2","real","true","2","common","1","2022-04-01 20:09:34.124"
"two-step-fixation","137","301838","0.0-76.0-2.0","946","1306","14","Female","false","false","false","false","""event"",""trial"",""time""
""blur"",""0"",""0""
""focus"",""0"",""0""
""blur"",""0"",""0""
""focus"",""1"",""3262""
""fullscreenenter"",""5"",""14389""
","""event"",""trial"",""time""
""blur"",""0"",""0""
""blur"",""0"",""0""
","""event"",""trial"",""time""
""focus"",""0"",""0""
""focus"",""1"",""3262""
","""event"",""trial"",""time""
""fullscreenenter"",""5"",""14389""
","
","","images/earth.jpg","","","","","","","","","","","","","","fixation","","","","","",""
"d3-animate-choice","138","304208","0.0-76.0-0.1","946","1306","14","Female","false","false","false","false","""event"",""trial"",""time""
""blur"",""0"",""0""
""focus"",""0"",""0""
""blur"",""0"",""0""
""focus"",""1"",""3262""
""fullscreenenter"",""5"",""14389""
","""event"",""trial"",""time""
""blur"",""0"",""0""
""blur"",""0"",""0""
","""event"",""trial"",""time""
""focus"",""0"",""0""
""focus"",""1"",""3262""
","""event"",""trial"",""time""
""fullscreenenter"",""5"",""14389""
","
","361.5","","49","","","3000","1","","","images/earth.jpg","images/rocket1","images/rocket2","null","images/rocket2","","1","real","null","1","","",""
"d3-animate-choice","139","306519","0.0-76.0-1.1","946","1306","14","Female","false","false","false","false","""event"",""trial"",""time""
""blur"",""0"",""0""
""focus"",""0"",""0""
""blur"",""0"",""0""
""focus"",""1"",""3262""
""fullscreenenter"",""5"",""14389""
","""event"",""trial"",""time""
""blur"",""0"",""0""
""blur"",""0"",""0""
","""event"",""trial"",""time""
""focus"",""0"",""0""
""focus"",""1"",""3262""
","""event"",""trial"",""time""
""fullscreenenter"",""5"",""14389""
","
","304.5999999642372","","48","","","3000","1","","","images/redplanet1.jpg","images/alien2","images/alien1","images/rocket2","images/alien2","images/t.png","2","real","true","2","common","1","2022-04-01 20:09:39.812"
"two-step-fixation","140","307527","0.0-76.0-2.1","946","1306","14","Female","false","false","false","false","""event"",""trial"",""time""
""blur"",""0"",""0""
""focus"",""0"",""0""
""blur"",""0"",""0""
""focus"",""1"",""3262""
""fullscreenenter"",""5"",""14389""
","""event"",""trial"",""time""
""blur"",""0"",""0""
""blur"",""0"",""0""
","""event"",""trial"",""time""
""focus"",""0"",""0""
""focus"",""1"",""3262""
","""event"",""trial"",""time""
""fullscreenenter"",""5"",""14389""
","
","","images/earth.jpg","","","","","","","","","","","","","","fixation","","","","","",""
"d3-animate-choice","141","309887","0.0-76.0-0.2","946","1306","14","Female","false","false","false","false","""event"",""trial"",""time""
""blur"",""0"",""0""
""focus"",""0"",""0""
""blur"",""0"",""0""
""focus"",""1"",""3262""
""fullscreenenter"",""5"",""14389""
","""event"",""trial"",""time""
""blur"",""0"",""0""
""blur"",""0"",""0""
","""event"",""trial"",""time""
""focus"",""0"",""0""
""focus"",""1"",""3262""
","""event"",""trial"",""time""
""fullscreenenter"",""5"",""14389""
","
","352.60000002384186","","49","","","3000","1","","","images/earth.jpg","images/rocket1","images/rocket2","null","images/rocket2","","1","real","null","1","","",""
"d3-animate-choice","142","312198","0.0-76.0-1.2","946","1306","14","Female","false","false","false","false","""event"",""trial"",""time""
""blur"",""0"",""0""
""focus"",""0"",""0""
""blur"",""0"",""0""
""focus"",""1"",""3262""
""fullscreenenter"",""5"",""14389""
","""event"",""trial"",""time""
""blur"",""0"",""0""
""blur"",""0"",""0""
","""event"",""trial"",""time""
""focus"",""0"",""0""
""focus"",""1"",""3262""
","""event"",""trial"",""time""
""fullscreenenter"",""5"",""14389""
","
","304.80000001192093","","48","","","3000","1","","","images/redplanet1.jpg","images/alien2","images/alien1","images/rocket2","images/alien2","images/t.png","2","real","true","2","common","1","2022-04-01 20:09:45.490"
"two-step-fixation","143","313204","0.0-76.0-2.2","946","1306","14","Female","false","false","false","false","""event"",""trial"",""time""
""blur"",""0"",""0""
""focus"",""0"",""0""
""blur"",""0"",""0""
""focus"",""1"",""3262""
""fullscreenenter"",""5"",""14389""
","""event"",""trial"",""time""
""blur"",""0"",""0""
""blur"",""0"",""0""
","""event"",""trial"",""time""
""focus"",""0"",""0""
""focus"",""1"",""3262""
","""event"",""trial"",""time""
""fullscreenenter"",""5"",""14389""
","
","","images/earth.jpg","","","","","","","","","","","","","","fixation","","","","","",""
"d3-animate-choice","144","315542","0.0-76.0-0.3","946","1306","14","Female","false","false","false","false","""event"",""trial"",""time""
""blur"",""0"",""0""
""focus"",""0"",""0""
""blur"",""0"",""0""
""focus"",""1"",""3262""
""fullscreenenter"",""5"",""14389""
","""event"",""trial"",""time""
""blur"",""0"",""0""
""blur"",""0"",""0""
","""event"",""trial"",""time""
""focus"",""0"",""0""
""focus"",""1"",""3262""
","""event"",""trial"",""time""
""fullscreenenter"",""5"",""14389""
","
","333.9000000357628","","49","","","3000","1","2086.7000000476837","48","images/earth.jpg","images/rocket1","images/rocket2","null","images/rocket2","","1","real","null","1","","",""
"d3-animate-choice","145","317985","0.0-76.0-1.3","946","1306","14","Female","false","false","false","false","""event"",""trial"",""time""
""blur"",""0"",""0""
""focus"",""0"",""0""
""blur"",""0"",""0""
""focus"",""1"",""3262""
""fullscreenenter"",""5"",""14389""
","""event"",""trial"",""time""
""blur"",""0"",""0""
""blur"",""0"",""0""
","""event"",""trial"",""time""
""focus"",""0"",""0""
""focus"",""1"",""3262""
","""event"",""trial"",""time""
""fullscreenenter"",""5"",""14389""
","
","433.2999999523163","","48","","","3000","1","","","images/purpleplanet.jpg","images/alien4","images/alien3","images/rocket2","images/alien4","images/t.png","2","real","false","2","rare","1","2022-04-01 20:09:51.277"
"two-step-fixation","146","318995","0.0-76.0-2.3","946","1306","14","Female","false","false","false","false","""event"",""trial"",""time""
""blur"",""0"",""0""
""focus"",""0"",""0""
""blur"",""0"",""0""
""focus"",""1"",""3262""
""fullscreenenter"",""5"",""14389""
","""event"",""trial"",""time""
""blur"",""0"",""0""
""blur"",""0"",""0""
","""event"",""trial"",""time""
""focus"",""0"",""0""
""focus"",""1"",""3262""
","""event"",""trial"",""time""
""fullscreenenter"",""5"",""14389""
","
","","images/earth.jpg","","","","","","","","","","","","","","fixation","","","","","",""
"d3-animate-choice","147","321408","0.0-76.0-0.4","946","1306","14","Female","false","false","false","false","""event"",""trial"",""time""
""blur"",""0"",""0""
""focus"",""0"",""0""
""blur"",""0"",""0""
""focus"",""1"",""3262""
""fullscreenenter"",""5"",""14389""
","""event"",""trial"",""time""
""blur"",""0"",""0""
""blur"",""0"",""0""
","""event"",""trial"",""time""
""focus"",""0"",""0""
""focus"",""1"",""3262""
","""event"",""trial"",""time""
""fullscreenenter"",""5"",""14389""
","
","403.80000001192093","","49","","","3000","1","","","images/earth.jpg","images/rocket1","images/rocket2","null","images/rocket2","","1","real","null","1","","",""
"d3-animate-choice","148","323869","0.0-76.0-1.4","946","1306","14","Female","false","false","false","false","""event"",""trial"",""time""
""blur"",""0"",""0""
""focus"",""0"",""0""
""blur"",""0"",""0""
""focus"",""1"",""3262""
""fullscreenenter"",""5"",""14389""
","""event"",""trial"",""time""
""blur"",""0"",""0""
""blur"",""0"",""0""
","""event"",""trial"",""time""
""focus"",""0"",""0""
""focus"",""1"",""3262""
","""event"",""trial"",""time""
""fullscreenenter"",""5"",""14389""
","
","455.7999999523163","","48","","","3000","1","","","images/redplanet1.jpg","images/alien2","images/alien1","images/rocket2","images/alien2","images/nothing.png","2","real","true","2","common","0","2022-04-01 20:09:57.162"
"two-step-fixation","149","324876","0.0-76.0-2.4","946","1306","14","Female","false","false","false","false","""event"",""trial"",""time""
""blur"",""0"",""0""
""focus"",""0"",""0""
""blur"",""0"",""0""
""focus"",""1"",""3262""
""fullscreenenter"",""5"",""14389""
","""event"",""trial"",""time""
""blur"",""0"",""0""
""blur"",""0"",""0""
","""event"",""trial"",""time""
""focus"",""0"",""0""
""focus"",""1"",""3262""
","""event"",""trial"",""time""
""fullscreenenter"",""5"",""14389""
","
","","images/earth.jpg","","","","","","","","","","","","","","fixation","","","","","",""
"d3-animate-choice","150","327254","0.0-76.0-0.5","946","1306","14","Female","false","false","false","false","""event"",""trial"",""time""
""blur"",""0"",""0""
""focus"",""0"",""0""
""blur"",""0"",""0""
""focus"",""1"",""3262""
""fullscreenenter"",""5"",""14389""
","""event"",""trial"",""time""
""blur"",""0"",""0""
""blur"",""0"",""0""
","""event"",""trial"",""time""
""focus"",""0"",""0""
""focus"",""1"",""3262""
","""event"",""trial"",""time""
""fullscreenenter"",""5"",""14389""
","
","372.7000000476837","","49","","","3000","1","","","images/earth.jpg","images/rocket1","images/rocket2","null","images/rocket2","","1","real","null","1","","",""
"d3-animate-choice","151","329377","0.0-76.0-1.5","946","1306","14","Female","false","false","false","false","""event"",""trial"",""time""
""blur"",""0"",""0""
""focus"",""0"",""0""
""blur"",""0"",""0""
""focus"",""1"",""3262""
""fullscreenenter"",""5"",""14389""
","""event"",""trial"",""time""
""blur"",""0"",""0""
""blur"",""0"",""0""
","""event"",""trial"",""time""
""focus"",""0"",""0""
""focus"",""1"",""3262""
","""event"",""trial"",""time""
""fullscreenenter"",""5"",""14389""
","
","115.5","","48","","","3000","1","","","images/purpleplanet.jpg","images/alien4","images/alien3","images/rocket2","images/alien4","images/t.png","2","real","false","2","rare","1","2022-04-01 20:10:02.669"
"two-step-fixation","152","330382","0.0-76.0-2.5","946","1306","14","Female","false","false","false","false","""event"",""trial"",""time""
""blur"",""0"",""0""
""focus"",""0"",""0""
""blur"",""0"",""0""
""focus"",""1"",""3262""
""fullscreenenter"",""5"",""14389""
","""event"",""trial"",""time""
""blur"",""0"",""0""
""blur"",""0"",""0""
","""event"",""trial"",""time""
""focus"",""0"",""0""
""focus"",""1"",""3262""
","""event"",""trial"",""time""
""fullscreenenter"",""5"",""14389""
","
","","images/earth.jpg","","","","","","","","","","","","","","fixation","","","","","",""
"d3-animate-choice","153","332785","0.0-76.0-0.6","946","1306","14","Female","false","false","false","false","""event"",""trial"",""time""
""blur"",""0"",""0""
""focus"",""0"",""0""
""blur"",""0"",""0""
""focus"",""1"",""3262""
""fullscreenenter"",""5"",""14389""
","""event"",""trial"",""time""
""blur"",""0"",""0""
""blur"",""0"",""0""
","""event"",""trial"",""time""
""focus"",""0"",""0""
""focus"",""1"",""3262""
","""event"",""trial"",""time""
""fullscreenenter"",""5"",""14389""
","
","385.80000001192093","","49","","","3000","1","","","images/earth.jpg","images/rocket1","images/rocket2","null","images/rocket2","","1","real","null","1","","",""
"d3-animate-choice","154","334823","0.0-76.0-1.6","946","1306","14","Female","false","false","false","false","""event"",""trial"",""time""
""blur"",""0"",""0""
""focus"",""0"",""0""
""blur"",""0"",""0""
""focus"",""1"",""3262""
""fullscreenenter"",""5"",""14389""
","""event"",""trial"",""time""
""blur"",""0"",""0""
""blur"",""0"",""0""
","""event"",""trial"",""time""
""focus"",""0"",""0""
""focus"",""1"",""3262""
","""event"",""trial"",""time""
""fullscreenenter"",""5"",""14389""
","
","30.399999976158142","","48","","","3000","1","","","images/purpleplanet.jpg","images/alien4","images/alien3","images/rocket2","images/alien4","images/t.png","2","real","false","2","rare","1","2022-04-01 20:10:08.115"
"two-step-fixation","155","335828","0.0-76.0-2.6","946","1306","14","Female","false","false","false","false","""event"",""trial"",""time""
""blur"",""0"",""0""
""focus"",""0"",""0""
""blur"",""0"",""0""
""focus"",""1"",""3262""
""fullscreenenter"",""5"",""14389""
","""event"",""trial"",""time""
