"trial_type","trial_index","time_elapsed","internal_node_id","participant_id","subject_id","age","gender","rocket_sides","red_planet_first_rocket","red_display_order","purple_display_order","interactions","blur_events","focus_events","fullscreenenter_events","fullscreenexit_events","rt","stimulus","key_press","button_pressed","success","duration","valid_pressed","rts","keys","planet_text","right_text","left_text","center_text","chosen_text","reward_text","trial_stage","practice_trial","transition_type","choice","transition","reward","timestamp"
"pavlovia","0","3","0.0-0.0","662","5212","23","Female","false","false","true","false","
","
","
","
","
","","","","","","","","","","","","","","","","","","","","","",""
"html-keyboard-response","1","3549","0.0-1.0","662","5212","23","Female","false","false","true","false","
","
","
","
","
","3545","Welcome! Press the space bar to begin.","32","","","","","","","","","","","","","","","","","","",""
"audio-keyboard-response","2","6180","0.0-2.0","662","5212","23","Female","false","false","true","false","
","
","
","
","
","2429","audio/beep_loop.wav","32","","","","","","","","","","","","","","","","","","",""
"audio-button-response","3","8977","0.0-3.0","662","5212","23","Female","false","false","true","false","
","
","
","
","
","NaN","audio/fish.mp3","","1","","","","","","","","","","","","","","","","","",""
"audio-button-response","4","12317","0.0-4.0","662","5212","23","Female","false","false","true","false","""event"",""trial"",""time""
""fullscreenenter"",""5"",""15641""
","
","
","""event"",""trial"",""time""
""fullscreenenter"",""5"",""15641""
","
","NaN","audio/tiger.mp3","","4","","","","","","","","","","","","","","","","","",""
"fullscreen","5","16626","0.0-5.0","662","5212","23","Female","false","false","true","false","""event"",""trial"",""time""
""fullscreenenter"",""5"",""15641""
","
","
","""event"",""trial"",""time""
""fullscreenenter"",""5"",""15641""
","
","","","","","true","","","","","","","","","","","","","","","","",""
"d3-instructions","6","33931","0.0-6.0","662","5212","23","Female","false","false","true","false","""event"",""trial"",""time""
""fullscreenenter"",""5"",""15641""
","
","
","""event"",""trial"",""time""
""fullscreenenter"",""5"",""15641""
","
","","","","","","","","","","","","","","","","","","","","","",""
"d3-instructions","7","51321","0.0-7.0","662","5212","23","Female","false","false","true","false","""event"",""trial"",""time""
""fullscreenenter"",""5"",""15641""
","
","
","""event"",""trial"",""time""
""fullscreenenter"",""5"",""15641""
","
","","","","","","","","","","","","","","","","","","","","","",""
"d3-instructions","8","59212","0.0-8.0","662","5212","23","Female","false","false","true","false","""event"",""trial"",""time""
""fullscreenenter"",""5"",""15641""
","
","
","""event"",""trial"",""time""
""fullscreenenter"",""5"",""15641""
","
","","","","","","","","","","","","","","","","","","","","","",""
"d3-instructions","9","71090","0.0-9.0","662","5212","23","Female","false","false","true","false","""event"",""trial"",""time""
""fullscreenenter"",""5"",""15641""
","
","
","""event"",""trial"",""time""
""fullscreenenter"",""5"",""15641""
","
","","","","","","","","","","","","","","","","","","","","","",""
"d3-instructions","10","90738","0.0-10.0","662","5212","23","Female","false","false","true","false","""event"",""trial"",""time""
""fullscreenenter"",""5"",""15641""
","
","
","""event"",""trial"",""time""
""fullscreenenter"",""5"",""15641""
","
","","","","","","","","","","","","","","","","","","","","","",""
"d3-animate-choice","11","93675","0.0-11.0","662","5212","23","Female","false","false","true","false","""event"",""trial"",""time""
""fullscreenenter"",""5"",""15641""
","
","
","""event"",""trial"",""time""
""fullscreenenter"",""5"",""15641""
","
","926","","49","","","3000","1","2637.4000000953674","48","images/tutgreenplanet.jpg","images/tutalien1","images/tutalien2","null","images/tutalien2","","NA","practice","null","","","",""
"d3-animate-choice","12","95995","0.0-12.0","662","5212","23","Female","false","false","true","false","""event"",""trial"",""time""
""fullscreenenter"",""5"",""15641""
","
","
","""event"",""trial"",""time""
""fullscreenenter"",""5"",""15641""
","
","314.7999999523163","","48","","","3000","1","","","images/tutgreenplanet.jpg","images/tutalien1","images/tutalien2","null","images/tutalien1","","NA","practice","null","","","",""
"d3-animate-choice","13","98290","0.0-13.0","662","5212","23","Female","false","false","true","false","""event"",""trial"",""time""
""fullscreenenter"",""5"",""15641""
","
","
","""event"",""trial"",""time""
""fullscreenenter"",""5"",""15641""
","
","285.7999999523163","","49","","","3000","1","1621,1990.7999999523163","48,48","images/tutgreenplanet.jpg","images/tutalien1","images/tutalien2","null","images/tutalien2","","NA","practice","null","","","",""
"d3-animate-choice","14","100331","0.0-14.0","662","5212","23","Female","false","false","true","false","""event"",""trial"",""time""
""fullscreenenter"",""5"",""15641""
","
","
","""event"",""trial"",""time""
""fullscreenenter"",""5"",""15641""
","
","36.10000014305115","","48","","","3000","1","1444.6000001430511","49","images/tutgreenplanet.jpg","images/tutalien1","images/tutalien2","null","images/tutalien1","","NA","practice","null","","","",""
"d3-instructions","15","109753","0.0-15.0","662","5212","23","Female","false","false","true","false","""event"",""trial"",""time""
""fullscreenenter"",""5"",""15641""
","
","
","""event"",""trial"",""time""
""fullscreenenter"",""5"",""15641""
","
","","","","","","","","","","","","","","","","","","","","","",""
"d3-instructions","16","116694","0.0-16.0","662","5212","23","Female","false","false","true","false","""event"",""trial"",""time""
""fullscreenenter"",""5"",""15641""
","
","
","""event"",""trial"",""time""
""fullscreenenter"",""5"",""15641""
","
","","","","","","","","","","","","","","","","","","","","","",""
"d3-instructions","17","124502","0.0-17.0","662","5212","23","Female","false","false","true","false","""event"",""trial"",""time""
""fullscreenenter"",""5"",""15641""
","
","
","""event"",""trial"",""time""
""fullscreenenter"",""5"",""15641""
","
","","","","","","","","","","","","","","","","","","","","","",""
"d3-instructions","18","137621","0.0-18.0","662","5212","23","Female","false","false","true","false","""event"",""trial"",""time""
""fullscreenenter"",""5"",""15641""
","
","
","""event"",""trial"",""time""
""fullscreenenter"",""5"",""15641""
","
","","","","","","","","","","","","","","","","","","","","","",""
"d3-instructions","19","151725","0.0-19.0","662","5212","23","Female","false","false","true","false","""event"",""trial"",""time""
""fullscreenenter"",""5"",""15641""
","
","
","""event"",""trial"",""time""
""fullscreenenter"",""5"",""15641""
","
","","","","","","","","","","","","","","","","","","","","","",""
"d3-animate-choice","20","154289","0.0-20.0","662","5212","23","Female","false","false","true","false","""event"",""trial"",""time""
""fullscreenenter"",""5"",""15641""
","
","
","""event"",""trial"",""time""
""fullscreenenter"",""5"",""15641""
","
","555.2999999523163","","49","","","3000","1","","","images/tutyellowplanet.jpg","null","images/tutalien3","null","images/tutalien3","images/t.png","NA","practice","null","","","",""
"d3-animate-choice","21","156682","0.0-21.0","662","5212","23","Female","false","false","true","false","""event"",""trial"",""time""
""fullscreenenter"",""5"",""15641""
","
","
","""event"",""trial"",""time""
""fullscreenenter"",""5"",""15641""
","
","385.89999985694885","","49","","","3000","1","","","images/tutyellowplanet.jpg","null","images/tutalien3","null","images/tutalien3","images/nothing.png","NA","practice","null","","","",""
"d3-animate-choice","22","159153","0.0-22.0","662","5212","23","Female","false","false","true","false","""event"",""trial"",""time""
""fullscreenenter"",""5"",""15641""
","
","
","""event"",""trial"",""time""
""fullscreenenter"",""5"",""15641""
","
","468.10000014305115","","49","","","3000","1","","","images/tutyellowplanet.jpg","null","images/tutalien3","null","images/tutalien3","images/t.png","NA","practice","null","","","",""
"d3-animate-choice","23","162594","0.0-23.0","662","5212","23","Female","false","false","true","false","""event"",""trial"",""time""
""fullscreenenter"",""5"",""15641""
","
","
","""event"",""trial"",""time""
""fullscreenenter"",""5"",""15641""
","
","1432.4000000953674","","49","","","3000","1","","","images/tutyellowplanet.jpg","null","images/tutalien3","null","images/tutalien3","images/t.png","NA","practice","null","","","",""
"d3-animate-choice","24","164897","0.0-24.0","662","5212","23","Female","false","false","true","false","""event"",""trial"",""time""
""fullscreenenter"",""5"",""15641""
","
","
","""event"",""trial"",""time""
""fullscreenenter"",""5"",""15641""
","
","297.90000009536743","","49","","","3000","1","","","images/tutyellowplanet.jpg","null","images/tutalien3","null","images/tutalien3","images/nothing.png","NA","practice","null","","","",""
"d3-animate-choice","25","167617","0.0-25.0","662","5212","23","Female","false","false","true","false","""event"",""trial"",""time""
""fullscreenenter"",""5"",""15641""
","
","
","""event"",""trial"",""time""
""fullscreenenter"",""5"",""15641""
","
","710","","49","","","3000","1","","","images/tutyellowplanet.jpg","null","images/tutalien3","null","images/tutalien3","images/t.png","NA","practice","null","","","",""
"d3-animate-choice","26","169898","0.0-26.0","662","5212","23","Female","false","false","true","false","""event"",""trial"",""time""
""fullscreenenter"",""5"",""15641""
","
","
","""event"",""trial"",""time""
""fullscreenenter"",""5"",""15641""
","
","269.69999980926514","","49","","","3000","1","1629.1999998092651,2220.899999856949","49,49","images/tutyellowplanet.jpg","null","images/tutalien3","null","images/tutalien3","images/t.png","NA","practice","null","","","",""
"d3-animate-choice","27","172113","0.0-27.0","662","5212","23","Female","false","false","true","false","""event"",""trial"",""time""
""fullscreenenter"",""5"",""15641""
","
","
","""event"",""trial"",""time""
""fullscreenenter"",""5"",""15641""
","
","206.5","","49","","","3000","1","425.09999990463257,651.5,851.5,1057.0999999046326,1246,1474.0999999046326,1912,2130.199999809265","49,49,49,49,49,49,49,49","images/tutyellowplanet.jpg","null","images/tutalien3","null","images/tutalien3","images/t.png","NA","practice","null","","","",""
"d3-animate-choice","28","174243","0.0-28.0","662","5212","23","Female","false","false","true","false","""event"",""trial"",""time""
""fullscreenenter"",""5"",""15641""
","
","
","""event"",""trial"",""time""
""fullscreenenter"",""5"",""15641""
","
","120.59999990463257","","49","","","3000","1","320,530.5999999046326,756.2999999523163,952.3999998569489,1364.5999999046326,1565,1790.6999998092651,2003.5999999046326","49,49,49,49,49,49,49,49","images/tutyellowplanet.jpg","null","images/tutalien3","null","images/tutalien3","images/nothing.png","NA","practice","null","","","",""
"d3-animate-choice","29","176354","0.0-29.0","662","5212","23","Female","false","false","true","false","""event"",""trial"",""time""
""fullscreenenter"",""5"",""15641""
","
","
","""event"",""trial"",""time""
""fullscreenenter"",""5"",""15641""
","
","105","","49","","","3000","1","319.39999985694885,504.89999985694885,819.2999999523163,997.0999999046326,1174.2000000476837,1375.2999999523163,1566.3999998569489,1779.2999999523163,1985.5999999046326","49,49,49,49,49,49,49,49,49","images/tutyellowplanet.jpg","null","images/tutalien3","null","images/tutalien3","images/t.png","NA","practice","null","","","",""
"d3-instructions","30","183818","0.0-30.0","662","5212","23","Female","false","false","true","false","""event"",""trial"",""time""
""fullscreenenter"",""5"",""15641""
","
","
","""event"",""trial"",""time""
""fullscreenenter"",""5"",""15641""
","
","","","","","","","","","","","","","","","","","","","","","",""
"d3-instructions","31","193765","0.0-31.0","662","5212","23","Female","false","false","true","false","""event"",""trial"",""time""
""fullscreenenter"",""5"",""15641""
","
","
","""event"",""trial"",""time""
""fullscreenenter"",""5"",""15641""
","
","","","","","","","","","","","","","","","","","","","","","",""
"d3-instructions","32","204552","0.0-32.0","662","5212","23","Female","false","false","true","false","""event"",""trial"",""time""
""fullscreenenter"",""5"",""15641""
","
","
","""event"",""trial"",""time""
""fullscreenenter"",""5"",""15641""
","
","","","","","","","","","","","","","","","","","","","","","",""
"d3-instructions","33","207852","0.0-33.0","662","5212","23","Female","false","false","true","false","""event"",""trial"",""time""
""fullscreenenter"",""5"",""15641""
","
","
","""event"",""trial"",""time""
""fullscreenenter"",""5"",""15641""
","
","","","","","","","","","","","","","","","","","","","","","",""
"d3-animate-choice","34","210874","0.0-34.0","662","5212","23","Female","false","false","true","false","""event"",""trial"",""time""
""fullscreenenter"",""5"",""15641""
","
","
","""event"",""trial"",""time""
""fullscreenenter"",""5"",""15641""
","
","1012.8999998569489","","49","","","3000","1","","","images/tutgreenplanet.jpg","images/tutalien1","images/tutalien2","null","images/tutalien2","images/t.png","NA","practice","null","","","",""
"d3-animate-choice","35","214027","0.0-35.0","662","5212","23","Female","false","false","true","false","""event"",""trial"",""time""
""fullscreenenter"",""5"",""15641""
","
","
","""event"",""trial"",""time""
""fullscreenenter"",""5"",""15641""
","
","1145.5","","48","","","3000","1","","","images/tutgreenplanet.jpg","images/tutalien1","images/tutalien2","null","images/tutalien1","images/nothing.png","NA","practice","null","","","",""
"d3-animate-choice","36","216323","0.0-36.0","662","5212","23","Female","false","false","true","false","""event"",""trial"",""time""
""fullscreenenter"",""5"",""15641""
","
","
","""event"",""trial"",""time""
""fullscreenenter"",""5"",""15641""
","
","287.59999990463257","","48","","","3000","1","","","images/tutgreenplanet.jpg","images/tutalien1","images/tutalien2","null","images/tutalien1","images/nothing.png","NA","practice","null","","","",""
"d3-animate-choice","37","218715","0.0-37.0","662","5212","23","Female","false","false","true","false","""event"",""trial"",""time""
""fullscreenenter"",""5"",""15641""
","
","
","""event"",""trial"",""time""
""fullscreenenter"",""5"",""15641""
","
","385.30000019073486","","48","","","3000","1","","","images/tutgreenplanet.jpg","images/tutalien1","images/tutalien2","null","images/tutalien1","images/nothing.png","NA","practice","null","","","",""
"d3-animate-choice","38","220994","0.0-38.0","662","5212","23","Female","false","false","true","false","""event"",""trial"",""time""
""fullscreenenter"",""5"",""15641""
","
","
","""event"",""trial"",""time""
""fullscreenenter"",""5"",""15641""
","
","271.60000014305115","","49","","","3000","1","","","images/tutgreenplanet.jpg","images/tutalien1","images/tutalien2","null","images/tutalien2","images/t.png","NA","practice","null","","","",""
"d3-animate-choice","39","223282","0.0-39.0","662","5212","23","Female","false","false","true","false","""event"",""trial"",""time""
""fullscreenenter"",""5"",""15641""
","
","
","""event"",""trial"",""time""
""fullscreenenter"",""5"",""15641""
","
","277.5","","49","","","3000","1","","","images/tutgreenplanet.jpg","images/tutalien1","images/tutalien2","null","images/tutalien2","images/t.png","NA","practice","null","","","",""
"d3-animate-choice","40","225547","0.0-40.0","662","5212","23","Female","false","false","true","false","""event"",""trial"",""time""
""fullscreenenter"",""5"",""15641""
","
","
","""event"",""trial"",""time""
""fullscreenenter"",""5"",""15641""
","
","260.40000009536743","","49","","","3000","1","","","images/tutgreenplanet.jpg","images/tutalien1","images/tutalien2","null","images/tutalien2","images/t.png","NA","practice","null","","","",""
"d3-animate-choice","41","227826","0.0-41.0","662","5212","23","Female","false","false","true","false","""event"",""trial"",""time""
""fullscreenenter"",""5"",""15641""
","
","
","""event"",""trial"",""time""
""fullscreenenter"",""5"",""15641""
","
","275.69999980926514","","49","","","3000","1","","","images/tutgreenplanet.jpg","images/tutalien1","images/tutalien2","null","images/tutalien2","images/t.png","NA","practice","null","","","",""
"d3-animate-choice","42","230075","0.0-42.0","662","5212","23","Female","false","false","true","false","""event"",""trial"",""time""
""fullscreenenter"",""5"",""15641""
","
","
","""event"",""trial"",""time""
""fullscreenenter"",""5"",""15641""
","
","243.70000004768372","","49","","","3000","1","1746.2000000476837","49","images/tutgreenplanet.jpg","images/tutalien1","images/tutalien2","null","images/tutalien2","images/nothing.png","NA","practice","null","","","",""
"d3-animate-choice","43","232115","0.0-43.0","662","5212","23","Female","false","false","true","false","""event"",""trial"",""time""
""fullscreenenter"",""5"",""15641""
","
","
","""event"",""trial"",""time""
""fullscreenenter"",""5"",""15641""
","
","33","","49","","","3000","1","1741.5","49","images/tutgreenplanet.jpg","images/tutalien1","images/tutalien2","null","images/tutalien2","images/t.png","NA","practice","null","","","",""
"d3-instructions","44","248580","0.0-44.0","662","5212","23","Female","false","false","true","false","""event"",""trial"",""time""
""fullscreenenter"",""5"",""15641""
","
","
","""event"",""trial"",""time""
""fullscreenenter"",""5"",""15641""
","
","","","","","","","","","","","","","","","","","","","","","",""
"d3-instructions","45","259221","0.0-45.0","662","5212","23","Female","false","false","true","false","""event"",""trial"",""time""
""fullscreenenter"",""5"",""15641""
","
","
","""event"",""trial"",""time""
""fullscreenenter"",""5"",""15641""
","
","","","","","","","","","","","","","","","","","","","","","",""
"d3-instructions","46","266354","0.0-46.0","662","5212","23","Female","false","false","true","false","""event"",""trial"",""time""
""fullscreenenter"",""5"",""15641""
","
","
","""event"",""trial"",""time""
""fullscreenenter"",""5"",""15641""
","
","","","","","","","","","","","","","","","","","","","","","",""
"d3-instructions","47","283520","0.0-47.0","662","5212","23","Female","false","false","true","false","""event"",""trial"",""time""
""fullscreenenter"",""5"",""15641""
","
","
","""event"",""trial"",""time""
""fullscreenenter"",""5"",""15641""
","
","","","","","","","","","","","","","","","","","","","","","",""
"d3-instructions","48","291045","0.0-48.0","662","5212","23","Female","false","false","true","false","""event"",""trial"",""time""
""fullscreenenter"",""5"",""15641""
","
","
","""event"",""trial"",""time""
""fullscreenenter"",""5"",""15641""
","
","","","","","","","","","","","","","","","","","","","","","",""
"d3-instructions","49","302770","0.0-49.0","662","5212","23","Female","false","false","true","false","""event"",""trial"",""time""
""fullscreenenter"",""5"",""15641""
","
","
","""event"",""trial"",""time""
""fullscreenenter"",""5"",""15641""
","
","","","","","","","","","","","","","","","","","","","","","",""
"d3-instructions","50","312515","0.0-50.0","662","5212","23","Female","false","false","true","false","""event"",""trial"",""time""
""fullscreenenter"",""5"",""15641""
","
","
","""event"",""trial"",""time""
""fullscreenenter"",""5"",""15641""
","
","","","","","","","","","","","","","","","","","","","","","",""
"d3-instructions","51","316569","0.0-51.0","662","5212","23","Female","false","false","true","false","""event"",""trial"",""time""
""fullscreenenter"",""5"",""15641""
","
","
","""event"",""trial"",""time""
""fullscreenenter"",""5"",""15641""
","
","","","","","","","","","","","","","","","","","","","","","",""
"d3-instructions","52","321189","0.0-52.0","662","5212","23","Female","false","false","true","false","""event"",""trial"",""time""
""fullscreenenter"",""5"",""15641""
","
","
","""event"",""trial"",""time""
""fullscreenenter"",""5"",""15641""
","
","","","","","","","","","","","","","","","","","","","","","",""
"d3-instructions","53","333741","0.0-53.0","662","5212","23","Female","false","false","true","false","""event"",""trial"",""time""
""fullscreenenter"",""5"",""15641""
","
","
","""event"",""trial"",""time""
""fullscreenenter"",""5"",""15641""
","
","","","","","","","","","","","","","","","","","","","","","",""
"d3-instructions","54","349531","0.0-54.0","662","5212","23","Female","false","false","true","false","""event"",""trial"",""time""
""fullscreenenter"",""5"",""15641""
","
","
","""event"",""trial"",""time""
""fullscreenenter"",""5"",""15641""
","
","","","","","","","","","","","","","","","","","","","","","",""
"d3-instructions","55","357160","0.0-55.0","662","5212","23","Female","false","false","true","false","""event"",""trial"",""time""
""fullscreenenter"",""5"",""15641""
","
","
","""event"",""trial"",""time""
""fullscreenenter"",""5"",""15641""
","
","","","","","","","","","","","","","","","","","","","","","",""
"d3-instructions","56","365155","0.0-56.0","662","5212","23","Female","false","false","true","false","""event"",""trial"",""time""
""fullscreenenter"",""5"",""15641""
","
","
","""event"",""trial"",""time""
""fullscreenenter"",""5"",""15641""
","
","","","","","","","","","","","","","","","","","","","","","",""
"d3-instructions","57","369972","0.0-57.0","662","5212","23","Female","false","false","true","false","""event"",""trial"",""time""
""fullscreenenter"",""5"",""15641""
","
","
","""event"",""trial"",""time""
""fullscreenenter"",""5"",""15641""
","
","","","","","","","","","","","","","","","","","","","","","",""
"d3-instructions","58","379747","0.0-58.0","662","5212","23","Female","false","false","true","false","""event"",""trial"",""time""
""fullscreenenter"",""5"",""15641""
","
","
","""event"",""trial"",""time""
""fullscreenenter"",""5"",""15641""
","
","","","","","","","","","","","","","","","","","","","","","",""
"d3-instructions","59","383371","0.0-59.0","662","5212","23","Female","false","false","true","false","""event"",""trial"",""time""
""fullscreenenter"",""5"",""15641""
","
","
","""event"",""trial"",""time""
""fullscreenenter"",""5"",""15641""
","
","","","","","","","","","","","","","","","","","","","","","",""
"d3-instructions","60","385921","0.0-60.0","662","5212","23","Female","false","false","true","false","""event"",""trial"",""time""
""fullscreenenter"",""5"",""15641""
","
","
","""event"",""trial"",""time""
""fullscreenenter"",""5"",""15641""
","
","","","","","","","","","","","","","","","","","","","","","",""
"d3-animate-choice","61","388762","0.0-61.0-0.0","662","5212","23","Female","false","false","true","false","""event"",""trial"",""time""
""fullscreenenter"",""5"",""15641""
","
","
","""event"",""trial"",""time""
""fullscreenenter"",""5"",""15641""
","
","832.2999999523163","","49","","","3000","1","","","images/earth.jpg","images/tutrocket1","images/tutrocket2","null","images/tutrocket2","","1","practice","null","1","","",""
"d3-animate-choice","62","391195","0.0-61.0-1.0","662","5212","23","Female","false","false","true","false","""event"",""trial"",""time""
""fullscreenenter"",""5"",""15641""
","
","
","""event"",""trial"",""time""
""fullscreenenter"",""5"",""15641""
","
","419.2999999523163","","49","","","3000","1","","","images/tutgreenplanet.jpg","images/tutalien2","images/tutalien1","images/tutrocket2","images/tutalien1","images/nothing.png","2","practice","true","1","common","0","2022-12-12 00:22:27.213"
"two-step-fixation","63","392203","0.0-61.0-2.0","662","5212","23","Female","false","false","true","false","""event"",""trial"",""time""
""fullscreenenter"",""5"",""15641""
","
","
","""event"",""trial"",""time""
""fullscreenenter"",""5"",""15641""
","
","","images/earth.jpg","","","","","","","","","","","","","","fixation","","","","","",""
"d3-animate-choice","64","394498","0.0-61.0-0.1","662","5212","23","Female","false","false","true","false","""event"",""trial"",""time""
""fullscreenenter"",""5"",""15641""
","
","
","""event"",""trial"",""time""
""fullscreenenter"",""5"",""15641""
","
","286.30000019073486","","49","","","3000","1","","","images/earth.jpg","images/tutrocket1","images/tutrocket2","null","images/tutrocket2","","1","practice","null","1","","",""
"d3-animate-choice","65","396890","0.0-61.0-1.1","662","5212","23","Female","false","false","true","false","""event"",""trial"",""time""
""fullscreenenter"",""5"",""15641""
","
","
","""event"",""trial"",""time""
""fullscreenenter"",""5"",""15641""
","
","383.90000009536743","","48","","","3000","1","","","images/tutyellowplanet.jpg","images/tutalien4","images/tutalien3","images/tutrocket2","images/tutalien4","images/t.png","2","practice","false","2","rare","1","2022-12-12 00:22:32.907"
"two-step-fixation","66","397898","0.0-61.0-2.1","662","5212","23","Female","false","false","true","false","""event"",""trial"",""time""
""fullscreenenter"",""5"",""15641""
","
","
","""event"",""trial"",""time""
""fullscreenenter"",""5"",""15641""
","
","","images/earth.jpg","","","","","","","","","","","","","","fixation","","","","","",""
"d3-animate-choice","67","400299","0.0-61.0-0.2","662","5212","23","Female","false","false","true","false","""event"",""trial"",""time""
""fullscreenenter"",""5"",""15641""
","
","
","""event"",""trial"",""time""
""fullscreenenter"",""5"",""15641""
","
","395.7000000476837","","48","","","3000","1","","","images/earth.jpg","images/tutrocket1","images/tutrocket2","null","images/tutrocket1","","1","practice","null","2","","",""
"d3-animate-choice","68","402658","0.0-61.0-1.2","662","5212","23","Female","false","false","true","false","""event"",""trial"",""time""
""fullscreenenter"",""5"",""15641""
","
","
","""event"",""trial"",""time""
""fullscreenenter"",""5"",""15641""
","
","348.5","","48","","","3000","1","","","images/tutyellowplanet.jpg","images/tutalien4","images/tutalien3","images/tutrocket1","images/tutalien4","images/nothing.png","2","practice","true","2","common","0","2022-12-12 00:22:38.675"
"two-step-fixation","69","403665","0.0-61.0-2.2","662","5212","23","Female","false","false","true","false","""event"",""trial"",""time""
""fullscreenenter"",""5"",""15641""
","
","
","""event"",""trial"",""time""
""fullscreenenter"",""5"",""15641""
","
","","images/earth.jpg","","","","","","","","","","","","","","fixation","","","","","",""
"d3-animate-choice","70","405970","0.0-61.0-0.3","662","5212","23","Female","false","false","true","false","""event"",""trial"",""time""
""fullscreenenter"",""5"",""15641""
","
","
","""event"",""trial"",""time""
""fullscreenenter"",""5"",""15641""
","
","299.59999990463257","","48","","","3000","1","","","images/earth.jpg","images/tutrocket1","images/tutrocket2","null","images/tutrocket1","","1","practice","null","2","","",""
"d3-animate-choice","71","408243","0.0-61.0-1.3","662","5212","23","Female","false","false","true","false","""event"",""trial"",""time""
""fullscreenenter"",""5"",""15641""
","
","
","""event"",""trial"",""time""
""fullscreenenter"",""5"",""15641""
","
","265.5","","48","","","3000","1","","","images/tutgreenplanet.jpg","images/tutalien2","images/tutalien1","images/tutrocket1","images/tutalien2","images/t.png","2","practice","false","2","rare","1","2022-12-12 00:22:44.260"
"two-step-fixation","72","409250","0.0-61.0-2.3","662","5212","23","Female","false","false","true","false","""event"",""trial"",""time""
""fullscreenenter"",""5"",""15641""
","
","
","""event"",""trial"",""time""
""fullscreenenter"",""5"",""15641""
","
","","images/earth.jpg","","","","","","","","","","","","","","fixation","","","","","",""
"d3-animate-choice","73","411633","0.0-61.0-0.4","662","5212","23","Female","false","false","true","false","""event"",""trial"",""time""
""fullscreenenter"",""5"",""15641""
","
","
","""event"",""trial"",""time""
""fullscreenenter"",""5"",""15641""
","
","379.7999999523163","","48","","","3000","1","","","images/earth.jpg","images/tutrocket1","images/tutrocket2","null","images/tutrocket1","","1","practice","null","2","","",""
"d3-animate-choice","74","413946","0.0-61.0-1.4","662","5212","23","Female","false","false","true","false","""event"",""trial"",""time""
""fullscreenenter"",""5"",""15641""
","
","
","""event"",""trial"",""time""
""fullscreenenter"",""5"",""15641""
","
","303.10000014305115","","48","","","3000","1","","","images/tutyellowplanet.jpg","images/tutalien4","images/tutalien3","images/tutrocket1","images/tutalien4","images/t.png","2","practice","true","2","common","1","2022-12-12 00:22:49.963"
"two-step-fixation","75","414953","0.0-61.0-2.4","662","5212","23","Female","false","false","true","false","""event"",""trial"",""time""
""fullscreenenter"",""5"",""15641""
","
","
","""event"",""trial"",""time""
""fullscreenenter"",""5"",""15641""
","
","","images/earth.jpg","","","","","","","","","","","","","","fixation","","","","","",""
"d3-animate-choice","76","417299","0.0-61.0-0.5","662","5212","23","Female","false","false","true","false","""event"",""trial"",""time""
""fullscreenenter"",""5"",""15641""
","
","
","""event"",""trial"",""time""
""fullscreenenter"",""5"",""15641""
","
","334.2999999523163","","48","","","3000","1","","","images/earth.jpg","images/tutrocket1","images/tutrocket2","null","images/tutrocket1","","1","practice","null","2","","",""
"d3-animate-choice","77","419611","0.0-61.0-1.5","662","5212","23","Female","false","false","true","false","""event"",""trial"",""time""
""fullscreenenter"",""5"",""15641""
","
","
","""event"",""trial"",""time""
""fullscreenenter"",""5"",""15641""
","
","306.30000019073486","","48","","","3000","1","","","images/tutyellowplanet.jpg","images/tutalien4","images/tutalien3","images/tutrocket1","images/tutalien4","images/t.png","2","practice","true","2","common","1","2022-12-12 00:22:55.628"
"two-step-fixation","78","420617","0.0-61.0-2.5","662","5212","23","Female","false","false","true","false","""event"",""trial"",""time""
""fullscreenenter"",""5"",""15641""
","
","
","""event"",""trial"",""time""
""fullscreenenter"",""5"",""15641""
","
","","images/earth.jpg","","","","","","","","","","","","","","fixation","","","","","",""
"d3-animate-choice","79","422954","0.0-61.0-0.6","662","5212","23","Female","false","false","true","false","""event"",""trial"",""time""
""fullscreenenter"",""5"",""15641""
","
","
","""event"",""trial"",""time""
""fullscreenenter"",""5"",""15641""
","
","332.2999999523163","","48","","","3000","1","","","images/earth.jpg","images/tutrocket1","images/tutrocket2","null","images/tutrocket1","","1","practice","null","2","","",""
"d3-animate-choice","80","425298","0.0-61.0-1.6","662","5212","23","Female","false","false","true","false","""event"",""trial"",""time""
""fullscreenenter"",""5"",""15641""
","
","
","""event"",""trial"",""time""
""fullscreenenter"",""5"",""15641""
","
","333.30000019073486","","48","","","3000","1","","","images/tutyellowplanet.jpg","images/tutalien4","images/tutalien3","images/tutrocket1","images/tutalien4","images/t.png","2","practice","true","2","common","1","2022-12-12 00:23:01.315"
"two-step-fixation","81","426306","0.0-61.0-2.6","662","5212","23","Female","false","false","true","false","""event"",""trial"",""time""
""fullscreenenter"",""5"",""15641""
","
","
","""event"",""trial"",""time""
""fullscreenenter"",""5"",""15641""
","
","","images/earth.jpg","","","","","","","","","","","","","","fixation","","","","","",""
"d3-animate-choice","82","428522","0.0-61.0-0.7","662","5212","23","Female","false","false","true","false","""event"",""trial"",""time""
""fullscreenenter"",""5"",""15641""
","
","
","""event"",""trial"",""time""
""fullscreenenter"",""5"",""15641""
","
","205.90000009536743","","48","","","3000","1","","","images/earth.jpg","images/tutrocket1","images/tutrocket2","null","images/tutrocket1","","1","practice","null","2","","",""
"d3-animate-choice","83","431009","0.0-61.0-1.7","662","5212","23","Female","false","false","true","false","""event"",""trial"",""time""
""fullscreenenter"",""5"",""15641""
","
","
","""event"",""trial"",""time""
""fullscreenenter"",""5"",""15641""
","
","482.7000000476837","","48","","","3000","1","","","images/tutgreenplanet.jpg","images/tutalien2","images/tutalien1","images/tutrocket1","images/tutalien2","images/nothing.png","2","practice","false","2","rare","0","2022-12-12 00:23:07.027"
"two-step-fixation","84","432018","0.0-61.0-2.7","662","5212","23","Female","false","false","true","false","""event"",""trial"",""time""
""fullscreenenter"",""5"",""15641""
","
","
","""event"",""trial"",""time""
""fullscreenenter"",""5"",""15641""
","
","","images/earth.jpg","","","","","","","","","","","","","","fixation","","","","","",""
"d3-animate-choice","85","434307","0.0-61.0-0.8","662","5212","23","Female","false","false","true","false","""event"",""trial"",""time""
""fullscreenenter"",""5"",""15641""
","
","
","""event"",""trial"",""time""
""fullscreenenter"",""5"",""15641""
","
","284.69999980926514","","48","","","3000","1","","","images/earth.jpg","images/tutrocket1","images/tutrocket2","null","images/tutrocket1","","1","practice","null","2","","",""
"d3-animate-choice","86","436683","0.0-61.0-1.8","662","5212","23","Female","false","false","true","false","""event"",""trial"",""time""
""fullscreenenter"",""5"",""15641""
","
","
","""event"",""trial"",""time""
""fullscreenenter"",""5"",""15641""
","
","369.2000000476837","","48","","","3000","1","","","images/tutyellowplanet.jpg","images/tutalien4","images/tutalien3","images/tutrocket1","images/tutalien4","images/nothing.png","2","practice","true","2","common","0","2022-12-12 00:23:12.700"
"two-step-fixation","87","437690","0.0-61.0-2.8","662","5212","23","Female","false","false","true","false","""event"",""trial"",""time""
""fullscreenenter"",""5"",""15641""
","
","
","""event"",""trial"",""time""
""fullscreenenter"",""5"",""15641""
","
","","images/earth.jpg","","","","","","","","","","","","","","fixation","","","","","",""
"d3-animate-choice","88","440385","0.0-61.0-0.9","662","5212","23","Female","false","false","true","false","""event"",""trial"",""time""
""fullscreenenter"",""5"",""15641""
","
","
","""event"",""trial"",""time""
""fullscreenenter"",""5"",""15641""
","
","686.5999999046326","","48","","","3000","1","","","images/earth.jpg","images/tutrocket1","images/tutrocket2","null","images/tutrocket1","","1","practice","null","2","","",""
"d3-animate-choice","89","442825","0.0-61.0-1.9","662","5212","23","Female","false","false","true","false","""event"",""trial"",""time""
""fullscreenenter"",""5"",""15641""
","
","
","""event"",""trial"",""time""
""fullscreenenter"",""5"",""15641""
","
","433.7999999523163","","49","","","3000","1","","","images/tutgreenplanet.jpg","images/tutalien2","images/tutalien1","images/tutrocket1","images/tutalien1","images/nothing.png","2","practice","false","1","rare","0","2022-12-12 00:23:18.843"
"two-step-fixation","90","443835","0.0-61.0-2.9","662","5212","23","Female","false","false","true","false","""event"",""trial"",""time""
""fullscreenenter"",""5"",""15641""
","
","
","""event"",""trial"",""time""
""fullscreenenter"",""5"",""15641""
","
","","images/earth.jpg","","","","","","","","","","","","","","fixation","","","","","",""
"d3-animate-choice","91","446154","0.0-61.0-0.10","662","5212","23","Female","false","false","true","false","""event"",""trial"",""time""
""fullscreenenter"",""5"",""15641""
","
","
","""event"",""trial"",""time""
""fullscreenenter"",""5"",""15641""
","
","308.40000009536743","","48","","","3000","1","","","images/earth.jpg","images/tutrocket1","images/tutrocket2","null","images/tutrocket1","","1","practice","null","2","","",""
"d3-animate-choice","92","448593","0.0-61.0-1.10","662","5212","23","Female","false","false","true","false","""event"",""trial"",""time""
""fullscreenenter"",""5"",""15641""
","
","
","""event"",""trial"",""time""
""fullscreenenter"",""5"",""15641""
","
","431.10000014305115","","48","","","3000","1","","","images/tutyellowplanet.jpg","images/tutalien4","images/tutalien3","images/tutrocket1","images/tutalien4","images/nothing.png","2","practice","true","2","common","0","2022-12-12 00:23:24.611"
"two-step-fixation","93","449602","0.0-61.0-2.10","662","5212","23","Female","false","false","true","false","""event"",""trial"",""time""
""fullscreenenter"",""5"",""15641""
","
","
","""event"",""trial"",""time""
""fullscreenenter"",""5"",""15641""
","
","","images/earth.jpg","","","","","","","","","","","","","","fixation","","","","","",""
"d3-animate-choice","94","452010","0.0-61.0-0.11","662","5212","23","Female","false","false","true","false","""event"",""trial"",""time""
""fullscreenenter"",""5"",""15641""
","
","
","""event"",""trial"",""time""
""fullscreenenter"",""5"",""15641""
","
","400.39999985694885","","49","","","3000","1","","","images/earth.jpg","images/tutrocket1","images/tutrocket2","null","images/tutrocket2","","1","practice","null","1","","",""
"d3-animate-choice","95","454466","0.0-61.0-1.11","662","5212","23","Female","false","false","true","false","""event"",""trial"",""time""
""fullscreenenter"",""5"",""15641""
","
","
","""event"",""trial"",""time""
""fullscreenenter"",""5"",""15641""
","
","452.09999990463257","","48","","","3000","1","","","images/tutgreenplanet.jpg","images/tutalien2","images/tutalien1","images/tutrocket2","images/tutalien2","images/nothing.png","2","practice","true","2","common","0","2022-12-12 00:23:30.484"
"two-step-fixation","96","455475","0.0-61.0-2.11","662","5212","23","Female","false","false","true","false","""event"",""trial"",""time""
""fullscreenenter"",""5"",""15641""
","
","
","""event"",""trial"",""time""
""fullscreenenter"",""5"",""15641""
","
","","images/earth.jpg","","","","","","","","","","","","","","fixation","","","","","",""
"d3-animate-choice","97","457850","0.0-61.0-0.12","662","5212","23","Female","false","false","true","false","""event"",""trial"",""time""
""fullscreenenter"",""5"",""15641""
","
","
","""event"",""trial"",""time""
""fullscreenenter"",""5"",""15641""
","
","371.10000014305115","","49","","","3000","1","","","images/earth.jpg","images/tutrocket1","images/tutrocket2","null","images/tutrocket2","","1","practice","null","1","","",""
"d3-animate-choice","98","460699","0.0-61.0-1.12","662","5212","23","Female","false","false","true","false","""event"",""trial"",""time""
""fullscreenenter"",""5"",""15641""
","
","
","""event"",""trial"",""time""
""fullscreenenter"",""5"",""15641""
","
","839.0999999046326","","48","","","3000","1","","","images/tutyellowplanet.jpg","images/tutalien4","images/tutalien3","images/tutrocket2","images/tutalien4","images/t.png","2","practice","false","2","rare","1","2022-12-12 00:23:36.716"
"two-step-fixation","99","461706","0.0-61.0-2.12","662","5212","23","Female","false","false","true","false","""event"",""trial"",""time""
""fullscreenenter"",""5"",""15641""
","
","
","""event"",""trial"",""time""
""fullscreenenter"",""5"",""15641""
","
","","images/earth.jpg","","","","","","","","","","","","","","fixation","","","","","",""
"d3-animate-choice","100","464027","0.0-61.0-0.13","662","5212","23","Female","false","false","true","false","""event"",""trial"",""time""
""fullscreenenter"",""5"",""15641""
","
","
","""event"",""trial"",""time""
""fullscreenenter"",""5"",""15641""
","
","314.5","","49","","","3000","1","","","images/earth.jpg","images/tutrocket1","images/tutrocket2","null","images/tutrocket2","","1","practice","null","1","","",""
"d3-animate-choice","101","466931","0.0-61.0-1.13","662","5212","23","Female","false","false","true","false","""event"",""trial"",""time""
""fullscreenenter"",""5"",""15641""
","
","
","""event"",""trial"",""time""
""fullscreenenter"",""5"",""15641""
","
","899.0999999046326","","49","","","3000","1","","","images/tutgreenplanet.jpg","images/tutalien2","images/tutalien1","images/tutrocket2","images/tutalien1","images/nothing.png","2","practice","true","1","common","0","2022-12-12 00:23:42.948"
"two-step-fixation","102","467939","0.0-61.0-2.13","662","5212","23","Female","false","false","true","false","""event"",""trial"",""time""
""fullscreenenter"",""5"",""15641""
","
","
","""event"",""trial"",""time""
""fullscreenenter"",""5"",""15641""
","
","","images/earth.jpg","","","","","","","","","","","","","","fixation","","","","","",""
"d3-animate-choice","103","470259","0.0-61.0-0.14","662","5212","23","Female","false","false","true","false","""event"",""trial"",""time""
""fullscreenenter"",""5"",""15641""
","
","
","""event"",""trial"",""time""
""fullscreenenter"",""5"",""15641""
","
","315.7999999523163","","49","","","3000","1","","","images/earth.jpg","images/tutrocket1","images/tutrocket2","null","images/tutrocket2","","1","practice","null","1","","",""
"d3-animate-choice","104","472723","0.0-61.0-1.14","662","5212","23","Female","false","false","true","false","""event"",""trial"",""time""
""fullscreenenter"",""5"",""15641""
","
","
","""event"",""trial"",""time""
""fullscreenenter"",""5"",""15641""
","
","455.5","","48","","","3000","1","","","images/tutyellowplanet.jpg","images/tutalien4","images/tutalien3","images/tutrocket2","images/tutalien4","images/t.png","2","practice","false","2","rare","1","2022-12-12 00:23:48.740"
"two-step-fixation","105","473730","0.0-61.0-2.14","662","5212","23","Female","false","false","true","false","""event"",""trial"",""time""
""fullscreenenter"",""5"",""15641""
","
","
","""event"",""trial"",""time""
""fullscreenenter"",""5"",""15641""
","
","","images/earth.jpg","","","","","","","","","","","","","","fixation","","","","","",""
"d3-animate-choice","106","476082","0.0-61.0-0.15","662","5212","23","Female","false","false","true","false","""event"",""trial"",""time""
""fullscreenenter"",""5"",""15641""
","
","
","""event"",""trial"",""time""
""fullscreenenter"",""5"",""15641""
","
","343.39999985694885","","48","","","3000","1","","","images/earth.jpg","images/tutrocket1","images/tutrocket2","null","images/tutrocket1","","1","practice","null","2","","",""
"d3-animate-choice","107","478514","0.0-61.0-1.15","662","5212","23","Female","false","false","true","false","""event"",""trial"",""time""
""fullscreenenter"",""5"",""15641""
","
","
","""event"",""trial"",""time""
""fullscreenenter"",""5"",""15641""
","
","421.40000009536743","","48","","","3000","1","","","images/tutyellowplanet.jpg","images/tutalien4","images/tutalien3","images/tutrocket1","images/tutalien4","images/t.png","2","practice","true","2","common","1","2022-12-12 00:23:54.531"
"two-step-fixation","108","479523","0.0-61.0-2.15","662","5212","23","Female","false","false","true","false","""event"",""trial"",""time""
""fullscreenenter"",""5"",""15641""
","
","
","""event"",""trial"",""time""
""fullscreenenter"",""5"",""15641""
","
","","images/earth.jpg","","","","","","","","","","","","","","fixation","","","","","",""
"d3-animate-choice","109","481859","0.0-61.0-0.16","662","5212","23","Female","false","false","true","false","""event"",""trial"",""time""
""fullscreenenter"",""5"",""15641""
","
","
","""event"",""trial"",""time""
""fullscreenenter"",""5"",""15641""
","
","330.59999990463257","","48","","","3000","1","","","images/earth.jpg","images/tutrocket1","images/tutrocket2","null","images/tutrocket1","","1","practice","null","2","","",""
"d3-animate-choice","110","484242","0.0-61.0-1.16","662","5212","23","Female","false","false","true","false","""event"",""trial"",""time""
""fullscreenenter"",""5"",""15641""
","
","
","""event"",""trial"",""time""
""fullscreenenter"",""5"",""15641""
","
","376.5","","48","","","3000","1","","","images/tutyellowplanet.jpg","images/tutalien4","images/tutalien3","images/tutrocket1","images/tutalien4","images/nothing.png","2","practice","true","2","common","0","2022-12-12 00:24:00.259"
"two-step-fixation","111","485251","0.0-61.0-2.16","662","5212","23","Female","false","false","true","false","""event"",""trial"",""time""
""fullscreenenter"",""5"",""15641""
","
","
","""event"",""trial"",""time""
""fullscreenenter"",""5"",""15641""
","
","","images/earth.jpg","","","","","","","","","","","","","","fixation","","","","","",""
"d3-animate-choice","112","487587","0.0-61.0-0.17","662","5212","23","Female","false","false","true","false","""event"",""trial"",""time""
""fullscreenenter"",""5"",""15641""
","
","
","""event"",""trial"",""time""
""fullscreenenter"",""5"",""15641""
","
","330.5","","48","","","3000","1","","","images/earth.jpg","images/tutrocket1","images/tutrocket2","null","images/tutrocket1","","1","practice","null","2","","",""
"d3-animate-choice","113","489962","0.0-61.0-1.17","662","5212","23","Female","false","false","true","false","""event"",""trial"",""time""
""fullscreenenter"",""5"",""15641""
","
","
","""event"",""trial"",""time""
""fullscreenenter"",""5"",""15641""
","
","372.09999990463257","","48","","","3000","1","","","images/tutyellowplanet.jpg","images/tutalien4","images/tutalien3","images/tutrocket1","images/tutalien4","images/nothing.png","2","practice","true","2","common","0","2022-12-12 00:24:05.979"
"two-step-fixation","114","490971","0.0-61.0-2.17","662","5212","23","Female","false","false","true","false","""event"",""trial"",""time""
""fullscreenenter"",""5"",""15641""
","
","
","""event"",""trial"",""time""
""fullscreenenter"",""5"",""15641""
","
","","images/earth.jpg","","","","","","","","","","","","","","fixation","","","","","",""
"d3-animate-choice","115","493250","0.0-61.0-0.18","662","5212","23","Female","false","false","true","false","""event"",""trial"",""time""
""fullscreenenter"",""5"",""15641""
","
","
","""event"",""trial"",""time""
""fullscreenenter"",""5"",""15641""
","
","270.7999999523163","","48","","","3000","1","","","images/earth.jpg","images/tutrocket1","images/tutrocket2","null","images/tutrocket1","","1","practice","null","2","","",""
"d3-animate-choice","116","495682","0.0-61.0-1.18","662","5212","23","Female","false","false","true","false","""event"",""trial"",""time""
""fullscreenenter"",""5"",""15641""
","
","
","""event"",""trial"",""time""
""fullscreenenter"",""5"",""15641""
","
","426.2999999523163","","49","","","3000","1","","","images/tutyellowplanet.jpg","images/tutalien4","images/tutalien3","images/tutrocket1","images/tutalien3","images/t.png","2","practice","true","1","common","1","2022-12-12 00:24:11.699"
"two-step-fixation","117","496691","0.0-61.0-2.18","662","5212","23","Female","false","false","true","false","""event"",""trial"",""time""
""fullscreenenter"",""5"",""15641""
","
","
","""event"",""trial"",""time""
""fullscreenenter"",""5"",""15641""
","
","","images/earth.jpg","","","","","","","","","","","","","","fixation","","","","","",""
"d3-animate-choice","118","498978","0.0-61.0-0.19","662","5212","23","Female","false","false","true","false","""event"",""trial"",""time""
""fullscreenenter"",""5"",""15641""
","
","
","""event"",""trial"",""time""
""fullscreenenter"",""5"",""15641""
","
","282.09999990463257","","49","","","3000","1","","","images/earth.jpg","images/tutrocket1","images/tutrocket2","null","images/tutrocket2","","1","practice","null","1","","",""
"d3-animate-choice","119","501435","0.0-61.0-1.19","662","5212","23","Female","false","false","true","false","""event"",""trial"",""time""
""fullscreenenter"",""5"",""15641""
","
","
","""event"",""trial"",""time""
""fullscreenenter"",""5"",""15641""
","
","447.5","","49","","","3000","1","","","images/tutgreenplanet.jpg","images/tutalien2","images/tutalien1","images/tutrocket2","images/tutalien1","images/nothing.png","2","practice","true","1","common","0","2022-12-12 00:24:17.452"
"two-step-fixation","120","502443","0.0-61.0-2.19","662","5212","23","Female","false","false","true","false","""event"",""trial"",""time""
""fullscreenenter"",""5"",""15641""
","
","
","""event"",""trial"",""time""
""fullscreenenter"",""5"",""15641""
","
","","images/earth.jpg","","","","","","","","","","","","","","fixation","","","","","",""
"d3-instructions","121","507794","0.0-62.0","662","5212","23","Female","false","false","true","false","""event"",""trial"",""time""
""fullscreenenter"",""5"",""15641""
","
","
","""event"",""trial"",""time""
""fullscreenenter"",""5"",""15641""
","
","","","","","","","","","","","","","","","","","","","","","",""
"audio-keyboard-response","122","517893","0.0-63.0","662","5212","23","Female","false","false","true","false","""event"",""trial"",""time""
""fullscreenenter"",""5"",""15641""
","
","
","""event"",""trial"",""time""
""fullscreenenter"",""5"",""15641""
","
","10091","audio/instructions/treasure_feedback.wav","32","","","","","","","","","","","","","","","","","","",""
"d3-instructions","123","544392","0.0-64.0","662","5212","23","Female","false","false","true","false","""event"",""trial"",""time""
""fullscreenenter"",""5"",""15641""
","
","
","""event"",""trial"",""time""
""fullscreenenter"",""5"",""15641""
","
","","","","","","","","","","","","","","","","","","","","","",""
"d3-instructions","124","558019","0.0-65.0","662","5212","23","Female","false","false","true","false","""event"",""trial"",""time""
""fullscreenenter"",""5"",""15641""
","
","
","""event"",""trial"",""time""
""fullscreenenter"",""5"",""15641""
","
","","","","","","","","","","","","","","","","","","","","","",""
"d3-instructions","125","582702","0.0-66.0","662","5212","23","Female","false","false","true","false","""event"",""trial"",""time""
""fullscreenenter"",""5"",""15641""
","
","
","""event"",""trial"",""time""
""fullscreenenter"",""5"",""15641""
","
","","","","","","","","","","","","","","","","","","","","","",""
"d3-instructions","126","598491","0.0-67.0","662","5212","23","Female","false","false","true","false","""event"",""trial"",""time""
""fullscreenenter"",""5"",""15641""
","
","
","""event"",""trial"",""time""
""fullscreenenter"",""5"",""15641""
","
","","","","","","","","","","","","","","","","","","","","","",""
"d3-instructions","127","601567","0.0-68.0","662","5212","23","Female","false","false","true","false","""event"",""trial"",""time""
""fullscreenenter"",""5"",""15641""
","
","
","""event"",""trial"",""time""
""fullscreenenter"",""5"",""15641""
","
","","","","","","","","","","","","","","","","","","","","","",""
"instructions-quiz","128","605957","0.0-69.0","662","5212","23","Female","false","false","true","false","""event"",""trial"",""time""
""fullscreenenter"",""5"",""15641""
","
","
","""event"",""trial"",""time""
""fullscreenenter"",""5"",""15641""
","
","4385.900000095367","audio/quiz/Q1_Prompt.wav","","1","","","","","","","","","","","","","","","","","",""
"audio-keyboard-response","129","615124","0.0-70.0","662","5212","23","Female","false","false","true","false","""event"",""trial"",""time""
""fullscreenenter"",""5"",""15641""
","
","
","""event"",""trial"",""time""
""fullscreenenter"",""5"",""15641""
","
","null","audio/quiz/Q1_Correct.wav","null","","","","","","","","","","","","","","","","","","",""
"instructions-quiz","130","623450","0.0-71.0","662","5212","23","Female","false","false","true","false","""event"",""trial"",""time""
""fullscreenenter"",""5"",""15641""
","
","
","""event"",""trial"",""time""
""fullscreenenter"",""5"",""15641""
","
","8323.200000047684","audio/quiz/Q2_Prompt.wav","","0","","","","","","","","","","","","","","","","","",""
"audio-keyboard-response","131","626414","0.0-72.0","662","5212","23","Female","false","false","true","false","""event"",""trial"",""time""
""fullscreenenter"",""5"",""15641""
","
","
","""event"",""trial"",""time""
""fullscreenenter"",""5"",""15641""
","
","2960","audio/quiz/Q2_Correct.wav","32","","","","","","","","","","","","","","","","","","",""
"instructions-quiz","132","630077","0.0-73.0","662","5212","23","Female","false","false","true","false","""event"",""trial"",""time""
""fullscreenenter"",""5"",""15641""
","
","
","""event"",""trial"",""time""
""fullscreenenter"",""5"",""15641""
","
","3660.7999999523163","audio/quiz/Q3_Prompt.wav","","1","","","","","","","","","","","","","","","","","",""
"audio-keyboard-response","133","635874","0.0-74.0","662","5212","23","Female","false","false","true","false","""event"",""trial"",""time""
""fullscreenenter"",""5"",""15641""
","
","
","""event"",""trial"",""time""
""fullscreenenter"",""5"",""15641""
","
","null","audio/quiz/Q3_Correct.wav","null","","","","","","","","","","","","","","","","","","",""
"d3-instructions","134","649156","0.0-75.0","662","5212","23","Female","false","false","true","false","""event"",""trial"",""time""
""fullscreenenter"",""5"",""15641""
","
","
","""event"",""trial"",""time""
""fullscreenenter"",""5"",""15641""
","
","","","","","","","","","","","","","","","","","","","","","",""
"d3-animate-choice","135","651627","0.0-76.0-0.0","662","5212","23","Female","false","false","true","false","""event"",""trial"",""time""
""fullscreenenter"",""5"",""15641""
","
","
","""event"",""trial"",""time""
""fullscreenenter"",""5"",""15641""
","
","464.5","","48","","","3000","1","","","images/earth.jpg","images/rocket1","images/rocket2","null","images/rocket1","","1","real","null","2","","",""
"d3-animate-choice","136","653975","0.0-76.0-1.0","662","5212","23","Female","false","false","true","false","""event"",""trial"",""time""
""fullscreenenter"",""5"",""15641""
","
","
","""event"",""trial"",""time""
""fullscreenenter"",""5"",""15641""
","
","341.7000000476837","","49","","","3000","1","","","images/purpleplanet.jpg","images/alien4","images/alien3","images/rocket1","images/alien3","images/t.png","2","real","true","1","common","1","2022-12-12 00:26:49.992"
"two-step-fixation","137","654979","0.0-76.0-2.0","662","5212","23","Female","false","false","true","false","""event"",""trial"",""time""
""fullscreenenter"",""5"",""15641""
","
","
","""event"",""trial"",""time""
""fullscreenenter"",""5"",""15641""
","
","","images/earth.jpg","","","","","","","","","","","","","","fixation","","","","","",""
"d3-animate-choice","138","657266","0.0-76.0-0.1","662","5212","23","Female","false","false","true","false","""event"",""trial"",""time""
""fullscreenenter"",""5"",""15641""
","
","
","""event"",""trial"",""time""
""fullscreenenter"",""5"",""15641""
","
","276.59999990463257","","48","","","3000","1","","","images/earth.jpg","images/rocket1","images/rocket2","null","images/rocket1","","1","real","null","2","","",""
"d3-animate-choice","139","659602","0.0-76.0-1.1","662","5212","23","Female","false","false","true","false","""event"",""trial"",""time""
""fullscreenenter"",""5"",""15641""
","
","
","""event"",""trial"",""time""
""fullscreenenter"",""5"",""15641""
","
","331","","49","","","3000","1","","","images/purpleplanet.jpg","images/alien4","images/alien3","images/rocket1","images/alien3","images/t.png","2","real","true","1","common","1","2022-12-12 00:26:55.620"
"two-step-fixation","140","660610","0.0-76.0-2.1","662","5212","23","Female","false","false","true","false","""event"",""trial"",""time""
""fullscreenenter"",""5"",""15641""
","
","
","""event"",""trial"",""time""
""fullscreenenter"",""5"",""15641""
","
","","images/earth.jpg","","","","","","","","","","","","","","fixation","","","","","",""
"d3-animate-choice","141","662898","0.0-76.0-0.2","662","5212","23","Female","false","false","true","false","""event"",""trial"",""time""
""fullscreenenter"",""5"",""15641""
","
","
","""event"",""trial"",""time""
""fullscreenenter"",""5"",""15641""
","
","279.2000000476837","","48","","","3000","1","","","images/earth.jpg","images/rocket1","images/rocket2","null","images/rocket1","","1","real","null","2","","",""
"d3-animate-choice","142","665315","0.0-76.0-1.2","662","5212","23","Female","false","false","true","false","""event"",""trial"",""time""
""fullscreenenter"",""5"",""15641""
","
","
","""event"",""trial"",""time""
""fullscreenenter"",""5"",""15641""
","
","414.09999990463257","","49","","","3000","1","","","images/purpleplanet.jpg","images/alien4","images/alien3","images/rocket1","images/alien3","images/t.png","2","real","true","1","common","1","2022-12-12 00:27:01.332"
"two-step-fixation","143","666322","0.0-76.0-2.2","662","5212","23","Female","false","false","true","false","""event"",""trial"",""time""
""fullscreenenter"",""5"",""15641""
","
","
","""event"",""trial"",""time""
""fullscreenenter"",""5"",""15641""
","
","","images/earth.jpg","","","","","","","","","","","","","","fixation","","","","","",""
"d3-animate-choice","144","668587","0.0-76.0-0.3","662","5212","23","Female","false","false","true","false","""event"",""trial"",""time""
""fullscreenenter"",""5"",""15641""
","
","
","""event"",""trial"",""time""
""fullscreenenter"",""5"",""15641""
","
","258","","48","","","3000","1","","","images/earth.jpg","images/rocket1","images/rocket2","null","images/rocket1","","1","real","null","2","","",""
"d3-animate-choice","145","670922","0.0-76.0-1.3","662","5212","23","Female","false","false","true","false","""event"",""trial"",""time""
""fullscreenenter"",""5"",""15641""
","
","
","""event"",""trial"",""time""
""fullscreenenter"",""5"",""15641""
","
","325","","49","","","3000","1","","","images/redplanet1.jpg","images/alien2","images/alien1","images/rocket1","images/alien1","images/nothing.png","2","real","false","1","rare","0","2022-12-12 00:27:06.939"
"two-step-fixation","146","671931","0.0-76.0-2.3","662","5212","23","Female","false","false","true","false","""event"",""trial"",""time""
""fullscreenenter"",""5"",""15641""
","
","
","""event"",""trial"",""time""
""fullscreenenter"",""5"",""15641""
","
","","images/earth.jpg","","","","","","","","","","","","","","fixation","","","","","",""
"d3-animate-choice","147","674323","0.0-76.0-0.4","662","5212","23","Female","false","false","true","false","""event"",""trial"",""time""
""fullscreenenter"",""5"",""15641""
","
","
","""event"",""trial"",""time""
""fullscreenenter"",""5"",""15641""
","
","381.7999999523163","","48","","","3000","1","","","images/earth.jpg","images/rocket1","images/rocket2","null","images/rocket1","","1","real","null","2","","",""
"d3-animate-choice","148","676704","0.0-76.0-1.4","662","5212","23","Female","false","false","true","false","""event"",""trial"",""time""
""fullscreenenter"",""5"",""15641""
","
","
","""event"",""trial"",""time""
""fullscreenenter"",""5"",""15641""
","
","374.2000000476837","","49","","","3000","1","","","images/purpleplanet.jpg","images/alien4","images/alien3","images/rocket1","images/alien3","images/t.png","2","real","true","1","common","1","2022-12-12 00:27:12.721"
"two-step-fixation","149","677715","0.0-76.0-2.4","662","5212","23","Female","false","false","true","false","""event"",""trial"",""time""
""fullscreenenter"",""5"",""15641""
","
","
","""event"",""trial"",""time""
""fullscreenenter"",""5"",""15641""
","
","","images/earth.jpg","","","","","","","","","","","","","","fixation","","","","","",""
"d3-animate-choice","150","680083","0.0-76.0-0.5","662","5212","23","Female","false","false","true","false","""event"",""trial"",""time""
""fullscreenenter"",""5"",""15641""
","
","
","""event"",""trial"",""time""
""fullscreenenter"",""5"",""15641""
","
","356.7000000476837","","48","","","3000","1","","","images/earth.jpg","images/rocket1","images/rocket2","null","images/rocket1","","1","real","null","2","","",""
"d3-animate-choice","151","682450","0.0-76.0-1.5","662","5212","23","Female","false","false","true","false","""event"",""trial"",""time""
""fullscreenenter"",""5"",""15641""
","
","
","""event"",""trial"",""time""
""fullscreenenter"",""5"",""15641""
","
","357.19999980926514","","49","","","3000","1","","","images/purpleplanet.jpg","images/alien4","images/alien3","images/rocket1","images/alien3","images/nothing.png","2","real","true","1","common","0","2022-12-12 00:27:18.467"
"two-step-fixation","152","683458","0.0-76.0-2.5","662","5212","23","Female","false","false","true","false","""event"",""trial"",""time""
""fullscreenenter"",""5"",""15641""
","
","
","""event"",""trial"",""time""
""fullscreenenter"",""5"",""15641""
","
","","images/earth.jpg","","","","","","","","","","","","","","fixation","","","","","",""
"d3-animate-choice","153","685834","0.0-76.0-0.6","662","5212","23","Female","false","false","true","false","""event"",""trial"",""time""
""fullscreenenter"",""5"",""15641""
","
","
","""event"",""trial"",""time""
""fullscreenenter"",""5"",""15641""
","
","364.2000000476837","","48","","","3000","1","","","images/earth.jpg","images/rocket1","images/rocket2","null","images/rocket1","","1","real","null","2","","",""
"d3-animate-choice","154","688154","0.0-76.0-1.6","662","5212","23","Female","false","false","true","false","""event"",""trial"",""time""
""fullscreenenter"",""5"",""15641""
","
","
","""event"",""trial"",""time""
""fullscreenenter"",""5"",""15641""
","
","317.2999999523163","","49","","","3000","1","","","images/purpleplanet.jpg","images/alien4","images/alien3","images/rocket1","images/alien3","images/nothing.png","2","real","true","1","common","0","2022-12-12 00:27:24.171"
"two-step-fixation","155","689163","0.0-76.0-2.6","662","5212","23","Female","false","false","true","false","""event"",""trial"",""time""
""fullscreenenter"",""5"",""15641""
","
","
","""event"",""trial"",""time""
""fullscreenenter"",""5"",""15641""
","
","","images/earth.jpg","","","","","","","","","","","","","","fixation","","","","","",""
"d3-animate-choice","156","691458","0.0-76.0-0.7","662","5212","23","Female","false","false","true","false","""event"",""trial"",""time""
""fullscreenenter"",""5"",""15641""
","
","
","""event"",""trial"",""time""
""fullscreenenter"",""5"",""15641""
","
","289.09999990463257","","49","","","3000","1","","","images/earth.jpg","images/rocket1","images/rocket2","null","images/rocket2","","1","real","null","1","","",""
"d3-animate-choice","157","693818","0.0-76.0-1.7","662","5212","23","Female","false","false","true","false","""event"",""trial"",""time""
""fullscreenenter"",""5"",""15641""
","
","
","""event"",""trial"",""time""
""fullscreenenter"",""5"",""15641""
","
","350.69999980926514","","48","","","3000","1","","","images/redplanet1.jpg","images/alien2","images/alien1","images/rocket2","images/alien2","images/nothing.png","2","real","true","2","common","0","2022-12-12 00:27:29.835"
"two-step-fixation","158","694826","0.0-76.0-2.7","662","5212","23","Female","false","false","true","false","""event"",""trial"",""time""
""fullscreenenter"",""5"",""15641""
","
","
","""event"",""trial"",""time""
""fullscreenenter"",""5"",""15641""
","
","","images/earth.jpg","","","","","","","","","","","","","","fixation","","","","","",""
"d3-animate-choice","159","697170","0.0-76.0-0.8","662","5212","23","Female","false","false","true","false","""event"",""trial"",""time""
""fullscreenenter"",""5"",""15641""
","
","
","""event"",""trial"",""time""
""fullscreenenter"",""5"",""15641""
","
","334.7000000476837","","49","","","3000","1","","","images/earth.jpg","images/rocket1","images/rocket2","null","images/rocket2","","1","real","null","1","","",""
"d3-animate-choice","160","699562","0.0-76.0-1.8","662","5212","23","Female","false","false","true","false","""event"",""trial"",""time""
""fullscreenenter"",""5"",""15641""
","
","
","""event"",""trial"",""time""
""fullscreenenter"",""5"",""15641""
","
","388.40000009536743","","48","","","3000","1","","","images/redplanet1.jpg","images/alien2","images/alien1","images/rocket2","images/alien2","images/nothing.png","2","real","true","2","common","0","2022-12-12 00:27:35.579"
"two-step-fixation","161","700570","0.0-76.0-2.8","662","5212","23","Female","false","false","true","false","""event"",""trial"",""time""
""fullscreenenter"",""5"",""15641""
","
","
","""event"",""trial"",""time""
""fullscreenenter"",""5"",""15641""
","
","","images/earth.jpg","","","","","","","","","","","","","","fixation","","","","","",""
"d3-animate-choice","162","702907","0.0-76.0-0.9","662","5212","23","Female","false","false","true","false","""event"",""trial"",""time""
""fullscreenenter"",""5"",""15641""
","
","
","""event"",""trial"",""time""
""fullscreenenter"",""5"",""15641""
","
","325","","48","","","3000","1","","","images/earth.jpg","images/rocket1","images/rocket2","null","images/rocket1","","1","real","null","2","","",""
"d3-animate-choice","163","705211","0.0-76.0-1.9","662","5212","23","Female","false","false","true","false","""event"",""trial"",""time""
""fullscreenenter"",""5"",""15641""
","
","
","""event"",""trial"",""time""
""fullscreenenter"",""5"",""15641""
","
","297.5","","49","","","3000","1","","","images/redplanet1.jpg","images/alien2","images/alien1","images/rocket1","images/alien1","images/nothing.png","2","real","false","1","rare","0","2022-12-12 00:27:41.228"
"two-step-fixation","164","706219","0.0-76.0-2.9","662","5212","23","Female","false","false","true","false","""event"",""trial"",""time""
""fullscreenenter"",""5"",""15641""
","
","
","""event"",""trial"",""time""
""fullscreenenter"",""5"",""15641""
","
","","images/earth.jpg","","","","","","","","","","","","","","fixation","","","","","",""
"d3-animate-choice","165","708608","0.0-76.0-0.10","662","5212","23","Female","false","false","true","false","""event"",""trial"",""time""
""fullscreenenter"",""5"",""15641""
","
","
","""event"",""trial"",""time""
""fullscreenenter"",""5"",""15641""
","
","381.7000000476837","","48","","","3000","1","","","images/earth.jpg","images/rocket1","images/rocket2","null","images/rocket1","","1","real","null","2","","",""
"d3-animate-choice","166","710971","0.0-76.0-1.10","662","5212","23","Female","false","false","true","false","""event"",""trial"",""time""
""fullscreenenter"",""5"",""15641""
","
","
","""event"",""trial"",""time""
""fullscreenenter"",""5"",""15641""
","
","358.19999980926514","","49","","","3000","1","","","images/redplanet1.jpg","images/alien2","images/alien1","images/rocket1","images/alien1","images/nothing.png","2","real","false","1","rare","0","2022-12-12 00:27:46.988"
"two-step-fixation","167","711978","0.0-76.0-2.10","662","5212","23","Female","false","false","true","false","""event"",""trial"",""time""
""fullscreenenter"",""5"",""15641""
","
","
","""event"",""trial"",""time""
""fullscreenenter"",""5"",""15641""
","
","","images/earth.jpg","","","","","","","","","","","","","","fixation","","","","","",""
"d3-animate-choice","168","714514","0.0-76.0-0.11","662","5212","23","Female","false","false","true","false","""event"",""trial"",""time""
""fullscreenenter"",""5"",""15641""
","
","
","""event"",""trial"",""time""
""fullscreenenter"",""5"",""15641""
","
","529.9000000953674","","48","","","3000","1","","","images/earth.jpg","images/rocket1","images/rocket2","null","images/rocket1","","1","real","null","2","","",""
"d3-animate-choice","169","717027","0.0-76.0-1.11","662","5212","23","Female","false","false","true","false","""event"",""trial"",""time""
""fullscreenenter"",""5"",""15641""
","
","
","""event"",""trial"",""time""
""fullscreenenter"",""5"",""15641""
","
","508.5","","49","","","3000","1","","","images/purpleplanet.jpg","images/alien4","images/alien3","images/rocket1","images/alien3","images/nothing.png","2","real","true","1","common","0","2022-12-12 00:27:53.044"
"two-step-fixation","170","718035","0.0-76.0-2.11","662","5212","23","Female","false","false","true","false","""event"",""trial"",""time""
""fullscreenenter"",""5"",""15641""
","
","
","""event"",""trial"",""time""
""fullscreenenter"",""5"",""15641""
","
","","images/earth.jpg","","","","","","","","","","","","","","fixation","","","","","",""
"d3-animate-choice","171","720426","0.0-76.0-0.12","662","5212","23","Female","false","false","true","false","""event"",""trial"",""time""
""fullscreenenter"",""5"",""15641""
","
","
","""event"",""trial"",""time""
""fullscreenenter"",""5"",""15641""
","
","382.10000014305115","","49","","","3000","1","","","images/earth.jpg","images/rocket1","images/rocket2","null","images/rocket2","","1","real","null","1","","",""
"d3-animate-choice","172","723027","0.0-76.0-1.12","662","5212","23","Female","false","false","true","false","""event"",""trial"",""time""
""fullscreenenter"",""5"",""15641""
","
","
","""event"",""trial"",""time""
""fullscreenenter"",""5"",""15641""
","
","591.7999999523163","","48","","","3000","1","","","images/purpleplanet.jpg","images/alien4","images/alien3","images/rocket2","images/alien4","images/nothing.png","2","real","false","2","rare","0","2022-12-12 00:27:59.044"
"two-step-fixation","173","724035","0.0-76.0-2.12","662","5212","23","Female","false","false","true","false","""event"",""trial"",""time""
""fullscreenenter"",""5"",""15641""
","
","
","""event"",""trial"",""time""
""fullscreenenter"",""5"",""15641""
","
","","images/earth.jpg","","","","","","","","","","","","","","fixation","","","","","",""
"d3-animate-choice","174","726355","0.0-76.0-0.13","662","5212","23","Female","false","false","true","false","""event"",""trial"",""time""
""fullscreenenter"",""5"",""15641""
","
","
","""event"",""trial"",""time""
""fullscreenenter"",""5"",""15641""
","
","314.2000000476837","","49","","","3000","1","","","images/earth.jpg","images/rocket1","images/rocket2","null","images/rocket2","","1","real","null","1","","",""
"d3-animate-choice","175","728914","0.0-76.0-1.13","662","5212","23","Female","false","false","true","false","""event"",""trial"",""time""
""fullscreenenter"",""5"",""15641""
","
","
","""event"",""trial"",""time""
""fullscreenenter"",""5"",""15641""
","
","549.4000000953674","","48","","","3000","1","","","images/redplanet1.jpg","images/alien2","images/alien1","images/rocket2","images/alien2","images/t.png","2","real","true","2","common","1","2022-12-12 00:28:04.931"
"two-step-fixation","176","729922","0.0-76.0-2.13","662","5212","23","Female","false","false","true","false","""event"",""trial"",""time""
""fullscreenenter"",""5"",""15641""
","
","
","""event"",""trial"",""time""
""fullscreenenter"",""5"",""15641""
","
","","images/earth.jpg","","","","","","","","","","","","","","fixation","","","","","",""
"d3-animate-choice","177","732330","0.0-76.0-0.14","662","5212","23","Female","false","false","true","false","""event"",""trial"",""time""
""fullscreenenter"",""5"",""15641""
","
","
","""event"",""trial"",""time""
""fullscreenenter"",""5"",""15641""
","
","396.7000000476837","","49","","","3000","1","","","images/earth.jpg","images/rocket1","images/rocket2","null","images/rocket2","","1","real","null","1","","",""
"d3-animate-choice","178","734715","0.0-76.0-1.14","662","5212","23","Female","false","false","true","false","""event"",""trial"",""time""
""fullscreenenter"",""5"",""15641""
","
","
","""event"",""trial"",""time""
""fullscreenenter"",""5"",""15641""
","
","376.5","","48","","","3000","1","","","images/redplanet1.jpg","images/alien2","images/alien1","images/rocket2","images/alien2","images/t.png","2","real","true","2","common","1","2022-12-12 00:28:10.732"
"two-step-fixation","179","735722","0.0-76.0-2.14","662","5212","23","Female","false","false","true","false","""event"",""trial"",""time""
""fullscreenenter"",""5"",""15641""
","
","
","""event"",""trial"",""time""
""fullscreenenter"",""5"",""15641""
","
","","images/earth.jpg","","","","","","","","","","","","","","fixation","","","","","",""
"d3-animate-choice","180","738081","0.0-76.0-0.15","662","5212","23","Female","false","false","true","false","""event"",""trial"",""time""
""fullscreenenter"",""5"",""15641""
","
","
","""event"",""trial"",""time""
""fullscreenenter"",""5"",""15641""
","
","353","","49","","","3000","1","","","images/earth.jpg","images/rocket1","images/rocket2","null","images/rocket2","","1","real","null","1","","",""
"d3-animate-choice","181","740603","0.0-76.0-1.15","662","5212","23","Female","false","false","true","false","""event"",""trial"",""time""
""fullscreenenter"",""5"",""15641""
","
","
","""event"",""trial"",""time""
""fullscreenenter"",""5"",""15641""
","
","514.3000001907349","","48","","","3000","1","","","images/redplanet1.jpg","images/alien2","images/alien1","images/rocket2","images/alien2","images/nothing.png","2","real","true","2","common","0","2022-12-12 00:28:16.620"
"two-step-fixation","182","741610","0.0-76.0-2.15","662","5212","23","Female","false","false","true","false","""event"",""trial"",""time""
""fullscreenenter"",""5"",""15641""
","
","
","""event"",""trial"",""time""
""fullscreenenter"",""5"",""15641""
","
","","images/earth.jpg","","","","","","","","","","","","","","fixation","","","","","",""
"d3-animate-choice","183","743993","0.0-76.0-0.16","662","5212","23","Female","false","false","true","false","""event"",""trial"",""time""
""fullscreenenter"",""5"",""15641""
","
","
","""event"",""trial"",""time""
""fullscreenenter"",""5"",""15641""
","
","376.5","","49","","","3000","1","","","images/earth.jpg","images/rocket1","images/rocket2","null","images/rocket2","","1","real","null","1","","",""
"d3-animate-choice","184","746423","0.0-76.0-1.16","662","5212","23","Female","false","false","true","false","""event"",""trial"",""time""
""fullscreenenter"",""5"",""15641""
","
","
","""event"",""trial"",""time""
""fullscreenenter"",""5"",""15641""
","
","425.59999990463257","","48","","","3000","1","","","images/redplanet1.jpg","images/alien2","images/alien1","images/rocket2","images/alien2","images/t.png","2","real","true","2","common","1","2022-12-12 00:28:22.440"
"two-step-fixation","185","747434","0.0-76.0-2.16","662","5212","23","Female","false","false","true","false","""event"",""trial"",""time""
""fullscreenenter"",""5"",""15641""
","
","
","""event"",""trial"",""time""
""fullscreenenter"",""5"",""15641""
","
","","images/earth.jpg","","","","","","","","","","","","","","fixation","","","","","",""
"d3-animate-choice","186","749770","0.0-76.0-0.17","662","5212","23","Female","false","false","true","false","""event"",""trial"",""time""
""fullscreenenter"",""5"",""15641""
","
","
","""event"",""trial"",""time""
""fullscreenenter"",""5"",""15641""
","
","327.59999990463257","","49","","","3000","1","1125","48","images/earth.jpg","images/rocket1","images/rocket2","null","images/rocket2","","1","real","null","1","","",""
"d3-animate-choice","187","752194","0.0-76.0-1.17","662","5212","23","Female","false","false","true","false","""event"",""trial"",""time""
""fullscreenenter"",""5"",""15641""
","
","
","""event"",""trial"",""time""
""fullscreenenter"",""5"",""15641""
","
","414.2999999523163","","48","","","3000","1","","","images/redplanet1.jpg","images/alien2","images/alien1","images/rocket2","images/alien2","images/t.png","2","real","true","2","common","1","2022-12-12 00:28:28.211"
"two-step-fixation","188","753203","0.0-76.0-2.17","662","5212","23","Female","false","false","true","false","""event"",""trial"",""time""
""fullscreenenter"",""5"",""15641""
","
","
","""event"",""trial"",""time""
""fullscreenenter"",""5"",""15641""
","
","","images/earth.jpg","","","","","","","","","","","","","","fixation","","","","","",""
"d3-animate-choice","189","755499","0.0-76.0-0.18","662","5212","23","Female","false","false","true","false","""event"",""trial"",""time""
""fullscreenenter"",""5"",""15641""
","
","
","""event"",""trial"",""time""
""fullscreenenter"",""5"",""15641""
","
","289.7000000476837","","49","","","3000","1","","","images/earth.jpg","images/rocket1","images/rocket2","null","images/rocket2","","1","real","null","1","","",""
"d3-animate-choice","190","757771","0.0-76.0-1.18","662","5212","23","Female","false","false","true","false","""event"",""trial"",""time""
""fullscreenenter"",""5"",""15641""
","
","
","""event"",""trial"",""time""
""fullscreenenter"",""5"",""15641""
","
","266.09999990463257","","48","","","3000","1","","","images/redplanet1.jpg","images/alien2","images/alien1","images/rocket2","images/alien2","images/nothing.png","2","real","true","2","common","0","2022-12-12 00:28:33.788"
"two-step-fixation","191","758779","0.0-76.0-2.18","662","5212","23","Female","false","false","true","false","""event"",""trial"",""time""
""fullscreenenter"",""5"",""15641""
","
","
","""event"",""trial"",""time""
""fullscreenenter"",""5"",""15641""
","
","","images/earth.jpg","","","","","","","","","","","","","","fixation","","","","","",""
"d3-animate-choice","192","761547","0.0-76.0-0.19","662","5212","23","Female","false","false","true","false","""event"",""trial"",""time""
""fullscreenenter"",""5"",""15641""
","
","
","""event"",""trial"",""time""
""fullscreenenter"",""5"",""15641""
","
","763.7000000476837","","49","","","3000","1","","","images/earth.jpg","images/rocket1","images/rocket2","null","images/rocket2","","1","real","null","1","","",""
"d3-animate-choice","193","763979","0.0-76.0-1.19","662","5212","23","Female","false","false","true","false","""event"",""trial"",""time""
""fullscreenenter"",""5"",""15641""
","
","
","""event"",""trial"",""time""
""fullscreenenter"",""5"",""15641""
","
","425.89999985694885","","48","","","3000","1","","","images/redplanet1.jpg","images/alien2","images/alien1","images/rocket2","images/alien2","images/t.png","2","real","true","2","common","1","2022-12-12 00:28:39.996"
"two-step-fixation","194","764987","0.0-76.0-2.19","662","5212","23","Female","false","false","true","false","""event"",""trial"",""time""
""fullscreenenter"",""5"",""15641""
","
","
","""event"",""trial"",""time""
""fullscreenenter"",""5"",""15641""
","
","","images/earth.jpg","","","","","","","","","","","","","","fixation","","","","","",""
"d3-animate-choice","195","767337","0.0-76.0-0.20","662","5212","23","Female","false","false","true","false","""event"",""trial"",""time""
""fullscreenenter"",""5"",""15641""
","
","
","""event"",""trial"",""time""
""fullscreenenter"",""5"",""15641""
","
","347","","49","","","3000","1","","","images/earth.jpg","images/rocket1","images/rocket2","null","images/rocket2","","1","real","null","1","","",""
"d3-animate-choice","196","770146","0.0-76.0-1.20","662","5212","23","Female","false","false","true","false","""event"",""trial"",""time""
""fullscreenenter"",""5"",""15641""
","
","
","""event"",""trial"",""time""
""fullscreenenter"",""5"",""15641""
","
","803.7999999523163","","49","","","3000","1","","","images/purpleplanet.jpg","images/alien4","images/alien3","images/rocket2","images/alien3","images/nothing.png","2","real","false","1","rare","0","2022-12-12 00:28:46.164"
"two-step-fixation","197","771155","0.0-76.0-2.20","662","5212","23","Female","false","false","true","false","""event"",""trial"",""time""
""fullscreenenter"",""5"",""15641""
","
","
","""event"",""trial"",""time""
""fullscreenenter"",""5"",""15641""
","
","","images/earth.jpg","","","","","","","","","","","","","","fixation","","","","","",""
"d3-animate-choice","198","773554","0.0-76.0-0.21","662","5212","23","Female","false","false","true","false","""event"",""trial"",""time""
""fullscreenenter"",""5"",""15641""
","
","
","""event"",""trial"",""time""
""fullscreenenter"",""5"",""15641""
","
","391.5","","48","","","3000","1","","","images/earth.jpg","images/rocket1","images/rocket2","null","images/rocket1","","1","real","null","2","","",""
"d3-animate-choice","199","775930","0.0-76.0-1.21","662","5212","23","Female","false","false","true","false","""event"",""trial"",""time""
""fullscreenenter"",""5"",""15641""
","
","
","""event"",""trial"",""time""
""fullscreenenter"",""5"",""15641""
","
","368.2000000476837","","49","","","3000","1","","","images/purpleplanet.jpg","images/alien4","images/alien3","images/rocket1","images/alien3","images/nothing.png","2","real","true","1","common","0","2022-12-12 00:28:51.947"
"two-step-fixation","200","776938","0.0-76.0-2.21","662","5212","23","Female","false","false","true","false","""event"",""trial"",""time""
""fullscreenenter"",""5"",""15641""
","
","
","""event"",""trial"",""time""
""fullscreenenter"",""5"",""15641""
","
","","images/earth.jpg","","","","","","","","","","","","","","fixation","","","","","",""
"d3-animate-choice","201","779355","0.0-76.0-0.22","662","5212","23","Female","false","false","true","false","""event"",""trial"",""time""
""fullscreenenter"",""5"",""15641""
","
","
","""event"",""trial"",""time""
""fullscreenenter"",""5"",""15641""
","
","409","","49","","","3000","1","","","images/earth.jpg","images/rocket1","images/rocket2","null","images/rocket2","","1","real","null","1","","",""
"d3-animate-choice","202","781770","0.0-76.0-1.22","662","5212","23","Female","false","false","true","false","""event"",""trial"",""time""
""fullscreenenter"",""5"",""15641""
","
","
","""event"",""trial"",""time""
""fullscreenenter"",""5"",""15641""
","
","406.7000000476837","","48","","","3000","1","","","images/redplanet1.jpg","images/alien2","images/alien1","images/rocket2","images/alien2","images/nothing.png","2","real","true","2","common","0","2022-12-12 00:28:57.787"
"two-step-fixation","203","782779","0.0-76.0-2.22","662","5212","23","Female","false","false","true","false","""event"",""trial"",""time""
""fullscreenenter"",""5"",""15641""
","
","
","""event"",""trial"",""time""
""fullscreenenter"",""5"",""15641""
","
","","images/earth.jpg","","","","","","","","","","","","","","fixation","","","","","",""
"d3-animate-choice","204","785130","0.0-76.0-0.23","662","5212","23","Female","false","false","true","false","""event"",""trial"",""time""
""fullscreenenter"",""5"",""15641""
","
","
","""event"",""trial"",""time""
""fullscreenenter"",""5"",""15641""
","
","342.80000019073486","","49","","","3000","1","","","images/earth.jpg","images/rocket1","images/rocket2","null","images/rocket2","","1","real","null","1","","",""
"d3-animate-choice","205","787506","0.0-76.0-1.23","662","5212","23","Female","false","false","true","false","""event"",""trial"",""time""
""fullscreenenter"",""5"",""15641""
","
","
","""event"",""trial"",""time""
""fullscreenenter"",""5"",""15641""
","
","367.09999990463257","","48","","","3000","1","","","images/purpleplanet.jpg","images/alien4","images/alien3","images/rocket2","images/alien4","images/nothing.png","2","real","false","2","rare","0","2022-12-12 00:29:03.523"
"two-step-fixation","206","788515","0.0-76.0-2.23","662","5212","23","Female","false","false","true","false","""event"",""trial"",""time""
""fullscreenenter"",""5"",""15641""
","
","
","""event"",""trial"",""time""
""fullscreenenter"",""5"",""15641""
","
","","images/earth.jpg","","","","","","","","","","","","","","fixation","","","","","",""
"d3-animate-choice","207","790850","0.0-76.0-0.24","662","5212","23","Female","false","false","true","false","""event"",""trial"",""time""
""fullscreenenter"",""5"",""15641""
","
","
","""event"",""trial"",""time""
""fullscreenenter"",""5"",""15641""
","
","331.59999990463257","","49","","","3000","1","","","images/earth.jpg","images/rocket1","images/rocket2","null","images/rocket2","","1","real","null","1","","",""
"d3-animate-choice","208","793594","0.0-76.0-1.24","662","5212","23","Female","false","false","true","false","""event"",""trial"",""time""
""fullscreenenter"",""5"",""15641""
","
","
","""event"",""trial"",""time""
""fullscreenenter"",""5"",""15641""
","
","733.5","","48","","","3000","1","","","images/purpleplanet.jpg","images/alien4","images/alien3","images/rocket2","images/alien4","images/t.png","2","real","false","2","rare","1","2022-12-12 00:29:09.611"
"two-step-fixation","209","794602","0.0-76.0-2.24","662","5212","23","Female","false","false","true","false","""event"",""trial"",""time""
""fullscreenenter"",""5"",""15641""
","
","
","""event"",""trial"",""time""
""fullscreenenter"",""5"",""15641""
","
","","images/earth.jpg","","","","","","","","","","","","","","fixation","","","","","",""
"d3-animate-choice","210","797026","0.0-76.0-0.25","662","5212","23","Female","false","false","true","false","""event"",""trial"",""time""
""fullscreenenter"",""5"",""15641""
","
","
","""event"",""trial"",""time""
""fullscreenenter"",""5"",""15641""
","
","417.89999985694885","","48","","","3000","1","","","images/earth.jpg","images/rocket1","images/rocket2","null","images/rocket1","","1","real","null","2","","",""
"d3-animate-choice","211","799378","0.0-76.0-1.25","662","5212","23","Female","false","false","true","false","""event"",""trial"",""time""
""fullscreenenter"",""5"",""15641""
","
","
","""event"",""trial"",""time""
""fullscreenenter"",""5"",""15641""
","
","346.60000014305115","","48","","","3000","1","","","images/purpleplanet.jpg","images/alien4","images/alien3","images/rocket1","images/alien4","images/t.png","2","real","true","2","common","1","2022-12-12 00:29:15.395"
"two-step-fixation","212","800387","0.0-76.0-2.25","662","5212","23","Female","false","false","true","false","""event"",""trial"",""time""
""fullscreenenter"",""5"",""15641""
","
","
","""event"",""trial"",""time""
""fullscreenenter"",""5"",""15641""
","
","","images/earth.jpg","","","","","","","","","","","","","","fixation","","","","","",""
"d3-animate-choice","213","802753","0.0-76.0-0.26","662","5212","23","Female","false","false","true","false","""event"",""trial"",""time""
""fullscreenenter"",""5"",""15641""
","
","
","""event"",""trial"",""time""
""fullscreenenter"",""5"",""15641""
","
","361.2999999523163","","48","","","3000","1","","","images/earth.jpg","images/rocket1","images/rocket2","null","images/rocket1","","1","real","null","2","","",""
"d3-animate-choice","214","805068","0.0-76.0-1.26","662","5212","23","Female","false","false","true","false","""event"",""trial"",""time""
""fullscreenenter"",""5"",""15641""
","
","
","""event"",""trial"",""time""
""fullscreenenter"",""5"",""15641""
","
","311.2999999523163","","48","","","3000","1","","","images/purpleplanet.jpg","images/alien4","images/alien3","images/rocket1","images/alien4","images/t.png","2","real","true","2","common","1","2022-12-12 00:29:21.085"
"two-step-fixation","215","806075","0.0-76.0-2.26","662","5212","23","Female","false","false","true","false","""event"",""trial"",""time""
""fullscreenenter"",""5"",""15641""
","
","
","""event"",""trial"",""time""
""fullscreenenter"",""5"",""15641""
","
","","images/earth.jpg","","","","","","","","","","","","","","fixation","","","","","",""
"d3-animate-choice","216","808402","0.0-76.0-0.27","662","5212","23","Female","false","false","true","false","""event"",""trial"",""time""
""fullscreenenter"",""5"",""15641""
","
","
","""event"",""trial"",""time""
""fullscreenenter"",""5"",""15641""
","
","321.5","","48","","","3000","1","","","images/earth.jpg","images/rocket1","images/rocket2","null","images/rocket1","","1","real","null","2","","",""
"d3-animate-choice","217","810762","0.0-76.0-1.27","662","5212","23","Female","false","false","true","false","""event"",""trial"",""time""
""fullscreenenter"",""5"",""15641""
","
","
","""event"",""trial"",""time""
""fullscreenenter"",""5"",""15641""
","
","355.39999985694885","","48","","","3000","1","","","images/purpleplanet.jpg","images/alien4","images/alien3","images/rocket1","images/alien4","images/nothing.png","2","real","true","2","common","0","2022-12-12 00:29:26.779"
"two-step-fixation","218","811770","0.0-76.0-2.27","662","5212","23","Female","false","false","true","false","""event"",""trial"",""time""
""fullscreenenter"",""5"",""15641""
","
","
","""event"",""trial"",""time""
""fullscreenenter"",""5"",""15641""
","
","","images/earth.jpg","","","","","","","","","","","","","","fixation","","","","","",""
"d3-animate-choice","219","814106","0.0-76.0-0.28","662","5212","23","Female","false","false","true","false","""event"",""trial"",""time""
""fullscreenenter"",""5"",""15641""
","
","
","""event"",""trial"",""time""
""fullscreenenter"",""5"",""15641""
","
","326.7999999523163","","48","","","3000","1","","","images/earth.jpg","images/rocket1","images/rocket2","null","images/rocket1","","1","real","null","2","","",""
"d3-animate-choice","220","817035","0.0-76.0-1.28","662","5212","23","Female","false","false","true","false","""event"",""trial"",""time""
""fullscreenenter"",""5"",""15641""
","
","
","""event"",""trial"",""time""
""fullscreenenter"",""5"",""15641""
","
","922.0999999046326","","48","","","3000","1","","","images/redplanet1.jpg","images/alien2","images/alien1","images/rocket1","images/alien2","images/t.png","2","real","false","2","rare","1","2022-12-12 00:29:33.052"
"two-step-fixation","221","818040","0.0-76.0-2.28","662","5212","23","Female","false","false","true","false","""event"",""trial"",""time""
""fullscreenenter"",""5"",""15641""
","
","
","""event"",""trial"",""time""
""fullscreenenter"",""5"",""15641""
","
","","images/earth.jpg","","","","","","","","","","","","","","fixation","","","","","",""
"d3-animate-choice","222","820810","0.0-76.0-0.29","662","5212","23","Female","false","false","true","false","""event"",""trial"",""time""
""fullscreenenter"",""5"",""15641""
","
","
","""event"",""trial"",""time""
""fullscreenenter"",""5"",""15641""
","
","763.8000001907349","","48","","","3000","1","","","images/earth.jpg","images/rocket1","images/rocket2","null","images/rocket1","","1","real","null","2","","",""
"d3-animate-choice","223","823411","0.0-76.0-1.29","662","5212","23","Female","false","false","true","false","""event"",""trial"",""time""
""fullscreenenter"",""5"",""15641""
","
","
","""event"",""trial"",""time""
""fullscreenenter"",""5"",""15641""
","
","596","","48","","","3000","1","","","images/purpleplanet.jpg","images/alien4","images/alien3","images/rocket1","images/alien4","images/t.png","2","real","true","2","common","1","2022-12-12 00:29:39.428"
"two-step-fixation","224","824417","0.0-76.0-2.29","662","5212","23","Female","false","false","true","false","""event"",""trial"",""time""
""fullscreenenter"",""5"",""15641""
","
","
","""event"",""trial"",""time""
""fullscreenenter"",""5"",""15641""
","
","","images/earth.jpg","","","","","","","","","","","","","","fixation","","","","","",""
"d3-animate-choice","225","826722","0.0-76.0-0.30","662","5212","23","Female","false","false","true","false","""event"",""trial"",""time""
""fullscreenenter"",""5"",""15641""
","
","
","""event"",""trial"",""time""
""fullscreenenter"",""5"",""15641""
","
","296.90000009536743","","48","","","3000","1","","","images/earth.jpg","images/rocket1","images/rocket2","null","images/rocket1","","1","real","null","2","","",""
"d3-animate-choice","226","829063","0.0-76.0-1.30","662","5212","23","Female","false","false","true","false","""event"",""trial"",""time""
""fullscreenenter"",""5"",""15641""
","
","
","""event"",""trial"",""time""
""fullscreenenter"",""5"",""15641""
","
","335.7000000476837","","48","","","3000","1","","","images/purpleplanet.jpg","images/alien4","images/alien3","images/rocket1","images/alien4","images/nothing.png","2","real","true","2","common","0","2022-12-12 00:29:45.080"
"two-step-fixation","227","830075","0.0-76.0-2.30","662","5212","23","Female","false","false","true","false","""event"",""trial"",""time""
""fullscreenenter"",""5"",""15641""
","
","
","""event"",""trial"",""time""
""fullscreenenter"",""5"",""15641""
","
","","images/earth.jpg","","","","","","","","","","","","","","fixation","","","","","",""
"d3-animate-choice","228","832526","0.0-76.0-0.31","662","5212","23","Female","false","false","true","false","""event"",""trial"",""time""
""fullscreenenter"",""5"",""15641""
","
","
","""event"",""trial"",""time""
""fullscreenenter"",""5"",""15641""
","
","444.59999990463257","","49","","","3000","1","","","images/earth.jpg","images/rocket1","images/rocket2","null","images/rocket2","","1","real","null","1","","",""
"d3-animate-choice","229","835402","0.0-76.0-1.31","662","5212","23","Female","false","false","true","false","""event"",""trial"",""time""
""fullscreenenter"",""5"",""15641""
","
","
","""event"",""trial"",""time""
""fullscreenenter"",""5"",""15641""
","
","868.9000000953674","","48","","","3000","1","","","images/purpleplanet.jpg","images/alien4","images/alien3","images/rocket2","images/alien4","images/t.png","2","real","false","2","rare","1","2022-12-12 00:29:51.419"
"two-step-fixation","230","836411","0.0-76.0-2.31","662","5212","23","Female","false","false","true","false","""event"",""trial"",""time""
""fullscreenenter"",""5"",""15641""
","
","
","""event"",""trial"",""time""
""fullscreenenter"",""5"",""15641""
","
","","images/earth.jpg","","","","","","","","","","","","","","fixation","","","","","",""
"d3-animate-choice","231","838787","0.0-76.0-0.32","662","5212","23","Female","false","false","true","false","""event"",""trial"",""time""
""fullscreenenter"",""5"",""15641""
","
","
","""event"",""trial"",""time""
""fullscreenenter"",""5"",""15641""
","
","365.89999985694885","","49","","","3000","1","","","images/earth.jpg","images/rocket1","images/rocket2","null","images/rocket2","","1","real","null","1","","",""
"d3-animate-choice","232","841185","0.0-76.0-1.32","662","5212","23","Female","false","false","true","false","""event"",""trial"",""time""
""fullscreenenter"",""5"",""15641""
","
","
","""event"",""trial"",""time""
""fullscreenenter"",""5"",""15641""
","
","390.80000019073486","","48","","","3000","1","1637.8000001907349","48","images/redplanet1.jpg","images/alien2","images/alien1","images/rocket2","images/alien2","images/nothing.png","2","real","true","2","common","0","2022-12-12 00:29:57.202"
"two-step-fixation","233","842194","0.0-76.0-2.32","662","5212","23","Female","false","false","true","false","""event"",""trial"",""time""
""fullscreenenter"",""5"",""15641""
","
","
","""event"",""trial"",""time""
""fullscreenenter"",""5"",""15641""
","
","","images/earth.jpg","","","","","","","","","","","","","","fixation","","","","","",""
"d3-animate-choice","234","844614","0.0-76.0-0.33","662","5212","23","Female","false","false","true","false","""event"",""trial"",""time""
""fullscreenenter"",""5"",""15641""
","
","
","""event"",""trial"",""time""
""fullscreenenter"",""5"",""15641""
","
","412.7999999523163","","48","","","3000","1","","","images/earth.jpg","images/rocket1","images/rocket2","null","images/rocket1","","1","real","null","2","","",""
"d3-animate-choice","235","847018","0.0-76.0-1.33","662","5212","23","Female","false","false","true","false","""event"",""trial"",""time""
""fullscreenenter"",""5"",""15641""
","
","
","""event"",""trial"",""time""
""fullscreenenter"",""5"",""15641""
","
","400.5","","48","","","3000","1","","","images/purpleplanet.jpg","images/alien4","images/alien3","images/rocket1","images/alien4","images/t.png","2","real","true","2","common","1","2022-12-12 00:30:03.036"
"two-step-fixation","236","848027","0.0-76.0-2.33","662","5212","23","Female","false","false","true","false","""event"",""trial"",""time""
""fullscreenenter"",""5"",""15641""
","
","
","""event"",""trial"",""time""
""fullscreenenter"",""5"",""15641""
","
","","images/earth.jpg","","","","","","","","","","","","","","fixation","","","","","",""
"d3-animate-choice","237","850343","0.0-76.0-0.34","662","5212","23","Female","false","false","true","false","""event"",""trial"",""time""
""fullscreenenter"",""5"",""15641""
","
","
","""event"",""trial"",""time""
""fullscreenenter"",""5"",""15641""
","
","312.10000014305115","","48","","","3000","1","","","images/earth.jpg","images/rocket1","images/rocket2","null","images/rocket1","","1","real","null","2","","",""
"d3-animate-choice","238","852787","0.0-76.0-1.34","662","5212","23","Female","false","false","true","false","""event"",""trial"",""time""
""fullscreenenter"",""5"",""15641""
","
","
","""event"",""trial"",""time""
""fullscreenenter"",""5"",""15641""
","
","433","","48","","","3000","1","","","images/purpleplanet.jpg","images/alien4","images/alien3","images/rocket1","images/alien4","images/t.png","2","real","true","2","common","1","2022-12-12 00:30:08.804"
"two-step-fixation","239","853795","0.0-76.0-2.34","662","5212","23","Female","false","false","true","false","""event"",""trial"",""time""
""fullscreenenter"",""5"",""15641""
","
","
","""event"",""trial"",""time""
""fullscreenenter"",""5"",""15641""
","
","","images/earth.jpg","","","","","","","","","","","","","","fixation","","","","","",""
"d3-animate-choice","240","856082","0.0-76.0-0.35","662","5212","23","Female","false","false","true","false","""event"",""trial"",""time""
""fullscreenenter"",""5"",""15641""
","
","
","""event"",""trial"",""time""
""fullscreenenter"",""5"",""15641""
","
","279.2000000476837","","48","","","3000","1","","","images/earth.jpg","images/rocket1","images/rocket2","null","images/rocket1","","1","real","null","2","","",""
"d3-animate-choice","241","858467","0.0-76.0-1.35","662","5212","23","Female","false","false","true","false","""event"",""trial"",""time""
""fullscreenenter"",""5"",""15641""
","
","
","""event"",""trial"",""time""
""fullscreenenter"",""5"",""15641""
","
","381.09999990463257","","48","","","3000","1","","","images/purpleplanet.jpg","images/alien4","images/alien3","images/rocket1","images/alien4","images/nothing.png","2","real","true","2","common","0","2022-12-12 00:30:14.484"
"two-step-fixation","242","859474","0.0-76.0-2.35","662","5212","23","Female","false","false","true","false","""event"",""trial"",""time""
""fullscreenenter"",""5"",""15641""
","
","
","""event"",""trial"",""time""
""fullscreenenter"",""5"",""15641""
","
","","images/earth.jpg","","","","","","","","","","","","","","fixation","","","","","",""
"d3-animate-choice","243","861827","0.0-76.0-0.36","662","5212","23","Female","false","false","true","false","""event"",""trial"",""time""
""fullscreenenter"",""5"",""15641""
","
","
","""event"",""trial"",""time""
""fullscreenenter"",""5"",""15641""
","
","344.19999980926514","","48","","","3000","1","","","images/earth.jpg","images/rocket1","images/rocket2","null","images/rocket1","","1","real","null","2","","",""
"d3-animate-choice","244","864195","0.0-76.0-1.36","662","5212","23","Female","false","false","true","false","""event"",""trial"",""time""
