"trial_type","trial_index","time_elapsed","internal_node_id","participant_id","subject_id","age","gender","rocket_sides","red_planet_first_rocket","red_display_order","purple_display_order","interactions","blur_events","focus_events","fullscreenenter_events","fullscreenexit_events","rt","stimulus","key_press","button_pressed","success","duration","valid_pressed","rts","keys","planet_text","right_text","left_text","center_text","chosen_text","reward_text","trial_stage","practice_trial","transition_type","choice","transition","reward","timestamp"
"pavlovia","0","8","0.0-0.0","1402","5040","11","Female","true","false","false","false","
","
","
","
","
","","","","","","","","","","","","","","","","","","","","","",""
"html-keyboard-response","1","2733","0.0-1.0","1402","5040","11","Female","true","false","false","false","
","
","
","
","
","2723.39999999851","Welcome! Press the space bar to begin.","32","","","","","","","","","","","","","","","","","","",""
"audio-keyboard-response","2","8254","0.0-2.0","1402","5040","11","Female","true","false","false","false","
","
","
","
","
","5320","audio/beep_loop.wav","32","","","","","","","","","","","","","","","","","","",""
"audio-button-response","3","12390","0.0-3.0","1402","5040","11","Female","true","false","false","false","
","
","
","
","
","NaN","audio/fish.mp3","","1","","","","","","","","","","","","","","","","","",""
"audio-button-response","4","17136","0.0-4.0","1402","5040","11","Female","true","false","false","false","""event"",""trial"",""time""
""fullscreenenter"",""5"",""32652""
","
","
","""event"",""trial"",""time""
""fullscreenenter"",""5"",""32652""
","
","NaN","audio/tiger.mp3","","4","","","","","","","","","","","","","","","","","",""
"fullscreen","5","33639","0.0-5.0","1402","5040","11","Female","true","false","false","false","""event"",""trial"",""time""
""fullscreenenter"",""5"",""32652""
","
","
","""event"",""trial"",""time""
""fullscreenenter"",""5"",""32652""
","
","","","","","true","","","","","","","","","","","","","","","","",""
"d3-instructions","6","57624","0.0-6.0","1402","5040","11","Female","true","false","false","false","""event"",""trial"",""time""
""fullscreenenter"",""5"",""32652""
","
","
","""event"",""trial"",""time""
""fullscreenenter"",""5"",""32652""
","
","","","","","","","","","","","","","","","","","","","","","",""
"d3-instructions","7","73673","0.0-7.0","1402","5040","11","Female","true","false","false","false","""event"",""trial"",""time""
""fullscreenenter"",""5"",""32652""
","
","
","""event"",""trial"",""time""
""fullscreenenter"",""5"",""32652""
","
","","","","","","","","","","","","","","","","","","","","","",""
"d3-instructions","8","88984","0.0-8.0","1402","5040","11","Female","true","false","false","false","""event"",""trial"",""time""
""fullscreenenter"",""5"",""32652""
","
","
","""event"",""trial"",""time""
""fullscreenenter"",""5"",""32652""
","
","","","","","","","","","","","","","","","","","","","","","",""
"d3-instructions","9","102973","0.0-9.0","1402","5040","11","Female","true","false","false","false","""event"",""trial"",""time""
""fullscreenenter"",""5"",""32652""
","
","
","""event"",""trial"",""time""
""fullscreenenter"",""5"",""32652""
","
","","","","","","","","","","","","","","","","","","","","","",""
"d3-instructions","10","124663","0.0-10.0","1402","5040","11","Female","true","false","false","false","""event"",""trial"",""time""
""fullscreenenter"",""5"",""32652""
","
","
","""event"",""trial"",""time""
""fullscreenenter"",""5"",""32652""
","
","","","","","","","","","","","","","","","","","","","","","",""
"d3-animate-choice","11","127869","0.0-11.0","1402","5040","11","Female","true","false","false","false","""event"",""trial"",""time""
""fullscreenenter"",""5"",""32652""
","
","
","""event"",""trial"",""time""
""fullscreenenter"",""5"",""32652""
","
","1188.300000000745","","49","","","3000","1","2673","48","images/tutgreenplanet.jpg","images/tutalien1","images/tutalien2","null","images/tutalien2","","NA","practice","null","","","",""
"d3-animate-choice","12","130869","0.0-12.0","1402","5040","11","Female","true","false","false","false","""event"",""trial"",""time""
""fullscreenenter"",""5"",""32652""
","
","
","""event"",""trial"",""time""
""fullscreenenter"",""5"",""32652""
","
","970","","48","","","3000","1","","","images/tutgreenplanet.jpg","images/tutalien1","images/tutalien2","null","images/tutalien1","","NA","practice","null","","","",""
"d3-animate-choice","13","133850","0.0-13.0","1402","5040","11","Female","true","false","false","false","""event"",""trial"",""time""
""fullscreenenter"",""5"",""32652""
","
","
","""event"",""trial"",""time""
""fullscreenenter"",""5"",""32652""
","
","957.4000000003725","","49","","","3000","1","","","images/tutgreenplanet.jpg","images/tutalien1","images/tutalien2","null","images/tutalien2","","NA","practice","null","","","",""
"d3-animate-choice","14","136949","0.0-14.0","1402","5040","11","Female","true","false","false","false","""event"",""trial"",""time""
""fullscreenenter"",""5"",""32652""
","
","
","""event"",""trial"",""time""
""fullscreenenter"",""5"",""32652""
","
","1074.5","","48","","","3000","1","","","images/tutgreenplanet.jpg","images/tutalien1","images/tutalien2","null","images/tutalien1","","NA","practice","null","","","",""
"d3-instructions","15","146992","0.0-15.0","1402","5040","11","Female","true","false","false","false","""event"",""trial"",""time""
""fullscreenenter"",""5"",""32652""
","
","
","""event"",""trial"",""time""
""fullscreenenter"",""5"",""32652""
","
","","","","","","","","","","","","","","","","","","","","","",""
"d3-instructions","16","156638","0.0-16.0","1402","5040","11","Female","true","false","false","false","""event"",""trial"",""time""
""fullscreenenter"",""5"",""32652""
","
","
","""event"",""trial"",""time""
""fullscreenenter"",""5"",""32652""
","
","","","","","","","","","","","","","","","","","","","","","",""
"d3-instructions","17","169103","0.0-17.0","1402","5040","11","Female","true","false","false","false","""event"",""trial"",""time""
""fullscreenenter"",""5"",""32652""
","
","
","""event"",""trial"",""time""
""fullscreenenter"",""5"",""32652""
","
","","","","","","","","","","","","","","","","","","","","","",""
"d3-instructions","18","186131","0.0-18.0","1402","5040","11","Female","true","false","false","false","""event"",""trial"",""time""
""fullscreenenter"",""5"",""32652""
","
","
","""event"",""trial"",""time""
""fullscreenenter"",""5"",""32652""
","
","","","","","","","","","","","","","","","","","","","","","",""
"d3-instructions","19","204204","0.0-19.0","1402","5040","11","Female","true","false","false","false","""event"",""trial"",""time""
""fullscreenenter"",""5"",""32652""
","
","
","""event"",""trial"",""time""
""fullscreenenter"",""5"",""32652""
","
","","","","","","","","","","","","","","","","","","","","","",""
"d3-animate-choice","20","206960","0.0-20.0","1402","5040","11","Female","true","false","false","false","""event"",""trial"",""time""
""fullscreenenter"",""5"",""32652""
","
","
","""event"",""trial"",""time""
""fullscreenenter"",""5"",""32652""
","
","733","","49","","","3000","1","1049.2999999988824,1406.2999999988824","49,49","images/tutyellowplanet.jpg","null","images/tutalien3","null","images/tutalien3","images/t.png","NA","practice","null","","","",""
"d3-animate-choice","21","209510","0.0-21.0","1402","5040","11","Female","true","false","false","false","""event"",""trial"",""time""
""fullscreenenter"",""5"",""32652""
","
","
","""event"",""trial"",""time""
""fullscreenenter"",""5"",""32652""
","
","519.3000000007451","","49","","","3000","1","","","images/tutyellowplanet.jpg","null","images/tutalien3","null","images/tutalien3","images/t.png","NA","practice","null","","","",""
"d3-animate-choice","22","212051","0.0-22.0","1402","5040","11","Female","true","false","false","false","""event"",""trial"",""time""
""fullscreenenter"",""5"",""32652""
","
","
","""event"",""trial"",""time""
""fullscreenenter"",""5"",""32652""
","
","525.9000000003725","","49","","","3000","1","","","images/tutyellowplanet.jpg","null","images/tutalien3","null","images/tutalien3","images/nothing.png","NA","practice","null","","","",""
"d3-animate-choice","23","214589","0.0-23.0","1402","5040","11","Female","true","false","false","false","""event"",""trial"",""time""
""fullscreenenter"",""5"",""32652""
","
","
","""event"",""trial"",""time""
""fullscreenenter"",""5"",""32652""
","
","528.1999999992549","","49","","","3000","1","","","images/tutyellowplanet.jpg","null","images/tutalien3","null","images/tutalien3","images/t.png","NA","practice","null","","","",""
"d3-animate-choice","24","217130","0.0-24.0","1402","5040","11","Female","true","false","false","false","""event"",""trial"",""time""
""fullscreenenter"",""5"",""32652""
","
","
","""event"",""trial"",""time""
""fullscreenenter"",""5"",""32652""
","
","524.3000000007451","","49","","","3000","1","","","images/tutyellowplanet.jpg","null","images/tutalien3","null","images/tutalien3","images/t.png","NA","practice","null","","","",""
"d3-animate-choice","25","219770","0.0-25.0","1402","5040","11","Female","true","false","false","false","""event"",""trial"",""time""
""fullscreenenter"",""5"",""32652""
","
","
","""event"",""trial"",""time""
""fullscreenenter"",""5"",""32652""
","
","624.2999999988824","","49","","","3000","1","","","images/tutyellowplanet.jpg","null","images/tutalien3","null","images/tutalien3","images/t.png","NA","practice","null","","","",""
"d3-animate-choice","26","222327","0.0-26.0","1402","5040","11","Female","true","false","false","false","""event"",""trial"",""time""
""fullscreenenter"",""5"",""32652""
","
","
","""event"",""trial"",""time""
""fullscreenenter"",""5"",""32652""
","
","535.8999999985099","","49","","","3000","1","","","images/tutyellowplanet.jpg","null","images/tutalien3","null","images/tutalien3","images/t.png","NA","practice","null","","","",""
"d3-animate-choice","27","224721","0.0-27.0","1402","5040","11","Female","true","false","false","false","""event"",""trial"",""time""
""fullscreenenter"",""5"",""32652""
","
","
","""event"",""trial"",""time""
""fullscreenenter"",""5"",""32652""
","
","371.40000000037253","","49","","","3000","1","","","images/tutyellowplanet.jpg","null","images/tutalien3","null","images/tutalien3","images/t.png","NA","practice","null","","","",""
"d3-animate-choice","28","227166","0.0-28.0","1402","5040","11","Female","true","false","false","false","""event"",""trial"",""time""
""fullscreenenter"",""5"",""32652""
","
","
","""event"",""trial"",""time""
""fullscreenenter"",""5"",""32652""
","
","441.2999999988824","","49","","","3000","1","2166","49","images/tutyellowplanet.jpg","null","images/tutalien3","null","images/tutalien3","images/t.png","NA","practice","null","","","",""
"d3-animate-choice","29","229589","0.0-29.0","1402","5040","11","Female","true","false","false","false","""event"",""trial"",""time""
""fullscreenenter"",""5"",""32652""
","
","
","""event"",""trial"",""time""
""fullscreenenter"",""5"",""32652""
","
","405.5","","49","","","3000","1","","","images/tutyellowplanet.jpg","null","images/tutalien3","null","images/tutalien3","images/t.png","NA","practice","null","","","",""
"d3-instructions","30","241472","0.0-30.0","1402","5040","11","Female","true","false","false","false","""event"",""trial"",""time""
""fullscreenenter"",""5"",""32652""
","
","
","""event"",""trial"",""time""
""fullscreenenter"",""5"",""32652""
","
","","","","","","","","","","","","","","","","","","","","","",""
"d3-instructions","31","251855","0.0-31.0","1402","5040","11","Female","true","false","false","false","""event"",""trial"",""time""
""fullscreenenter"",""5"",""32652""
","
","
","""event"",""trial"",""time""
""fullscreenenter"",""5"",""32652""
","
","","","","","","","","","","","","","","","","","","","","","",""
"d3-instructions","32","264928","0.0-32.0","1402","5040","11","Female","true","false","false","false","""event"",""trial"",""time""
""fullscreenenter"",""5"",""32652""
","
","
","""event"",""trial"",""time""
""fullscreenenter"",""5"",""32652""
","
","","","","","","","","","","","","","","","","","","","","","",""
"d3-instructions","33","279572","0.0-33.0","1402","5040","11","Female","true","false","false","false","""event"",""trial"",""time""
""fullscreenenter"",""5"",""32652""
","
","
","""event"",""trial"",""time""
""fullscreenenter"",""5"",""32652""
","
","","","","","","","","","","","","","","","","","","","","","",""
"d3-animate-choice","34","282729","0.0-34.0","1402","5040","11","Female","true","false","false","false","""event"",""trial"",""time""
""fullscreenenter"",""5"",""32652""
","
","
","""event"",""trial"",""time""
""fullscreenenter"",""5"",""32652""
","
","1143.9000000003725","","49","","","3000","1","","","images/tutgreenplanet.jpg","images/tutalien1","images/tutalien2","null","images/tutalien2","images/t.png","NA","practice","null","","","",""
"d3-animate-choice","35","285337","0.0-35.0","1402","5040","11","Female","true","false","false","false","""event"",""trial"",""time""
""fullscreenenter"",""5"",""32652""
","
","
","""event"",""trial"",""time""
""fullscreenenter"",""5"",""32652""
","
","591.5","","48","","","3000","1","","","images/tutgreenplanet.jpg","images/tutalien1","images/tutalien2","null","images/tutalien1","images/nothing.png","NA","practice","null","","","",""
"d3-animate-choice","36","287740","0.0-36.0","1402","5040","11","Female","true","false","false","false","""event"",""trial"",""time""
""fullscreenenter"",""5"",""32652""
","
","
","""event"",""trial"",""time""
""fullscreenenter"",""5"",""32652""
","
","376.69999999925494","","49","","","3000","1","","","images/tutgreenplanet.jpg","images/tutalien1","images/tutalien2","null","images/tutalien2","images/t.png","NA","practice","null","","","",""
"d3-animate-choice","37","290210","0.0-37.0","1402","5040","11","Female","true","false","false","false","""event"",""trial"",""time""
""fullscreenenter"",""5"",""32652""
","
","
","""event"",""trial"",""time""
""fullscreenenter"",""5"",""32652""
","
","453.59999999962747","","49","","","3000","1","","","images/tutgreenplanet.jpg","images/tutalien1","images/tutalien2","null","images/tutalien2","images/t.png","NA","practice","null","","","",""
"d3-animate-choice","38","292590","0.0-38.0","1402","5040","11","Female","true","false","false","false","""event"",""trial"",""time""
""fullscreenenter"",""5"",""32652""
","
","
","""event"",""trial"",""time""
""fullscreenenter"",""5"",""32652""
","
","348.8999999985099","","49","","","3000","1","","","images/tutgreenplanet.jpg","images/tutalien1","images/tutalien2","null","images/tutalien2","images/t.png","NA","practice","null","","","",""
"d3-animate-choice","39","295001","0.0-39.0","1402","5040","11","Female","true","false","false","false","""event"",""trial"",""time""
""fullscreenenter"",""5"",""32652""
","
","
","""event"",""trial"",""time""
""fullscreenenter"",""5"",""32652""
","
","386.7000000011176","","49","","","3000","1","","","images/tutgreenplanet.jpg","images/tutalien1","images/tutalien2","null","images/tutalien2","images/t.png","NA","practice","null","","","",""
"d3-animate-choice","40","297470","0.0-40.0","1402","5040","11","Female","true","false","false","false","""event"",""trial"",""time""
""fullscreenenter"",""5"",""32652""
","
","
","""event"",""trial"",""time""
""fullscreenenter"",""5"",""32652""
","
","438.09999999962747","","49","","","3000","1","","","images/tutgreenplanet.jpg","images/tutalien1","images/tutalien2","null","images/tutalien2","images/t.png","NA","practice","null","","","",""
"d3-animate-choice","41","299900","0.0-41.0","1402","5040","11","Female","true","false","false","false","""event"",""trial"",""time""
""fullscreenenter"",""5"",""32652""
","
","
","""event"",""trial"",""time""
""fullscreenenter"",""5"",""32652""
","
","414.09999999962747","","49","","","3000","1","","","images/tutgreenplanet.jpg","images/tutalien1","images/tutalien2","null","images/tutalien2","images/t.png","NA","practice","null","","","",""
"d3-animate-choice","42","302443","0.0-42.0","1402","5040","11","Female","true","false","false","false","""event"",""trial"",""time""
""fullscreenenter"",""5"",""32652""
","
","
","""event"",""trial"",""time""
""fullscreenenter"",""5"",""32652""
","
","522.6999999992549","","49","","","3000","1","","","images/tutgreenplanet.jpg","images/tutalien1","images/tutalien2","null","images/tutalien2","images/t.png","NA","practice","null","","","",""
"d3-animate-choice","43","304859","0.0-43.0","1402","5040","11","Female","true","false","false","false","""event"",""trial"",""time""
""fullscreenenter"",""5"",""32652""
","
","
","""event"",""trial"",""time""
""fullscreenenter"",""5"",""32652""
","
","398.80000000074506","","49","","","3000","1","","","images/tutgreenplanet.jpg","images/tutalien1","images/tutalien2","null","images/tutalien2","images/t.png","NA","practice","null","","","",""
"d3-instructions","44","325938","0.0-44.0","1402","5040","11","Female","true","false","false","false","""event"",""trial"",""time""
""fullscreenenter"",""5"",""32652""
","
","
","""event"",""trial"",""time""
""fullscreenenter"",""5"",""32652""
","
","","","","","","","","","","","","","","","","","","","","","",""
"d3-instructions","45","333973","0.0-45.0","1402","5040","11","Female","true","false","false","false","""event"",""trial"",""time""
""fullscreenenter"",""5"",""32652""
","
","
","""event"",""trial"",""time""
""fullscreenenter"",""5"",""32652""
","
","","","","","","","","","","","","","","","","","","","","","",""
"d3-instructions","46","343616","0.0-46.0","1402","5040","11","Female","true","false","false","false","""event"",""trial"",""time""
""fullscreenenter"",""5"",""32652""
","
","
","""event"",""trial"",""time""
""fullscreenenter"",""5"",""32652""
","
","","","","","","","","","","","","","","","","","","","","","",""
"d3-instructions","47","366706","0.0-47.0","1402","5040","11","Female","true","false","false","false","""event"",""trial"",""time""
""fullscreenenter"",""5"",""32652""
","
","
","""event"",""trial"",""time""
""fullscreenenter"",""5"",""32652""
","
","","","","","","","","","","","","","","","","","","","","","",""
"d3-instructions","48","377271","0.0-48.0","1402","5040","11","Female","true","false","false","false","""event"",""trial"",""time""
""fullscreenenter"",""5"",""32652""
","
","
","""event"",""trial"",""time""
""fullscreenenter"",""5"",""32652""
","
","","","","","","","","","","","","","","","","","","","","","",""
"d3-instructions","49","392377","0.0-49.0","1402","5040","11","Female","true","false","false","false","""event"",""trial"",""time""
""fullscreenenter"",""5"",""32652""
","
","
","""event"",""trial"",""time""
""fullscreenenter"",""5"",""32652""
","
","","","","","","","","","","","","","","","","","","","","","",""
"d3-instructions","50","406247","0.0-50.0","1402","5040","11","Female","true","false","false","false","""event"",""trial"",""time""
""fullscreenenter"",""5"",""32652""
","
","
","""event"",""trial"",""time""
""fullscreenenter"",""5"",""32652""
","
","","","","","","","","","","","","","","","","","","","","","",""
"d3-instructions","51","411646","0.0-51.0","1402","5040","11","Female","true","false","false","false","""event"",""trial"",""time""
""fullscreenenter"",""5"",""32652""
","
","
","""event"",""trial"",""time""
""fullscreenenter"",""5"",""32652""
","
","","","","","","","","","","","","","","","","","","","","","",""
"d3-instructions","52","415440","0.0-52.0","1402","5040","11","Female","true","false","false","false","""event"",""trial"",""time""
""fullscreenenter"",""5"",""32652""
","
","
","""event"",""trial"",""time""
""fullscreenenter"",""5"",""32652""
","
","","","","","","","","","","","","","","","","","","","","","",""
"d3-instructions","53","431490","0.0-53.0","1402","5040","11","Female","true","false","false","false","""event"",""trial"",""time""
""fullscreenenter"",""5"",""32652""
","
","
","""event"",""trial"",""time""
""fullscreenenter"",""5"",""32652""
","
","","","","","","","","","","","","","","","","","","","","","",""
"d3-instructions","54","448490","0.0-54.0","1402","5040","11","Female","true","false","false","false","""event"",""trial"",""time""
""fullscreenenter"",""5"",""32652""
","
","
","""event"",""trial"",""time""
""fullscreenenter"",""5"",""32652""
","
","","","","","","","","","","","","","","","","","","","","","",""
"d3-instructions","55","463666","0.0-55.0","1402","5040","11","Female","true","false","false","false","""event"",""trial"",""time""
""fullscreenenter"",""5"",""32652""
","
","
","""event"",""trial"",""time""
""fullscreenenter"",""5"",""32652""
","
","","","","","","","","","","","","","","","","","","","","","",""
"d3-instructions","56","472965","0.0-56.0","1402","5040","11","Female","true","false","false","false","""event"",""trial"",""time""
""fullscreenenter"",""5"",""32652""
","
","
","""event"",""trial"",""time""
""fullscreenenter"",""5"",""32652""
","
","","","","","","","","","","","","","","","","","","","","","",""
"d3-instructions","57","484024","0.0-57.0","1402","5040","11","Female","true","false","false","false","""event"",""trial"",""time""
""fullscreenenter"",""5"",""32652""
","
","
","""event"",""trial"",""time""
""fullscreenenter"",""5"",""32652""
","
","","","","","","","","","","","","","","","","","","","","","",""
"d3-instructions","58","501005","0.0-58.0","1402","5040","11","Female","true","false","false","false","""event"",""trial"",""time""
""fullscreenenter"",""5"",""32652""
","
","
","""event"",""trial"",""time""
""fullscreenenter"",""5"",""32652""
","
","","","","","","","","","","","","","","","","","","","","","",""
"d3-instructions","59","508288","0.0-59.0","1402","5040","11","Female","true","false","false","false","""event"",""trial"",""time""
""fullscreenenter"",""5"",""32652""
","
","
","""event"",""trial"",""time""
""fullscreenenter"",""5"",""32652""
","
","","","","","","","","","","","","","","","","","","","","","",""
"d3-instructions","60","519691","0.0-60.0","1402","5040","11","Female","true","false","false","false","""event"",""trial"",""time""
""fullscreenenter"",""5"",""32652""
","
","
","""event"",""trial"",""time""
""fullscreenenter"",""5"",""32652""
","
","","","","","","","","","","","","","","","","","","","","","",""
"d3-animate-choice","61","522180","0.0-61.0-0.0","1402","5040","11","Female","true","false","false","false","""event"",""trial"",""time""
""fullscreenenter"",""5"",""32652""
","
","
","""event"",""trial"",""time""
""fullscreenenter"",""5"",""32652""
","
","483.5","","49","","","3000","1","","","images/earth.jpg","images/tutrocket2","images/tutrocket1","null","images/tutrocket1","","1","practice","null","1","","",""
"d3-animate-choice","62","525780","0.0-61.0-1.0","1402","5040","11","Female","true","false","false","false","""event"",""trial"",""time""
""fullscreenenter"",""5"",""32652""
","
","
","""event"",""trial"",""time""
""fullscreenenter"",""5"",""32652""
","
","1584","","49","","","3000","1","","","images/tutyellowplanet.jpg","images/tutalien4","images/tutalien3","images/tutrocket1","images/tutalien3","images/nothing.png","2","practice","true","1","common","0","2022-12-08 01:04:29.276"
"two-step-fixation","63","526800","0.0-61.0-2.0","1402","5040","11","Female","true","false","false","false","""event"",""trial"",""time""
""fullscreenenter"",""5"",""32652""
","
","
","""event"",""trial"",""time""
""fullscreenenter"",""5"",""32652""
","
","","images/earth.jpg","","","","","","","","","","","","","","fixation","","","","","",""
"d3-animate-choice","64","529470","0.0-61.0-0.1","1402","5040","11","Female","true","false","false","false","""event"",""trial"",""time""
""fullscreenenter"",""5"",""32652""
","
","
","""event"",""trial"",""time""
""fullscreenenter"",""5"",""32652""
","
","657.6999999992549","","48","","","3000","1","","","images/earth.jpg","images/tutrocket2","images/tutrocket1","null","images/tutrocket2","","1","practice","null","2","","",""
"d3-animate-choice","65","532016","0.0-61.0-1.1","1402","5040","11","Female","true","false","false","false","""event"",""trial"",""time""
""fullscreenenter"",""5"",""32652""
","
","
","""event"",""trial"",""time""
""fullscreenenter"",""5"",""32652""
","
","518.5","","48","","","3000","1","","","images/tutgreenplanet.jpg","images/tutalien2","images/tutalien1","images/tutrocket2","images/tutalien2","images/nothing.png","2","practice","true","2","common","0","2022-12-08 01:04:35.512"
"two-step-fixation","66","533030","0.0-61.0-2.1","1402","5040","11","Female","true","false","false","false","""event"",""trial"",""time""
""fullscreenenter"",""5"",""32652""
","
","
","""event"",""trial"",""time""
""fullscreenenter"",""5"",""32652""
","
","","images/earth.jpg","","","","","","","","","","","","","","fixation","","","","","",""
"d3-animate-choice","67","535559","0.0-61.0-0.2","1402","5040","11","Female","true","false","false","false","""event"",""trial"",""time""
""fullscreenenter"",""5"",""32652""
","
","
","""event"",""trial"",""time""
""fullscreenenter"",""5"",""32652""
","
","520.5","","49","","","3000","1","","","images/earth.jpg","images/tutrocket2","images/tutrocket1","null","images/tutrocket1","","1","practice","null","1","","",""
"d3-animate-choice","68","537950","0.0-61.0-1.2","1402","5040","11","Female","true","false","false","false","""event"",""trial"",""time""
""fullscreenenter"",""5"",""32652""
","
","
","""event"",""trial"",""time""
""fullscreenenter"",""5"",""32652""
","
","365.2999999988824","","49","","","3000","1","","","images/tutyellowplanet.jpg","images/tutalien4","images/tutalien3","images/tutrocket1","images/tutalien3","images/t.png","2","practice","true","1","common","1","2022-12-08 01:04:41.446"
"two-step-fixation","69","538970","0.0-61.0-2.2","1402","5040","11","Female","true","false","false","false","""event"",""trial"",""time""
""fullscreenenter"",""5"",""32652""
","
","
","""event"",""trial"",""time""
""fullscreenenter"",""5"",""32652""
","
","","images/earth.jpg","","","","","","","","","","","","","","fixation","","","","","",""
"d3-animate-choice","70","541050","0.0-61.0-0.3","1402","5040","11","Female","true","false","false","false","""event"",""trial"",""time""
""fullscreenenter"",""5"",""32652""
","
","
","""event"",""trial"",""time""
""fullscreenenter"",""5"",""32652""
","
","61.20000000111759","","48","","","3000","1","","","images/earth.jpg","images/tutrocket2","images/tutrocket1","null","images/tutrocket2","","1","practice","null","2","","",""
"d3-animate-choice","71","543822","0.0-61.0-1.3","1402","5040","11","Female","true","false","false","false","""event"",""trial"",""time""
""fullscreenenter"",""5"",""32652""
","
","
","""event"",""trial"",""time""
""fullscreenenter"",""5"",""32652""
","
","765.8000000007451","","48","","","3000","1","","","images/tutgreenplanet.jpg","images/tutalien2","images/tutalien1","images/tutrocket2","images/tutalien2","images/nothing.png","2","practice","true","2","common","0","2022-12-08 01:04:47.317"
"two-step-fixation","72","544832","0.0-61.0-2.3","1402","5040","11","Female","true","false","false","false","""event"",""trial"",""time""
""fullscreenenter"",""5"",""32652""
","
","
","""event"",""trial"",""time""
""fullscreenenter"",""5"",""32652""
","
","","images/earth.jpg","","","","","","","","","","","","","","fixation","","","","","",""
"d3-animate-choice","73","547070","0.0-61.0-0.4","1402","5040","11","Female","true","false","false","false","""event"",""trial"",""time""
""fullscreenenter"",""5"",""32652""
","
","
","""event"",""trial"",""time""
""fullscreenenter"",""5"",""32652""
","
","223.7999999988824","","49","","","3000","1","","","images/earth.jpg","images/tutrocket2","images/tutrocket1","null","images/tutrocket1","","1","practice","null","1","","",""
"d3-animate-choice","74","549935","0.0-61.0-1.4","1402","5040","11","Female","true","false","false","false","""event"",""trial"",""time""
""fullscreenenter"",""5"",""32652""
","
","
","""event"",""trial"",""time""
""fullscreenenter"",""5"",""32652""
","
","848.1999999992549","","49","","","3000","1","","","images/tutgreenplanet.jpg","images/tutalien2","images/tutalien1","images/tutrocket1","images/tutalien1","images/nothing.png","2","practice","false","1","rare","0","2022-12-08 01:04:53.430"
"two-step-fixation","75","550952","0.0-61.0-2.4","1402","5040","11","Female","true","false","false","false","""event"",""trial"",""time""
""fullscreenenter"",""5"",""32652""
","
","
","""event"",""trial"",""time""
""fullscreenenter"",""5"",""32652""
","
","","images/earth.jpg","","","","","","","","","","","","","","fixation","","","","","",""
"d3-animate-choice","76","553281","0.0-61.0-0.5","1402","5040","11","Female","true","false","false","false","""event"",""trial"",""time""
""fullscreenenter"",""5"",""32652""
","
","
","""event"",""trial"",""time""
""fullscreenenter"",""5"",""32652""
","
","317.5","","48","","","3000","1","","","images/earth.jpg","images/tutrocket2","images/tutrocket1","null","images/tutrocket2","","1","practice","null","2","","",""
"d3-animate-choice","77","555866","0.0-61.0-1.5","1402","5040","11","Female","true","false","false","false","""event"",""trial"",""time""
""fullscreenenter"",""5"",""32652""
","
","
","""event"",""trial"",""time""
""fullscreenenter"",""5"",""32652""
","
","578.8000000007451","","49","","","3000","1","","","images/tutyellowplanet.jpg","images/tutalien4","images/tutalien3","images/tutrocket2","images/tutalien3","images/nothing.png","2","practice","false","1","rare","0","2022-12-08 01:04:59.361"
"two-step-fixation","78","556876","0.0-61.0-2.5","1402","5040","11","Female","true","false","false","false","""event"",""trial"",""time""
""fullscreenenter"",""5"",""32652""
","
","
","""event"",""trial"",""time""
""fullscreenenter"",""5"",""32652""
","
","","images/earth.jpg","","","","","","","","","","","","","","fixation","","","","","",""
"d3-animate-choice","79","559633","0.0-61.0-0.6","1402","5040","11","Female","true","false","false","false","""event"",""trial"",""time""
""fullscreenenter"",""5"",""32652""
","
","
","""event"",""trial"",""time""
""fullscreenenter"",""5"",""32652""
","
","741.3000000007451","","48","","","3000","1","","","images/earth.jpg","images/tutrocket2","images/tutrocket1","null","images/tutrocket2","","1","practice","null","2","","",""
"d3-animate-choice","80","562400","0.0-61.0-1.6","1402","5040","11","Female","true","false","false","false","""event"",""trial"",""time""
""fullscreenenter"",""5"",""32652""
","
","
","""event"",""trial"",""time""
""fullscreenenter"",""5"",""32652""
","
","755.5","","48","","","3000","1","","","images/tutyellowplanet.jpg","images/tutalien4","images/tutalien3","images/tutrocket2","images/tutalien4","images/t.png","2","practice","false","2","rare","1","2022-12-08 01:05:05.896"
"two-step-fixation","81","563412","0.0-61.0-2.6","1402","5040","11","Female","true","false","false","false","""event"",""trial"",""time""
""fullscreenenter"",""5"",""32652""
","
","
","""event"",""trial"",""time""
""fullscreenenter"",""5"",""32652""
","
","","images/earth.jpg","","","","","","","","","","","","","","fixation","","","","","",""
"d3-animate-choice","82","565897","0.0-61.0-0.7","1402","5040","11","Female","true","false","false","false","""event"",""trial"",""time""
""fullscreenenter"",""5"",""32652""
","
","
","""event"",""trial"",""time""
""fullscreenenter"",""5"",""32652""
","
","472.09999999962747","","48","","","3000","1","","","images/earth.jpg","images/tutrocket2","images/tutrocket1","null","images/tutrocket2","","1","practice","null","2","","",""
"d3-animate-choice","83","568513","0.0-61.0-1.7","1402","5040","11","Female","true","false","false","false","""event"",""trial"",""time""
""fullscreenenter"",""5"",""32652""
","
","
","""event"",""trial"",""time""
""fullscreenenter"",""5"",""32652""
","
","600.5","","48","","","3000","1","","","images/tutgreenplanet.jpg","images/tutalien2","images/tutalien1","images/tutrocket2","images/tutalien2","images/nothing.png","2","practice","true","2","common","0","2022-12-08 01:05:12.008"
"two-step-fixation","84","569525","0.0-61.0-2.7","1402","5040","11","Female","true","false","false","false","""event"",""trial"",""time""
""fullscreenenter"",""5"",""32652""
","
","
","""event"",""trial"",""time""
""fullscreenenter"",""5"",""32652""
","
","","images/earth.jpg","","","","","","","","","","","","","","fixation","","","","","",""
"d3-animate-choice","85","572167","0.0-61.0-0.8","1402","5040","11","Female","true","false","false","false","""event"",""trial"",""time""
""fullscreenenter"",""5"",""32652""
","
","
","""event"",""trial"",""time""
""fullscreenenter"",""5"",""32652""
","
","617","","48","","","3000","1","","","images/earth.jpg","images/tutrocket2","images/tutrocket1","null","images/tutrocket2","","1","practice","null","2","","",""
"d3-animate-choice","86","574645","0.0-61.0-1.8","1402","5040","11","Female","true","false","false","false","""event"",""trial"",""time""
""fullscreenenter"",""5"",""32652""
","
","
","""event"",""trial"",""time""
""fullscreenenter"",""5"",""32652""
","
","469.5","","49","","","3000","1","","","images/tutyellowplanet.jpg","images/tutalien4","images/tutalien3","images/tutrocket2","images/tutalien3","images/t.png","2","practice","false","1","rare","1","2022-12-08 01:05:18.140"
"two-step-fixation","87","575655","0.0-61.0-2.8","1402","5040","11","Female","true","false","false","false","""event"",""trial"",""time""
""fullscreenenter"",""5"",""32652""
","
","
","""event"",""trial"",""time""
""fullscreenenter"",""5"",""32652""
","
","","images/earth.jpg","","","","","","","","","","","","","","fixation","","","","","",""
"d3-animate-choice","88","578265","0.0-61.0-0.9","1402","5040","11","Female","true","false","false","false","""event"",""trial"",""time""
""fullscreenenter"",""5"",""32652""
","
","
","""event"",""trial"",""time""
""fullscreenenter"",""5"",""32652""
","
","595.7999999988824","","49","","","3000","1","","","images/earth.jpg","images/tutrocket2","images/tutrocket1","null","images/tutrocket1","","1","practice","null","1","","",""
"d3-animate-choice","89","581625","0.0-61.0-1.9","1402","5040","11","Female","true","false","false","false","""event"",""trial"",""time""
""fullscreenenter"",""5"",""32652""
","
","
","""event"",""trial"",""time""
""fullscreenenter"",""5"",""32652""
","
","1344.7999999988824","","48","","","3000","1","","","images/tutyellowplanet.jpg","images/tutalien4","images/tutalien3","images/tutrocket1","images/tutalien4","images/nothing.png","2","practice","true","2","common","0","2022-12-08 01:05:25.120"
"two-step-fixation","90","582643","0.0-61.0-2.9","1402","5040","11","Female","true","false","false","false","""event"",""trial"",""time""
""fullscreenenter"",""5"",""32652""
","
","
","""event"",""trial"",""time""
""fullscreenenter"",""5"",""32652""
","
","","images/earth.jpg","","","","","","","","","","","","","","fixation","","","","","",""
"d3-animate-choice","91","585501","0.0-61.0-0.10","1402","5040","11","Female","true","false","false","false","""event"",""trial"",""time""
""fullscreenenter"",""5"",""32652""
","
","
","""event"",""trial"",""time""
""fullscreenenter"",""5"",""32652""
","
","840.2999999988824","","49","","","3000","1","","","images/earth.jpg","images/tutrocket2","images/tutrocket1","null","images/tutrocket1","","1","practice","null","1","","",""
"d3-animate-choice","92","587874","0.0-61.0-1.10","1402","5040","11","Female","true","false","false","false","""event"",""trial"",""time""
""fullscreenenter"",""5"",""32652""
","
","
","""event"",""trial"",""time""
""fullscreenenter"",""5"",""32652""
","
","355.90000000037253","","49","","","3000","1","","","images/tutyellowplanet.jpg","images/tutalien4","images/tutalien3","images/tutrocket1","images/tutalien3","images/nothing.png","2","practice","true","1","common","0","2022-12-08 01:05:31.369"
"two-step-fixation","93","588884","0.0-61.0-2.10","1402","5040","11","Female","true","false","false","false","""event"",""trial"",""time""
""fullscreenenter"",""5"",""32652""
","
","
","""event"",""trial"",""time""
""fullscreenenter"",""5"",""32652""
","
","","images/earth.jpg","","","","","","","","","","","","","","fixation","","","","","",""
"d3-animate-choice","94","591350","0.0-61.0-0.11","1402","5040","11","Female","true","false","false","false","""event"",""trial"",""time""
""fullscreenenter"",""5"",""32652""
","
","
","""event"",""trial"",""time""
""fullscreenenter"",""5"",""32652""
","
","456.59999999962747","","48","","","3000","1","","","images/earth.jpg","images/tutrocket2","images/tutrocket1","null","images/tutrocket2","","1","practice","null","2","","",""
"d3-animate-choice","95","593935","0.0-61.0-1.11","1402","5040","11","Female","true","false","false","false","""event"",""trial"",""time""
""fullscreenenter"",""5"",""32652""
","
","
","""event"",""trial"",""time""
""fullscreenenter"",""5"",""32652""
","
","570","","48","","","3000","1","","","images/tutyellowplanet.jpg","images/tutalien4","images/tutalien3","images/tutrocket2","images/tutalien4","images/t.png","2","practice","false","2","rare","1","2022-12-08 01:05:37.431"
"two-step-fixation","96","594949","0.0-61.0-2.11","1402","5040","11","Female","true","false","false","false","""event"",""trial"",""time""
""fullscreenenter"",""5"",""32652""
","
","
","""event"",""trial"",""time""
""fullscreenenter"",""5"",""32652""
","
","","images/earth.jpg","","","","","","","","","","","","","","fixation","","","","","",""
"d3-animate-choice","97","597533","0.0-61.0-0.12","1402","5040","11","Female","true","false","false","false","""event"",""trial"",""time""
""fullscreenenter"",""5"",""32652""
","
","
","""event"",""trial"",""time""
""fullscreenenter"",""5"",""32652""
","
","573.7999999988824","","48","","","3000","1","","","images/earth.jpg","images/tutrocket2","images/tutrocket1","null","images/tutrocket2","","1","practice","null","2","","",""
"d3-animate-choice","98","600060","0.0-61.0-1.12","1402","5040","11","Female","true","false","false","false","""event"",""trial"",""time""
""fullscreenenter"",""5"",""32652""
","
","
","""event"",""trial"",""time""
""fullscreenenter"",""5"",""32652""
","
","522.2999999988824","","48","","","3000","1","","","images/tutgreenplanet.jpg","images/tutalien2","images/tutalien1","images/tutrocket2","images/tutalien2","images/nothing.png","2","practice","true","2","common","0","2022-12-08 01:05:43.556"
"two-step-fixation","99","601071","0.0-61.0-2.12","1402","5040","11","Female","true","false","false","false","""event"",""trial"",""time""
""fullscreenenter"",""5"",""32652""
","
","
","""event"",""trial"",""time""
""fullscreenenter"",""5"",""32652""
","
","","images/earth.jpg","","","","","","","","","","","","","","fixation","","","","","",""
"d3-animate-choice","100","603504","0.0-61.0-0.13","1402","5040","11","Female","true","false","false","false","""event"",""trial"",""time""
""fullscreenenter"",""5"",""32652""
","
","
","""event"",""trial"",""time""
""fullscreenenter"",""5"",""32652""
","
","408.6000000014901","","48","","","3000","1","","","images/earth.jpg","images/tutrocket2","images/tutrocket1","null","images/tutrocket2","","1","practice","null","2","","",""
"d3-animate-choice","101","605962","0.0-61.0-1.13","1402","5040","11","Female","true","false","false","false","""event"",""trial"",""time""
""fullscreenenter"",""5"",""32652""
","
","
","""event"",""trial"",""time""
""fullscreenenter"",""5"",""32652""
","
","442.7000000011176","","49","","","3000","1","","","images/tutgreenplanet.jpg","images/tutalien2","images/tutalien1","images/tutrocket2","images/tutalien1","images/t.png","2","practice","true","1","common","1","2022-12-08 01:05:49.457"
"two-step-fixation","102","606972","0.0-61.0-2.13","1402","5040","11","Female","true","false","false","false","""event"",""trial"",""time""
""fullscreenenter"",""5"",""32652""
","
","
","""event"",""trial"",""time""
""fullscreenenter"",""5"",""32652""
","
","","images/earth.jpg","","","","","","","","","","","","","","fixation","","","","","",""
"d3-animate-choice","103","609832","0.0-61.0-0.14","1402","5040","11","Female","true","false","false","false","""event"",""trial"",""time""
""fullscreenenter"",""5"",""32652""
","
","
","""event"",""trial"",""time""
""fullscreenenter"",""5"",""32652""
","
","850.9000000003725","","49","","","3000","1","","","images/earth.jpg","images/tutrocket2","images/tutrocket1","null","images/tutrocket1","","1","practice","null","1","","",""
"d3-animate-choice","104","612340","0.0-61.0-1.14","1402","5040","11","Female","true","false","false","false","""event"",""trial"",""time""
""fullscreenenter"",""5"",""32652""
","
","
","""event"",""trial"",""time""
""fullscreenenter"",""5"",""32652""
","
","491.5","","48","","","3000","1","","","images/tutgreenplanet.jpg","images/tutalien2","images/tutalien1","images/tutrocket1","images/tutalien2","images/nothing.png","2","practice","false","2","rare","0","2022-12-08 01:05:55.835"
"two-step-fixation","105","613349","0.0-61.0-2.14","1402","5040","11","Female","true","false","false","false","""event"",""trial"",""time""
""fullscreenenter"",""5"",""32652""
","
","
","""event"",""trial"",""time""
""fullscreenenter"",""5"",""32652""
","
","","images/earth.jpg","","","","","","","","","","","","","","fixation","","","","","",""
"d3-animate-choice","106","615930","0.0-61.0-0.15","1402","5040","11","Female","true","false","false","false","""event"",""trial"",""time""
""fullscreenenter"",""5"",""32652""
","
","
","""event"",""trial"",""time""
""fullscreenenter"",""5"",""32652""
","
","561.1999999992549","","49","","","3000","1","","","images/earth.jpg","images/tutrocket2","images/tutrocket1","null","images/tutrocket1","","1","practice","null","1","","",""
"d3-animate-choice","107","618475","0.0-61.0-1.15","1402","5040","11","Female","true","false","false","false","""event"",""trial"",""time""
""fullscreenenter"",""5"",""32652""
","
","
","""event"",""trial"",""time""
""fullscreenenter"",""5"",""32652""
","
","525.8000000007451","","49","","","3000","1","","","images/tutyellowplanet.jpg","images/tutalien4","images/tutalien3","images/tutrocket1","images/tutalien3","images/t.png","2","practice","true","1","common","1","2022-12-08 01:06:01.970"
"two-step-fixation","108","619493","0.0-61.0-2.15","1402","5040","11","Female","true","false","false","false","""event"",""trial"",""time""
""fullscreenenter"",""5"",""32652""
","
","
","""event"",""trial"",""time""
""fullscreenenter"",""5"",""32652""
","
","","images/earth.jpg","","","","","","","","","","","","","","fixation","","","","","",""
"d3-animate-choice","109","621867","0.0-61.0-0.16","1402","5040","11","Female","true","false","false","false","""event"",""trial"",""time""
""fullscreenenter"",""5"",""32652""
","
","
","""event"",""trial"",""time""
""fullscreenenter"",""5"",""32652""
","
","338.90000000037253","","49","","","3000","1","","","images/earth.jpg","images/tutrocket2","images/tutrocket1","null","images/tutrocket1","","1","practice","null","1","","",""
"d3-animate-choice","110","624491","0.0-61.0-1.16","1402","5040","11","Female","true","false","false","false","""event"",""trial"",""time""
""fullscreenenter"",""5"",""32652""
","
","
","""event"",""trial"",""time""
""fullscreenenter"",""5"",""32652""
","
","610.5","","49","","","3000","1","","","images/tutyellowplanet.jpg","images/tutalien4","images/tutalien3","images/tutrocket1","images/tutalien3","images/nothing.png","2","practice","true","1","common","0","2022-12-08 01:06:07.987"
"two-step-fixation","111","625510","0.0-61.0-2.16","1402","5040","11","Female","true","false","false","false","""event"",""trial"",""time""
""fullscreenenter"",""5"",""32652""
","
","
","""event"",""trial"",""time""
""fullscreenenter"",""5"",""32652""
","
","","images/earth.jpg","","","","","","","","","","","","","","fixation","","","","","",""
"d3-animate-choice","112","627868","0.0-61.0-0.17","1402","5040","11","Female","true","false","false","false","""event"",""trial"",""time""
""fullscreenenter"",""5"",""32652""
","
","
","""event"",""trial"",""time""
""fullscreenenter"",""5"",""32652""
","
","345.5","","49","","","3000","1","","","images/earth.jpg","images/tutrocket2","images/tutrocket1","null","images/tutrocket1","","1","practice","null","1","","",""
"d3-animate-choice","113","629962","0.0-61.0-1.17","1402","5040","11","Female","true","false","false","false","""event"",""trial"",""time""
""fullscreenenter"",""5"",""32652""
","
","
","""event"",""trial"",""time""
""fullscreenenter"",""5"",""32652""
","
","79.19999999925494","","48","","","3000","1","","","images/tutyellowplanet.jpg","images/tutalien4","images/tutalien3","images/tutrocket1","images/tutalien4","images/nothing.png","2","practice","true","2","common","0","2022-12-08 01:06:13.457"
"two-step-fixation","114","630972","0.0-61.0-2.17","1402","5040","11","Female","true","false","false","false","""event"",""trial"",""time""
""fullscreenenter"",""5"",""32652""
","
","
","""event"",""trial"",""time""
""fullscreenenter"",""5"",""32652""
","
","","images/earth.jpg","","","","","","","","","","","","","","fixation","","","","","",""
"d3-animate-choice","115","633318","0.0-61.0-0.18","1402","5040","11","Female","true","false","false","false","""event"",""trial"",""time""
""fullscreenenter"",""5"",""32652""
","
","
","""event"",""trial"",""time""
""fullscreenenter"",""5"",""32652""
","
","339.8999999985099","","48","","","3000","1","","","images/earth.jpg","images/tutrocket2","images/tutrocket1","null","images/tutrocket2","","1","practice","null","2","","",""
"d3-animate-choice","116","635671","0.0-61.0-1.18","1402","5040","11","Female","true","false","false","false","""event"",""trial"",""time""
""fullscreenenter"",""5"",""32652""
","
","
","""event"",""trial"",""time""
""fullscreenenter"",""5"",""32652""
","
","341.30000000074506","","48","","","3000","1","","","images/tutyellowplanet.jpg","images/tutalien4","images/tutalien3","images/tutrocket2","images/tutalien4","images/nothing.png","2","practice","false","2","rare","0","2022-12-08 01:06:19.166"
"two-step-fixation","117","636676","0.0-61.0-2.18","1402","5040","11","Female","true","false","false","false","""event"",""trial"",""time""
""fullscreenenter"",""5"",""32652""
","
","
","""event"",""trial"",""time""
""fullscreenenter"",""5"",""32652""
","
","","images/earth.jpg","","","","","","","","","","","","","","fixation","","","","","",""
"d3-animate-choice","118","639321","0.0-61.0-0.19","1402","5040","11","Female","true","false","false","false","""event"",""trial"",""time""
""fullscreenenter"",""5"",""32652""
","
","
","""event"",""trial"",""time""
""fullscreenenter"",""5"",""32652""
","
","624.1999999992549","","48","","","3000","1","","","images/earth.jpg","images/tutrocket2","images/tutrocket1","null","images/tutrocket2","","1","practice","null","2","","",""
"d3-animate-choice","119","641717","0.0-61.0-1.19","1402","5040","11","Female","true","false","false","false","""event"",""trial"",""time""
""fullscreenenter"",""5"",""32652""
","
","
","""event"",""trial"",""time""
""fullscreenenter"",""5"",""32652""
","
","389.90000000037253","","49","","","3000","1","","","images/tutyellowplanet.jpg","images/tutalien4","images/tutalien3","images/tutrocket2","images/tutalien3","images/nothing.png","2","practice","false","1","rare","0","2022-12-08 01:06:25.212"
"two-step-fixation","120","642732","0.0-61.0-2.19","1402","5040","11","Female","true","false","false","false","""event"",""trial"",""time""
""fullscreenenter"",""5"",""32652""
","
","
","""event"",""trial"",""time""
""fullscreenenter"",""5"",""32652""
","
","","images/earth.jpg","","","","","","","","","","","","","","fixation","","","","","",""
"d3-instructions","121","653971","0.0-62.0","1402","5040","11","Female","true","false","false","false","""event"",""trial"",""time""
""fullscreenenter"",""5"",""32652""
","
","
","""event"",""trial"",""time""
""fullscreenenter"",""5"",""32652""
","
","","","","","","","","","","","","","","","","","","","","","",""
"audio-keyboard-response","122","658954","0.0-63.0","1402","5040","11","Female","true","false","false","false","""event"",""trial"",""time""
""fullscreenenter"",""5"",""32652""
","
","
","""event"",""trial"",""time""
""fullscreenenter"",""5"",""32652""
","
","4989","audio/instructions/treasure_feedback.wav","32","","","","","","","","","","","","","","","","","","",""
"d3-instructions","123","683767","0.0-64.0","1402","5040","11","Female","true","false","false","false","""event"",""trial"",""time""
""fullscreenenter"",""5"",""32652""
","
","
","""event"",""trial"",""time""
""fullscreenenter"",""5"",""32652""
","
","","","","","","","","","","","","","","","","","","","","","",""
"d3-instructions","124","702033","0.0-65.0","1402","5040","11","Female","true","false","false","false","""event"",""trial"",""time""
""fullscreenenter"",""5"",""32652""
","
","
","""event"",""trial"",""time""
""fullscreenenter"",""5"",""32652""
","
","","","","","","","","","","","","","","","","","","","","","",""
"d3-instructions","125","727374","0.0-66.0","1402","5040","11","Female","true","false","false","false","""event"",""trial"",""time""
""fullscreenenter"",""5"",""32652""
","
","
","""event"",""trial"",""time""
""fullscreenenter"",""5"",""32652""
","
","","","","","","","","","","","","","","","","","","","","","",""
"d3-instructions","126","744193","0.0-67.0","1402","5040","11","Female","true","false","false","false","""event"",""trial"",""time""
""fullscreenenter"",""5"",""32652""
","
","
","""event"",""trial"",""time""
""fullscreenenter"",""5"",""32652""
","
","","","","","","","","","","","","","","","","","","","","","",""
"d3-instructions","127","754366","0.0-68.0","1402","5040","11","Female","true","false","false","false","""event"",""trial"",""time""
""fullscreenenter"",""5"",""32652""
","
","
","""event"",""trial"",""time""
""fullscreenenter"",""5"",""32652""
","
","","","","","","","","","","","","","","","","","","","","","",""
"instructions-quiz","128","759121","0.0-69.0","1402","5040","11","Female","true","false","false","false","""event"",""trial"",""time""
""fullscreenenter"",""5"",""32652""
","
","
","""event"",""trial"",""time""
""fullscreenenter"",""5"",""32652""
","
","4751.699999999255","audio/quiz/Q1_Prompt.wav","","1","","","","","","","","","","","","","","","","","",""
"audio-keyboard-response","129","768296","0.0-70.0","1402","5040","11","Female","true","false","false","false","""event"",""trial"",""time""
""fullscreenenter"",""5"",""32652""
","
","
","""event"",""trial"",""time""
""fullscreenenter"",""5"",""32652""
","
","null","audio/quiz/Q1_Correct.wav","null","","","","","","","","","","","","","","","","","","",""
"instructions-quiz","130","776625","0.0-71.0","1402","5040","11","Female","true","false","false","false","""event"",""trial"",""time""
""fullscreenenter"",""5"",""32652""
","
","
","""event"",""trial"",""time""
""fullscreenenter"",""5"",""32652""
","
","8326.400000000373","audio/quiz/Q2_Prompt.wav","","0","","","","","","","","","","","","","","","","","",""
"audio-keyboard-response","131","779068","0.0-72.0","1402","5040","11","Female","true","false","false","false","""event"",""trial"",""time""
""fullscreenenter"",""5"",""32652""
","
","
","""event"",""trial"",""time""
""fullscreenenter"",""5"",""32652""
","
","2440","audio/quiz/Q2_Correct.wav","32","","","","","","","","","","","","","","","","","","",""
"instructions-quiz","132","782355","0.0-73.0","1402","5040","11","Female","true","false","false","false","""event"",""trial"",""time""
""fullscreenenter"",""5"",""32652""
","
","
","""event"",""trial"",""time""
""fullscreenenter"",""5"",""32652""
","
","3284.4000000003725","audio/quiz/Q3_Prompt.wav","","1","","","","","","","","","","","","","","","","","",""
"audio-keyboard-response","133","783019","0.0-74.0","1402","5040","11","Female","true","false","false","false","""event"",""trial"",""time""
""fullscreenenter"",""5"",""32652""
","
","
","""event"",""trial"",""time""
""fullscreenenter"",""5"",""32652""
","
","661","audio/quiz/Q3_Correct.wav","32","","","","","","","","","","","","","","","","","","",""
"d3-instructions","134","797145","0.0-75.0","1402","5040","11","Female","true","false","false","false","""event"",""trial"",""time""
""fullscreenenter"",""5"",""32652""
","
","
","""event"",""trial"",""time""
""fullscreenenter"",""5"",""32652""
","
","","","","","","","","","","","","","","","","","","","","","",""
"d3-animate-choice","135","800056","0.0-76.0-0.0","1402","5040","11","Female","true","false","false","false","""event"",""trial"",""time""
""fullscreenenter"",""5"",""32652""
","
","
","""event"",""trial"",""time""
""fullscreenenter"",""5"",""32652""
","
","896","","48","","","3000","1","","","images/earth.jpg","images/rocket2","images/rocket1","null","images/rocket2","","1","real","null","2","","",""
"d3-animate-choice","136","802553","0.0-76.0-1.0","1402","5040","11","Female","true","false","false","false","""event"",""trial"",""time""
""fullscreenenter"",""5"",""32652""
","
","
","""event"",""trial"",""time""
""fullscreenenter"",""5"",""32652""
","
","485","","48","","","3000","1","","","images/redplanet1.jpg","images/alien2","images/alien1","images/rocket2","images/alien2","images/t.png","2","real","true","2","common","1","2022-12-08 01:09:06.049"
"two-step-fixation","137","803566","0.0-76.0-2.0","1402","5040","11","Female","true","false","false","false","""event"",""trial"",""time""
""fullscreenenter"",""5"",""32652""
","
","
","""event"",""trial"",""time""
""fullscreenenter"",""5"",""32652""
","
","","images/earth.jpg","","","","","","","","","","","","","","fixation","","","","","",""
"d3-animate-choice","138","806050","0.0-76.0-0.1","1402","5040","11","Female","true","false","false","false","""event"",""trial"",""time""
""fullscreenenter"",""5"",""32652""
","
","
","""event"",""trial"",""time""
""fullscreenenter"",""5"",""32652""
","
","465.2999999988824","","49","","","3000","1","","","images/earth.jpg","images/rocket2","images/rocket1","null","images/rocket1","","1","real","null","1","","",""
"d3-animate-choice","139","808532","0.0-76.0-1.1","1402","5040","11","Female","true","false","false","false","""event"",""trial"",""time""
""fullscreenenter"",""5"",""32652""
","
","
","""event"",""trial"",""time""
""fullscreenenter"",""5"",""32652""
","
","463.2999999988824","","48","","","3000","1","","","images/purpleplanet.jpg","images/alien4","images/alien3","images/rocket1","images/alien4","images/t.png","2","real","true","2","common","1","2022-12-08 01:09:12.028"
"two-step-fixation","140","809544","0.0-76.0-2.1","1402","5040","11","Female","true","false","false","false","""event"",""trial"",""time""
""fullscreenenter"",""5"",""32652""
","
","
","""event"",""trial"",""time""
""fullscreenenter"",""5"",""32652""
","
","","images/earth.jpg","","","","","","","","","","","","","","fixation","","","","","",""
"d3-animate-choice","141","812003","0.0-76.0-0.2","1402","5040","11","Female","true","false","false","false","""event"",""trial"",""time""
""fullscreenenter"",""5"",""32652""
","
","
","""event"",""trial"",""time""
""fullscreenenter"",""5"",""32652""
","
","436.59999999962747","","49","","","3000","1","","","images/earth.jpg","images/rocket2","images/rocket1","null","images/rocket1","","1","real","null","1","","",""
"d3-animate-choice","142","814442","0.0-76.0-1.2","1402","5040","11","Female","true","false","false","false","""event"",""trial"",""time""
""fullscreenenter"",""5"",""32652""
","
","
","""event"",""trial"",""time""
""fullscreenenter"",""5"",""32652""
","
","408","","48","","","3000","1","","","images/purpleplanet.jpg","images/alien4","images/alien3","images/rocket1","images/alien4","images/nothing.png","2","real","true","2","common","0","2022-12-08 01:09:17.937"
"two-step-fixation","143","815449","0.0-76.0-2.2","1402","5040","11","Female","true","false","false","false","""event"",""trial"",""time""
""fullscreenenter"",""5"",""32652""
","
","
","""event"",""trial"",""time""
""fullscreenenter"",""5"",""32652""
","
","","images/earth.jpg","","","","","","","","","","","","","","fixation","","","","","",""
"d3-animate-choice","144","817820","0.0-76.0-0.3","1402","5040","11","Female","true","false","false","false","""event"",""trial"",""time""
""fullscreenenter"",""5"",""32652""
","
","
","""event"",""trial"",""time""
""fullscreenenter"",""5"",""32652""
","
","363.59999999962747","","48","","","3000","1","","","images/earth.jpg","images/rocket2","images/rocket1","null","images/rocket2","","1","real","null","2","","",""
"d3-animate-choice","145","820433","0.0-76.0-1.3","1402","5040","11","Female","true","false","false","false","""event"",""trial"",""time""
""fullscreenenter"",""5"",""32652""
","
","
","""event"",""trial"",""time""
""fullscreenenter"",""5"",""32652""
","
","593.5999999996275","","48","","","3000","1","","","images/purpleplanet.jpg","images/alien4","images/alien3","images/rocket2","images/alien4","images/nothing.png","2","real","false","2","rare","0","2022-12-08 01:09:23.929"
"two-step-fixation","146","821453","0.0-76.0-2.3","1402","5040","11","Female","true","false","false","false","""event"",""trial"",""time""
""fullscreenenter"",""5"",""32652""
","
","
","""event"",""trial"",""time""
""fullscreenenter"",""5"",""32652""
","
","","images/earth.jpg","","","","","","","","","","","","","","fixation","","","","","",""
"d3-animate-choice","147","824023","0.0-76.0-0.4","1402","5040","11","Female","true","false","false","false","""event"",""trial"",""time""
""fullscreenenter"",""5"",""32652""
","
","
","""event"",""trial"",""time""
""fullscreenenter"",""5"",""32652""
","
","555.1000000014901","","49","","","3000","1","","","images/earth.jpg","images/rocket2","images/rocket1","null","images/rocket1","","1","real","null","1","","",""
"d3-animate-choice","148","826555","0.0-76.0-1.4","1402","5040","11","Female","true","false","false","false","""event"",""trial"",""time""
""fullscreenenter"",""5"",""32652""
","
","
","""event"",""trial"",""time""
""fullscreenenter"",""5"",""32652""
","
","523.5","","49","","","3000","1","","","images/redplanet1.jpg","images/alien2","images/alien1","images/rocket1","images/alien1","images/t.png","2","real","false","1","rare","1","2022-12-08 01:09:30.050"
"two-step-fixation","149","827616","0.0-76.0-2.4","1402","5040","11","Female","true","false","false","false","""event"",""trial"",""time""
""fullscreenenter"",""5"",""32652""
","
","
","""event"",""trial"",""time""
""fullscreenenter"",""5"",""32652""
","
","","images/earth.jpg","","","","","","","","","","","","","","fixation","","","","","",""
"d3-animate-choice","150","829916","0.0-76.0-0.5","1402","5040","11","Female","true","false","false","false","""event"",""trial"",""time""
""fullscreenenter"",""5"",""32652""
","
","
","""event"",""trial"",""time""
""fullscreenenter"",""5"",""32652""
","
","268.80000000074506","","49","","","3000","1","","","images/earth.jpg","images/rocket2","images/rocket1","null","images/rocket1","","1","real","null","1","","",""
"d3-animate-choice","151","832322","0.0-76.0-1.5","1402","5040","11","Female","true","false","false","false","""event"",""trial"",""time""
""fullscreenenter"",""5"",""32652""
","
","
","""event"",""trial"",""time""
""fullscreenenter"",""5"",""32652""
","
","384","","49","","","3000","1","","","images/purpleplanet.jpg","images/alien4","images/alien3","images/rocket1","images/alien3","images/nothing.png","2","real","true","1","common","0","2022-12-08 01:09:35.818"
"two-step-fixation","152","833333","0.0-76.0-2.5","1402","5040","11","Female","true","false","false","false","""event"",""trial"",""time""
""fullscreenenter"",""5"",""32652""
","
","
","""event"",""trial"",""time""
""fullscreenenter"",""5"",""32652""
","
","","images/earth.jpg","","","","","","","","","","","","","","fixation","","","","","",""
"d3-animate-choice","153","835820","0.0-76.0-0.6","1402","5040","11","Female","true","false","false","false","""event"",""trial"",""time""
""fullscreenenter"",""5"",""32652""
","
","
","""event"",""trial"",""time""
""fullscreenenter"",""5"",""32652""
","
","477.7000000011176","","49","","","3000","1","","","images/earth.jpg","images/rocket2","images/rocket1","null","images/rocket1","","1","real","null","1","","",""
"d3-animate-choice","154","838482","0.0-76.0-1.6","1402","5040","11","Female","true","false","false","false","""event"",""trial"",""time""
""fullscreenenter"",""5"",""32652""
","
","
","""event"",""trial"",""time""
""fullscreenenter"",""5"",""32652""
","
","643.2999999988824","","49","","","3000","1","","","images/purpleplanet.jpg","images/alien4","images/alien3","images/rocket1","images/alien3","images/t.png","2","real","true","1","common","1","2022-12-08 01:09:41.978"
"two-step-fixation","155","839497","0.0-76.0-2.6","1402","5040","11","Female","true","false","false","false","""event"",""trial"",""time""
""fullscreenenter"",""5"",""32652""
","
","
","""event"",""trial"",""time""
""fullscreenenter"",""5"",""32652""
","
","","images/earth.jpg","","","","","","","","","","","","","","fixation","","","","","",""
"d3-animate-choice","156","841854","0.0-76.0-0.7","1402","5040","11","Female","true","false","false","false","""event"",""trial"",""time""
""fullscreenenter"",""5"",""32652""
","
","
","""event"",""trial"",""time""
""fullscreenenter"",""5"",""32652""
","
","343.2999999988824","","48","","","3000","1","","","images/earth.jpg","images/rocket2","images/rocket1","null","images/rocket2","","1","real","null","2","","",""
"d3-animate-choice","157","844205","0.0-76.0-1.7","1402","5040","11","Female","true","false","false","false","""event"",""trial"",""time""
""fullscreenenter"",""5"",""32652""
","
","
","""event"",""trial"",""time""
""fullscreenenter"",""5"",""32652""
","
","340.7999999988824","","49","","","3000","1","","","images/redplanet1.jpg","images/alien2","images/alien1","images/rocket2","images/alien1","images/nothing.png","2","real","true","1","common","0","2022-12-08 01:09:47.700"
"two-step-fixation","158","845221","0.0-76.0-2.7","1402","5040","11","Female","true","false","false","false","""event"",""trial"",""time""
""fullscreenenter"",""5"",""32652""
","
","
","""event"",""trial"",""time""
""fullscreenenter"",""5"",""32652""
","
","","images/earth.jpg","","","","","","","","","","","","","","fixation","","","","","",""
"d3-animate-choice","159","847580","0.0-76.0-0.8","1402","5040","11","Female","true","false","false","false","""event"",""trial"",""time""
""fullscreenenter"",""5"",""32652""
","
","
","""event"",""trial"",""time""
""fullscreenenter"",""5"",""32652""
","
","338.5","","48","","","3000","1","","","images/earth.jpg","images/rocket2","images/rocket1","null","images/rocket2","","1","real","null","2","","",""
"d3-animate-choice","160","850012","0.0-76.0-1.8","1402","5040","11","Female","true","false","false","false","""event"",""trial"",""time""
""fullscreenenter"",""5"",""32652""
","
","
","""event"",""trial"",""time""
""fullscreenenter"",""5"",""32652""
","
","421.19999999925494","","48","","","3000","1","","","images/redplanet1.jpg","images/alien2","images/alien1","images/rocket2","images/alien2","images/nothing.png","2","real","true","2","common","0","2022-12-08 01:09:53.507"
"two-step-fixation","161","851023","0.0-76.0-2.8","1402","5040","11","Female","true","false","false","false","""event"",""trial"",""time""
""fullscreenenter"",""5"",""32652""
","
","
","""event"",""trial"",""time""
""fullscreenenter"",""5"",""32652""
","
","","images/earth.jpg","","","","","","","","","","","","","","fixation","","","","","",""
"d3-animate-choice","162","853426","0.0-76.0-0.9","1402","5040","11","Female","true","false","false","false","""event"",""trial"",""time""
""fullscreenenter"",""5"",""32652""
","
","
","""event"",""trial"",""time""
""fullscreenenter"",""5"",""32652""
","
","381.2000000011176","","49","","","3000","1","","","images/earth.jpg","images/rocket2","images/rocket1","null","images/rocket1","","1","real","null","1","","",""
"d3-animate-choice","163","856501","0.0-76.0-1.9","1402","5040","11","Female","true","false","false","false","""event"",""trial"",""time""
""fullscreenenter"",""5"",""32652""
","
","
","""event"",""trial"",""time""
""fullscreenenter"",""5"",""32652""
","
","1062.800000000745","","49","","","3000","1","","","images/redplanet1.jpg","images/alien2","images/alien1","images/rocket1","images/alien1","images/nothing.png","2","real","false","1","rare","0","2022-12-08 01:09:59.997"
"two-step-fixation","164","857529","0.0-76.0-2.9","1402","5040","11","Female","true","false","false","false","""event"",""trial"",""time""
""fullscreenenter"",""5"",""32652""
","
","
","""event"",""trial"",""time""
""fullscreenenter"",""5"",""32652""
","
","","images/earth.jpg","","","","","","","","","","","","","","fixation","","","","","",""
"d3-animate-choice","165","859824","0.0-76.0-0.10","1402","5040","11","Female","true","false","false","false","""event"",""trial"",""time""
""fullscreenenter"",""5"",""32652""
","
","
","""event"",""trial"",""time""
""fullscreenenter"",""5"",""32652""
","
","282.59999999962747","","49","","","3000","1","","","images/earth.jpg","images/rocket2","images/rocket1","null","images/rocket1","","1","real","null","1","","",""
"d3-animate-choice","166","862716","0.0-76.0-1.10","1402","5040","11","Female","true","false","false","false","""event"",""trial"",""time""
""fullscreenenter"",""5"",""32652""
","
","
","""event"",""trial"",""time""
""fullscreenenter"",""5"",""32652""
","
","879.9000000003725","","49","","","3000","1","","","images/purpleplanet.jpg","images/alien4","images/alien3","images/rocket1","images/alien3","images/nothing.png","2","real","true","1","common","0","2022-12-08 01:10:06.211"
"two-step-fixation","167","863726","0.0-76.0-2.10","1402","5040","11","Female","true","false","false","false","""event"",""trial"",""time""
""fullscreenenter"",""5"",""32652""
","
","
","""event"",""trial"",""time""
""fullscreenenter"",""5"",""32652""
","
","","images/earth.jpg","","","","","","","","","","","","","","fixation","","","","","",""
"d3-animate-choice","168","866050","0.0-76.0-0.11","1402","5040","11","Female","true","false","false","false","""event"",""trial"",""time""
""fullscreenenter"",""5"",""32652""
","
","
","""event"",""trial"",""time""
""fullscreenenter"",""5"",""32652""
","
","304.80000000074506","","49","","","3000","1","","","images/earth.jpg","images/rocket2","images/rocket1","null","images/rocket1","","1","real","null","1","","",""
"d3-animate-choice","169","868715","0.0-76.0-1.11","1402","5040","11","Female","true","false","false","false","""event"",""trial"",""time""
""fullscreenenter"",""5"",""32652""
","
","
","""event"",""trial"",""time""
""fullscreenenter"",""5"",""32652""
","
","652.7999999988824","","48","","","3000","1","","","images/redplanet1.jpg","images/alien2","images/alien1","images/rocket1","images/alien2","images/t.png","2","real","false","2","rare","1","2022-12-08 01:10:12.211"
"two-step-fixation","170","869728","0.0-76.0-2.11","1402","5040","11","Female","true","false","false","false","""event"",""trial"",""time""
""fullscreenenter"",""5"",""32652""
","
","
","""event"",""trial"",""time""
""fullscreenenter"",""5"",""32652""
","
","","images/earth.jpg","","","","","","","","","","","","","","fixation","","","","","",""
"d3-animate-choice","171","872068","0.0-76.0-0.12","1402","5040","11","Female","true","false","false","false","""event"",""trial"",""time""
""fullscreenenter"",""5"",""32652""
","
","
","""event"",""trial"",""time""
""fullscreenenter"",""5"",""32652""
","
","329.69999999925494","","49","","","3000","1","","","images/earth.jpg","images/rocket2","images/rocket1","null","images/rocket1","","1","real","null","1","","",""
"d3-animate-choice","172","874674","0.0-76.0-1.12","1402","5040","11","Female","true","false","false","false","""event"",""trial"",""time""
""fullscreenenter"",""5"",""32652""
","
","
","""event"",""trial"",""time""
""fullscreenenter"",""5"",""32652""
","
","589.9000000003725","","48","","","3000","1","","","images/purpleplanet.jpg","images/alien4","images/alien3","images/rocket1","images/alien4","images/t.png","2","real","true","2","common","1","2022-12-08 01:10:18.170"
"two-step-fixation","173","875685","0.0-76.0-2.12","1402","5040","11","Female","true","false","false","false","""event"",""trial"",""time""
""fullscreenenter"",""5"",""32652""
","
","
","""event"",""trial"",""time""
""fullscreenenter"",""5"",""32652""
","
","","images/earth.jpg","","","","","","","","","","","","","","fixation","","","","","",""
"d3-animate-choice","174","877995","0.0-76.0-0.13","1402","5040","11","Female","true","false","false","false","""event"",""trial"",""time""
""fullscreenenter"",""5"",""32652""
","
","
","""event"",""trial"",""time""
""fullscreenenter"",""5"",""32652""
","
","290.30000000074506","","49","","","3000","1","","","images/earth.jpg","images/rocket2","images/rocket1","null","images/rocket1","","1","real","null","1","","",""
"d3-animate-choice","175","880483","0.0-76.0-1.13","1402","5040","11","Female","true","false","false","false","""event"",""trial"",""time""
""fullscreenenter"",""5"",""32652""
","
","
","""event"",""trial"",""time""
""fullscreenenter"",""5"",""32652""
","
","475.8999999985099","","48","","","3000","1","","","images/purpleplanet.jpg","images/alien4","images/alien3","images/rocket1","images/alien4","images/t.png","2","real","true","2","common","1","2022-12-08 01:10:23.979"
"two-step-fixation","176","881496","0.0-76.0-2.13","1402","5040","11","Female","true","false","false","false","""event"",""trial"",""time""
""fullscreenenter"",""5"",""32652""
","
","
","""event"",""trial"",""time""
""fullscreenenter"",""5"",""32652""
","
","","images/earth.jpg","","","","","","","","","","","","","","fixation","","","","","",""
"d3-animate-choice","177","883814","0.0-76.0-0.14","1402","5040","11","Female","true","false","false","false","""event"",""trial"",""time""
""fullscreenenter"",""5"",""32652""
","
","
","""event"",""trial"",""time""
""fullscreenenter"",""5"",""32652""
","
","303.59999999962747","","48","","","3000","1","","","images/earth.jpg","images/rocket2","images/rocket1","null","images/rocket2","","1","real","null","2","","",""
"d3-animate-choice","178","886246","0.0-76.0-1.14","1402","5040","11","Female","true","false","false","false","""event"",""trial"",""time""
""fullscreenenter"",""5"",""32652""
","
","
","""event"",""trial"",""time""
""fullscreenenter"",""5"",""32652""
","
","427.09999999962747","","49","","","3000","1","","","images/purpleplanet.jpg","images/alien4","images/alien3","images/rocket2","images/alien3","images/nothing.png","2","real","false","1","rare","0","2022-12-08 01:10:29.741"
"two-step-fixation","179","887255","0.0-76.0-2.14","1402","5040","11","Female","true","false","false","false","""event"",""trial"",""time""
""fullscreenenter"",""5"",""32652""
","
","
","""event"",""trial"",""time""
""fullscreenenter"",""5"",""32652""
","
","","images/earth.jpg","","","","","","","","","","","","","","fixation","","","","","",""
"d3-animate-choice","180","889600","0.0-76.0-0.15","1402","5040","11","Female","true","false","false","false","""event"",""trial"",""time""
""fullscreenenter"",""5"",""32652""
","
","
","""event"",""trial"",""time""
""fullscreenenter"",""5"",""32652""
","
","334.09999999962747","","49","","","3000","1","","","images/earth.jpg","images/rocket2","images/rocket1","null","images/rocket1","","1","real","null","1","","",""
"d3-animate-choice","181","892307","0.0-76.0-1.15","1402","5040","11","Female","true","false","false","false","""event"",""trial"",""time""
""fullscreenenter"",""5"",""32652""
","
","
","""event"",""trial"",""time""
""fullscreenenter"",""5"",""32652""
","
","696.8000000007451","","48","","","3000","1","","","images/redplanet1.jpg","images/alien2","images/alien1","images/rocket1","images/alien2","images/t.png","2","real","false","2","rare","1","2022-12-08 01:10:35.802"
"two-step-fixation","182","893318","0.0-76.0-2.15","1402","5040","11","Female","true","false","false","false","""event"",""trial"",""time""
""fullscreenenter"",""5"",""32652""
","
","
","""event"",""trial"",""time""
""fullscreenenter"",""5"",""32652""
","
","","images/earth.jpg","","","","","","","","","","","","","","fixation","","","","","",""
"d3-animate-choice","183","895658","0.0-76.0-0.16","1402","5040","11","Female","true","false","false","false","""event"",""trial"",""time""
""fullscreenenter"",""5"",""32652""
","
","
","""event"",""trial"",""time""
""fullscreenenter"",""5"",""32652""
","
","321","","49","","","3000","1","","","images/earth.jpg","images/rocket2","images/rocket1","null","images/rocket1","","1","real","null","1","","",""
"d3-animate-choice","184","898369","0.0-76.0-1.16","1402","5040","11","Female","true","false","false","false","""event"",""trial"",""time""
""fullscreenenter"",""5"",""32652""
","
","
","""event"",""trial"",""time""
""fullscreenenter"",""5"",""32652""
","
","686.0999999996275","","48","","","3000","1","","","images/redplanet1.jpg","images/alien2","images/alien1","images/rocket1","images/alien2","images/t.png","2","real","false","2","rare","1","2022-12-08 01:10:41.864"
"two-step-fixation","185","899377","0.0-76.0-2.16","1402","5040","11","Female","true","false","false","false","""event"",""trial"",""time""
""fullscreenenter"",""5"",""32652""
","
","
","""event"",""trial"",""time""
""fullscreenenter"",""5"",""32652""
","
","","images/earth.jpg","","","","","","","","","","","","","","fixation","","","","","",""
"d3-animate-choice","186","901709","0.0-76.0-0.17","1402","5040","11","Female","true","false","false","false","""event"",""trial"",""time""
""fullscreenenter"",""5"",""32652""
","
","
","""event"",""trial"",""time""
""fullscreenenter"",""5"",""32652""
","
","323.30000000074506","","49","","","3000","1","","","images/earth.jpg","images/rocket2","images/rocket1","null","images/rocket1","","1","real","null","1","","",""
"d3-animate-choice","187","904292","0.0-76.0-1.17","1402","5040","11","Female","true","false","false","false","""event"",""trial"",""time""
""fullscreenenter"",""5"",""32652""
","
","
","""event"",""trial"",""time""
""fullscreenenter"",""5"",""32652""
","
","571.8000000007451","","48","","","3000","1","","","images/purpleplanet.jpg","images/alien4","images/alien3","images/rocket1","images/alien4","images/t.png","2","real","true","2","common","1","2022-12-08 01:10:47.787"
"two-step-fixation","188","905303","0.0-76.0-2.17","1402","5040","11","Female","true","false","false","false","""event"",""trial"",""time""
""fullscreenenter"",""5"",""32652""
","
","
","""event"",""trial"",""time""
""fullscreenenter"",""5"",""32652""
","
","","images/earth.jpg","","","","","","","","","","","","","","fixation","","","","","",""
"d3-animate-choice","189","907637","0.0-76.0-0.18","1402","5040","11","Female","true","false","false","false","""event"",""trial"",""time""
""fullscreenenter"",""5"",""32652""
","
","
","""event"",""trial"",""time""
""fullscreenenter"",""5"",""32652""
","
","324","","49","","","3000","1","","","images/earth.jpg","images/rocket2","images/rocket1","null","images/rocket1","","1","real","null","1","","",""
"d3-animate-choice","190","910077","0.0-76.0-1.18","1402","5040","11","Female","true","false","false","false","""event"",""trial"",""time""
""fullscreenenter"",""5"",""32652""
","
","
","""event"",""trial"",""time""
""fullscreenenter"",""5"",""32652""
","
","433.7000000011176","","48","","","3000","1","","","images/purpleplanet.jpg","images/alien4","images/alien3","images/rocket1","images/alien4","images/nothing.png","2","real","true","2","common","0","2022-12-08 01:10:53.573"
"two-step-fixation","191","911087","0.0-76.0-2.18","1402","5040","11","Female","true","false","false","false","""event"",""trial"",""time""
""fullscreenenter"",""5"",""32652""
","
","
","""event"",""trial"",""time""
""fullscreenenter"",""5"",""32652""
","
","","images/earth.jpg","","","","","","","","","","","","","","fixation","","","","","",""
"d3-animate-choice","192","913502","0.0-76.0-0.19","1402","5040","11","Female","true","false","false","false","""event"",""trial"",""time""
""fullscreenenter"",""5"",""32652""
","
","
","""event"",""trial"",""time""
""fullscreenenter"",""5"",""32652""
","
","390.80000000074506","","49","","","3000","1","","","images/earth.jpg","images/rocket2","images/rocket1","null","images/rocket1","","1","real","null","1","","",""
"d3-animate-choice","193","915929","0.0-76.0-1.19","1402","5040","11","Female","true","false","false","false","""event"",""trial"",""time""
""fullscreenenter"",""5"",""32652""
","
","
","""event"",""trial"",""time""
""fullscreenenter"",""5"",""32652""
","
","421","","48","","","3000","1","","","images/purpleplanet.jpg","images/alien4","images/alien3","images/rocket1","images/alien4","images/nothing.png","2","real","true","2","common","0","2022-12-08 01:10:59.424"
"two-step-fixation","194","916941","0.0-76.0-2.19","1402","5040","11","Female","true","false","false","false","""event"",""trial"",""time""
""fullscreenenter"",""5"",""32652""
","
","
","""event"",""trial"",""time""
""fullscreenenter"",""5"",""32652""
","
","","images/earth.jpg","","","","","","","","","","","","","","fixation","","","","","",""
"d3-animate-choice","195","919435","0.0-76.0-0.20","1402","5040","11","Female","true","false","false","false","""event"",""trial"",""time""
""fullscreenenter"",""5"",""32652""
","
","
","""event"",""trial"",""time""
""fullscreenenter"",""5"",""32652""
","
","482","","48","","","3000","1","","","images/earth.jpg","images/rocket2","images/rocket1","null","images/rocket2","","1","real","null","2","","",""
"d3-animate-choice","196","921999","0.0-76.0-1.20","1402","5040","11","Female","true","false","false","false","""event"",""trial"",""time""
""fullscreenenter"",""5"",""32652""
","
","
","""event"",""trial"",""time""
""fullscreenenter"",""5"",""32652""
","
","556.8999999985099","","48","","","3000","1","","","images/redplanet1.jpg","images/alien2","images/alien1","images/rocket2","images/alien2","images/t.png","2","real","true","2","common","1","2022-12-08 01:11:05.494"
"two-step-fixation","197","923014","0.0-76.0-2.20","1402","5040","11","Female","true","false","false","false","""event"",""trial"",""time""
""fullscreenenter"",""5"",""32652""
","
","
","""event"",""trial"",""time""
""fullscreenenter"",""5"",""32652""
","
","","images/earth.jpg","","","","","","","","","","","","","","fixation","","","","","",""
"d3-animate-choice","198","925383","0.0-76.0-0.21","1402","5040","11","Female","true","false","false","false","""event"",""trial"",""time""
""fullscreenenter"",""5"",""32652""
","
","
","""event"",""trial"",""time""
""fullscreenenter"",""5"",""32652""
","
","350","","48","","","3000","1","","","images/earth.jpg","images/rocket2","images/rocket1","null","images/rocket2","","1","real","null","2","","",""
"d3-animate-choice","199","927899","0.0-76.0-1.21","1402","5040","11","Female","true","false","false","false","""event"",""trial"",""time""
""fullscreenenter"",""5"",""32652""
","
","
","""event"",""trial"",""time""
""fullscreenenter"",""5"",""32652""
","
","504.5","","48","","","3000","1","","","images/redplanet1.jpg","images/alien2","images/alien1","images/rocket2","images/alien2","images/t.png","2","real","true","2","common","1","2022-12-08 01:11:11.394"
"two-step-fixation","200","928908","0.0-76.0-2.21","1402","5040","11","Female","true","false","false","false","""event"",""trial"",""time""
""fullscreenenter"",""5"",""32652""
","
","
","""event"",""trial"",""time""
""fullscreenenter"",""5"",""32652""
","
","","images/earth.jpg","","","","","","","","","","","","","","fixation","","","","","",""
"d3-animate-choice","201","931204","0.0-76.0-0.22","1402","5040","11","Female","true","false","false","false","""event"",""trial"",""time""
""fullscreenenter"",""5"",""32652""
","
","
","""event"",""trial"",""time""
""fullscreenenter"",""5"",""32652""
","
","290.1000000014901","","48","","","3000","1","","","images/earth.jpg","images/rocket2","images/rocket1","null","images/rocket2","","1","real","null","2","","",""
"d3-animate-choice","202","933774","0.0-76.0-1.22","1402","5040","11","Female","true","false","false","false","""event"",""trial"",""time""
""fullscreenenter"",""5"",""32652""
","
","
","""event"",""trial"",""time""
""fullscreenenter"",""5"",""32652""
","
","558.5","","48","","","3000","1","","","images/redplanet1.jpg","images/alien2","images/alien1","images/rocket2","images/alien2","images/t.png","2","real","true","2","common","1","2022-12-08 01:11:17.269"
"two-step-fixation","203","934793","0.0-76.0-2.22","1402","5040","11","Female","true","false","false","false","""event"",""trial"",""time""
""fullscreenenter"",""5"",""32652""
","
","
","""event"",""trial"",""time""
""fullscreenenter"",""5"",""32652""
","
","","images/earth.jpg","","","","","","","","","","","","","","fixation","","","","","",""
"d3-animate-choice","204","937169","0.0-76.0-0.23","1402","5040","11","Female","true","false","false","false","""event"",""trial"",""time""
""fullscreenenter"",""5"",""32652""
","
","
","""event"",""trial"",""time""
""fullscreenenter"",""5"",""32652""
","
","366.59999999962747","","48","","","3000","1","","","images/earth.jpg","images/rocket2","images/rocket1","null","images/rocket2","","1","real","null","2","","",""
"d3-animate-choice","205","939555","0.0-76.0-1.23","1402","5040","11","Female","true","false","false","false","""event"",""trial"",""time""
""fullscreenenter"",""5"",""32652""
","
","
","""event"",""trial"",""time""
""fullscreenenter"",""5"",""32652""
","
","374","","48","","","3000","1","","","images/redplanet1.jpg","images/alien2","images/alien1","images/rocket2","images/alien2","images/t.png","2","real","true","2","common","1","2022-12-08 01:11:23.050"
"two-step-fixation","206","940563","0.0-76.0-2.23","1402","5040","11","Female","true","false","false","false","""event"",""trial"",""time""
""fullscreenenter"",""5"",""32652""
","
","
","""event"",""trial"",""time""
""fullscreenenter"",""5"",""32652""
","
","","images/earth.jpg","","","","","","","","","","","","","","fixation","","","","","",""
"d3-animate-choice","207","942620","0.0-76.0-0.24","1402","5040","11","Female","true","false","false","false","""event"",""trial"",""time""
""fullscreenenter"",""5"",""32652""
","
","
","""event"",""trial"",""time""
""fullscreenenter"",""5"",""32652""
","
","47.19999999925494","","48","","","3000","1","","","images/earth.jpg","images/rocket2","images/rocket1","null","images/rocket2","","1","real","null","2","","",""
"d3-animate-choice","208","945087","0.0-76.0-1.24","1402","5040","11","Female","true","false","false","false","""event"",""trial"",""time""
""fullscreenenter"",""5"",""32652""
","
","
","""event"",""trial"",""time""
""fullscreenenter"",""5"",""32652""
","
","457.59999999962747","","48","","","3000","1","","","images/redplanet1.jpg","images/alien2","images/alien1","images/rocket2","images/alien2","images/t.png","2","real","true","2","common","1","2022-12-08 01:11:28.582"
"two-step-fixation","209","946106","0.0-76.0-2.24","1402","5040","11","Female","true","false","false","false","""event"",""trial"",""time""
""fullscreenenter"",""5"",""32652""
","
","
","""event"",""trial"",""time""
""fullscreenenter"",""5"",""32652""
","
","","images/earth.jpg","","","","","","","","","","","","","","fixation","","","","","",""
"d3-animate-choice","210","948445","0.0-76.0-0.25","1402","5040","11","Female","true","false","false","false","""event"",""trial"",""time""
""fullscreenenter"",""5"",""32652""
","
","
","""event"",""trial"",""time""
""fullscreenenter"",""5"",""32652""
","
","331.69999999925494","","48","","","3000","1","","","images/earth.jpg","images/rocket2","images/rocket1","null","images/rocket2","","1","real","null","2","","",""
"d3-animate-choice","211","950855","0.0-76.0-1.25","1402","5040","11","Female","true","false","false","false","""event"",""trial"",""time""
""fullscreenenter"",""5"",""32652""
","
","
","""event"",""trial"",""time""
""fullscreenenter"",""5"",""32652""
","
","403.90000000037253","","48","","","3000","1","","","images/redplanet1.jpg","images/alien2","images/alien1","images/rocket2","images/alien2","images/t.png","2","real","true","2","common","1","2022-12-08 01:11:34.351"
"two-step-fixation","212","951872","0.0-76.0-2.25","1402","5040","11","Female","true","false","false","false","""event"",""trial"",""time""
""fullscreenenter"",""5"",""32652""
","
","
","""event"",""trial"",""time""
""fullscreenenter"",""5"",""32652""
","
","","images/earth.jpg","","","","","","","","","","","","","","fixation","","","","","",""
"d3-animate-choice","213","954189","0.0-76.0-0.26","1402","5040","11","Female","true","false","false","false","""event"",""trial"",""time""
""fullscreenenter"",""5"",""32652""
","
","
","""event"",""trial"",""time""
""fullscreenenter"",""5"",""32652""
","
","309.30000000074506","","48","","","3000","1","","","images/earth.jpg","images/rocket2","images/rocket1","null","images/rocket2","","1","real","null","2","","",""
"d3-animate-choice","214","956823","0.0-76.0-1.26","1402","5040","11","Female","true","false","false","false","""event"",""trial"",""time""
""fullscreenenter"",""5"",""32652""
","
","
","""event"",""trial"",""time""
""fullscreenenter"",""5"",""32652""
","
","622.0999999996275","","48","","","3000","1","","","images/redplanet1.jpg","images/alien2","images/alien1","images/rocket2","images/alien2","images/nothing.png","2","real","true","2","common","0","2022-12-08 01:11:40.319"
"two-step-fixation","215","957840","0.0-76.0-2.26","1402","5040","11","Female","true","false","false","false","""event"",""trial"",""time""
""fullscreenenter"",""5"",""32652""
","
","
","""event"",""trial"",""time""
""fullscreenenter"",""5"",""32652""
","
","","images/earth.jpg","","","","","","","","","","","","","","fixation","","","","","",""
"d3-animate-choice","216","960460","0.0-76.0-0.27","1402","5040","11","Female","true","false","false","false","""event"",""trial"",""time""
""fullscreenenter"",""5"",""32652""
","
","
","""event"",""trial"",""time""
""fullscreenenter"",""5"",""32652""
","
","612.6999999992549","","48","","","3000","1","","","images/earth.jpg","images/rocket2","images/rocket1","null","images/rocket2","","1","real","null","2","","",""
"d3-animate-choice","217","963005","0.0-76.0-1.27","1402","5040","11","Female","true","false","false","false","""event"",""trial"",""time""
""fullscreenenter"",""5"",""32652""
","
","
","""event"",""trial"",""time""
""fullscreenenter"",""5"",""32652""
","
","521.7999999988824","","49","","","3000","1","","","images/purpleplanet.jpg","images/alien4","images/alien3","images/rocket2","images/alien3","images/nothing.png","2","real","false","1","rare","0","2022-12-08 01:11:46.501"
"two-step-fixation","218","964026","0.0-76.0-2.27","1402","5040","11","Female","true","false","false","false","""event"",""trial"",""time""
""fullscreenenter"",""5"",""32652""
","
","
","""event"",""trial"",""time""
""fullscreenenter"",""5"",""32652""
","
","","images/earth.jpg","","","","","","","","","","","","","","fixation","","","","","",""
"d3-animate-choice","219","966430","0.0-76.0-0.28","1402","5040","11","Female","true","false","false","false","""event"",""trial"",""time""
""fullscreenenter"",""5"",""32652""
","
","
","""event"",""trial"",""time""
""fullscreenenter"",""5"",""32652""
","
","386.3999999985099","","48","","","3000","1","","","images/earth.jpg","images/rocket2","images/rocket1","null","images/rocket2","","1","real","null","2","","",""
"d3-animate-choice","220","968928","0.0-76.0-1.28","1402","5040","11","Female","true","false","false","false","""event"",""trial"",""time""
""fullscreenenter"",""5"",""32652""
","
","
","""event"",""trial"",""time""
""fullscreenenter"",""5"",""32652""
","
","492.09999999962747","","49","","","3000","1","","","images/redplanet1.jpg","images/alien2","images/alien1","images/rocket2","images/alien1","images/t.png","2","real","true","1","common","1","2022-12-08 01:11:52.423"
"two-step-fixation","221","969944","0.0-76.0-2.28","1402","5040","11","Female","true","false","false","false","""event"",""trial"",""time""
""fullscreenenter"",""5"",""32652""
","
","
","""event"",""trial"",""time""
""fullscreenenter"",""5"",""32652""
","
","","images/earth.jpg","","","","","","","","","","","","","","fixation","","","","","",""
"d3-animate-choice","222","972341","0.0-76.0-0.29","1402","5040","11","Female","true","false","false","false","""event"",""trial"",""time""
""fullscreenenter"",""5"",""32652""
","
","
","""event"",""trial"",""time""
""fullscreenenter"",""5"",""32652""
","
","385.6000000014901","","48","","","3000","1","","","images/earth.jpg","images/rocket2","images/rocket1","null","images/rocket2","","1","real","null","2","","",""
"d3-animate-choice","223","974756","0.0-76.0-1.29","1402","5040","11","Female","true","false","false","false","""event"",""trial"",""time""
""fullscreenenter"",""5"",""32652""
","
","
","""event"",""trial"",""time""
""fullscreenenter"",""5"",""32652""
","
","406.1000000014901","","49","","","3000","1","","","images/redplanet1.jpg","images/alien2","images/alien1","images/rocket2","images/alien1","images/t.png","2","real","true","1","common","1","2022-12-08 01:11:58.251"
"two-step-fixation","224","975766","0.0-76.0-2.29","1402","5040","11","Female","true","false","false","false","""event"",""trial"",""time""
""fullscreenenter"",""5"",""32652""
","
","
","""event"",""trial"",""time""
""fullscreenenter"",""5"",""32652""
","
","","images/earth.jpg","","","","","","","","","","","","","","fixation","","","","","",""
"d3-animate-choice","225","978077","0.0-76.0-0.30","1402","5040","11","Female","true","false","false","false","""event"",""trial"",""time""
""fullscreenenter"",""5"",""32652""
","
","
","""event"",""trial"",""time""
""fullscreenenter"",""5"",""32652""
","
","299.7000000011176","","48","","","3000","1","","","images/earth.jpg","images/rocket2","images/rocket1","null","images/rocket2","","1","real","null","2","","",""
"d3-animate-choice","226","980406","0.0-76.0-1.30","1402","5040","11","Female","true","false","false","false","""event"",""trial"",""time""
""fullscreenenter"",""5"",""32652""
","
","
","""event"",""trial"",""time""
""fullscreenenter"",""5"",""32652""
","
","305.5","","49","","","3000","1","","","images/redplanet1.jpg","images/alien2","images/alien1","images/rocket2","images/alien1","images/t.png","2","real","true","1","common","1","2022-12-08 01:12:03.902"
"two-step-fixation","227","981424","0.0-76.0-2.30","1402","5040","11","Female","true","false","false","false","""event"",""trial"",""time""
""fullscreenenter"",""5"",""32652""
","
","
","""event"",""trial"",""time""
""fullscreenenter"",""5"",""32652""
","
","","images/earth.jpg","","","","","","","","","","","","","","fixation","","","","","",""
"d3-animate-choice","228","983631","0.0-76.0-0.31","1402","5040","11","Female","true","false","false","false","""event"",""trial"",""time""
""fullscreenenter"",""5"",""32652""
","
","
","""event"",""trial"",""time""
""fullscreenenter"",""5"",""32652""
","
","196.80000000074506","","48","","","3000","1","","","images/earth.jpg","images/rocket2","images/rocket1","null","images/rocket2","","1","real","null","2","","",""
"d3-animate-choice","229","985915","0.0-76.0-1.31","1402","5040","11","Female","true","false","false","false","""event"",""trial"",""time""
""fullscreenenter"",""5"",""32652""
","
","
","""event"",""trial"",""time""
""fullscreenenter"",""5"",""32652""
","
","268.90000000037253","","49","","","3000","1","","","images/purpleplanet.jpg","images/alien4","images/alien3","images/rocket2","images/alien3","images/nothing.png","2","real","false","1","rare","0","2022-12-08 01:12:09.410"
"two-step-fixation","230","986930","0.0-76.0-2.31","1402","5040","11","Female","true","false","false","false","""event"",""trial"",""time""
""fullscreenenter"",""5"",""32652""
","
","
","""event"",""trial"",""time""
""fullscreenenter"",""5"",""32652""
","
","","images/earth.jpg","","","","","","","","","","","","","","fixation","","","","","",""
"d3-animate-choice","231","989241","0.0-76.0-0.32","1402","5040","11","Female","true","false","false","false","""event"",""trial"",""time""
""fullscreenenter"",""5"",""32652""
","
","
","""event"",""trial"",""time""
""fullscreenenter"",""5"",""32652""
","
","300.5","","48","","","3000","1","","","images/earth.jpg","images/rocket2","images/rocket1","null","images/rocket2","","1","real","null","2","","",""
"d3-animate-choice","232","991801","0.0-76.0-1.32","1402","5040","11","Female","true","false","false","false","""event"",""trial"",""time""
""fullscreenenter"",""5"",""32652""
","
","
","""event"",""trial"",""time""
""fullscreenenter"",""5"",""32652""
","
","547.5999999996275","","49","","","3000","1","","","images/purpleplanet.jpg","images/alien4","images/alien3","images/rocket2","images/alien3","images/nothing.png","2","real","false","1","rare","0","2022-12-08 01:12:15.296"
"two-step-fixation","233","992809","0.0-76.0-2.32","1402","5040","11","Female","true","false","false","false","""event"",""trial"",""time""
""fullscreenenter"",""5"",""32652""
","
","
","""event"",""trial"",""time""
""fullscreenenter"",""5"",""32652""
","
","","images/earth.jpg","","","","","","","","","","","","","","fixation","","","","","",""
"d3-animate-choice","234","995134","0.0-76.0-0.33","1402","5040","11","Female","true","false","false","false","""event"",""trial"",""time""
""fullscreenenter"",""5"",""32652""
","
","
","""event"",""trial"",""time""
""fullscreenenter"",""5"",""32652""
","
","316.59999999962747","","48","","","3000","1","","","images/earth.jpg","images/rocket2","images/rocket1","null","images/rocket2","","1","real","null","2","","",""
"d3-animate-choice","235","998085","0.0-76.0-1.33","1402","5040","11","Female","true","false","false","false","""event"",""trial"",""time""
""fullscreenenter"",""5"",""32652""
","
","
","""event"",""trial"",""time""
""fullscreenenter"",""5"",""32652""
","
","941.4000000003725","","49","","","3000","1","","","images/redplanet1.jpg","images/alien2","images/alien1","images/rocket2","images/alien1","images/t.png","2","real","true","1","common","1","2022-12-08 01:12:21.580"
"two-step-fixation","236","999096","0.0-76.0-2.33","1402","5040","11","Female","true","false","false","false","""event"",""trial"",""time""
""fullscreenenter"",""5"",""32652""
","
","
","""event"",""trial"",""time""
""fullscreenenter"",""5"",""32652""
","
","","images/earth.jpg","","","","","","","","","","","","","","fixation","","","","","",""
"d3-animate-choice","237","1001370","0.0-76.0-0.34","1402","5040","11","Female","true","false","false","false","""event"",""trial"",""time""
""fullscreenenter"",""5"",""32652""
","
","
","""event"",""trial"",""time""
""fullscreenenter"",""5"",""32652""
","
","266.6000000014901","","48","","","3000","1","","","images/earth.jpg","images/rocket2","images/rocket1","null","images/rocket2","","1","real","null","2","","",""
"d3-animate-choice","238","1004036","0.0-76.0-1.34","1402","5040","11","Female","true","false","false","false","""event"",""trial"",""time""
""fullscreenenter"",""5"",""32652""
","
","
","""event"",""trial"",""time""
""fullscreenenter"",""5"",""32652""
","
","657.3000000007451","","48","","","3000","1","","","images/purpleplanet.jpg","images/alien4","images/alien3","images/rocket2","images/alien4","images/t.png","2","real","false","2","rare","1","2022-12-08 01:12:27.531"
"two-step-fixation","239","1005047","0.0-76.0-2.34","1402","5040","11","Female","true","false","false","false","""event"",""trial"",""time""
""fullscreenenter"",""5"",""32652""
","
","
","""event"",""trial"",""time""
""fullscreenenter"",""5"",""32652""
","
","","images/earth.jpg","","","","","","","","","","","","","","fixation","","","","","",""
"d3-animate-choice","240","1007322","0.0-76.0-0.35","1402","5040","11","Female","true","false","false","false","""event"",""trial"",""time""
""fullscreenenter"",""5"",""32652""
","
","
","""event"",""trial"",""time""
""fullscreenenter"",""5"",""32652""
","
","260.90000000037253","","49","","","3000","1","","","images/earth.jpg","images/rocket2","images/rocket1","null","images/rocket1","","1","real","null","1","","",""
"d3-animate-choice","241","1010523","0.0-76.0-1.35","1402","5040","11","Female","true","false","false","false","""event"",""trial"",""time""
""fullscreenenter"",""5"",""32652""
","
","
","""event"",""trial"",""time""
""fullscreenenter"",""5"",""32652""
","
","1180.5","","49","","","3000","1","","","images/redplanet1.jpg","images/alien2","images/alien1","images/rocket1","images/alien1","images/t.png","2","real","false","1","rare","1","2022-12-08 01:12:34.019"
"two-step-fixation","242","1011533","0.0-76.0-2.35","1402","5040","11","Female","true","false","false","false","""event"",""trial"",""time""
""fullscreenenter"",""5"",""32652""
","
","
","""event"",""trial"",""time""
""fullscreenenter"",""5"",""32652""
","
","","images/earth.jpg","","","","","","","","","","","","","","fixation","","","","","",""
"d3-animate-choice","243","1014551","0.0-76.0-0.36","1402","5040","11","Female","true","false","false","false","""event"",""trial"",""time""
""fullscreenenter"",""5"",""32652""
","
","
","""event"",""trial"",""time""
""fullscreenenter"",""5"",""32652""
","
","995.3000000007451","","48","","","3000","1","","","images/earth.jpg","images/rocket2","images/rocket1","null","images/rocket2","","1","real","null","2","","",""
"d3-animate-choice","244","1017833","0.0-76.0-1.36","1402","5040","11","Female","true","false","false","false","""event"",""trial"",""time""
""fullscreenenter"",""5"",""32652""
","
","
","""event"",""trial"",""time""
""fullscreenenter"",""5"",""32652""
","
","1266","","49","","","3000","1","","","images/redplanet1.jpg","images/alien2","images/alien1","images/rocket2","images/alien1","images/t.png","2","real","true","1","common","1","2022-12-08 01:12:41.328"
