"trial_type","trial_index","time_elapsed","internal_node_id","participant_id","subject_id","age","gender","rocket_sides","red_planet_first_rocket","red_display_order","purple_display_order","interactions","blur_events","focus_events","fullscreenenter_events","fullscreenexit_events","rt","stimulus","key_press","button_pressed","success","duration","valid_pressed","rts","keys","planet_text","right_text","left_text","center_text","chosen_text","reward_text","trial_stage","practice_trial","transition_type","choice","transition","reward","timestamp"
"pavlovia","0","4","0.0-0.0","1889","5038","8","Male","true","false","false","false","
","
","
","
","
","","","","","","","","","","","","","","","","","","","","","",""
"html-keyboard-response","1","1719","0.0-1.0","1889","5038","8","Male","true","false","false","false","
","
","
","
","
","1713.7000000476837","Welcome! Press the space bar to begin.","32","","","","","","","","","","","","","","","","","","",""
"audio-keyboard-response","2","6467","0.0-2.0","1889","5038","8","Male","true","false","false","false","""event"",""trial"",""time""
""blur"",""3"",""12753""
""focus"",""3"",""12753""
""blur"",""3"",""15490""
""focus"",""3"",""15492""
","""event"",""trial"",""time""
""blur"",""3"",""12753""
""blur"",""3"",""15490""
","""event"",""trial"",""time""
""focus"",""3"",""12753""
""focus"",""3"",""15492""
","
","
","4320","audio/beep_loop.wav","32","","","","","","","","","","","","","","","","","","",""
"audio-button-response","3","17774","0.0-3.0","1889","5038","8","Male","true","false","false","false","""event"",""trial"",""time""
""blur"",""3"",""12753""
""focus"",""3"",""12753""
""blur"",""3"",""15490""
""focus"",""3"",""15492""
","""event"",""trial"",""time""
""blur"",""3"",""12753""
""blur"",""3"",""15490""
","""event"",""trial"",""time""
""focus"",""3"",""12753""
""focus"",""3"",""15492""
","
","
","NaN","audio/fish.mp3","","1","","","","","","","","","","","","","","","","","",""
"audio-button-response","4","21100","0.0-4.0","1889","5038","8","Male","true","false","false","false","""event"",""trial"",""time""
""blur"",""3"",""12753""
""focus"",""3"",""12753""
""blur"",""3"",""15490""
""focus"",""3"",""15492""
""fullscreenenter"",""5"",""23462""
","""event"",""trial"",""time""
""blur"",""3"",""12753""
""blur"",""3"",""15490""
","""event"",""trial"",""time""
""focus"",""3"",""12753""
""focus"",""3"",""15492""
","""event"",""trial"",""time""
""fullscreenenter"",""5"",""23462""
","
","NaN","audio/tiger.mp3","","4","","","","","","","","","","","","","","","","","",""
"fullscreen","5","24442","0.0-5.0","1889","5038","8","Male","true","false","false","false","""event"",""trial"",""time""
""blur"",""3"",""12753""
""focus"",""3"",""12753""
""blur"",""3"",""15490""
""focus"",""3"",""15492""
""fullscreenenter"",""5"",""23462""
","""event"",""trial"",""time""
""blur"",""3"",""12753""
""blur"",""3"",""15490""
","""event"",""trial"",""time""
""focus"",""3"",""12753""
""focus"",""3"",""15492""
","""event"",""trial"",""time""
""fullscreenenter"",""5"",""23462""
","
","","","","","true","","","","","","","","","","","","","","","","",""
"d3-instructions","6","38039","0.0-6.0","1889","5038","8","Male","true","false","false","false","""event"",""trial"",""time""
""blur"",""3"",""12753""
""focus"",""3"",""12753""
""blur"",""3"",""15490""
""focus"",""3"",""15492""
""fullscreenenter"",""5"",""23462""
","""event"",""trial"",""time""
""blur"",""3"",""12753""
""blur"",""3"",""15490""
","""event"",""trial"",""time""
""focus"",""3"",""12753""
""focus"",""3"",""15492""
","""event"",""trial"",""time""
""fullscreenenter"",""5"",""23462""
","
","","","","","","","","","","","","","","","","","","","","","",""
"d3-instructions","7","46902","0.0-7.0","1889","5038","8","Male","true","false","false","false","""event"",""trial"",""time""
""blur"",""3"",""12753""
""focus"",""3"",""12753""
""blur"",""3"",""15490""
""focus"",""3"",""15492""
""fullscreenenter"",""5"",""23462""
","""event"",""trial"",""time""
""blur"",""3"",""12753""
""blur"",""3"",""15490""
","""event"",""trial"",""time""
""focus"",""3"",""12753""
""focus"",""3"",""15492""
","""event"",""trial"",""time""
""fullscreenenter"",""5"",""23462""
","
","","","","","","","","","","","","","","","","","","","","","",""
"d3-instructions","8","54928","0.0-8.0","1889","5038","8","Male","true","false","false","false","""event"",""trial"",""time""
""blur"",""3"",""12753""
""focus"",""3"",""12753""
""blur"",""3"",""15490""
""focus"",""3"",""15492""
""fullscreenenter"",""5"",""23462""
","""event"",""trial"",""time""
""blur"",""3"",""12753""
""blur"",""3"",""15490""
","""event"",""trial"",""time""
""focus"",""3"",""12753""
""focus"",""3"",""15492""
","""event"",""trial"",""time""
""fullscreenenter"",""5"",""23462""
","
","","","","","","","","","","","","","","","","","","","","","",""
"d3-instructions","9","67005","0.0-9.0","1889","5038","8","Male","true","false","false","false","""event"",""trial"",""time""
""blur"",""3"",""12753""
""focus"",""3"",""12753""
""blur"",""3"",""15490""
""focus"",""3"",""15492""
""fullscreenenter"",""5"",""23462""
","""event"",""trial"",""time""
""blur"",""3"",""12753""
""blur"",""3"",""15490""
","""event"",""trial"",""time""
""focus"",""3"",""12753""
""focus"",""3"",""15492""
","""event"",""trial"",""time""
""fullscreenenter"",""5"",""23462""
","
","","","","","","","","","","","","","","","","","","","","","",""
"d3-instructions","10","86848","0.0-10.0","1889","5038","8","Male","true","false","false","false","""event"",""trial"",""time""
""blur"",""3"",""12753""
""focus"",""3"",""12753""
""blur"",""3"",""15490""
""focus"",""3"",""15492""
""fullscreenenter"",""5"",""23462""
","""event"",""trial"",""time""
""blur"",""3"",""12753""
""blur"",""3"",""15490""
","""event"",""trial"",""time""
""focus"",""3"",""12753""
""focus"",""3"",""15492""
","""event"",""trial"",""time""
""fullscreenenter"",""5"",""23462""
","
","","","","","","","","","","","","","","","","","","","","","",""
"d3-animate-choice","11","91421","0.0-11.0","1889","5038","8","Male","true","false","false","false","""event"",""trial"",""time""
""blur"",""3"",""12753""
""focus"",""3"",""12753""
""blur"",""3"",""15490""
""focus"",""3"",""15492""
""fullscreenenter"",""5"",""23462""
","""event"",""trial"",""time""
""blur"",""3"",""12753""
""blur"",""3"",""15490""
","""event"",""trial"",""time""
""focus"",""3"",""12753""
""focus"",""3"",""15492""
","""event"",""trial"",""time""
""fullscreenenter"",""5"",""23462""
","
","2543","","48","","","3000","1","","","images/tutgreenplanet.jpg","images/tutalien1","images/tutalien2","null","images/tutalien1","","NA","practice","null","","","",""
"d3-animate-choice","12","94901","0.0-12.0","1889","5038","8","Male","true","false","false","false","""event"",""trial"",""time""
""blur"",""3"",""12753""
""focus"",""3"",""12753""
""blur"",""3"",""15490""
""focus"",""3"",""15492""
""fullscreenenter"",""5"",""23462""
","""event"",""trial"",""time""
""blur"",""3"",""12753""
""blur"",""3"",""15490""
","""event"",""trial"",""time""
""focus"",""3"",""12753""
""focus"",""3"",""15492""
","""event"",""trial"",""time""
""fullscreenenter"",""5"",""23462""
","
","1458.0999999046326","","49","","","3000","1","","","images/tutgreenplanet.jpg","images/tutalien1","images/tutalien2","null","images/tutalien2","","NA","practice","null","","","",""
"d3-animate-choice","13","97526","0.0-13.0","1889","5038","8","Male","true","false","false","false","""event"",""trial"",""time""
""blur"",""3"",""12753""
""focus"",""3"",""12753""
""blur"",""3"",""15490""
""focus"",""3"",""15492""
""fullscreenenter"",""5"",""23462""
","""event"",""trial"",""time""
""blur"",""3"",""12753""
""blur"",""3"",""15490""
","""event"",""trial"",""time""
""focus"",""3"",""12753""
""focus"",""3"",""15492""
","""event"",""trial"",""time""
""fullscreenenter"",""5"",""23462""
","
","603","","48","","","3000","1","2291.2000000476837","48","images/tutgreenplanet.jpg","images/tutalien1","images/tutalien2","null","images/tutalien1","","NA","practice","null","","","",""
"d3-animate-choice","14","99550","0.0-14.0","1889","5038","8","Male","true","false","false","false","""event"",""trial"",""time""
""blur"",""3"",""12753""
""focus"",""3"",""12753""
""blur"",""3"",""15490""
""focus"",""3"",""15492""
""fullscreenenter"",""5"",""23462""
","""event"",""trial"",""time""
""blur"",""3"",""12753""
""blur"",""3"",""15490""
","""event"",""trial"",""time""
""focus"",""3"",""12753""
""focus"",""3"",""15492""
","""event"",""trial"",""time""
""fullscreenenter"",""5"",""23462""
","
","0.2999999523162842","","48","","","3000","1","247.09999990463257,427.7999999523163,654.5999999046326,877.3999998569489,1139.5,1383.7000000476837,1566,1950.7000000476837","48,48,48,48,48,48,48,48","images/tutgreenplanet.jpg","images/tutalien1","images/tutalien2","null","images/tutalien1","","NA","practice","null","","","",""
"d3-instructions","15","108777","0.0-15.0","1889","5038","8","Male","true","false","false","false","""event"",""trial"",""time""
""blur"",""3"",""12753""
""focus"",""3"",""12753""
""blur"",""3"",""15490""
""focus"",""3"",""15492""
""fullscreenenter"",""5"",""23462""
","""event"",""trial"",""time""
""blur"",""3"",""12753""
""blur"",""3"",""15490""
","""event"",""trial"",""time""
""focus"",""3"",""12753""
""focus"",""3"",""15492""
","""event"",""trial"",""time""
""fullscreenenter"",""5"",""23462""
","
","","","","","","","","","","","","","","","","","","","","","",""
"d3-instructions","16","116428","0.0-16.0","1889","5038","8","Male","true","false","false","false","""event"",""trial"",""time""
""blur"",""3"",""12753""
""focus"",""3"",""12753""
""blur"",""3"",""15490""
""focus"",""3"",""15492""
""fullscreenenter"",""5"",""23462""
","""event"",""trial"",""time""
""blur"",""3"",""12753""
""blur"",""3"",""15490""
","""event"",""trial"",""time""
""focus"",""3"",""12753""
""focus"",""3"",""15492""
","""event"",""trial"",""time""
""fullscreenenter"",""5"",""23462""
","
","","","","","","","","","","","","","","","","","","","","","",""
"d3-instructions","17","125578","0.0-17.0","1889","5038","8","Male","true","false","false","false","""event"",""trial"",""time""
""blur"",""3"",""12753""
""focus"",""3"",""12753""
""blur"",""3"",""15490""
""focus"",""3"",""15492""
""fullscreenenter"",""5"",""23462""
","""event"",""trial"",""time""
""blur"",""3"",""12753""
""blur"",""3"",""15490""
","""event"",""trial"",""time""
""focus"",""3"",""12753""
""focus"",""3"",""15492""
","""event"",""trial"",""time""
""fullscreenenter"",""5"",""23462""
","
","","","","","","","","","","","","","","","","","","","","","",""
"d3-instructions","18","139052","0.0-18.0","1889","5038","8","Male","true","false","false","false","""event"",""trial"",""time""
""blur"",""3"",""12753""
""focus"",""3"",""12753""
""blur"",""3"",""15490""
""focus"",""3"",""15492""
""fullscreenenter"",""5"",""23462""
","""event"",""trial"",""time""
""blur"",""3"",""12753""
""blur"",""3"",""15490""
","""event"",""trial"",""time""
""focus"",""3"",""12753""
""focus"",""3"",""15492""
","""event"",""trial"",""time""
""fullscreenenter"",""5"",""23462""
","
","","","","","","","","","","","","","","","","","","","","","",""
"d3-instructions","19","151904","0.0-19.0","1889","5038","8","Male","true","false","false","false","""event"",""trial"",""time""
""blur"",""3"",""12753""
""focus"",""3"",""12753""
""blur"",""3"",""15490""
""focus"",""3"",""15492""
""fullscreenenter"",""5"",""23462""
","""event"",""trial"",""time""
""blur"",""3"",""12753""
""blur"",""3"",""15490""
","""event"",""trial"",""time""
""focus"",""3"",""12753""
""focus"",""3"",""15492""
","""event"",""trial"",""time""
""fullscreenenter"",""5"",""23462""
","
","","","","","","","","","","","","","","","","","","","","","",""
"d3-animate-choice","20","155510","0.0-20.0","1889","5038","8","Male","true","false","false","false","""event"",""trial"",""time""
""blur"",""3"",""12753""
""focus"",""3"",""12753""
""blur"",""3"",""15490""
""focus"",""3"",""15492""
""fullscreenenter"",""5"",""23462""
","""event"",""trial"",""time""
""blur"",""3"",""12753""
""blur"",""3"",""15490""
","""event"",""trial"",""time""
""focus"",""3"",""12753""
""focus"",""3"",""15492""
","""event"",""trial"",""time""
""fullscreenenter"",""5"",""23462""
","
","1580.1999998092651","","49","","","3000","1","","","images/tutyellowplanet.jpg","null","images/tutalien3","null","images/tutalien3","images/t.png","NA","practice","null","","","",""
"d3-animate-choice","21","157939","0.0-21.0","1889","5038","8","Male","true","false","false","false","""event"",""trial"",""time""
""blur"",""3"",""12753""
""focus"",""3"",""12753""
""blur"",""3"",""15490""
""focus"",""3"",""15492""
""fullscreenenter"",""5"",""23462""
","""event"",""trial"",""time""
""blur"",""3"",""12753""
""blur"",""3"",""15490""
","""event"",""trial"",""time""
""focus"",""3"",""12753""
""focus"",""3"",""15492""
","""event"",""trial"",""time""
""fullscreenenter"",""5"",""23462""
","
","403.40000009536743","","49","","","3000","1","","","images/tutyellowplanet.jpg","null","images/tutalien3","null","images/tutalien3","images/t.png","NA","practice","null","","","",""
"d3-animate-choice","22","160349","0.0-22.0","1889","5038","8","Male","true","false","false","false","""event"",""trial"",""time""
""blur"",""3"",""12753""
""focus"",""3"",""12753""
""blur"",""3"",""15490""
""focus"",""3"",""15492""
""fullscreenenter"",""5"",""23462""
","""event"",""trial"",""time""
""blur"",""3"",""12753""
""blur"",""3"",""15490""
","""event"",""trial"",""time""
""focus"",""3"",""12753""
""focus"",""3"",""15492""
","""event"",""trial"",""time""
""fullscreenenter"",""5"",""23462""
","
","396.7000000476837","","49","","","3000","1","","","images/tutyellowplanet.jpg","null","images/tutalien3","null","images/tutalien3","images/t.png","NA","practice","null","","","",""
"d3-animate-choice","23","162709","0.0-23.0","1889","5038","8","Male","true","false","false","false","""event"",""trial"",""time""
""blur"",""3"",""12753""
""focus"",""3"",""12753""
""blur"",""3"",""15490""
""focus"",""3"",""15492""
""fullscreenenter"",""5"",""23462""
","""event"",""trial"",""time""
""blur"",""3"",""12753""
""blur"",""3"",""15490""
","""event"",""trial"",""time""
""focus"",""3"",""12753""
""focus"",""3"",""15492""
","""event"",""trial"",""time""
""fullscreenenter"",""5"",""23462""
","
","344","","49","","","3000","1","","","images/tutyellowplanet.jpg","null","images/tutalien3","null","images/tutalien3","images/t.png","NA","practice","null","","","",""
"d3-animate-choice","24","165039","0.0-24.0","1889","5038","8","Male","true","false","false","false","""event"",""trial"",""time""
""blur"",""3"",""12753""
""focus"",""3"",""12753""
""blur"",""3"",""15490""
""focus"",""3"",""15492""
""fullscreenenter"",""5"",""23462""
","""event"",""trial"",""time""
""blur"",""3"",""12753""
""blur"",""3"",""15490""
","""event"",""trial"",""time""
""focus"",""3"",""12753""
""focus"",""3"",""15492""
","""event"",""trial"",""time""
""fullscreenenter"",""5"",""23462""
","
","314.2999999523163","","49","","","3000","1","","","images/tutyellowplanet.jpg","null","images/tutalien3","null","images/tutalien3","images/nothing.png","NA","practice","null","","","",""
"d3-animate-choice","25","167410","0.0-25.0","1889","5038","8","Male","true","false","false","false","""event"",""trial"",""time""
""blur"",""3"",""12753""
""focus"",""3"",""12753""
""blur"",""3"",""15490""
""focus"",""3"",""15492""
""fullscreenenter"",""5"",""23462""
","""event"",""trial"",""time""
""blur"",""3"",""12753""
""blur"",""3"",""15490""
","""event"",""trial"",""time""
""focus"",""3"",""12753""
""focus"",""3"",""15492""
","""event"",""trial"",""time""
""fullscreenenter"",""5"",""23462""
","
","346.2000000476837","","49","","","3000","1","","","images/tutyellowplanet.jpg","null","images/tutalien3","null","images/tutalien3","images/t.png","NA","practice","null","","","",""
"d3-animate-choice","26","169685","0.0-26.0","1889","5038","8","Male","true","false","false","false","""event"",""trial"",""time""
""blur"",""3"",""12753""
""focus"",""3"",""12753""
""blur"",""3"",""15490""
""focus"",""3"",""15492""
""fullscreenenter"",""5"",""23462""
","""event"",""trial"",""time""
""blur"",""3"",""12753""
""blur"",""3"",""15490""
","""event"",""trial"",""time""
""focus"",""3"",""12753""
""focus"",""3"",""15492""
","""event"",""trial"",""time""
""fullscreenenter"",""5"",""23462""
","
","266.2999999523163","","49","","","3000","1","","","images/tutyellowplanet.jpg","null","images/tutalien3","null","images/tutalien3","images/nothing.png","NA","practice","null","","","",""
"d3-animate-choice","27","172040","0.0-27.0","1889","5038","8","Male","true","false","false","false","""event"",""trial"",""time""
""blur"",""3"",""12753""
""focus"",""3"",""12753""
""blur"",""3"",""15490""
""focus"",""3"",""15492""
""fullscreenenter"",""5"",""23462""
","""event"",""trial"",""time""
""blur"",""3"",""12753""
""blur"",""3"",""15490""
","""event"",""trial"",""time""
""focus"",""3"",""12753""
""focus"",""3"",""15492""
","""event"",""trial"",""time""
""fullscreenenter"",""5"",""23462""
","
","333.2999999523163","","49","","","3000","1","","","images/tutyellowplanet.jpg","null","images/tutalien3","null","images/tutalien3","images/nothing.png","NA","practice","null","","","",""
"d3-animate-choice","28","175799","0.0-28.0","1889","5038","8","Male","true","false","false","false","""event"",""trial"",""time""
""blur"",""3"",""12753""
""focus"",""3"",""12753""
""blur"",""3"",""15490""
""focus"",""3"",""15492""
""fullscreenenter"",""5"",""23462""
","""event"",""trial"",""time""
""blur"",""3"",""12753""
""blur"",""3"",""15490""
","""event"",""trial"",""time""
""focus"",""3"",""12753""
""focus"",""3"",""15492""
","""event"",""trial"",""time""
""fullscreenenter"",""5"",""23462""
","
","1744.7000000476837","","49","","","3000","1","","","images/tutyellowplanet.jpg","null","images/tutalien3","null","images/tutalien3","images/t.png","NA","practice","null","","","",""
"d3-animate-choice","29","178399","0.0-29.0","1889","5038","8","Male","true","false","false","false","""event"",""trial"",""time""
""blur"",""3"",""12753""
""focus"",""3"",""12753""
""blur"",""3"",""15490""
""focus"",""3"",""15492""
""fullscreenenter"",""5"",""23462""
","""event"",""trial"",""time""
""blur"",""3"",""12753""
""blur"",""3"",""15490""
","""event"",""trial"",""time""
""focus"",""3"",""12753""
""focus"",""3"",""15492""
","""event"",""trial"",""time""
""fullscreenenter"",""5"",""23462""
","
","570.2999999523163","","49","","","3000","1","","","images/tutyellowplanet.jpg","null","images/tutalien3","null","images/tutalien3","images/t.png","NA","practice","null","","","",""
"d3-instructions","30","184856","0.0-30.0","1889","5038","8","Male","true","false","false","false","""event"",""trial"",""time""
""blur"",""3"",""12753""
""focus"",""3"",""12753""
""blur"",""3"",""15490""
""focus"",""3"",""15492""
""fullscreenenter"",""5"",""23462""
","""event"",""trial"",""time""
""blur"",""3"",""12753""
""blur"",""3"",""15490""
","""event"",""trial"",""time""
""focus"",""3"",""12753""
""focus"",""3"",""15492""
","""event"",""trial"",""time""
""fullscreenenter"",""5"",""23462""
","
","","","","","","","","","","","","","","","","","","","","","",""
"d3-instructions","31","194882","0.0-31.0","1889","5038","8","Male","true","false","false","false","""event"",""trial"",""time""
""blur"",""3"",""12753""
""focus"",""3"",""12753""
""blur"",""3"",""15490""
""focus"",""3"",""15492""
""fullscreenenter"",""5"",""23462""
","""event"",""trial"",""time""
""blur"",""3"",""12753""
""blur"",""3"",""15490""
","""event"",""trial"",""time""
""focus"",""3"",""12753""
""focus"",""3"",""15492""
","""event"",""trial"",""time""
""fullscreenenter"",""5"",""23462""
","
","","","","","","","","","","","","","","","","","","","","","",""
"d3-instructions","32","202049","0.0-32.0","1889","5038","8","Male","true","false","false","false","""event"",""trial"",""time""
""blur"",""3"",""12753""
""focus"",""3"",""12753""
""blur"",""3"",""15490""
""focus"",""3"",""15492""
""fullscreenenter"",""5"",""23462""
","""event"",""trial"",""time""
""blur"",""3"",""12753""
""blur"",""3"",""15490""
","""event"",""trial"",""time""
""focus"",""3"",""12753""
""focus"",""3"",""15492""
","""event"",""trial"",""time""
""fullscreenenter"",""5"",""23462""
","
","","","","","","","","","","","","","","","","","","","","","",""
"d3-instructions","33","213686","0.0-33.0","1889","5038","8","Male","true","false","false","false","""event"",""trial"",""time""
""blur"",""3"",""12753""
""focus"",""3"",""12753""
""blur"",""3"",""15490""
""focus"",""3"",""15492""
""fullscreenenter"",""5"",""23462""
","""event"",""trial"",""time""
""blur"",""3"",""12753""
""blur"",""3"",""15490""
","""event"",""trial"",""time""
""focus"",""3"",""12753""
""focus"",""3"",""15492""
","""event"",""trial"",""time""
""fullscreenenter"",""5"",""23462""
","
","","","","","","","","","","","","","","","","","","","","","",""
"d3-animate-choice","34","218189","0.0-34.0","1889","5038","8","Male","true","false","false","false","""event"",""trial"",""time""
""blur"",""3"",""12753""
""focus"",""3"",""12753""
""blur"",""3"",""15490""
""focus"",""3"",""15492""
""fullscreenenter"",""5"",""23462""
","""event"",""trial"",""time""
""blur"",""3"",""12753""
""blur"",""3"",""15490""
","""event"",""trial"",""time""
""focus"",""3"",""12753""
""focus"",""3"",""15492""
","""event"",""trial"",""time""
""fullscreenenter"",""5"",""23462""
","
","2485","","48","","","3000","1","","","images/tutgreenplanet.jpg","images/tutalien1","images/tutalien2","null","images/tutalien1","images/nothing.png","NA","practice","null","","","",""
"d3-animate-choice","35","220799","0.0-35.0","1889","5038","8","Male","true","false","false","false","""event"",""trial"",""time""
""blur"",""3"",""12753""
""focus"",""3"",""12753""
""blur"",""3"",""15490""
""focus"",""3"",""15492""
""fullscreenenter"",""5"",""23462""
","""event"",""trial"",""time""
""blur"",""3"",""12753""
""blur"",""3"",""15490""
","""event"",""trial"",""time""
""focus"",""3"",""12753""
""focus"",""3"",""15492""
","""event"",""trial"",""time""
""fullscreenenter"",""5"",""23462""
","
","586.7000000476837","","49","","","3000","1","","","images/tutgreenplanet.jpg","images/tutalien1","images/tutalien2","null","images/tutalien2","images/t.png","NA","practice","null","","","",""
"d3-animate-choice","36","223579","0.0-36.0","1889","5038","8","Male","true","false","false","false","""event"",""trial"",""time""
""blur"",""3"",""12753""
""focus"",""3"",""12753""
""blur"",""3"",""15490""
""focus"",""3"",""15492""
""fullscreenenter"",""5"",""23462""
","""event"",""trial"",""time""
""blur"",""3"",""12753""
""blur"",""3"",""15490""
","""event"",""trial"",""time""
""focus"",""3"",""12753""
""focus"",""3"",""15492""
","""event"",""trial"",""time""
""fullscreenenter"",""5"",""23462""
","
","772.5","","49","","","3000","1","","","images/tutgreenplanet.jpg","images/tutalien1","images/tutalien2","null","images/tutalien2","images/t.png","NA","practice","null","","","",""
"d3-animate-choice","37","226230","0.0-37.0","1889","5038","8","Male","true","false","false","false","""event"",""trial"",""time""
""blur"",""3"",""12753""
""focus"",""3"",""12753""
""blur"",""3"",""15490""
""focus"",""3"",""15492""
""fullscreenenter"",""5"",""23462""
","""event"",""trial"",""time""
""blur"",""3"",""12753""
""blur"",""3"",""15490""
","""event"",""trial"",""time""
""focus"",""3"",""12753""
""focus"",""3"",""15492""
","""event"",""trial"",""time""
""fullscreenenter"",""5"",""23462""
","
","619.8000001907349","","49","","","3000","1","","","images/tutgreenplanet.jpg","images/tutalien1","images/tutalien2","null","images/tutalien2","images/t.png","NA","practice","null","","","",""
"d3-animate-choice","38","228659","0.0-38.0","1889","5038","8","Male","true","false","false","false","""event"",""trial"",""time""
""blur"",""3"",""12753""
""focus"",""3"",""12753""
""blur"",""3"",""15490""
""focus"",""3"",""15492""
""fullscreenenter"",""5"",""23462""
","""event"",""trial"",""time""
""blur"",""3"",""12753""
""blur"",""3"",""15490""
","""event"",""trial"",""time""
""focus"",""3"",""12753""
""focus"",""3"",""15492""
","""event"",""trial"",""time""
""fullscreenenter"",""5"",""23462""
","
","413.60000014305115","","49","","","3000","1","","","images/tutgreenplanet.jpg","images/tutalien1","images/tutalien2","null","images/tutalien2","images/t.png","NA","practice","null","","","",""
"d3-animate-choice","39","230999","0.0-39.0","1889","5038","8","Male","true","false","false","false","""event"",""trial"",""time""
""blur"",""3"",""12753""
""focus"",""3"",""12753""
""blur"",""3"",""15490""
""focus"",""3"",""15492""
""fullscreenenter"",""5"",""23462""
","""event"",""trial"",""time""
""blur"",""3"",""12753""
""blur"",""3"",""15490""
","""event"",""trial"",""time""
""focus"",""3"",""12753""
""focus"",""3"",""15492""
","""event"",""trial"",""time""
""fullscreenenter"",""5"",""23462""
","
","322.90000009536743","","49","","","3000","1","","","images/tutgreenplanet.jpg","images/tutalien1","images/tutalien2","null","images/tutalien2","images/t.png","NA","practice","null","","","",""
"d3-animate-choice","40","233389","0.0-40.0","1889","5038","8","Male","true","false","false","false","""event"",""trial"",""time""
""blur"",""3"",""12753""
""focus"",""3"",""12753""
""blur"",""3"",""15490""
""focus"",""3"",""15492""
""fullscreenenter"",""5"",""23462""
","""event"",""trial"",""time""
""blur"",""3"",""12753""
""blur"",""3"",""15490""
","""event"",""trial"",""time""
""focus"",""3"",""12753""
""focus"",""3"",""15492""
","""event"",""trial"",""time""
""fullscreenenter"",""5"",""23462""
","
","377.89999985694885","","49","","","3000","1","","","images/tutgreenplanet.jpg","images/tutalien1","images/tutalien2","null","images/tutalien2","images/t.png","NA","practice","null","","","",""
"d3-animate-choice","41","235739","0.0-41.0","1889","5038","8","Male","true","false","false","false","""event"",""trial"",""time""
""blur"",""3"",""12753""
""focus"",""3"",""12753""
""blur"",""3"",""15490""
""focus"",""3"",""15492""
""fullscreenenter"",""5"",""23462""
","""event"",""trial"",""time""
""blur"",""3"",""12753""
""blur"",""3"",""15490""
","""event"",""trial"",""time""
""focus"",""3"",""12753""
""focus"",""3"",""15492""
","""event"",""trial"",""time""
""fullscreenenter"",""5"",""23462""
","
","333.59999990463257","","49","","","3000","1","","","images/tutgreenplanet.jpg","images/tutalien1","images/tutalien2","null","images/tutalien2","images/t.png","NA","practice","null","","","",""
"d3-animate-choice","42","238229","0.0-42.0","1889","5038","8","Male","true","false","false","false","""event"",""trial"",""time""
""blur"",""3"",""12753""
""focus"",""3"",""12753""
""blur"",""3"",""15490""
""focus"",""3"",""15492""
""fullscreenenter"",""5"",""23462""
","""event"",""trial"",""time""
""blur"",""3"",""12753""
""blur"",""3"",""15490""
","""event"",""trial"",""time""
""focus"",""3"",""12753""
""focus"",""3"",""15492""
","""event"",""trial"",""time""
""fullscreenenter"",""5"",""23462""
","
","469.60000014305115","","49","","","3000","1","","","images/tutgreenplanet.jpg","images/tutalien1","images/tutalien2","null","images/tutalien2","images/t.png","NA","practice","null","","","",""
"d3-animate-choice","43","240540","0.0-43.0","1889","5038","8","Male","true","false","false","false","""event"",""trial"",""time""
""blur"",""3"",""12753""
""focus"",""3"",""12753""
""blur"",""3"",""15490""
""focus"",""3"",""15492""
""fullscreenenter"",""5"",""23462""
","""event"",""trial"",""time""
""blur"",""3"",""12753""
""blur"",""3"",""15490""
","""event"",""trial"",""time""
""focus"",""3"",""12753""
""focus"",""3"",""15492""
","""event"",""trial"",""time""
""fullscreenenter"",""5"",""23462""
","
","302","","49","","","3000","1","","","images/tutgreenplanet.jpg","images/tutalien1","images/tutalien2","null","images/tutalien2","images/t.png","NA","practice","null","","","",""
"d3-instructions","44","254031","0.0-44.0","1889","5038","8","Male","true","false","false","false","""event"",""trial"",""time""
""blur"",""3"",""12753""
""focus"",""3"",""12753""
""blur"",""3"",""15490""
""focus"",""3"",""15492""
""fullscreenenter"",""5"",""23462""
","""event"",""trial"",""time""
""blur"",""3"",""12753""
""blur"",""3"",""15490""
","""event"",""trial"",""time""
""focus"",""3"",""12753""
""focus"",""3"",""15492""
","""event"",""trial"",""time""
""fullscreenenter"",""5"",""23462""
","
","","","","","","","","","","","","","","","","","","","","","",""
"d3-instructions","45","260547","0.0-45.0","1889","5038","8","Male","true","false","false","false","""event"",""trial"",""time""
""blur"",""3"",""12753""
""focus"",""3"",""12753""
""blur"",""3"",""15490""
""focus"",""3"",""15492""
""fullscreenenter"",""5"",""23462""
","""event"",""trial"",""time""
""blur"",""3"",""12753""
""blur"",""3"",""15490""
","""event"",""trial"",""time""
""focus"",""3"",""12753""
""focus"",""3"",""15492""
","""event"",""trial"",""time""
""fullscreenenter"",""5"",""23462""
","
","","","","","","","","","","","","","","","","","","","","","",""
"d3-instructions","46","265961","0.0-46.0","1889","5038","8","Male","true","false","false","false","""event"",""trial"",""time""
""blur"",""3"",""12753""
""focus"",""3"",""12753""
""blur"",""3"",""15490""
""focus"",""3"",""15492""
""fullscreenenter"",""5"",""23462""
","""event"",""trial"",""time""
""blur"",""3"",""12753""
""blur"",""3"",""15490""
","""event"",""trial"",""time""
""focus"",""3"",""12753""
""focus"",""3"",""15492""
","""event"",""trial"",""time""
""fullscreenenter"",""5"",""23462""
","
","","","","","","","","","","","","","","","","","","","","","",""
"d3-instructions","47","283290","0.0-47.0","1889","5038","8","Male","true","false","false","false","""event"",""trial"",""time""
""blur"",""3"",""12753""
""focus"",""3"",""12753""
""blur"",""3"",""15490""
""focus"",""3"",""15492""
""fullscreenenter"",""5"",""23462""
","""event"",""trial"",""time""
""blur"",""3"",""12753""
""blur"",""3"",""15490""
","""event"",""trial"",""time""
""focus"",""3"",""12753""
""focus"",""3"",""15492""
","""event"",""trial"",""time""
""fullscreenenter"",""5"",""23462""
","
","","","","","","","","","","","","","","","","","","","","","",""
"d3-instructions","48","289958","0.0-48.0","1889","5038","8","Male","true","false","false","false","""event"",""trial"",""time""
""blur"",""3"",""12753""
""focus"",""3"",""12753""
""blur"",""3"",""15490""
""focus"",""3"",""15492""
""fullscreenenter"",""5"",""23462""
","""event"",""trial"",""time""
""blur"",""3"",""12753""
""blur"",""3"",""15490""
","""event"",""trial"",""time""
""focus"",""3"",""12753""
""focus"",""3"",""15492""
","""event"",""trial"",""time""
""fullscreenenter"",""5"",""23462""
","
","","","","","","","","","","","","","","","","","","","","","",""
"d3-instructions","49","301211","0.0-49.0","1889","5038","8","Male","true","false","false","false","""event"",""trial"",""time""
""blur"",""3"",""12753""
""focus"",""3"",""12753""
""blur"",""3"",""15490""
""focus"",""3"",""15492""
""fullscreenenter"",""5"",""23462""
","""event"",""trial"",""time""
""blur"",""3"",""12753""
""blur"",""3"",""15490""
","""event"",""trial"",""time""
""focus"",""3"",""12753""
""focus"",""3"",""15492""
","""event"",""trial"",""time""
""fullscreenenter"",""5"",""23462""
","
","","","","","","","","","","","","","","","","","","","","","",""
"d3-instructions","50","309922","0.0-50.0","1889","5038","8","Male","true","false","false","false","""event"",""trial"",""time""
""blur"",""3"",""12753""
""focus"",""3"",""12753""
""blur"",""3"",""15490""
""focus"",""3"",""15492""
""fullscreenenter"",""5"",""23462""
","""event"",""trial"",""time""
""blur"",""3"",""12753""
""blur"",""3"",""15490""
","""event"",""trial"",""time""
""focus"",""3"",""12753""
""focus"",""3"",""15492""
","""event"",""trial"",""time""
""fullscreenenter"",""5"",""23462""
","
","","","","","","","","","","","","","","","","","","","","","",""
"d3-instructions","51","313861","0.0-51.0","1889","5038","8","Male","true","false","false","false","""event"",""trial"",""time""
""blur"",""3"",""12753""
""focus"",""3"",""12753""
""blur"",""3"",""15490""
""focus"",""3"",""15492""
""fullscreenenter"",""5"",""23462""
","""event"",""trial"",""time""
""blur"",""3"",""12753""
""blur"",""3"",""15490""
","""event"",""trial"",""time""
""focus"",""3"",""12753""
""focus"",""3"",""15492""
","""event"",""trial"",""time""
""fullscreenenter"",""5"",""23462""
","
","","","","","","","","","","","","","","","","","","","","","",""
"d3-instructions","52","318296","0.0-52.0","1889","5038","8","Male","true","false","false","false","""event"",""trial"",""time""
""blur"",""3"",""12753""
""focus"",""3"",""12753""
""blur"",""3"",""15490""
""focus"",""3"",""15492""
""fullscreenenter"",""5"",""23462""
","""event"",""trial"",""time""
""blur"",""3"",""12753""
""blur"",""3"",""15490""
","""event"",""trial"",""time""
""focus"",""3"",""12753""
""focus"",""3"",""15492""
","""event"",""trial"",""time""
""fullscreenenter"",""5"",""23462""
","
","","","","","","","","","","","","","","","","","","","","","",""
"d3-instructions","53","330876","0.0-53.0","1889","5038","8","Male","true","false","false","false","""event"",""trial"",""time""
""blur"",""3"",""12753""
""focus"",""3"",""12753""
""blur"",""3"",""15490""
""focus"",""3"",""15492""
""fullscreenenter"",""5"",""23462""
","""event"",""trial"",""time""
""blur"",""3"",""12753""
""blur"",""3"",""15490""
","""event"",""trial"",""time""
""focus"",""3"",""12753""
""focus"",""3"",""15492""
","""event"",""trial"",""time""
""fullscreenenter"",""5"",""23462""
","
","","","","","","","","","","","","","","","","","","","","","",""
"d3-instructions","54","343735","0.0-54.0","1889","5038","8","Male","true","false","false","false","""event"",""trial"",""time""
""blur"",""3"",""12753""
""focus"",""3"",""12753""
""blur"",""3"",""15490""
""focus"",""3"",""15492""
""fullscreenenter"",""5"",""23462""
","""event"",""trial"",""time""
""blur"",""3"",""12753""
""blur"",""3"",""15490""
","""event"",""trial"",""time""
""focus"",""3"",""12753""
""focus"",""3"",""15492""
","""event"",""trial"",""time""
""fullscreenenter"",""5"",""23462""
","
","","","","","","","","","","","","","","","","","","","","","",""
"d3-instructions","55","357422","0.0-55.0","1889","5038","8","Male","true","false","false","false","""event"",""trial"",""time""
""blur"",""3"",""12753""
""focus"",""3"",""12753""
""blur"",""3"",""15490""
""focus"",""3"",""15492""
""fullscreenenter"",""5"",""23462""
","""event"",""trial"",""time""
""blur"",""3"",""12753""
""blur"",""3"",""15490""
","""event"",""trial"",""time""
""focus"",""3"",""12753""
""focus"",""3"",""15492""
","""event"",""trial"",""time""
""fullscreenenter"",""5"",""23462""
","
","","","","","","","","","","","","","","","","","","","","","",""
"d3-instructions","56","368571","0.0-56.0","1889","5038","8","Male","true","false","false","false","""event"",""trial"",""time""
""blur"",""3"",""12753""
""focus"",""3"",""12753""
""blur"",""3"",""15490""
""focus"",""3"",""15492""
""fullscreenenter"",""5"",""23462""
","""event"",""trial"",""time""
""blur"",""3"",""12753""
""blur"",""3"",""15490""
","""event"",""trial"",""time""
""focus"",""3"",""12753""
""focus"",""3"",""15492""
","""event"",""trial"",""time""
""fullscreenenter"",""5"",""23462""
","
","","","","","","","","","","","","","","","","","","","","","",""
"d3-instructions","57","378179","0.0-57.0","1889","5038","8","Male","true","false","false","false","""event"",""trial"",""time""
""blur"",""3"",""12753""
""focus"",""3"",""12753""
""blur"",""3"",""15490""
""focus"",""3"",""15492""
""fullscreenenter"",""5"",""23462""
","""event"",""trial"",""time""
""blur"",""3"",""12753""
""blur"",""3"",""15490""
","""event"",""trial"",""time""
""focus"",""3"",""12753""
""focus"",""3"",""15492""
","""event"",""trial"",""time""
""fullscreenenter"",""5"",""23462""
","
","","","","","","","","","","","","","","","","","","","","","",""
"d3-instructions","58","388291","0.0-58.0","1889","5038","8","Male","true","false","false","false","""event"",""trial"",""time""
""blur"",""3"",""12753""
""focus"",""3"",""12753""
""blur"",""3"",""15490""
""focus"",""3"",""15492""
""fullscreenenter"",""5"",""23462""
","""event"",""trial"",""time""
""blur"",""3"",""12753""
""blur"",""3"",""15490""
","""event"",""trial"",""time""
""focus"",""3"",""12753""
""focus"",""3"",""15492""
","""event"",""trial"",""time""
""fullscreenenter"",""5"",""23462""
","
","","","","","","","","","","","","","","","","","","","","","",""
"d3-instructions","59","392392","0.0-59.0","1889","5038","8","Male","true","false","false","false","""event"",""trial"",""time""
""blur"",""3"",""12753""
""focus"",""3"",""12753""
""blur"",""3"",""15490""
""focus"",""3"",""15492""
""fullscreenenter"",""5"",""23462""
","""event"",""trial"",""time""
""blur"",""3"",""12753""
""blur"",""3"",""15490""
","""event"",""trial"",""time""
""focus"",""3"",""12753""
""focus"",""3"",""15492""
","""event"",""trial"",""time""
""fullscreenenter"",""5"",""23462""
","
","","","","","","","","","","","","","","","","","","","","","",""
"d3-instructions","60","399832","0.0-60.0","1889","5038","8","Male","true","false","false","false","""event"",""trial"",""time""
""blur"",""3"",""12753""
""focus"",""3"",""12753""
""blur"",""3"",""15490""
""focus"",""3"",""15492""
""fullscreenenter"",""5"",""23462""
","""event"",""trial"",""time""
""blur"",""3"",""12753""
""blur"",""3"",""15490""
","""event"",""trial"",""time""
""focus"",""3"",""12753""
""focus"",""3"",""15492""
","""event"",""trial"",""time""
""fullscreenenter"",""5"",""23462""
","
","","","","","","","","","","","","","","","","","","","","","",""
"d3-animate-choice","61","403860","0.0-61.0-0.0","1889","5038","8","Male","true","false","false","false","""event"",""trial"",""time""
""blur"",""3"",""12753""
""focus"",""3"",""12753""
""blur"",""3"",""15490""
""focus"",""3"",""15492""
""fullscreenenter"",""5"",""23462""
","""event"",""trial"",""time""
""blur"",""3"",""12753""
""blur"",""3"",""15490""
","""event"",""trial"",""time""
""focus"",""3"",""12753""
""focus"",""3"",""15492""
","""event"",""trial"",""time""
""fullscreenenter"",""5"",""23462""
","
","2181.2999999523163","","48","","","3000","1","","","images/earth.jpg","images/tutrocket2","images/tutrocket1","null","images/tutrocket2","","1","practice","null","2","","",""
"d3-animate-choice","62","407571","0.0-61.0-1.0","1889","5038","8","Male","true","false","false","false","""event"",""trial"",""time""
""blur"",""3"",""12753""
""focus"",""3"",""12753""
""blur"",""3"",""15490""
""focus"",""3"",""15492""
""fullscreenenter"",""5"",""23462""
","""event"",""trial"",""time""
""blur"",""3"",""12753""
""blur"",""3"",""15490""
","""event"",""trial"",""time""
""focus"",""3"",""12753""
""focus"",""3"",""15492""
","""event"",""trial"",""time""
""fullscreenenter"",""5"",""23462""
","
","1681.2000000476837","","49","","","3000","1","","","images/tutgreenplanet.jpg","images/tutalien2","images/tutalien1","images/tutrocket2","images/tutalien1","images/t.png","2","practice","true","1","common","1","2022-12-07 20:21:01.198"
"two-step-fixation","63","408580","0.0-61.0-2.0","1889","5038","8","Male","true","false","false","false","""event"",""trial"",""time""
""blur"",""3"",""12753""
""focus"",""3"",""12753""
""blur"",""3"",""15490""
""focus"",""3"",""15492""
""fullscreenenter"",""5"",""23462""
","""event"",""trial"",""time""
""blur"",""3"",""12753""
""blur"",""3"",""15490""
","""event"",""trial"",""time""
""focus"",""3"",""12753""
""focus"",""3"",""15492""
","""event"",""trial"",""time""
""fullscreenenter"",""5"",""23462""
","
","","images/earth.jpg","","","","","","","","","","","","","","fixation","","","","","",""
"d3-animate-choice","64","411599","0.0-61.0-0.1","1889","5038","8","Male","true","false","false","false","""event"",""trial"",""time""
""blur"",""3"",""12753""
""focus"",""3"",""12753""
""blur"",""3"",""15490""
""focus"",""3"",""15492""
""fullscreenenter"",""5"",""23462""
","""event"",""trial"",""time""
""blur"",""3"",""12753""
""blur"",""3"",""15490""
","""event"",""trial"",""time""
""focus"",""3"",""12753""
""focus"",""3"",""15492""
","""event"",""trial"",""time""
""fullscreenenter"",""5"",""23462""
","
","992.7999999523163","","48","","","3000","1","","","images/earth.jpg","images/tutrocket2","images/tutrocket1","null","images/tutrocket2","","1","practice","null","2","","",""
"d3-animate-choice","65","414359","0.0-61.0-1.1","1889","5038","8","Male","true","false","false","false","""event"",""trial"",""time""
""blur"",""3"",""12753""
""focus"",""3"",""12753""
""blur"",""3"",""15490""
""focus"",""3"",""15492""
""fullscreenenter"",""5"",""23462""
","""event"",""trial"",""time""
""blur"",""3"",""12753""
""blur"",""3"",""15490""
","""event"",""trial"",""time""
""focus"",""3"",""12753""
""focus"",""3"",""15492""
","""event"",""trial"",""time""
""fullscreenenter"",""5"",""23462""
","
","735.7000000476837","","49","","","3000","1","","","images/tutgreenplanet.jpg","images/tutalien2","images/tutalien1","images/tutrocket2","images/tutalien1","images/nothing.png","2","practice","true","1","common","0","2022-12-07 20:21:07.986"
"two-step-fixation","66","415379","0.0-61.0-2.1","1889","5038","8","Male","true","false","false","false","""event"",""trial"",""time""
""blur"",""3"",""12753""
""focus"",""3"",""12753""
""blur"",""3"",""15490""
""focus"",""3"",""15492""
""fullscreenenter"",""5"",""23462""
","""event"",""trial"",""time""
""blur"",""3"",""12753""
""blur"",""3"",""15490""
","""event"",""trial"",""time""
""focus"",""3"",""12753""
""focus"",""3"",""15492""
","""event"",""trial"",""time""
""fullscreenenter"",""5"",""23462""
","
","","images/earth.jpg","","","","","","","","","","","","","","fixation","","","","","",""
"d3-animate-choice","67","417899","0.0-61.0-0.2","1889","5038","8","Male","true","false","false","false","""event"",""trial"",""time""
""blur"",""3"",""12753""
""focus"",""3"",""12753""
""blur"",""3"",""15490""
""focus"",""3"",""15492""
""fullscreenenter"",""5"",""23462""
","""event"",""trial"",""time""
""blur"",""3"",""12753""
""blur"",""3"",""15490""
","""event"",""trial"",""time""
""focus"",""3"",""12753""
""focus"",""3"",""15492""
","""event"",""trial"",""time""
""fullscreenenter"",""5"",""23462""
","
","506.09999990463257","","49","","","3000","1","","","images/earth.jpg","images/tutrocket2","images/tutrocket1","null","images/tutrocket1","","1","practice","null","1","","",""
"d3-animate-choice","68","420820","0.0-61.0-1.2","1889","5038","8","Male","true","false","false","false","""event"",""trial"",""time""
""blur"",""3"",""12753""
""focus"",""3"",""12753""
""blur"",""3"",""15490""
""focus"",""3"",""15492""
""fullscreenenter"",""5"",""23462""
","""event"",""trial"",""time""
""blur"",""3"",""12753""
""blur"",""3"",""15490""
","""event"",""trial"",""time""
""focus"",""3"",""12753""
""focus"",""3"",""15492""
","""event"",""trial"",""time""
""fullscreenenter"",""5"",""23462""
","
","910.3999998569489","","48","","","3000","1","","","images/tutyellowplanet.jpg","images/tutalien4","images/tutalien3","images/tutrocket1","images/tutalien4","images/t.png","2","practice","true","2","common","1","2022-12-07 20:21:14.447"
"two-step-fixation","69","421828","0.0-61.0-2.2","1889","5038","8","Male","true","false","false","false","""event"",""trial"",""time""
""blur"",""3"",""12753""
""focus"",""3"",""12753""
""blur"",""3"",""15490""
""focus"",""3"",""15492""
""fullscreenenter"",""5"",""23462""
","""event"",""trial"",""time""
""blur"",""3"",""12753""
""blur"",""3"",""15490""
","""event"",""trial"",""time""
""focus"",""3"",""12753""
""focus"",""3"",""15492""
","""event"",""trial"",""time""
""fullscreenenter"",""5"",""23462""
","
","","images/earth.jpg","","","","","","","","","","","","","","fixation","","","","","",""
"d3-animate-choice","70","424779","0.0-61.0-0.3","1889","5038","8","Male","true","false","false","false","""event"",""trial"",""time""
""blur"",""3"",""12753""
""focus"",""3"",""12753""
""blur"",""3"",""15490""
""focus"",""3"",""15492""
""fullscreenenter"",""5"",""23462""
","""event"",""trial"",""time""
""blur"",""3"",""12753""
""blur"",""3"",""15490""
","""event"",""trial"",""time""
""focus"",""3"",""12753""
""focus"",""3"",""15492""
","""event"",""trial"",""time""
""fullscreenenter"",""5"",""23462""
","
","936.0999999046326","","49","","","3000","1","","","images/earth.jpg","images/tutrocket2","images/tutrocket1","null","images/tutrocket1","","1","practice","null","1","","",""
"d3-animate-choice","71","427939","0.0-61.0-1.3","1889","5038","8","Male","true","false","false","false","""event"",""trial"",""time""
""blur"",""3"",""12753""
""focus"",""3"",""12753""
""blur"",""3"",""15490""
""focus"",""3"",""15492""
""fullscreenenter"",""5"",""23462""
","""event"",""trial"",""time""
""blur"",""3"",""12753""
""blur"",""3"",""15490""
","""event"",""trial"",""time""
""focus"",""3"",""12753""
""focus"",""3"",""15492""
","""event"",""trial"",""time""
""fullscreenenter"",""5"",""23462""
","
","1147.5999999046326","","48","","","3000","1","","","images/tutyellowplanet.jpg","images/tutalien4","images/tutalien3","images/tutrocket1","images/tutalien4","images/nothing.png","2","practice","true","2","common","0","2022-12-07 20:21:21.566"
"two-step-fixation","72","428954","0.0-61.0-2.3","1889","5038","8","Male","true","false","false","false","""event"",""trial"",""time""
""blur"",""3"",""12753""
""focus"",""3"",""12753""
""blur"",""3"",""15490""
""focus"",""3"",""15492""
""fullscreenenter"",""5"",""23462""
","""event"",""trial"",""time""
""blur"",""3"",""12753""
""blur"",""3"",""15490""
","""event"",""trial"",""time""
""focus"",""3"",""12753""
""focus"",""3"",""15492""
","""event"",""trial"",""time""
""fullscreenenter"",""5"",""23462""
","
","","images/earth.jpg","","","","","","","","","","","","","","fixation","","","","","",""
"d3-animate-choice","73","431459","0.0-61.0-0.4","1889","5038","8","Male","true","false","false","false","""event"",""trial"",""time""
""blur"",""3"",""12753""
""focus"",""3"",""12753""
""blur"",""3"",""15490""
""focus"",""3"",""15492""
""fullscreenenter"",""5"",""23462""
","""event"",""trial"",""time""
""blur"",""3"",""12753""
""blur"",""3"",""15490""
","""event"",""trial"",""time""
""focus"",""3"",""12753""
""focus"",""3"",""15492""
","""event"",""trial"",""time""
""fullscreenenter"",""5"",""23462""
","
","495.40000009536743","","49","","","3000","1","517.2000000476837","48","images/earth.jpg","images/tutrocket2","images/tutrocket1","null","images/tutrocket1","","1","practice","null","1","","",""
"d3-animate-choice","74","434302","0.0-61.0-1.4","1889","5038","8","Male","true","false","false","false","""event"",""trial"",""time""
""blur"",""3"",""12753""
""focus"",""3"",""12753""
""blur"",""3"",""15490""
""focus"",""3"",""15492""
""fullscreenenter"",""5"",""23462""
","""event"",""trial"",""time""
""blur"",""3"",""12753""
""blur"",""3"",""15490""
","""event"",""trial"",""time""
""focus"",""3"",""12753""
""focus"",""3"",""15492""
","""event"",""trial"",""time""
""fullscreenenter"",""5"",""23462""
","
","830.8999998569489","","49","","","3000","1","872.0999999046326","48","images/tutyellowplanet.jpg","images/tutalien4","images/tutalien3","images/tutrocket1","images/tutalien3","images/nothing.png","2","practice","true","1","common","0","2022-12-07 20:21:27.930"
"two-step-fixation","75","435311","0.0-61.0-2.4","1889","5038","8","Male","true","false","false","false","""event"",""trial"",""time""
""blur"",""3"",""12753""
""focus"",""3"",""12753""
""blur"",""3"",""15490""
""focus"",""3"",""15492""
""fullscreenenter"",""5"",""23462""
","""event"",""trial"",""time""
""blur"",""3"",""12753""
""blur"",""3"",""15490""
","""event"",""trial"",""time""
""focus"",""3"",""12753""
""focus"",""3"",""15492""
","""event"",""trial"",""time""
""fullscreenenter"",""5"",""23462""
","
","","images/earth.jpg","","","","","","","","","","","","","","fixation","","","","","",""
"d3-animate-choice","76","438215","0.0-61.0-0.5","1889","5038","8","Male","true","false","false","false","""event"",""trial"",""time""
""blur"",""3"",""12753""
""focus"",""3"",""12753""
""blur"",""3"",""15490""
""focus"",""3"",""15492""
""fullscreenenter"",""5"",""23462""
","""event"",""trial"",""time""
""blur"",""3"",""12753""
""blur"",""3"",""15490""
","""event"",""trial"",""time""
""focus"",""3"",""12753""
""focus"",""3"",""15492""
","""event"",""trial"",""time""
""fullscreenenter"",""5"",""23462""
","
","894.6000001430511","","49","","","3000","1","913.6000001430511","48","images/earth.jpg","images/tutrocket2","images/tutrocket1","null","images/tutrocket1","","1","practice","null","1","","",""
"d3-animate-choice","77","440899","0.0-61.0-1.5","1889","5038","8","Male","true","false","false","false","""event"",""trial"",""time""
""blur"",""3"",""12753""
""focus"",""3"",""12753""
""blur"",""3"",""15490""
""focus"",""3"",""15492""
""fullscreenenter"",""5"",""23462""
","""event"",""trial"",""time""
""blur"",""3"",""12753""
""blur"",""3"",""15490""
","""event"",""trial"",""time""
""focus"",""3"",""12753""
""focus"",""3"",""15492""
","""event"",""trial"",""time""
""fullscreenenter"",""5"",""23462""
","
","667","","49","","","3000","1","705.8999998569489","48","images/tutyellowplanet.jpg","images/tutalien4","images/tutalien3","images/tutrocket1","images/tutalien3","images/nothing.png","2","practice","true","1","common","0","2022-12-07 20:21:34.526"
"two-step-fixation","78","441910","0.0-61.0-2.5","1889","5038","8","Male","true","false","false","false","""event"",""trial"",""time""
""blur"",""3"",""12753""
""focus"",""3"",""12753""
""blur"",""3"",""15490""
""focus"",""3"",""15492""
""fullscreenenter"",""5"",""23462""
","""event"",""trial"",""time""
""blur"",""3"",""12753""
""blur"",""3"",""15490""
","""event"",""trial"",""time""
""focus"",""3"",""12753""
""focus"",""3"",""15492""
","""event"",""trial"",""time""
""fullscreenenter"",""5"",""23462""
","
","","images/earth.jpg","","","","","","","","","","","","","","fixation","","","","","",""
"d3-animate-choice","79","444029","0.0-61.0-0.6","1889","5038","8","Male","true","false","false","false","""event"",""trial"",""time""
""blur"",""3"",""12753""
""focus"",""3"",""12753""
""blur"",""3"",""15490""
""focus"",""3"",""15492""
""fullscreenenter"",""5"",""23462""
","""event"",""trial"",""time""
""blur"",""3"",""12753""
""blur"",""3"",""15490""
","""event"",""trial"",""time""
""focus"",""3"",""12753""
""focus"",""3"",""15492""
","""event"",""trial"",""time""
""fullscreenenter"",""5"",""23462""
","
","103.40000009536743","","48","","","3000","1","614.5,1261.1000001430511,1557.2000000476837,2025","48,48,48,48","images/earth.jpg","images/tutrocket2","images/tutrocket1","null","images/tutrocket2","","1","practice","null","2","","",""
"d3-animate-choice","80","446213","0.0-61.0-1.6","1889","5038","8","Male","true","false","false","false","""event"",""trial"",""time""
""blur"",""3"",""12753""
""focus"",""3"",""12753""
""blur"",""3"",""15490""
""focus"",""3"",""15492""
""fullscreenenter"",""5"",""23462""
","""event"",""trial"",""time""
""blur"",""3"",""12753""
""blur"",""3"",""15490""
","""event"",""trial"",""time""
""focus"",""3"",""12753""
""focus"",""3"",""15492""
","""event"",""trial"",""time""
""fullscreenenter"",""5"",""23462""
","
","175.29999995231628","","48","","","3000","1","362,561.4000000953674,949.0999999046326,1398.5,1780.4000000953674","48,48,48,48,48","images/tutgreenplanet.jpg","images/tutalien2","images/tutalien1","images/tutrocket2","images/tutalien2","images/nothing.png","2","practice","true","2","common","0","2022-12-07 20:21:39.840"
"two-step-fixation","81","447235","0.0-61.0-2.6","1889","5038","8","Male","true","false","false","false","""event"",""trial"",""time""
""blur"",""3"",""12753""
""focus"",""3"",""12753""
""blur"",""3"",""15490""
""focus"",""3"",""15492""
""fullscreenenter"",""5"",""23462""
","""event"",""trial"",""time""
""blur"",""3"",""12753""
""blur"",""3"",""15490""
","""event"",""trial"",""time""
""focus"",""3"",""12753""
""focus"",""3"",""15492""
","""event"",""trial"",""time""
""fullscreenenter"",""5"",""23462""
","
","","images/earth.jpg","","","","","","","","","","","","","","fixation","","","","","",""
"d3-animate-choice","82","449593","0.0-61.0-0.7","1889","5038","8","Male","true","false","false","false","""event"",""trial"",""time""
""blur"",""3"",""12753""
""focus"",""3"",""12753""
""blur"",""3"",""15490""
""focus"",""3"",""15492""
""fullscreenenter"",""5"",""23462""
","""event"",""trial"",""time""
""blur"",""3"",""12753""
""blur"",""3"",""15490""
","""event"",""trial"",""time""
""focus"",""3"",""12753""
""focus"",""3"",""15492""
","""event"",""trial"",""time""
""fullscreenenter"",""5"",""23462""
","
","350.2000000476837","","48","","","3000","1","1273.4000000953674,1542.4000000953674,1999.5999999046326,2186.5999999046326","48,48,48,48","images/earth.jpg","images/tutrocket2","images/tutrocket1","null","images/tutrocket2","","1","practice","null","2","","",""
"d3-animate-choice","83","451689","0.0-61.0-1.7","1889","5038","8","Male","true","false","false","false","""event"",""trial"",""time""
""blur"",""3"",""12753""
""focus"",""3"",""12753""
""blur"",""3"",""15490""
""focus"",""3"",""15492""
""fullscreenenter"",""5"",""23462""
","""event"",""trial"",""time""
""blur"",""3"",""12753""
""blur"",""3"",""15490""
","""event"",""trial"",""time""
""focus"",""3"",""12753""
""focus"",""3"",""15492""
","""event"",""trial"",""time""
""fullscreenenter"",""5"",""23462""
","
","76.40000009536743","","48","","","3000","1","268.90000009536743,466.09999990463257,769,842.7999999523163,1004.9000000953674,1063.0999999046326,1262.0999999046326,1267.2999999523163,1515.2000000476837,1680.0999999046326,1758.2999999523163","48,49,49,48,49,48,49,48,49,48,49","images/tutgreenplanet.jpg","images/tutalien2","images/tutalien1","images/tutrocket2","images/tutalien2","images/nothing.png","2","practice","true","2","common","0","2022-12-07 20:21:45.316"
"two-step-fixation","84","452703","0.0-61.0-2.7","1889","5038","8","Male","true","false","false","false","""event"",""trial"",""time""
""blur"",""3"",""12753""
""focus"",""3"",""12753""
""blur"",""3"",""15490""
""focus"",""3"",""15492""
""fullscreenenter"",""5"",""23462""
","""event"",""trial"",""time""
""blur"",""3"",""12753""
""blur"",""3"",""15490""
","""event"",""trial"",""time""
""focus"",""3"",""12753""
""focus"",""3"",""15492""
","""event"",""trial"",""time""
""fullscreenenter"",""5"",""23462""
","
","","images/earth.jpg","","","","","","","","","","","","","","fixation","","","","","",""
"d3-animate-choice","85","454876","0.0-61.0-0.8","1889","5038","8","Male","true","false","false","false","""event"",""trial"",""time""
""blur"",""3"",""12753""
""focus"",""3"",""12753""
""blur"",""3"",""15490""
""focus"",""3"",""15492""
""fullscreenenter"",""5"",""23462""
","""event"",""trial"",""time""
""blur"",""3"",""12753""
""blur"",""3"",""15490""
","""event"",""trial"",""time""
""focus"",""3"",""12753""
""focus"",""3"",""15492""
","""event"",""trial"",""time""
""fullscreenenter"",""5"",""23462""
","
","164.20000004768372","","48","","","3000","1","253.60000014305115,359.30000019073486,507.30000019073486,826,1080.6000001430511,1403.1000001430511,1676.5,1916.7000000476837","49,48,49,48,49,49,49,49","images/earth.jpg","images/tutrocket2","images/tutrocket1","null","images/tutrocket2","","1","practice","null","2","","",""
"d3-animate-choice","86","456899","0.0-61.0-1.8","1889","5038","8","Male","true","false","false","false","""event"",""trial"",""time""
""blur"",""3"",""12753""
""focus"",""3"",""12753""
""blur"",""3"",""15490""
""focus"",""3"",""15492""
""fullscreenenter"",""5"",""23462""
","""event"",""trial"",""time""
""blur"",""3"",""12753""
""blur"",""3"",""15490""
","""event"",""trial"",""time""
""focus"",""3"",""12753""
""focus"",""3"",""15492""
","""event"",""trial"",""time""
""fullscreenenter"",""5"",""23462""
","
","11","","49","","","3000","1","265,527.1999998092651,866.5999999046326,1136.1999998092651,1446.3999998569489,1728.5999999046326","49,49,49,49,49,49","images/tutgreenplanet.jpg","images/tutalien2","images/tutalien1","images/tutrocket2","images/tutalien1","images/nothing.png","2","practice","true","1","common","0","2022-12-07 20:21:50.527"
"two-step-fixation","87","457909","0.0-61.0-2.8","1889","5038","8","Male","true","false","false","false","""event"",""trial"",""time""
""blur"",""3"",""12753""
""focus"",""3"",""12753""
""blur"",""3"",""15490""
""focus"",""3"",""15492""
""fullscreenenter"",""5"",""23462""
","""event"",""trial"",""time""
""blur"",""3"",""12753""
""blur"",""3"",""15490""
","""event"",""trial"",""time""
""focus"",""3"",""12753""
""focus"",""3"",""15492""
","""event"",""trial"",""time""
""fullscreenenter"",""5"",""23462""
","
","","images/earth.jpg","","","","","","","","","","","","","","fixation","","","","","",""
"d3-animate-choice","88","460069","0.0-61.0-0.9","1889","5038","8","Male","true","false","false","false","""event"",""trial"",""time""
""blur"",""3"",""12753""
""focus"",""3"",""12753""
""blur"",""3"",""15490""
""focus"",""3"",""15492""
""fullscreenenter"",""5"",""23462""
","""event"",""trial"",""time""
""blur"",""3"",""12753""
""blur"",""3"",""15490""
","""event"",""trial"",""time""
""focus"",""3"",""12753""
""focus"",""3"",""15492""
","""event"",""trial"",""time""
""fullscreenenter"",""5"",""23462""
","
","142.20000004768372","","48","","","3000","1","332.59999990463257,1654.5999999046326,1957.2999999523163","48,49,49","images/earth.jpg","images/tutrocket2","images/tutrocket1","null","images/tutrocket2","","1","practice","null","2","","",""
"d3-animate-choice","89","462141","0.0-61.0-1.9","1889","5038","8","Male","true","false","false","false","""event"",""trial"",""time""
""blur"",""3"",""12753""
""focus"",""3"",""12753""
""blur"",""3"",""15490""
""focus"",""3"",""15492""
""fullscreenenter"",""5"",""23462""
","""event"",""trial"",""time""
""blur"",""3"",""12753""
""blur"",""3"",""15490""
","""event"",""trial"",""time""
""focus"",""3"",""12753""
""focus"",""3"",""15492""
","""event"",""trial"",""time""
""fullscreenenter"",""5"",""23462""
","
","63.60000014305115","","49","","","3000","1","322.10000014305115,599.4000000953674,871.9000000953674,1193,1513.6000001430511,1841.9000000953674","49,49,49,49,49,49","images/tutyellowplanet.jpg","images/tutalien4","images/tutalien3","images/tutrocket2","images/tutalien3","images/t.png","2","practice","false","1","rare","1","2022-12-07 20:21:55.769"
"two-step-fixation","90","463152","0.0-61.0-2.9","1889","5038","8","Male","true","false","false","false","""event"",""trial"",""time""
""blur"",""3"",""12753""
""focus"",""3"",""12753""
""blur"",""3"",""15490""
""focus"",""3"",""15492""
""fullscreenenter"",""5"",""23462""
","""event"",""trial"",""time""
""blur"",""3"",""12753""
""blur"",""3"",""15490""
","""event"",""trial"",""time""
""focus"",""3"",""12753""
""focus"",""3"",""15492""
","""event"",""trial"",""time""
""fullscreenenter"",""5"",""23462""
","
","","images/earth.jpg","","","","","","","","","","","","","","fixation","","","","","",""
"d3-animate-choice","91","465378","0.0-61.0-0.10","1889","5038","8","Male","true","false","false","false","""event"",""trial"",""time""
""blur"",""3"",""12753""
""focus"",""3"",""12753""
""blur"",""3"",""15490""
""focus"",""3"",""15492""
""fullscreenenter"",""5"",""23462""
","""event"",""trial"",""time""
""blur"",""3"",""12753""
""blur"",""3"",""15490""
","""event"",""trial"",""time""
""focus"",""3"",""12753""
""focus"",""3"",""15492""
","""event"",""trial"",""time""
""fullscreenenter"",""5"",""23462""
","
","212.79999995231628","","48","","","3000","1","1686,1964.1000001430511","49,49","images/earth.jpg","images/tutrocket2","images/tutrocket1","null","images/tutrocket2","","1","practice","null","2","","",""
"d3-animate-choice","92","467402","0.0-61.0-1.10","1889","5038","8","Male","true","false","false","false","""event"",""trial"",""time""
""blur"",""3"",""12753""
""focus"",""3"",""12753""
""blur"",""3"",""15490""
""focus"",""3"",""15492""
""fullscreenenter"",""5"",""23462""
","""event"",""trial"",""time""
""blur"",""3"",""12753""
""blur"",""3"",""15490""
","""event"",""trial"",""time""
""focus"",""3"",""12753""
""focus"",""3"",""15492""
","""event"",""trial"",""time""
""fullscreenenter"",""5"",""23462""
","
","9.599999904632568","","49","","","3000","1","1876.1999998092651","48","images/tutyellowplanet.jpg","images/tutalien4","images/tutalien3","images/tutrocket2","images/tutalien3","images/nothing.png","2","practice","false","1","rare","0","2022-12-07 20:22:01.029"
"two-step-fixation","93","468415","0.0-61.0-2.10","1889","5038","8","Male","true","false","false","false","""event"",""trial"",""time""
""blur"",""3"",""12753""
""focus"",""3"",""12753""
""blur"",""3"",""15490""
""focus"",""3"",""15492""
""fullscreenenter"",""5"",""23462""
","""event"",""trial"",""time""
""blur"",""3"",""12753""
""blur"",""3"",""15490""
","""event"",""trial"",""time""
""focus"",""3"",""12753""
""focus"",""3"",""15492""
","""event"",""trial"",""time""
""fullscreenenter"",""5"",""23462""
","
","","images/earth.jpg","","","","","","","","","","","","","","fixation","","","","","",""
"d3-animate-choice","94","470508","0.0-61.0-0.11","1889","5038","8","Male","true","false","false","false","""event"",""trial"",""time""
""blur"",""3"",""12753""
""focus"",""3"",""12753""
""blur"",""3"",""15490""
""focus"",""3"",""15492""
""fullscreenenter"",""5"",""23462""
","""event"",""trial"",""time""
""blur"",""3"",""12753""
""blur"",""3"",""15490""
","""event"",""trial"",""time""
""focus"",""3"",""12753""
""focus"",""3"",""15492""
","""event"",""trial"",""time""
""fullscreenenter"",""5"",""23462""
","
","80.10000014305115","","48","","","3000","1","","","images/earth.jpg","images/tutrocket2","images/tutrocket1","null","images/tutrocket2","","1","practice","null","2","","",""
"d3-animate-choice","95","473014","0.0-61.0-1.11","1889","5038","8","Male","true","false","false","false","""event"",""trial"",""time""
""blur"",""3"",""12753""
""focus"",""3"",""12753""
""blur"",""3"",""15490""
""focus"",""3"",""15492""
""fullscreenenter"",""5"",""23462""
","""event"",""trial"",""time""
""blur"",""3"",""12753""
""blur"",""3"",""15490""
","""event"",""trial"",""time""
""focus"",""3"",""12753""
""focus"",""3"",""15492""
","""event"",""trial"",""time""
""fullscreenenter"",""5"",""23462""
","
","495.89999985694885","","49","","","3000","1","2226.7000000476837,2378.0999999046326","49,48","images/tutyellowplanet.jpg","images/tutalien4","images/tutalien3","images/tutrocket2","images/tutalien3","images/nothing.png","2","practice","false","1","rare","0","2022-12-07 20:22:06.641"
"two-step-fixation","96","474028","0.0-61.0-2.11","1889","5038","8","Male","true","false","false","false","""event"",""trial"",""time""
""blur"",""3"",""12753""
""focus"",""3"",""12753""
""blur"",""3"",""15490""
""focus"",""3"",""15492""
""fullscreenenter"",""5"",""23462""
","""event"",""trial"",""time""
""blur"",""3"",""12753""
""blur"",""3"",""15490""
","""event"",""trial"",""time""
""focus"",""3"",""12753""
""focus"",""3"",""15492""
","""event"",""trial"",""time""
""fullscreenenter"",""5"",""23462""
","
","","images/earth.jpg","","","","","","","","","","","","","","fixation","","","","","",""
"d3-animate-choice","97","476059","0.0-61.0-0.12","1889","5038","8","Male","true","false","false","false","""event"",""trial"",""time""
""blur"",""3"",""12753""
""focus"",""3"",""12753""
""blur"",""3"",""15490""
""focus"",""3"",""15492""
""fullscreenenter"",""5"",""23462""
","""event"",""trial"",""time""
""blur"",""3"",""12753""
""blur"",""3"",""15490""
","""event"",""trial"",""time""
""focus"",""3"",""12753""
""focus"",""3"",""15492""
","""event"",""trial"",""time""
""fullscreenenter"",""5"",""23462""
","
","21.40000009536743","","49","","","3000","1","107.70000004768372,327.2000000476837,369.10000014305115,559.4000000953674,607.7000000476837,775,871.2000000476837,962.5,1170.4000000953674,1173.2999999523163,1384.6000001430511,1467.2000000476837,1749.5,1798.9000000953674","48,49,48,48,49,48,49,48,48,49,48,49,49,48","images/earth.jpg","images/tutrocket2","images/tutrocket1","null","images/tutrocket1","","1","practice","null","1","","",""
"d3-animate-choice","98","478168","0.0-61.0-1.12","1889","5038","8","Male","true","false","false","false","""event"",""trial"",""time""
""blur"",""3"",""12753""
""focus"",""3"",""12753""
""blur"",""3"",""15490""
""focus"",""3"",""15492""
""fullscreenenter"",""5"",""23462""
","""event"",""trial"",""time""
""blur"",""3"",""12753""
""blur"",""3"",""15490""
","""event"",""trial"",""time""
""focus"",""3"",""12753""
""focus"",""3"",""15492""
","""event"",""trial"",""time""
""fullscreenenter"",""5"",""23462""
","
","95.20000004768372","","49","","","3000","1","395,408,606.2999999523163,696.7999999523163,830.2999999523163,993.5999999046326,1042.7000000476837,1284.4000000953674,1307.7000000476837,1493.0999999046326,1597.7999999523163,1723.2999999523163,1895.5","48,49,48,49,48,49,48,48,49,48,49,48,49","images/tutyellowplanet.jpg","images/tutalien4","images/tutalien3","images/tutrocket1","images/tutalien3","images/nothing.png","2","practice","true","1","common","0","2022-12-07 20:22:11.795"
"two-step-fixation","99","479178","0.0-61.0-2.12","1889","5038","8","Male","true","false","false","false","""event"",""trial"",""time""
""blur"",""3"",""12753""
""focus"",""3"",""12753""
""blur"",""3"",""15490""
""focus"",""3"",""15492""
""fullscreenenter"",""5"",""23462""
","""event"",""trial"",""time""
""blur"",""3"",""12753""
""blur"",""3"",""15490""
","""event"",""trial"",""time""
""focus"",""3"",""12753""
""focus"",""3"",""15492""
","""event"",""trial"",""time""
""fullscreenenter"",""5"",""23462""
","
","","images/earth.jpg","","","","","","","","","","","","","","fixation","","","","","",""
"d3-animate-choice","100","481189","0.0-61.0-0.13","1889","5038","8","Male","true","false","false","false","""event"",""trial"",""time""
""blur"",""3"",""12753""
""focus"",""3"",""12753""
""blur"",""3"",""15490""
""focus"",""3"",""15492""
""fullscreenenter"",""5"",""23462""
","""event"",""trial"",""time""
""blur"",""3"",""12753""
""blur"",""3"",""15490""
","""event"",""trial"",""time""
""focus"",""3"",""12753""
""focus"",""3"",""15492""
","""event"",""trial"",""time""
""fullscreenenter"",""5"",""23462""
","
","0.3000001907348633","","48","","","3000","1","36.60000014305115,234.20000004768372,328.30000019073486,456,626.1000001430511,692.4000000953674,934.6000001430511,1124.8000001907349,1238.1000001430511,1384.3000001907349,1541.4000000953674,1632,1871.2000000476837","49,48,49,48,49,48,49,48,49,48,49,48,49","images/earth.jpg","images/tutrocket2","images/tutrocket1","null","images/tutrocket2","","1","practice","null","2","","",""
"d3-animate-choice","101","483314","0.0-61.0-1.13","1889","5038","8","Male","true","false","false","false","""event"",""trial"",""time""
""blur"",""3"",""12753""
""focus"",""3"",""12753""
""blur"",""3"",""15490""
""focus"",""3"",""15492""
""fullscreenenter"",""5"",""23462""
","""event"",""trial"",""time""
""blur"",""3"",""12753""
""blur"",""3"",""15490""
","""event"",""trial"",""time""
""focus"",""3"",""12753""
""focus"",""3"",""15492""
","""event"",""trial"",""time""
""fullscreenenter"",""5"",""23462""
","
","114.90000009536743","","48","","","3000","1","159.29999995231628,354.5,437.2000000476837,598.7000000476837,725.9000000953674,851.7000000476837,1029.6000001430511,1093.7999999523163,1332.7999999523163,1343.9000000953674,1568.9000000953674,1646.2000000476837,1826.2000000476837,1973.7999999523163,2091.7999999523163","49,48,49,48,49,48,49,48,49,48,48,49,48,49,48","images/tutgreenplanet.jpg","images/tutalien2","images/tutalien1","images/tutrocket2","images/tutalien2","images/t.png","2","practice","true","2","common","1","2022-12-07 20:22:16.942"
"two-step-fixation","102","484323","0.0-61.0-2.13","1889","5038","8","Male","true","false","false","false","""event"",""trial"",""time""
""blur"",""3"",""12753""
""focus"",""3"",""12753""
""blur"",""3"",""15490""
""focus"",""3"",""15492""
""fullscreenenter"",""5"",""23462""
","""event"",""trial"",""time""
""blur"",""3"",""12753""
""blur"",""3"",""15490""
","""event"",""trial"",""time""
""focus"",""3"",""12753""
""focus"",""3"",""15492""
","""event"",""trial"",""time""
""fullscreenenter"",""5"",""23462""
","
","","images/earth.jpg","","","","","","","","","","","","","","fixation","","","","","",""
"d3-animate-choice","103","486397","0.0-61.0-0.14","1889","5038","8","Male","true","false","false","false","""event"",""trial"",""time""
""blur"",""3"",""12753""
""focus"",""3"",""12753""
""blur"",""3"",""15490""
""focus"",""3"",""15492""
""fullscreenenter"",""5"",""23462""
","""event"",""trial"",""time""
""blur"",""3"",""12753""
""blur"",""3"",""15490""
","""event"",""trial"",""time""
""focus"",""3"",""12753""
""focus"",""3"",""15492""
","""event"",""trial"",""time""
""fullscreenenter"",""5"",""23462""
","
","63.09999990463257","","49","","","3000","1","391.5,441.09999990463257,701.2999999523163,708.2000000476837,931.3999998569489,1000.0999999046326,1182.8999998569489,1314,1443.8999998569489,1606.7000000476837,1705.3999998569489,1927.2999999523163,1981.5","49,48,48,49,48,49,48,49,48,49,48,49,48","images/earth.jpg","images/tutrocket2","images/tutrocket1","null","images/tutrocket1","","1","practice","null","1","","",""
"d3-animate-choice","104","488555","0.0-61.0-1.14","1889","5038","8","Male","true","false","false","false","""event"",""trial"",""time""
""blur"",""3"",""12753""
""focus"",""3"",""12753""
""blur"",""3"",""15490""
""focus"",""3"",""15492""
""fullscreenenter"",""5"",""23462""
","""event"",""trial"",""time""
""blur"",""3"",""12753""
""blur"",""3"",""15490""
","""event"",""trial"",""time""
""focus"",""3"",""12753""
""focus"",""3"",""15492""
","""event"",""trial"",""time""
""fullscreenenter"",""5"",""23462""
","
","147.59999990463257","","48","","","3000","1","194.29999995231628,407.90000009536743,489.09999990463257,655.4000000953674,848.2000000476837,902.5999999046326,1147.2000000476837,1179,1375.7000000476837,1498.5999999046326,1635,1805.7999999523163,1874.0999999046326,2084.2999999523163,2116","49,48,49,48,49,48,48,49,48,49,48,49,48,49,48","images/tutgreenplanet.jpg","images/tutalien2","images/tutalien1","images/tutrocket1","images/tutalien2","images/nothing.png","2","practice","false","2","rare","0","2022-12-07 20:22:22.182"
"two-step-fixation","105","489568","0.0-61.0-2.14","1889","5038","8","Male","true","false","false","false","""event"",""trial"",""time""
""blur"",""3"",""12753""
""focus"",""3"",""12753""
""blur"",""3"",""15490""
""focus"",""3"",""15492""
""fullscreenenter"",""5"",""23462""
","""event"",""trial"",""time""
""blur"",""3"",""12753""
""blur"",""3"",""15490""
","""event"",""trial"",""time""
""focus"",""3"",""12753""
""focus"",""3"",""15492""
","""event"",""trial"",""time""
""fullscreenenter"",""5"",""23462""
","
","","images/earth.jpg","","","","","","","","","","","","","","fixation","","","","","",""
"d3-animate-choice","106","491758","0.0-61.0-0.15","1889","5038","8","Male","true","false","false","false","""event"",""trial"",""time""
""blur"",""3"",""12753""
""focus"",""3"",""12753""
""blur"",""3"",""15490""
""focus"",""3"",""15492""
""fullscreenenter"",""5"",""23462""
","""event"",""trial"",""time""
""blur"",""3"",""12753""
""blur"",""3"",""15490""
","""event"",""trial"",""time""
""focus"",""3"",""12753""
""focus"",""3"",""15492""
","""event"",""trial"",""time""
""fullscreenenter"",""5"",""23462""
","
","184.10000014305115","","49","","","3000","1","227.80000019073486,480,526.4000000953674,756.1000001430511,841.3000001907349,1022.5,1214.6000001430511,1276.4000000953674,1528.1000001430511,1572.2000000476837,1809.3000001907349,1924.3000001907349,2085.300000190735","48,48,49,48,49,48,49,48,48,49,48,49,48","images/earth.jpg","images/tutrocket2","images/tutrocket1","null","images/tutrocket1","","1","practice","null","1","","",""
"d3-animate-choice","107","493851","0.0-61.0-1.15","1889","5038","8","Male","true","false","false","false","""event"",""trial"",""time""
""blur"",""3"",""12753""
""focus"",""3"",""12753""
""blur"",""3"",""15490""
""focus"",""3"",""15492""
""fullscreenenter"",""5"",""23462""
","""event"",""trial"",""time""
""blur"",""3"",""12753""
""blur"",""3"",""15490""
","""event"",""trial"",""time""
""focus"",""3"",""12753""
""focus"",""3"",""15492""
","""event"",""trial"",""time""
""fullscreenenter"",""5"",""23462""
","
","87.40000009536743","","49","","","3000","1","168.70000004768372,422.90000009536743,436,727.2999999523163,780.9000000953674,1017.4000000953674,1178.5,1395.2000000476837,1569.7000000476837,1755.5,1981.2000000476837","48,49,48,48,49,48,49,48,49,48,49","images/tutyellowplanet.jpg","images/tutalien4","images/tutalien3","images/tutrocket1","images/tutalien3","images/t.png","2","practice","true","1","common","1","2022-12-07 20:22:27.478"
"two-step-fixation","108","494855","0.0-61.0-2.15","1889","5038","8","Male","true","false","false","false","""event"",""trial"",""time""
""blur"",""3"",""12753""
""focus"",""3"",""12753""
""blur"",""3"",""15490""
""focus"",""3"",""15492""
""fullscreenenter"",""5"",""23462""
","""event"",""trial"",""time""
""blur"",""3"",""12753""
""blur"",""3"",""15490""
","""event"",""trial"",""time""
""focus"",""3"",""12753""
""focus"",""3"",""15492""
","""event"",""trial"",""time""
""fullscreenenter"",""5"",""23462""
","
","","images/earth.jpg","","","","","","","","","","","","","","fixation","","","","","",""
"d3-animate-choice","109","496973","0.0-61.0-0.16","1889","5038","8","Male","true","false","false","false","""event"",""trial"",""time""
""blur"",""3"",""12753""
""focus"",""3"",""12753""
""blur"",""3"",""15490""
""focus"",""3"",""15492""
""fullscreenenter"",""5"",""23462""
","""event"",""trial"",""time""
""blur"",""3"",""12753""
""blur"",""3"",""15490""
","""event"",""trial"",""time""
""focus"",""3"",""12753""
""focus"",""3"",""15492""
","""event"",""trial"",""time""
""fullscreenenter"",""5"",""23462""
","
","110.20000004768372","","49","","","3000","1","294.89999985694885,454.2999999523163,702.5,933.8999998569489,1126.7999999523163,1335.5,1499.3999998569489,1715.5,1908.5999999046326,2089.0999999046326","48,49,48,49,48,49,48,49,48,49","images/earth.jpg","images/tutrocket2","images/tutrocket1","null","images/tutrocket1","","1","practice","null","1","","",""
"d3-animate-choice","110","499169","0.0-61.0-1.16","1889","5038","8","Male","true","false","false","false","""event"",""trial"",""time""
""blur"",""3"",""12753""
""focus"",""3"",""12753""
""blur"",""3"",""15490""
""focus"",""3"",""15492""
""fullscreenenter"",""5"",""23462""
","""event"",""trial"",""time""
""blur"",""3"",""12753""
""blur"",""3"",""15490""
","""event"",""trial"",""time""
""focus"",""3"",""12753""
""focus"",""3"",""15492""
","""event"",""trial"",""time""
""fullscreenenter"",""5"",""23462""
","
","180.5","","48","","","3000","1","361.7000000476837,544.8000001907349,737,889.6000001430511,1122.9000000953674,1293.7000000476837,1500.2000000476837,1713.5,1916.1000001430511,2098.9000000953674","49,48,49,48,49,48,49,48,49,48","images/tutyellowplanet.jpg","images/tutalien4","images/tutalien3","images/tutrocket1","images/tutalien4","images/t.png","2","practice","true","2","common","1","2022-12-07 20:22:32.796"
"two-step-fixation","111","500182","0.0-61.0-2.16","1889","5038","8","Male","true","false","false","false","""event"",""trial"",""time""
""blur"",""3"",""12753""
""focus"",""3"",""12753""
""blur"",""3"",""15490""
""focus"",""3"",""15492""
""fullscreenenter"",""5"",""23462""
","""event"",""trial"",""time""
""blur"",""3"",""12753""
""blur"",""3"",""15490""
","""event"",""trial"",""time""
""focus"",""3"",""12753""
""focus"",""3"",""15492""
","""event"",""trial"",""time""
""fullscreenenter"",""5"",""23462""
","
","","images/earth.jpg","","","","","","","","","","","","","","fixation","","","","","",""
"d3-animate-choice","112","502226","0.0-61.0-0.17","1889","5038","8","Male","true","false","false","false","""event"",""trial"",""time""
""blur"",""3"",""12753""
""focus"",""3"",""12753""
""blur"",""3"",""15490""
""focus"",""3"",""15492""
""fullscreenenter"",""5"",""23462""
","""event"",""trial"",""time""
""blur"",""3"",""12753""
""blur"",""3"",""15490""
","""event"",""trial"",""time""
""focus"",""3"",""12753""
""focus"",""3"",""15492""
","""event"",""trial"",""time""
""fullscreenenter"",""5"",""23462""
","
","38.700000047683716","","48","","","3000","1","225.40000009536743,391.2000000476837,618.6000001430511,782.9000000953674,1151.6000001430511,1338.7000000476837,1566.3000001907349,1743.2000000476837,1945.4000000953674","49,48,49,48,48,49,48,49,48","images/earth.jpg","images/tutrocket2","images/tutrocket1","null","images/tutrocket2","","1","practice","null","2","","",""
"d3-animate-choice","113","504356","0.0-61.0-1.17","1889","5038","8","Male","true","false","false","false","""event"",""trial"",""time""
""blur"",""3"",""12753""
""focus"",""3"",""12753""
""blur"",""3"",""15490""
""focus"",""3"",""15492""
""fullscreenenter"",""5"",""23462""
","""event"",""trial"",""time""
""blur"",""3"",""12753""
""blur"",""3"",""15490""
","""event"",""trial"",""time""
""focus"",""3"",""12753""
""focus"",""3"",""15492""
","""event"",""trial"",""time""
""fullscreenenter"",""5"",""23462""
","
","117.79999995231628","","49","","","3000","1","265.59999990463257,499.19999980926514,613,838.5999999046326,893.2999999523163,1140.5999999046326,1204.8999998569489,1373.7999999523163,1592.0999999046326,1799,1808.2999999523163,2038.5","48,49,48,49,48,48,49,48,48,49,48,48","images/tutyellowplanet.jpg","images/tutalien4","images/tutalien3","images/tutrocket2","images/tutalien3","images/t.png","2","practice","false","1","rare","1","2022-12-07 20:22:37.984"
"two-step-fixation","114","505365","0.0-61.0-2.17","1889","5038","8","Male","true","false","false","false","""event"",""trial"",""time""
""blur"",""3"",""12753""
""focus"",""3"",""12753""
""blur"",""3"",""15490""
""focus"",""3"",""15492""
""fullscreenenter"",""5"",""23462""
","""event"",""trial"",""time""
""blur"",""3"",""12753""
""blur"",""3"",""15490""
","""event"",""trial"",""time""
""focus"",""3"",""12753""
""focus"",""3"",""15492""
","""event"",""trial"",""time""
""fullscreenenter"",""5"",""23462""
","
","","images/earth.jpg","","","","","","","","","","","","","","fixation","","","","","",""
"d3-animate-choice","115","507442","0.0-61.0-0.18","1889","5038","8","Male","true","false","false","false","""event"",""trial"",""time""
""blur"",""3"",""12753""
""focus"",""3"",""12753""
""blur"",""3"",""15490""
""focus"",""3"",""15492""
""fullscreenenter"",""5"",""23462""
","""event"",""trial"",""time""
""blur"",""3"",""12753""
""blur"",""3"",""15490""
","""event"",""trial"",""time""
""focus"",""3"",""12753""
""focus"",""3"",""15492""
","""event"",""trial"",""time""
""fullscreenenter"",""5"",""23462""
","
","69.79999995231628","","49","","","3000","1","128.09999990463257,355.5,378.59999990463257,709,862,1030,1115.2999999523163,1340.5999999046326,1431.7999999523163,1577.6999998092651,1757.3999998569489,1820.6999998092651,2053.399999856949","48,48,49,49,48,49,48,48,49,48,49,48,48","images/earth.jpg","images/tutrocket2","images/tutrocket1","null","images/tutrocket1","","1","practice","null","1","","",""
"d3-animate-choice","116","509669","0.0-61.0-1.18","1889","5038","8","Male","true","false","false","false","""event"",""trial"",""time""
""blur"",""3"",""12753""
""focus"",""3"",""12753""
""blur"",""3"",""15490""
""focus"",""3"",""15492""
""fullscreenenter"",""5"",""23462""
","""event"",""trial"",""time""
""blur"",""3"",""12753""
""blur"",""3"",""15490""
","""event"",""trial"",""time""
""focus"",""3"",""12753""
""focus"",""3"",""15492""
","""event"",""trial"",""time""
""fullscreenenter"",""5"",""23462""
","
","203.40000009536743","","48","","","3000","1","274.40000009536743,442.40000009536743,584.4000000953674,711.4000000953674,933.4000000953674,967.7000000476837,1199.9000000953674,1223.8000001907349,1452.9000000953674,1587.4000000953674,1963,1980.8000001907349,2202.5","49,48,49,48,49,48,48,49,48,49,48,49,48","images/tutgreenplanet.jpg","images/tutalien2","images/tutalien1","images/tutrocket1","images/tutalien2","images/nothing.png","2","practice","false","2","rare","0","2022-12-07 20:22:43.296"
"two-step-fixation","117","510676","0.0-61.0-2.18","1889","5038","8","Male","true","false","false","false","""event"",""trial"",""time""
""blur"",""3"",""12753""
""focus"",""3"",""12753""
""blur"",""3"",""15490""
""focus"",""3"",""15492""
""fullscreenenter"",""5"",""23462""
","""event"",""trial"",""time""
""blur"",""3"",""12753""
""blur"",""3"",""15490""
","""event"",""trial"",""time""
""focus"",""3"",""12753""
""focus"",""3"",""15492""
","""event"",""trial"",""time""
""fullscreenenter"",""5"",""23462""
","
","","images/earth.jpg","","","","","","","","","","","","","","fixation","","","","","",""
"d3-animate-choice","118","512688","0.0-61.0-0.19","1889","5038","8","Male","true","false","false","false","""event"",""trial"",""time""
""blur"",""3"",""12753""
""focus"",""3"",""12753""
""blur"",""3"",""15490""
""focus"",""3"",""15492""
""fullscreenenter"",""5"",""23462""
","""event"",""trial"",""time""
""blur"",""3"",""12753""
""blur"",""3"",""15490""
","""event"",""trial"",""time""
""focus"",""3"",""12753""
""focus"",""3"",""15492""
","""event"",""trial"",""time""
""fullscreenenter"",""5"",""23462""
","
","0.2999999523162842","","49","","","3000","1","300.59999990463257,317.89999985694885,640.8999998569489,649.3999998569489,963.6999998092651,1040.3999998569489,1378.2999999523163,1437.2999999523163,1777.3999998569489,1854.2999999523163","48,49,49,48,49,48,49,48,49,48","images/earth.jpg","images/tutrocket2","images/tutrocket1","null","images/tutrocket1","","1","practice","null","1","","",""
"d3-animate-choice","119","514915","0.0-61.0-1.19","1889","5038","8","Male","true","false","false","false","""event"",""trial"",""time""
""blur"",""3"",""12753""
""focus"",""3"",""12753""
""blur"",""3"",""15490""
""focus"",""3"",""15492""
""fullscreenenter"",""5"",""23462""
","""event"",""trial"",""time""
""blur"",""3"",""12753""
""blur"",""3"",""15490""
","""event"",""trial"",""time""
""focus"",""3"",""12753""
""focus"",""3"",""15492""
","""event"",""trial"",""time""
""fullscreenenter"",""5"",""23462""
","
","213.5","","49","","","3000","1","289.10000014305115,606.9000000953674,710.5,961.9000000953674,1142.4000000953674,1367.4000000953674,1554.7999999523163,1734,1958,2140.9000000953674","48,49,48,49,48,49,48,49,48,49","images/tutyellowplanet.jpg","images/tutalien4","images/tutalien3","images/tutrocket1","images/tutalien3","images/t.png","2","practice","true","1","common","1","2022-12-07 20:22:48.542"
"two-step-fixation","120","515921","0.0-61.0-2.19","1889","5038","8","Male","true","false","false","false","""event"",""trial"",""time""
""blur"",""3"",""12753""
""focus"",""3"",""12753""
""blur"",""3"",""15490""
""focus"",""3"",""15492""
""fullscreenenter"",""5"",""23462""
","""event"",""trial"",""time""
""blur"",""3"",""12753""
""blur"",""3"",""15490""
","""event"",""trial"",""time""
""focus"",""3"",""12753""
""focus"",""3"",""15492""
","""event"",""trial"",""time""
""fullscreenenter"",""5"",""23462""
","
","","images/earth.jpg","","","","","","","","","","","","","","fixation","","","","","",""
"d3-instructions","121","524587","0.0-62.0","1889","5038","8","Male","true","false","false","false","""event"",""trial"",""time""
""blur"",""3"",""12753""
""focus"",""3"",""12753""
""blur"",""3"",""15490""
""focus"",""3"",""15492""
""fullscreenenter"",""5"",""23462""
","""event"",""trial"",""time""
""blur"",""3"",""12753""
""blur"",""3"",""15490""
","""event"",""trial"",""time""
""focus"",""3"",""12753""
""focus"",""3"",""15492""
","""event"",""trial"",""time""
""fullscreenenter"",""5"",""23462""
","
","","","","","","","","","","","","","","","","","","","","","",""
"audio-keyboard-response","122","531671","0.0-63.0","1889","5038","8","Male","true","false","false","false","""event"",""trial"",""time""
""blur"",""3"",""12753""
""focus"",""3"",""12753""
""blur"",""3"",""15490""
""focus"",""3"",""15492""
""fullscreenenter"",""5"",""23462""
","""event"",""trial"",""time""
""blur"",""3"",""12753""
""blur"",""3"",""15490""
","""event"",""trial"",""time""
""focus"",""3"",""12753""
""focus"",""3"",""15492""
","""event"",""trial"",""time""
""fullscreenenter"",""5"",""23462""
","
","7080","audio/instructions/treasure_feedback.wav","32","","","","","","","","","","","","","","","","","","",""
"d3-instructions","123","551587","0.0-64.0","1889","5038","8","Male","true","false","false","false","""event"",""trial"",""time""
""blur"",""3"",""12753""
""focus"",""3"",""12753""
""blur"",""3"",""15490""
""focus"",""3"",""15492""
""fullscreenenter"",""5"",""23462""
","""event"",""trial"",""time""
""blur"",""3"",""12753""
""blur"",""3"",""15490""
","""event"",""trial"",""time""
""focus"",""3"",""12753""
""focus"",""3"",""15492""
","""event"",""trial"",""time""
""fullscreenenter"",""5"",""23462""
","
","","","","","","","","","","","","","","","","","","","","","",""
"d3-instructions","124","569395","0.0-65.0","1889","5038","8","Male","true","false","false","false","""event"",""trial"",""time""
""blur"",""3"",""12753""
""focus"",""3"",""12753""
""blur"",""3"",""15490""
""focus"",""3"",""15492""
""fullscreenenter"",""5"",""23462""
","""event"",""trial"",""time""
""blur"",""3"",""12753""
""blur"",""3"",""15490""
","""event"",""trial"",""time""
""focus"",""3"",""12753""
""focus"",""3"",""15492""
","""event"",""trial"",""time""
""fullscreenenter"",""5"",""23462""
","
","","","","","","","","","","","","","","","","","","","","","",""
"d3-instructions","125","594629","0.0-66.0","1889","5038","8","Male","true","false","false","false","""event"",""trial"",""time""
""blur"",""3"",""12753""
""focus"",""3"",""12753""
""blur"",""3"",""15490""
""focus"",""3"",""15492""
""fullscreenenter"",""5"",""23462""
","""event"",""trial"",""time""
""blur"",""3"",""12753""
""blur"",""3"",""15490""
","""event"",""trial"",""time""
""focus"",""3"",""12753""
""focus"",""3"",""15492""
","""event"",""trial"",""time""
""fullscreenenter"",""5"",""23462""
","
","","","","","","","","","","","","","","","","","","","","","",""
"d3-instructions","126","610884","0.0-67.0","1889","5038","8","Male","true","false","false","false","""event"",""trial"",""time""
""blur"",""3"",""12753""
""focus"",""3"",""12753""
""blur"",""3"",""15490""
""focus"",""3"",""15492""
""fullscreenenter"",""5"",""23462""
","""event"",""trial"",""time""
""blur"",""3"",""12753""
""blur"",""3"",""15490""
","""event"",""trial"",""time""
""focus"",""3"",""12753""
""focus"",""3"",""15492""
","""event"",""trial"",""time""
""fullscreenenter"",""5"",""23462""
","
","","","","","","","","","","","","","","","","","","","","","",""
"d3-instructions","127","619146","0.0-68.0","1889","5038","8","Male","true","false","false","false","""event"",""trial"",""time""
""blur"",""3"",""12753""
""focus"",""3"",""12753""
""blur"",""3"",""15490""
""focus"",""3"",""15492""
""fullscreenenter"",""5"",""23462""
","""event"",""trial"",""time""
""blur"",""3"",""12753""
""blur"",""3"",""15490""
","""event"",""trial"",""time""
""focus"",""3"",""12753""
""focus"",""3"",""15492""
","""event"",""trial"",""time""
""fullscreenenter"",""5"",""23462""
","
","","","","","","","","","","","","","","","","","","","","","",""
"instructions-quiz","128","624092","0.0-69.0","1889","5038","8","Male","true","false","false","false","""event"",""trial"",""time""
""blur"",""3"",""12753""
""focus"",""3"",""12753""
""blur"",""3"",""15490""
""focus"",""3"",""15492""
""fullscreenenter"",""5"",""23462""
","""event"",""trial"",""time""
""blur"",""3"",""12753""
""blur"",""3"",""15490""
","""event"",""trial"",""time""
""focus"",""3"",""12753""
""focus"",""3"",""15492""
","""event"",""trial"",""time""
""fullscreenenter"",""5"",""23462""
","
","4943.199999809265","audio/quiz/Q1_Prompt.wav","","1","","","","","","","","","","","","","","","","","",""
"audio-keyboard-response","129","633256","0.0-70.0","1889","5038","8","Male","true","false","false","false","""event"",""trial"",""time""
""blur"",""3"",""12753""
""focus"",""3"",""12753""
""blur"",""3"",""15490""
""focus"",""3"",""15492""
""fullscreenenter"",""5"",""23462""
","""event"",""trial"",""time""
""blur"",""3"",""12753""
""blur"",""3"",""15490""
","""event"",""trial"",""time""
""focus"",""3"",""12753""
""focus"",""3"",""15492""
","""event"",""trial"",""time""
""fullscreenenter"",""5"",""23462""
","
","null","audio/quiz/Q1_Correct.wav","null","","","","","","","","","","","","","","","","","","",""
"instructions-quiz","130","642380","0.0-71.0","1889","5038","8","Male","true","false","false","false","""event"",""trial"",""time""
""blur"",""3"",""12753""
""focus"",""3"",""12753""
""blur"",""3"",""15490""
""focus"",""3"",""15492""
""fullscreenenter"",""5"",""23462""
","""event"",""trial"",""time""
""blur"",""3"",""12753""
""blur"",""3"",""15490""
","""event"",""trial"",""time""
""focus"",""3"",""12753""
""focus"",""3"",""15492""
","""event"",""trial"",""time""
""fullscreenenter"",""5"",""23462""
","
","9121.200000047684","audio/quiz/Q2_Prompt.wav","","0","","","","","","","","","","","","","","","","","",""
"audio-keyboard-response","131","655245","0.0-72.0","1889","5038","8","Male","true","false","false","false","""event"",""trial"",""time""
""blur"",""3"",""12753""
""focus"",""3"",""12753""
""blur"",""3"",""15490""
""focus"",""3"",""15492""
""fullscreenenter"",""5"",""23462""
","""event"",""trial"",""time""
""blur"",""3"",""12753""
""blur"",""3"",""15490""
","""event"",""trial"",""time""
""focus"",""3"",""12753""
""focus"",""3"",""15492""
","""event"",""trial"",""time""
""fullscreenenter"",""5"",""23462""
","
","null","audio/quiz/Q2_Correct.wav","null","","","","","","","","","","","","","","","","","","",""
"instructions-quiz","132","660390","0.0-73.0","1889","5038","8","Male","true","false","false","false","""event"",""trial"",""time""
""blur"",""3"",""12753""
""focus"",""3"",""12753""
""blur"",""3"",""15490""
""focus"",""3"",""15492""
""fullscreenenter"",""5"",""23462""
","""event"",""trial"",""time""
""blur"",""3"",""12753""
""blur"",""3"",""15490""
","""event"",""trial"",""time""
""focus"",""3"",""12753""
""focus"",""3"",""15492""
","""event"",""trial"",""time""
""fullscreenenter"",""5"",""23462""
","
","5143.300000190735","audio/quiz/Q3_Prompt.wav","","1","","","","","","","","","","","","","","","","","",""
"audio-keyboard-response","133","664653","0.0-74.0","1889","5038","8","Male","true","false","false","false","""event"",""trial"",""time""
""blur"",""3"",""12753""
""focus"",""3"",""12753""
""blur"",""3"",""15490""
""focus"",""3"",""15492""
""fullscreenenter"",""5"",""23462""
","""event"",""trial"",""time""
""blur"",""3"",""12753""
""blur"",""3"",""15490""
","""event"",""trial"",""time""
""focus"",""3"",""12753""
""focus"",""3"",""15492""
","""event"",""trial"",""time""
""fullscreenenter"",""5"",""23462""
","
","4261","audio/quiz/Q3_Correct.wav","32","","","","","","","","","","","","","","","","","","",""
"d3-instructions","134","678098","0.0-75.0","1889","5038","8","Male","true","false","false","false","""event"",""trial"",""time""
""blur"",""3"",""12753""
""focus"",""3"",""12753""
""blur"",""3"",""15490""
""focus"",""3"",""15492""
""fullscreenenter"",""5"",""23462""
","""event"",""trial"",""time""
""blur"",""3"",""12753""
""blur"",""3"",""15490""
","""event"",""trial"",""time""
""focus"",""3"",""12753""
""focus"",""3"",""15492""
","""event"",""trial"",""time""
""fullscreenenter"",""5"",""23462""
","
","","","","","","","","","","","","","","","","","","","","","",""
"d3-animate-choice","135","681609","0.0-76.0-0.0","1889","5038","8","Male","true","false","false","false","""event"",""trial"",""time""
""blur"",""3"",""12753""
""focus"",""3"",""12753""
""blur"",""3"",""15490""
""focus"",""3"",""15492""
""fullscreenenter"",""5"",""23462""
","""event"",""trial"",""time""
""blur"",""3"",""12753""
""blur"",""3"",""15490""
","""event"",""trial"",""time""
""focus"",""3"",""12753""
""focus"",""3"",""15492""
","""event"",""trial"",""time""
""fullscreenenter"",""5"",""23462""
","
","1503.2000000476837","","48","","","3000","1","","","images/earth.jpg","images/rocket2","images/rocket1","null","images/rocket2","","1","real","null","2","","",""
"d3-animate-choice","136","684873","0.0-76.0-1.0","1889","5038","8","Male","true","false","false","false","""event"",""trial"",""time""
""blur"",""3"",""12753""
""focus"",""3"",""12753""
""blur"",""3"",""15490""
""focus"",""3"",""15492""
""fullscreenenter"",""5"",""23462""
","""event"",""trial"",""time""
""blur"",""3"",""12753""
""blur"",""3"",""15490""
","""event"",""trial"",""time""
""focus"",""3"",""12753""
""focus"",""3"",""15492""
","""event"",""trial"",""time""
""fullscreenenter"",""5"",""23462""
","
","1248.8999998569489","","48","","","3000","1","1330.7999999523163,2764.7999999523163","50,49","images/redplanet1.jpg","images/alien2","images/alien1","images/rocket2","images/alien2","images/t.png","2","real","true","2","common","1","2022-12-07 20:25:38.500"
"two-step-fixation","137","685903","0.0-76.0-2.0","1889","5038","8","Male","true","false","false","false","""event"",""trial"",""time""
""blur"",""3"",""12753""
""focus"",""3"",""12753""
""blur"",""3"",""15490""
""focus"",""3"",""15492""
""fullscreenenter"",""5"",""23462""
","""event"",""trial"",""time""
""blur"",""3"",""12753""
""blur"",""3"",""15490""
","""event"",""trial"",""time""
""focus"",""3"",""12753""
""focus"",""3"",""15492""
","""event"",""trial"",""time""
""fullscreenenter"",""5"",""23462""
","
","","images/earth.jpg","","","","","","","","","","","","","","fixation","","","","","",""
"d3-animate-choice","138","688146","0.0-76.0-0.1","1889","5038","8","Male","true","false","false","false","""event"",""trial"",""time""
""blur"",""3"",""12753""
""focus"",""3"",""12753""
""blur"",""3"",""15490""
""focus"",""3"",""15492""
""fullscreenenter"",""5"",""23462""
","""event"",""trial"",""time""
""blur"",""3"",""12753""
""blur"",""3"",""15490""
","""event"",""trial"",""time""
""focus"",""3"",""12753""
""focus"",""3"",""15492""
","""event"",""trial"",""time""
""fullscreenenter"",""5"",""23462""
","
","236.90000009536743","","48","","","3000","1","286.40000009536743,602.2000000476837,737.5999999046326,856,1051.2999999523163,1345.7000000476837,1529.7999999523163,1579.2000000476837,1767.7000000476837,1848.2000000476837,1952.7000000476837,2122.4000000953674,2141.7000000476837","49,48,49,48,49,48,49,48,48,49,48,49,48","images/earth.jpg","images/rocket2","images/rocket1","null","images/rocket2","","1","real","null","2","","",""
"d3-animate-choice","139","690258","0.0-76.0-1.1","1889","5038","8","Male","true","false","false","false","""event"",""trial"",""time""
""blur"",""3"",""12753""
""focus"",""3"",""12753""
""blur"",""3"",""15490""
""focus"",""3"",""15492""
""fullscreenenter"",""5"",""23462""
","""event"",""trial"",""time""
""blur"",""3"",""12753""
""blur"",""3"",""15490""
","""event"",""trial"",""time""
""focus"",""3"",""12753""
""focus"",""3"",""15492""
","""event"",""trial"",""time""
""fullscreenenter"",""5"",""23462""
","
","105.20000004768372","","48","","","3000","1","180.20000004768372,300.7000000476837,417.80000019073486,502.7000000476837,655,686.7000000476837,876.5,886,1084.9000000953674,1106.4000000953674,1301.2000000476837,1340.6000001430511,1520.8000001907349,1565.7000000476837,1728.9000000953674,1784.7000000476837,1920.6000001430511,2030.1000001430511","49,48,49,48,49,48,49,48,48,49,48,49,48,49,48,49,48,49","images/redplanet1.jpg","images/alien2","images/alien1","images/rocket2","images/alien2","images/t.png","2","real","true","2","common","1","2022-12-07 20:25:43.886"
"two-step-fixation","140","691272","0.0-76.0-2.1","1889","5038","8","Male","true","false","false","false","""event"",""trial"",""time""
""blur"",""3"",""12753""
""focus"",""3"",""12753""
""blur"",""3"",""15490""
""focus"",""3"",""15492""
""fullscreenenter"",""5"",""23462""
","""event"",""trial"",""time""
""blur"",""3"",""12753""
""blur"",""3"",""15490""
","""event"",""trial"",""time""
""focus"",""3"",""12753""
""focus"",""3"",""15492""
","""event"",""trial"",""time""
""fullscreenenter"",""5"",""23462""
","
","","images/earth.jpg","","","","","","","","","","","","","","fixation","","","","","",""
"d3-animate-choice","141","693413","0.0-76.0-0.2","1889","5038","8","Male","true","false","false","false","""event"",""trial"",""time""
""blur"",""3"",""12753""
""focus"",""3"",""12753""
""blur"",""3"",""15490""
""focus"",""3"",""15492""
""fullscreenenter"",""5"",""23462""
","""event"",""trial"",""time""
""blur"",""3"",""12753""
""blur"",""3"",""15490""
","""event"",""trial"",""time""
""focus"",""3"",""12753""
""focus"",""3"",""15492""
","""event"",""trial"",""time""
""fullscreenenter"",""5"",""23462""
","
","121.79999995231628","","48","","","3000","1","350.89999985694885,566.2999999523163,781.2000000476837,1005.8999998569489,1209.8999998569489","48,48,48,48,48","images/earth.jpg","images/rocket2","images/rocket1","null","images/rocket2","","1","real","null","2","","",""
"d3-animate-choice","142","696225","0.0-76.0-1.2","1889","5038","8","Male","true","false","false","false","""event"",""trial"",""time""
""blur"",""3"",""12753""
""focus"",""3"",""12753""
""blur"",""3"",""15490""
""focus"",""3"",""15492""
""fullscreenenter"",""5"",""23462""
","""event"",""trial"",""time""
""blur"",""3"",""12753""
""blur"",""3"",""15490""
","""event"",""trial"",""time""
""focus"",""3"",""12753""
""focus"",""3"",""15492""
","""event"",""trial"",""time""
""fullscreenenter"",""5"",""23462""
","
