"trial_type","trial_index","time_elapsed","internal_node_id","participant_id","subject_id","age","gender","rocket_sides","red_planet_first_rocket","red_display_order","purple_display_order","interactions","blur_events","focus_events","fullscreenenter_events","fullscreenexit_events","rt","stimulus","key_press","button_pressed","success","duration","valid_pressed","rts","keys","planet_text","right_text","left_text","center_text","chosen_text","reward_text","trial_stage","practice_trial","transition_type","choice","transition","reward","timestamp"
"pavlovia","0","2","0.0-0.0","2407","5018","21","Male","false","false","true","true","
","
","
","
","
","","","","","","","","","","","","","","","","","","","","","",""
"html-keyboard-response","1","1949","0.0-1.0","2407","5018","21","Male","false","false","true","true","
","
","
","
","
","1947.2000000476837","Welcome! Press the space bar to begin.","32","","","","","","","","","","","","","","","","","","",""
"audio-keyboard-response","2","5461","0.0-2.0","2407","5018","21","Male","false","false","true","true","
","
","
","
","
","3512","audio/beep_loop.wav","32","","","","","","","","","","","","","","","","","","",""
"audio-button-response","3","8302","0.0-3.0","2407","5018","21","Male","false","false","true","true","
","
","
","
","
","NaN","audio/fish.mp3","","1","","","","","","","","","","","","","","","","","",""
"audio-button-response","4","11663","0.0-4.0","2407","5018","21","Male","false","false","true","true","""event"",""trial"",""time""
""fullscreenenter"",""5"",""29610""
","
","
","""event"",""trial"",""time""
""fullscreenenter"",""5"",""29610""
","
","NaN","audio/tiger.mp3","","4","","","","","","","","","","","","","","","","","",""
"fullscreen","5","30592","0.0-5.0","2407","5018","21","Male","false","false","true","true","""event"",""trial"",""time""
""fullscreenenter"",""5"",""29610""
","
","
","""event"",""trial"",""time""
""fullscreenenter"",""5"",""29610""
","
","","","","","true","","","","","","","","","","","","","","","","",""
"d3-instructions","6","35133","0.0-6.0","2407","5018","21","Male","false","false","true","true","""event"",""trial"",""time""
""fullscreenenter"",""5"",""29610""
","
","
","""event"",""trial"",""time""
""fullscreenenter"",""5"",""29610""
","
","","","","","","","","","","","","","","","","","","","","","",""
"d3-instructions","7","39133","0.0-7.0","2407","5018","21","Male","false","false","true","true","""event"",""trial"",""time""
""fullscreenenter"",""5"",""29610""
","
","
","""event"",""trial"",""time""
""fullscreenenter"",""5"",""29610""
","
","","","","","","","","","","","","","","","","","","","","","",""
"d3-instructions","8","42469","0.0-8.0","2407","5018","21","Male","false","false","true","true","""event"",""trial"",""time""
""fullscreenenter"",""5"",""29610""
","
","
","""event"",""trial"",""time""
""fullscreenenter"",""5"",""29610""
","
","","","","","","","","","","","","","","","","","","","","","",""
"d3-instructions","9","52317","0.0-9.0","2407","5018","21","Male","false","false","true","true","""event"",""trial"",""time""
""fullscreenenter"",""5"",""29610""
","
","
","""event"",""trial"",""time""
""fullscreenenter"",""5"",""29610""
","
","","","","","","","","","","","","","","","","","","","","","",""
"d3-instructions","10","63821","0.0-10.0","2407","5018","21","Male","false","false","true","true","""event"",""trial"",""time""
""fullscreenenter"",""5"",""29610""
","
","
","""event"",""trial"",""time""
""fullscreenenter"",""5"",""29610""
","
","","","","","","","","","","","","","","","","","","","","","",""
"d3-animate-choice","11","71170","0.0-11.0","2407","5018","21","Male","false","false","true","true","""event"",""trial"",""time""
""fullscreenenter"",""5"",""29610""
","
","
","""event"",""trial"",""time""
""fullscreenenter"",""5"",""29610""
","
","1062.3999999761581","","97","","","3000","1","1734.0999999046326,2734.5,3302.5,4142.199999928474,4333.899999976158,5342.199999928474,7150.299999952316","96,144,144,97,96,49,48","images/tutgreenplanet.jpg","images/tutalien1","images/tutalien2","null","images/tutalien2","","NA","practice","null","","","",""
"d3-animate-choice","12","73696","0.0-12.0","2407","5018","21","Male","false","false","true","true","""event"",""trial"",""time""
""fullscreenenter"",""5"",""29610""
","
","
","""event"",""trial"",""time""
""fullscreenenter"",""5"",""29610""
","
","505","","48","","","3000","1","","","images/tutgreenplanet.jpg","images/tutalien1","images/tutalien2","null","images/tutalien1","","NA","practice","null","","","",""
"d3-animate-choice","13","76033","0.0-13.0","2407","5018","21","Male","false","false","true","true","""event"",""trial"",""time""
""fullscreenenter"",""5"",""29610""
","
","
","""event"",""trial"",""time""
""fullscreenenter"",""5"",""29610""
","
","331.89999997615814","","49","","","3000","1","","","images/tutgreenplanet.jpg","images/tutalien1","images/tutalien2","null","images/tutalien2","","NA","practice","null","","","",""
"d3-animate-choice","14","78392","0.0-14.0","2407","5018","21","Male","false","false","true","true","""event"",""trial"",""time""
""fullscreenenter"",""5"",""29610""
","
","
","""event"",""trial"",""time""
""fullscreenenter"",""5"",""29610""
","
","338.10000002384186","","48","","","3000","1","1754.1000000238419","49","images/tutgreenplanet.jpg","images/tutalien1","images/tutalien2","null","images/tutalien1","","NA","practice","null","","","",""
"d3-instructions","15","82188","0.0-15.0","2407","5018","21","Male","false","false","true","true","""event"",""trial"",""time""
""fullscreenenter"",""5"",""29610""
","
","
","""event"",""trial"",""time""
""fullscreenenter"",""5"",""29610""
","
","","","","","","","","","","","","","","","","","","","","","",""
"d3-instructions","16","84045","0.0-16.0","2407","5018","21","Male","false","false","true","true","""event"",""trial"",""time""
""fullscreenenter"",""5"",""29610""
","
","
","""event"",""trial"",""time""
""fullscreenenter"",""5"",""29610""
","
","","","","","","","","","","","","","","","","","","","","","",""
"d3-instructions","17","87485","0.0-17.0","2407","5018","21","Male","false","false","true","true","""event"",""trial"",""time""
""fullscreenenter"",""5"",""29610""
","
","
","""event"",""trial"",""time""
""fullscreenenter"",""5"",""29610""
","
","","","","","","","","","","","","","","","","","","","","","",""
"d3-instructions","18","94197","0.0-18.0","2407","5018","21","Male","false","false","true","true","""event"",""trial"",""time""
""fullscreenenter"",""5"",""29610""
","
","
","""event"",""trial"",""time""
""fullscreenenter"",""5"",""29610""
","
","","","","","","","","","","","","","","","","","","","","","",""
"d3-instructions","19","99948","0.0-19.0","2407","5018","21","Male","false","false","true","true","""event"",""trial"",""time""
""fullscreenenter"",""5"",""29610""
","
","
","""event"",""trial"",""time""
""fullscreenenter"",""5"",""29610""
","
","","","","","","","","","","","","","","","","","","","","","",""
"d3-animate-choice","20","103411","0.0-20.0","2407","5018","21","Male","false","false","true","true","""event"",""trial"",""time""
""fullscreenenter"",""5"",""29610""
","
","
","""event"",""trial"",""time""
""fullscreenenter"",""5"",""29610""
","
","1454.8999999761581","","49","","","3000","1","","","images/tutyellowplanet.jpg","null","images/tutalien3","null","images/tutalien3","images/t.png","NA","practice","null","","","",""
"d3-animate-choice","21","105710","0.0-21.0","2407","5018","21","Male","false","false","true","true","""event"",""trial"",""time""
""fullscreenenter"",""5"",""29610""
","
","
","""event"",""trial"",""time""
""fullscreenenter"",""5"",""29610""
","
","288.5","","49","","","3000","1","1656.5,2104.2999999523163","49,49","images/tutyellowplanet.jpg","null","images/tutalien3","null","images/tutalien3","images/t.png","NA","practice","null","","","",""
"d3-animate-choice","22","107839","0.0-22.0","2407","5018","21","Male","false","false","true","true","""event"",""trial"",""time""
""fullscreenenter"",""5"",""29610""
","
","
","""event"",""trial"",""time""
""fullscreenenter"",""5"",""29610""
","
","117","","49","","","3000","1","317,1445.3000000715256","49,49","images/tutyellowplanet.jpg","null","images/tutalien3","null","images/tutalien3","images/t.png","NA","practice","null","","","",""
"d3-animate-choice","23","109961","0.0-23.0","2407","5018","21","Male","false","false","true","true","""event"",""trial"",""time""
""fullscreenenter"",""5"",""29610""
","
","
","""event"",""trial"",""time""
""fullscreenenter"",""5"",""29610""
","
","108.39999997615814","","49","","","3000","1","1564.2999999523163,1868.2000000476837","49,49","images/tutyellowplanet.jpg","null","images/tutalien3","null","images/tutalien3","images/t.png","NA","practice","null","","","",""
"d3-animate-choice","24","112054","0.0-24.0","2407","5018","21","Male","false","false","true","true","""event"",""trial"",""time""
""fullscreenenter"",""5"",""29610""
","
","
","""event"",""trial"",""time""
""fullscreenenter"",""5"",""29610""
","
","73.89999997615814","","49","","","3000","1","594,825.8999999761581,1009.8000000715256,1273.7000000476837,1642.3000000715256,1857.8000000715256","49,49,49,49,49,49","images/tutyellowplanet.jpg","null","images/tutalien3","null","images/tutalien3","images/t.png","NA","practice","null","","","",""
"d3-animate-choice","25","114075","0.0-25.0","2407","5018","21","Male","false","false","true","true","""event"",""trial"",""time""
""fullscreenenter"",""5"",""29610""
","
","
","""event"",""trial"",""time""
""fullscreenenter"",""5"",""29610""
","
","5.5","","49","","","3000","1","205.5,413.60000002384186,677.5,877.4000000953674,1109.4000000953674,1317.3000000715256,1541.3000000715256,1749.4000000953674,1965.4000000953674","49,49,49,49,49,49,49,49,49","images/tutyellowplanet.jpg","null","images/tutalien3","null","images/tutalien3","images/nothing.png","NA","practice","null","","","",""
"d3-animate-choice","26","116254","0.0-26.0","2407","5018","21","Male","false","false","true","true","""event"",""trial"",""time""
""fullscreenenter"",""5"",""29610""
","
","
","""event"",""trial"",""time""
""fullscreenenter"",""5"",""29610""
","
","168.10000002384186","","49","","","3000","1","368.10000002384186,592,1088.1999999284744,1344.5,1600.3999999761581,1864.1999999284744,2112.100000023842","49,49,49,49,49,49,49","images/tutyellowplanet.jpg","null","images/tutalien3","null","images/tutalien3","images/t.png","NA","practice","null","","","",""
"d3-animate-choice","27","118444","0.0-27.0","2407","5018","21","Male","false","false","true","true","""event"",""trial"",""time""
""fullscreenenter"",""5"",""29610""
","
","
","""event"",""trial"",""time""
""fullscreenenter"",""5"",""29610""
","
","181.29999995231628","","49","","","3000","1","404.89999997615814,629.1999999284744,1957.2999999523163","49,49,49","images/tutyellowplanet.jpg","null","images/tutalien3","null","images/tutalien3","images/t.png","NA","practice","null","","","",""
"d3-animate-choice","28","120529","0.0-28.0","2407","5018","21","Male","false","false","true","true","""event"",""trial"",""time""
""fullscreenenter"",""5"",""29610""
","
","
","""event"",""trial"",""time""
""fullscreenenter"",""5"",""29610""
","
","79.29999995231628","","49","","","3000","1","391.2999999523163,711.1000000238419,1575.1999999284744,1975.1999999284744","49,49,49,49","images/tutyellowplanet.jpg","null","images/tutalien3","null","images/tutalien3","images/t.png","NA","practice","null","","","",""
"d3-animate-choice","29","122812","0.0-29.0","2407","5018","21","Male","false","false","true","true","""event"",""trial"",""time""
""fullscreenenter"",""5"",""29610""
","
","
","""event"",""trial"",""time""
""fullscreenenter"",""5"",""29610""
","
","274.3000000715256","","49","","","3000","1","786.3999999761581,1242.3999999761581,1586.7000000476837,1826.3000000715256,2202.2000000476837","49,49,49,49,49","images/tutyellowplanet.jpg","null","images/tutalien3","null","images/tutalien3","images/t.png","NA","practice","null","","","",""
"d3-instructions","30","126356","0.0-30.0","2407","5018","21","Male","false","false","true","true","""event"",""trial"",""time""
""fullscreenenter"",""5"",""29610""
","
","
","""event"",""trial"",""time""
""fullscreenenter"",""5"",""29610""
","
","","","","","","","","","","","","","","","","","","","","","",""
"d3-instructions","31","132308","0.0-31.0","2407","5018","21","Male","false","false","true","true","""event"",""trial"",""time""
""fullscreenenter"",""5"",""29610""
","
","
","""event"",""trial"",""time""
""fullscreenenter"",""5"",""29610""
","
","","","","","","","","","","","","","","","","","","","","","",""
"d3-instructions","32","137228","0.0-32.0","2407","5018","21","Male","false","false","true","true","""event"",""trial"",""time""
""fullscreenenter"",""5"",""29610""
","
","
","""event"",""trial"",""time""
""fullscreenenter"",""5"",""29610""
","
","","","","","","","","","","","","","","","","","","","","","",""
"d3-instructions","33","140253","0.0-33.0","2407","5018","21","Male","false","false","true","true","""event"",""trial"",""time""
""fullscreenenter"",""5"",""29610""
","
","
","""event"",""trial"",""time""
""fullscreenenter"",""5"",""29610""
","
","","","","","","","","","","","","","","","","","","","","","",""
"d3-animate-choice","34","143321","0.0-34.0","2407","5018","21","Male","false","false","true","true","""event"",""trial"",""time""
""fullscreenenter"",""5"",""29610""
","
","
","""event"",""trial"",""time""
""fullscreenenter"",""5"",""29610""
","
","1062.6999999284744","","49","","","3000","1","","","images/tutgreenplanet.jpg","images/tutalien1","images/tutalien2","null","images/tutalien2","images/t.png","NA","practice","null","","","",""
"d3-animate-choice","35","145917","0.0-35.0","2407","5018","21","Male","false","false","true","true","""event"",""trial"",""time""
""fullscreenenter"",""5"",""29610""
","
","
","""event"",""trial"",""time""
""fullscreenenter"",""5"",""29610""
","
","586.2000000476837","","49","","","3000","1","","","images/tutgreenplanet.jpg","images/tutalien1","images/tutalien2","null","images/tutalien2","images/t.png","NA","practice","null","","","",""
"d3-animate-choice","36","148225","0.0-36.0","2407","5018","21","Male","false","false","true","true","""event"",""trial"",""time""
""fullscreenenter"",""5"",""29610""
","
","
","""event"",""trial"",""time""
""fullscreenenter"",""5"",""29610""
","
","302.2999999523163","","49","","","3000","1","","","images/tutgreenplanet.jpg","images/tutalien1","images/tutalien2","null","images/tutalien2","images/t.png","NA","practice","null","","","",""
"d3-animate-choice","37","150510","0.0-37.0","2407","5018","21","Male","false","false","true","true","""event"",""trial"",""time""
""fullscreenenter"",""5"",""29610""
","
","
","""event"",""trial"",""time""
""fullscreenenter"",""5"",""29610""
","
","266.60000002384186","","49","","","3000","1","","","images/tutgreenplanet.jpg","images/tutalien1","images/tutalien2","null","images/tutalien2","images/t.png","NA","practice","null","","","",""
"d3-animate-choice","38","152792","0.0-38.0","2407","5018","21","Male","false","false","true","true","""event"",""trial"",""time""
""fullscreenenter"",""5"",""29610""
","
","
","""event"",""trial"",""time""
""fullscreenenter"",""5"",""29610""
","
","277.3000000715256","","49","","","3000","1","","","images/tutgreenplanet.jpg","images/tutalien1","images/tutalien2","null","images/tutalien2","images/t.png","NA","practice","null","","","",""
"d3-animate-choice","39","155084","0.0-39.0","2407","5018","21","Male","false","false","true","true","""event"",""trial"",""time""
""fullscreenenter"",""5"",""29610""
","
","
","""event"",""trial"",""time""
""fullscreenenter"",""5"",""29610""
","
","274.90000009536743","","49","","","3000","1","","","images/tutgreenplanet.jpg","images/tutalien1","images/tutalien2","null","images/tutalien2","images/t.png","NA","practice","null","","","",""
"d3-animate-choice","40","157378","0.0-40.0","2407","5018","21","Male","false","false","true","true","""event"",""trial"",""time""
""fullscreenenter"",""5"",""29610""
","
","
","""event"",""trial"",""time""
""fullscreenenter"",""5"",""29610""
","
","279.2000000476837","","49","","","3000","1","","","images/tutgreenplanet.jpg","images/tutalien1","images/tutalien2","null","images/tutalien2","images/t.png","NA","practice","null","","","",""
"d3-animate-choice","41","159688","0.0-41.0","2407","5018","21","Male","false","false","true","true","""event"",""trial"",""time""
""fullscreenenter"",""5"",""29610""
","
","
","""event"",""trial"",""time""
""fullscreenenter"",""5"",""29610""
","
","304.7000000476837","","49","","","3000","1","","","images/tutgreenplanet.jpg","images/tutalien1","images/tutalien2","null","images/tutalien2","images/t.png","NA","practice","null","","","",""
"d3-animate-choice","42","161978","0.0-42.0","2407","5018","21","Male","false","false","true","true","""event"",""trial"",""time""
""fullscreenenter"",""5"",""29610""
","
","
","""event"",""trial"",""time""
""fullscreenenter"",""5"",""29610""
","
","283.2000000476837","","49","","","3000","1","","","images/tutgreenplanet.jpg","images/tutalien1","images/tutalien2","null","images/tutalien2","images/t.png","NA","practice","null","","","",""
"d3-animate-choice","43","164232","0.0-43.0","2407","5018","21","Male","false","false","true","true","""event"",""trial"",""time""
""fullscreenenter"",""5"",""29610""
","
","
","""event"",""trial"",""time""
""fullscreenenter"",""5"",""29610""
","
","249.39999997615814","","49","","","3000","1","","","images/tutgreenplanet.jpg","images/tutalien1","images/tutalien2","null","images/tutalien2","images/nothing.png","NA","practice","null","","","",""
"d3-instructions","44","169692","0.0-44.0","2407","5018","21","Male","false","false","true","true","""event"",""trial"",""time""
""fullscreenenter"",""5"",""29610""
","
","
","""event"",""trial"",""time""
""fullscreenenter"",""5"",""29610""
","
","","","","","","","","","","","","","","","","","","","","","",""
"d3-instructions","45","175676","0.0-45.0","2407","5018","21","Male","false","false","true","true","""event"",""trial"",""time""
""fullscreenenter"",""5"",""29610""
","
","
","""event"",""trial"",""time""
""fullscreenenter"",""5"",""29610""
","
","","","","","","","","","","","","","","","","","","","","","",""
"d3-instructions","46","177220","0.0-46.0","2407","5018","21","Male","false","false","true","true","""event"",""trial"",""time""
""fullscreenenter"",""5"",""29610""
","
","
","""event"",""trial"",""time""
""fullscreenenter"",""5"",""29610""
","
","","","","","","","","","","","","","","","","","","","","","",""
"d3-instructions","47","185636","0.0-47.0","2407","5018","21","Male","false","false","true","true","""event"",""trial"",""time""
""fullscreenenter"",""5"",""29610""
","
","
","""event"",""trial"",""time""
""fullscreenenter"",""5"",""29610""
","
","","","","","","","","","","","","","","","","","","","","","",""
"d3-instructions","48","193020","0.0-48.0","2407","5018","21","Male","false","false","true","true","""event"",""trial"",""time""
""fullscreenenter"",""5"",""29610""
","
","
","""event"",""trial"",""time""
""fullscreenenter"",""5"",""29610""
","
","","","","","","","","","","","","","","","","","","","","","",""
"d3-instructions","49","196980","0.0-49.0","2407","5018","21","Male","false","false","true","true","""event"",""trial"",""time""
""fullscreenenter"",""5"",""29610""
","
","
","""event"",""trial"",""time""
""fullscreenenter"",""5"",""29610""
","
","","","","","","","","","","","","","","","","","","","","","",""
"d3-instructions","50","202388","0.0-50.0","2407","5018","21","Male","false","false","true","true","""event"",""trial"",""time""
""fullscreenenter"",""5"",""29610""
","
","
","""event"",""trial"",""time""
""fullscreenenter"",""5"",""29610""
","
","","","","","","","","","","","","","","","","","","","","","",""
"d3-instructions","51","203948","0.0-51.0","2407","5018","21","Male","false","false","true","true","""event"",""trial"",""time""
""fullscreenenter"",""5"",""29610""
","
","
","""event"",""trial"",""time""
""fullscreenenter"",""5"",""29610""
","
","","","","","","","","","","","","","","","","","","","","","",""
"d3-instructions","52","205268","0.0-52.0","2407","5018","21","Male","false","false","true","true","""event"",""trial"",""time""
""fullscreenenter"",""5"",""29610""
","
","
","""event"",""trial"",""time""
""fullscreenenter"",""5"",""29610""
","
","","","","","","","","","","","","","","","","","","","","","",""
"d3-instructions","53","209365","0.0-53.0","2407","5018","21","Male","false","false","true","true","""event"",""trial"",""time""
""fullscreenenter"",""5"",""29610""
","
","
","""event"",""trial"",""time""
""fullscreenenter"",""5"",""29610""
","
","","","","","","","","","","","","","","","","","","","","","",""
"d3-instructions","54","217853","0.0-54.0","2407","5018","21","Male","false","false","true","true","""event"",""trial"",""time""
""fullscreenenter"",""5"",""29610""
","
","
","""event"",""trial"",""time""
""fullscreenenter"",""5"",""29610""
","
","","","","","","","","","","","","","","","","","","","","","",""
"d3-instructions","55","228021","0.0-55.0","2407","5018","21","Male","false","false","true","true","""event"",""trial"",""time""
""fullscreenenter"",""5"",""29610""
","
","
","""event"",""trial"",""time""
""fullscreenenter"",""5"",""29610""
","
","","","","","","","","","","","","","","","","","","","","","",""
"d3-instructions","56","233108","0.0-56.0","2407","5018","21","Male","false","false","true","true","""event"",""trial"",""time""
""fullscreenenter"",""5"",""29610""
","
","
","""event"",""trial"",""time""
""fullscreenenter"",""5"",""29610""
","
","","","","","","","","","","","","","","","","","","","","","",""
"d3-instructions","57","238165","0.0-57.0","2407","5018","21","Male","false","false","true","true","""event"",""trial"",""time""
""fullscreenenter"",""5"",""29610""
","
","
","""event"",""trial"",""time""
""fullscreenenter"",""5"",""29610""
","
","","","","","","","","","","","","","","","","","","","","","",""
"d3-instructions","58","242661","0.0-58.0","2407","5018","21","Male","false","false","true","true","""event"",""trial"",""time""
""fullscreenenter"",""5"",""29610""
","
","
","""event"",""trial"",""time""
""fullscreenenter"",""5"",""29610""
","
","","","","","","","","","","","","","","","","","","","","","",""
"d3-instructions","59","244349","0.0-59.0","2407","5018","21","Male","false","false","true","true","""event"",""trial"",""time""
""fullscreenenter"",""5"",""29610""
","
","
","""event"",""trial"",""time""
""fullscreenenter"",""5"",""29610""
","
","","","","","","","","","","","","","","","","","","","","","",""
"d3-instructions","60","246285","0.0-60.0","2407","5018","21","Male","false","false","true","true","""event"",""trial"",""time""
""fullscreenenter"",""5"",""29610""
","
","
","""event"",""trial"",""time""
""fullscreenenter"",""5"",""29610""
","
","","","","","","","","","","","","","","","","","","","","","",""
"d3-animate-choice","61","249778","0.0-61.0-0.0","2407","5018","21","Male","false","false","true","true","""event"",""trial"",""time""
""fullscreenenter"",""5"",""29610""
","
","
","""event"",""trial"",""time""
""fullscreenenter"",""5"",""29610""
","
","1485.7999999523163","","49","","","3000","1","","","images/earth.jpg","images/tutrocket2","images/tutrocket1","null","images/tutrocket1","","1","practice","null","1","","",""
"d3-animate-choice","62","252566","0.0-61.0-1.0","2407","5018","21","Male","false","false","true","true","""event"",""trial"",""time""
""fullscreenenter"",""5"",""29610""
","
","
","""event"",""trial"",""time""
""fullscreenenter"",""5"",""29610""
","
","776.8999999761581","","49","","","3000","1","","","images/tutyellowplanet.jpg","images/tutalien4","images/tutalien3","images/tutrocket1","images/tutalien3","images/t.png","2","practice","true","1","common","1","2022-12-06 14:32:53.906"
"two-step-fixation","63","253576","0.0-61.0-2.0","2407","5018","21","Male","false","false","true","true","""event"",""trial"",""time""
""fullscreenenter"",""5"",""29610""
","
","
","""event"",""trial"",""time""
""fullscreenenter"",""5"",""29610""
","
","","images/earth.jpg","","","","","","","","","","","","","","fixation","","","","","",""
"d3-animate-choice","64","255862","0.0-61.0-0.1","2407","5018","21","Male","false","false","true","true","""event"",""trial"",""time""
""fullscreenenter"",""5"",""29610""
","
","
","""event"",""trial"",""time""
""fullscreenenter"",""5"",""29610""
","
","275.2000000476837","","48","","","3000","1","","","images/earth.jpg","images/tutrocket2","images/tutrocket1","null","images/tutrocket2","","1","practice","null","2","","",""
"d3-animate-choice","65","258450","0.0-61.0-1.1","2407","5018","21","Male","false","false","true","true","""event"",""trial"",""time""
""fullscreenenter"",""5"",""29610""
","
","
","""event"",""trial"",""time""
""fullscreenenter"",""5"",""29610""
","
","581.7999999523163","","49","","","3000","1","","","images/tutgreenplanet.jpg","images/tutalien2","images/tutalien1","images/tutrocket2","images/tutalien1","images/nothing.png","2","practice","true","1","common","0","2022-12-06 14:32:59.790"
"two-step-fixation","66","259457","0.0-61.0-2.1","2407","5018","21","Male","false","false","true","true","""event"",""trial"",""time""
""fullscreenenter"",""5"",""29610""
","
","
","""event"",""trial"",""time""
""fullscreenenter"",""5"",""29610""
","
","","images/earth.jpg","","","","","","","","","","","","","","fixation","","","","","",""
"d3-animate-choice","67","261810","0.0-61.0-0.2","2407","5018","21","Male","false","false","true","true","""event"",""trial"",""time""
""fullscreenenter"",""5"",""29610""
","
","
","""event"",""trial"",""time""
""fullscreenenter"",""5"",""29610""
","
","346.2999999523163","","49","","","3000","1","","","images/earth.jpg","images/tutrocket2","images/tutrocket1","null","images/tutrocket1","","1","practice","null","1","","",""
"d3-animate-choice","68","265073","0.0-61.0-1.2","2407","5018","21","Male","false","false","true","true","""event"",""trial"",""time""
""fullscreenenter"",""5"",""29610""
","
","
","""event"",""trial"",""time""
""fullscreenenter"",""5"",""29610""
","
","1257.5","","49","","","3000","1","","","images/tutgreenplanet.jpg","images/tutalien2","images/tutalien1","images/tutrocket1","images/tutalien1","images/t.png","2","practice","false","1","rare","1","2022-12-06 14:33:06.413"
"two-step-fixation","69","266080","0.0-61.0-2.2","2407","5018","21","Male","false","false","true","true","""event"",""trial"",""time""
""fullscreenenter"",""5"",""29610""
","
","
","""event"",""trial"",""time""
""fullscreenenter"",""5"",""29610""
","
","","images/earth.jpg","","","","","","","","","","","","","","fixation","","","","","",""
"d3-animate-choice","70","268457","0.0-61.0-0.3","2407","5018","21","Male","false","false","true","true","""event"",""trial"",""time""
""fullscreenenter"",""5"",""29610""
","
","
","""event"",""trial"",""time""
""fullscreenenter"",""5"",""29610""
","
","370.89999997615814","","49","","","3000","1","","","images/earth.jpg","images/tutrocket2","images/tutrocket1","null","images/tutrocket1","","1","practice","null","1","","",""
"d3-animate-choice","71","271292","0.0-61.0-1.3","2407","5018","21","Male","false","false","true","true","""event"",""trial"",""time""
""fullscreenenter"",""5"",""29610""
","
","
","""event"",""trial"",""time""
""fullscreenenter"",""5"",""29610""
","
","818.1000000238419","","48","","","3000","1","","","images/tutgreenplanet.jpg","images/tutalien2","images/tutalien1","images/tutrocket1","images/tutalien2","images/nothing.png","2","practice","false","2","rare","0","2022-12-06 14:33:12.632"
"two-step-fixation","72","272300","0.0-61.0-2.3","2407","5018","21","Male","false","false","true","true","""event"",""trial"",""time""
""fullscreenenter"",""5"",""29610""
","
","
","""event"",""trial"",""time""
""fullscreenenter"",""5"",""29610""
","
","","images/earth.jpg","","","","","","","","","","","","","","fixation","","","","","",""
"d3-animate-choice","73","274537","0.0-61.0-0.4","2407","5018","21","Male","false","false","true","true","""event"",""trial"",""time""
""fullscreenenter"",""5"",""29610""
","
","
","""event"",""trial"",""time""
""fullscreenenter"",""5"",""29610""
","
","231","","49","","","3000","1","","","images/earth.jpg","images/tutrocket2","images/tutrocket1","null","images/tutrocket1","","1","practice","null","1","","",""
"d3-animate-choice","74","277464","0.0-61.0-1.4","2407","5018","21","Male","false","false","true","true","""event"",""trial"",""time""
""fullscreenenter"",""5"",""29610""
","
","
","""event"",""trial"",""time""
""fullscreenenter"",""5"",""29610""
","
","922.2000000476837","","49","","","3000","1","","","images/tutgreenplanet.jpg","images/tutalien2","images/tutalien1","images/tutrocket1","images/tutalien1","images/t.png","2","practice","false","1","rare","1","2022-12-06 14:33:18.804"
"two-step-fixation","75","278466","0.0-61.0-2.4","2407","5018","21","Male","false","false","true","true","""event"",""trial"",""time""
""fullscreenenter"",""5"",""29610""
","
","
","""event"",""trial"",""time""
""fullscreenenter"",""5"",""29610""
","
","","images/earth.jpg","","","","","","","","","","","","","","fixation","","","","","",""
"d3-animate-choice","76","280816","0.0-61.0-0.5","2407","5018","21","Male","false","false","true","true","""event"",""trial"",""time""
""fullscreenenter"",""5"",""29610""
","
","
","""event"",""trial"",""time""
""fullscreenenter"",""5"",""29610""
","
","344.89999997615814","","49","","","3000","1","","","images/earth.jpg","images/tutrocket2","images/tutrocket1","null","images/tutrocket1","","1","practice","null","1","","",""
"d3-animate-choice","77","283704","0.0-61.0-1.5","2407","5018","21","Male","false","false","true","true","""event"",""trial"",""time""
""fullscreenenter"",""5"",""29610""
","
","
","""event"",""trial"",""time""
""fullscreenenter"",""5"",""29610""
","
","882.6000000238419","","49","","","3000","1","","","images/tutyellowplanet.jpg","images/tutalien4","images/tutalien3","images/tutrocket1","images/tutalien3","images/nothing.png","2","practice","true","1","common","0","2022-12-06 14:33:25.044"
"two-step-fixation","78","284712","0.0-61.0-2.5","2407","5018","21","Male","false","false","true","true","""event"",""trial"",""time""
""fullscreenenter"",""5"",""29610""
","
","
","""event"",""trial"",""time""
""fullscreenenter"",""5"",""29610""
","
","","images/earth.jpg","","","","","","","","","","","","","","fixation","","","","","",""
"d3-animate-choice","79","287305","0.0-61.0-0.6","2407","5018","21","Male","false","false","true","true","""event"",""trial"",""time""
""fullscreenenter"",""5"",""29610""
","
","
","""event"",""trial"",""time""
""fullscreenenter"",""5"",""29610""
","
","586.2999999523163","","48","","","3000","1","","","images/earth.jpg","images/tutrocket2","images/tutrocket1","null","images/tutrocket2","","1","practice","null","2","","",""
"d3-animate-choice","80","290289","0.0-61.0-1.6","2407","5018","21","Male","false","false","true","true","""event"",""trial"",""time""
""fullscreenenter"",""5"",""29610""
","
","
","""event"",""trial"",""time""
""fullscreenenter"",""5"",""29610""
","
","977.8000000715256","","48","","","3000","1","","","images/tutgreenplanet.jpg","images/tutalien2","images/tutalien1","images/tutrocket2","images/tutalien2","images/t.png","2","practice","true","2","common","1","2022-12-06 14:33:31.629"
"two-step-fixation","81","291297","0.0-61.0-2.6","2407","5018","21","Male","false","false","true","true","""event"",""trial"",""time""
""fullscreenenter"",""5"",""29610""
","
","
","""event"",""trial"",""time""
""fullscreenenter"",""5"",""29610""
","
","","images/earth.jpg","","","","","","","","","","","","","","fixation","","","","","",""
"d3-animate-choice","82","293623","0.0-61.0-0.7","2407","5018","21","Male","false","false","true","true","""event"",""trial"",""time""
""fullscreenenter"",""5"",""29610""
","
","
","""event"",""trial"",""time""
""fullscreenenter"",""5"",""29610""
","
","322.2000000476837","","48","","","3000","1","","","images/earth.jpg","images/tutrocket2","images/tutrocket1","null","images/tutrocket2","","1","practice","null","2","","",""
"d3-animate-choice","83","296145","0.0-61.0-1.7","2407","5018","21","Male","false","false","true","true","""event"",""trial"",""time""
""fullscreenenter"",""5"",""29610""
","
","
","""event"",""trial"",""time""
""fullscreenenter"",""5"",""29610""
","
","516.1999999284744","","49","","","3000","1","","","images/tutgreenplanet.jpg","images/tutalien2","images/tutalien1","images/tutrocket2","images/tutalien1","images/nothing.png","2","practice","true","1","common","0","2022-12-06 14:33:37.485"
"two-step-fixation","84","297150","0.0-61.0-2.7","2407","5018","21","Male","false","false","true","true","""event"",""trial"",""time""
""fullscreenenter"",""5"",""29610""
","
","
","""event"",""trial"",""time""
""fullscreenenter"",""5"",""29610""
","
","","images/earth.jpg","","","","","","","","","","","","","","fixation","","","","","",""
"d3-animate-choice","85","299529","0.0-61.0-0.8","2407","5018","21","Male","false","false","true","true","""event"",""trial"",""time""
""fullscreenenter"",""5"",""29610""
","
","
","""event"",""trial"",""time""
""fullscreenenter"",""5"",""29610""
","
","372.7999999523163","","49","","","3000","1","","","images/earth.jpg","images/tutrocket2","images/tutrocket1","null","images/tutrocket1","","1","practice","null","1","","",""
"d3-animate-choice","86","302353","0.0-61.0-1.8","2407","5018","21","Male","false","false","true","true","""event"",""trial"",""time""
""fullscreenenter"",""5"",""29610""
","
","
","""event"",""trial"",""time""
""fullscreenenter"",""5"",""29610""
","
","818.6000000238419","","49","","","3000","1","","","images/tutyellowplanet.jpg","images/tutalien4","images/tutalien3","images/tutrocket1","images/tutalien3","images/t.png","2","practice","true","1","common","1","2022-12-06 14:33:43.693"
"two-step-fixation","87","303361","0.0-61.0-2.8","2407","5018","21","Male","false","false","true","true","""event"",""trial"",""time""
""fullscreenenter"",""5"",""29610""
","
","
","""event"",""trial"",""time""
""fullscreenenter"",""5"",""29610""
","
","","images/earth.jpg","","","","","","","","","","","","","","fixation","","","","","",""
"d3-animate-choice","88","305502","0.0-61.0-0.9","2407","5018","21","Male","false","false","true","true","""event"",""trial"",""time""
""fullscreenenter"",""5"",""29610""
","
","
","""event"",""trial"",""time""
""fullscreenenter"",""5"",""29610""
","
","137.5","","49","","","3000","1","","","images/earth.jpg","images/tutrocket2","images/tutrocket1","null","images/tutrocket1","","1","practice","null","1","","",""
"d3-animate-choice","89","308097","0.0-61.0-1.9","2407","5018","21","Male","false","false","true","true","""event"",""trial"",""time""
""fullscreenenter"",""5"",""29610""
","
","
","""event"",""trial"",""time""
""fullscreenenter"",""5"",""29610""
","
","588.8999999761581","","48","","","3000","1","","","images/tutyellowplanet.jpg","images/tutalien4","images/tutalien3","images/tutrocket1","images/tutalien4","images/nothing.png","2","practice","true","2","common","0","2022-12-06 14:33:49.437"
"two-step-fixation","90","309105","0.0-61.0-2.9","2407","5018","21","Male","false","false","true","true","""event"",""trial"",""time""
""fullscreenenter"",""5"",""29610""
","
","
","""event"",""trial"",""time""
""fullscreenenter"",""5"",""29610""
","
","","images/earth.jpg","","","","","","","","","","","","","","fixation","","","","","",""
"d3-animate-choice","91","311601","0.0-61.0-0.10","2407","5018","21","Male","false","false","true","true","""event"",""trial"",""time""
""fullscreenenter"",""5"",""29610""
","
","
","""event"",""trial"",""time""
""fullscreenenter"",""5"",""29610""
","
","481.89999997615814","","49","","","3000","1","","","images/earth.jpg","images/tutrocket2","images/tutrocket1","null","images/tutrocket1","","1","practice","null","1","","",""
"d3-animate-choice","92","314201","0.0-61.0-1.10","2407","5018","21","Male","false","false","true","true","""event"",""trial"",""time""
""fullscreenenter"",""5"",""29610""
","
","
","""event"",""trial"",""time""
""fullscreenenter"",""5"",""29610""
","
","593.6000000238419","","49","","","3000","1","","","images/tutyellowplanet.jpg","images/tutalien4","images/tutalien3","images/tutrocket1","images/tutalien3","images/t.png","2","practice","true","1","common","1","2022-12-06 14:33:55.541"
"two-step-fixation","93","315209","0.0-61.0-2.10","2407","5018","21","Male","false","false","true","true","""event"",""trial"",""time""
""fullscreenenter"",""5"",""29610""
","
","
","""event"",""trial"",""time""
""fullscreenenter"",""5"",""29610""
","
","","images/earth.jpg","","","","","","","","","","","","","","fixation","","","","","",""
"d3-animate-choice","94","317649","0.0-61.0-0.11","2407","5018","21","Male","false","false","true","true","""event"",""trial"",""time""
""fullscreenenter"",""5"",""29610""
","
","
","""event"",""trial"",""time""
""fullscreenenter"",""5"",""29610""
","
","433.6999999284744","","48","","","3000","1","","","images/earth.jpg","images/tutrocket2","images/tutrocket1","null","images/tutrocket2","","1","practice","null","2","","",""
"d3-animate-choice","95","320137","0.0-61.0-1.11","2407","5018","21","Male","false","false","true","true","""event"",""trial"",""time""
""fullscreenenter"",""5"",""29610""
","
","
","""event"",""trial"",""time""
""fullscreenenter"",""5"",""29610""
","
","481.39999997615814","","48","","","3000","1","","","images/tutyellowplanet.jpg","images/tutalien4","images/tutalien3","images/tutrocket2","images/tutalien4","images/t.png","2","practice","false","2","rare","1","2022-12-06 14:34:01.477"
"two-step-fixation","96","321144","0.0-61.0-2.11","2407","5018","21","Male","false","false","true","true","""event"",""trial"",""time""
""fullscreenenter"",""5"",""29610""
","
","
","""event"",""trial"",""time""
""fullscreenenter"",""5"",""29610""
","
","","images/earth.jpg","","","","","","","","","","","","","","fixation","","","","","",""
"d3-animate-choice","97","323433","0.0-61.0-0.12","2407","5018","21","Male","false","false","true","true","""event"",""trial"",""time""
""fullscreenenter"",""5"",""29610""
","
","
","""event"",""trial"",""time""
""fullscreenenter"",""5"",""29610""
","
","282.6999999284744","","49","","","3000","1","","","images/earth.jpg","images/tutrocket2","images/tutrocket1","null","images/tutrocket1","","1","practice","null","1","","",""
"d3-animate-choice","98","325880","0.0-61.0-1.12","2407","5018","21","Male","false","false","true","true","""event"",""trial"",""time""
""fullscreenenter"",""5"",""29610""
","
","
","""event"",""trial"",""time""
""fullscreenenter"",""5"",""29610""
","
","442.5","","49","","","3000","1","","","images/tutyellowplanet.jpg","images/tutalien4","images/tutalien3","images/tutrocket1","images/tutalien3","images/t.png","2","practice","true","1","common","1","2022-12-06 14:34:07.220"
"two-step-fixation","99","326889","0.0-61.0-2.12","2407","5018","21","Male","false","false","true","true","""event"",""trial"",""time""
""fullscreenenter"",""5"",""29610""
","
","
","""event"",""trial"",""time""
""fullscreenenter"",""5"",""29610""
","
","","images/earth.jpg","","","","","","","","","","","","","","fixation","","","","","",""
"d3-animate-choice","100","329089","0.0-61.0-0.13","2407","5018","21","Male","false","false","true","true","""event"",""trial"",""time""
""fullscreenenter"",""5"",""29610""
","
","
","""event"",""trial"",""time""
""fullscreenenter"",""5"",""29610""
","
","194.10000002384186","","48","","","3000","1","","","images/earth.jpg","images/tutrocket2","images/tutrocket1","null","images/tutrocket2","","1","practice","null","2","","",""
"d3-animate-choice","101","333061","0.0-61.0-1.13","2407","5018","21","Male","false","false","true","true","""event"",""trial"",""time""
""fullscreenenter"",""5"",""29610""
","
","
","""event"",""trial"",""time""
""fullscreenenter"",""5"",""29610""
","
","1969.6999999284744","","49","","","3000","1","","","images/tutgreenplanet.jpg","images/tutalien2","images/tutalien1","images/tutrocket2","images/tutalien1","images/nothing.png","2","practice","true","1","common","0","2022-12-06 14:34:14.402"
"two-step-fixation","102","334065","0.0-61.0-2.13","2407","5018","21","Male","false","false","true","true","""event"",""trial"",""time""
""fullscreenenter"",""5"",""29610""
","
","
","""event"",""trial"",""time""
""fullscreenenter"",""5"",""29610""
","
","","images/earth.jpg","","","","","","","","","","","","","","fixation","","","","","",""
"d3-animate-choice","103","336428","0.0-61.0-0.14","2407","5018","21","Male","false","false","true","true","""event"",""trial"",""time""
""fullscreenenter"",""5"",""29610""
","
","
","""event"",""trial"",""time""
""fullscreenenter"",""5"",""29610""
","
","345.8000000715256","","49","","","3000","1","777.7000000476837,1194.1000000238419,1617.9000000953674,1705.8000000715256,1953.4000000953674,2065.8000000715256","48,49,48,49,48,49","images/earth.jpg","images/tutrocket2","images/tutrocket1","null","images/tutrocket1","","1","practice","null","1","","",""
"d3-animate-choice","104","338448","0.0-61.0-1.14","2407","5018","21","Male","false","false","true","true","""event"",""trial"",""time""
""fullscreenenter"",""5"",""29610""
","
","
","""event"",""trial"",""time""
""fullscreenenter"",""5"",""29610""
","
","14.899999976158142","","48","","","3000","1","246.69999992847443,463,654.8999999761581,887.2999999523163,1158.6999999284744,1415.2999999523163,1606.6999999284744,1814.6999999284744","49,48,49,48,49,48,49,48","images/tutgreenplanet.jpg","images/tutalien2","images/tutalien1","images/tutrocket1","images/tutalien2","images/t.png","2","practice","false","2","rare","1","2022-12-06 14:34:19.788"
"two-step-fixation","105","339450","0.0-61.0-2.14","2407","5018","21","Male","false","false","true","true","""event"",""trial"",""time""
""fullscreenenter"",""5"",""29610""
","
","
","""event"",""trial"",""time""
""fullscreenenter"",""5"",""29610""
","
","","images/earth.jpg","","","","","","","","","","","","","","fixation","","","","","",""
"d3-animate-choice","106","341488","0.0-61.0-0.15","2407","5018","21","Male","false","false","true","true","""event"",""trial"",""time""
""fullscreenenter"",""5"",""29610""
","
","
","""event"",""trial"",""time""
""fullscreenenter"",""5"",""29610""
","
","32.199999928474426","","49","","","3000","1","256.1999999284744,448.1999999284744,600,976.0999999046326,1176.0999999046326,1384,1528.5,1848.2999999523163,1896.0999999046326","48,49,48,49,48,49,48,49,48","images/earth.jpg","images/tutrocket2","images/tutrocket1","null","images/tutrocket1","","1","practice","null","1","","",""
"d3-animate-choice","107","343681","0.0-61.0-1.15","2407","5018","21","Male","false","false","true","true","""event"",""trial"",""time""
""fullscreenenter"",""5"",""29610""
","
","
","""event"",""trial"",""time""
""fullscreenenter"",""5"",""29610""
","
","186.59999990463257","","48","","","3000","1","274.59999990463257,554.6999999284744,858.6999999284744,962.5999999046326,1339.0999999046326,1386.5999999046326","49,48,49,48,49,48","images/tutyellowplanet.jpg","images/tutalien4","images/tutalien3","images/tutrocket1","images/tutalien4","images/nothing.png","2","practice","true","2","common","0","2022-12-06 14:34:25.021"
"two-step-fixation","108","344689","0.0-61.0-2.15","2407","5018","21","Male","false","false","true","true","""event"",""trial"",""time""
""fullscreenenter"",""5"",""29610""
","
","
","""event"",""trial"",""time""
""fullscreenenter"",""5"",""29610""
","
","","images/earth.jpg","","","","","","","","","","","","","","fixation","","","","","",""
"d3-animate-choice","109","347020","0.0-61.0-0.16","2407","5018","21","Male","false","false","true","true","""event"",""trial"",""time""
""fullscreenenter"",""5"",""29610""
","
","
","""event"",""trial"",""time""
""fullscreenenter"",""5"",""29610""
","
","329.39999997615814","","49","","","3000","1","473.5,713.8999999761581,825.2000000476837,1233.3000000715256,1409.3000000715256,1665.2000000476837,1913.1000000238419,2249.8000000715256,2249.899999976158","48,49,48,49,48,49,48,48,49","images/earth.jpg","images/tutrocket2","images/tutrocket1","null","images/tutrocket1","","1","practice","null","1","","",""
"d3-animate-choice","110","349249","0.0-61.0-1.16","2407","5018","21","Male","false","false","true","true","""event"",""trial"",""time""
""fullscreenenter"",""5"",""29610""
","
","
","""event"",""trial"",""time""
""fullscreenenter"",""5"",""29610""
","
","222.20000004768372","","48","","","3000","1","318,630.1000000238419,814,941.9000000953674,1206,1213.8000000715256,1518.1000000238419,1710,1854.1000000238419,2094.100000023842","49,48,49,48,48,49,48,49,48,49","images/tutyellowplanet.jpg","images/tutalien4","images/tutalien3","images/tutrocket1","images/tutalien4","images/nothing.png","2","practice","true","2","common","0","2022-12-06 14:34:30.589"
"two-step-fixation","111","350266","0.0-61.0-2.16","2407","5018","21","Male","false","false","true","true","""event"",""trial"",""time""
""fullscreenenter"",""5"",""29610""
","
","
","""event"",""trial"",""time""
""fullscreenenter"",""5"",""29610""
","
","","images/earth.jpg","","","","","","","","","","","","","","fixation","","","","","",""
"d3-animate-choice","112","352544","0.0-61.0-0.17","2407","5018","21","Male","false","false","true","true","""event"",""trial"",""time""
""fullscreenenter"",""5"",""29610""
","
","
","""event"",""trial"",""time""
""fullscreenenter"",""5"",""29610""
","
","272.7000000476837","","49","","","3000","1","464.39999997615814,704.3999999761581,784.3999999761581,1032.5,1440.6000000238419,1768.8999999761581,2112.600000023842","48,49,48,48,49,48,49","images/earth.jpg","images/tutrocket2","images/tutrocket1","null","images/tutrocket1","","1","practice","null","1","","",""
"d3-animate-choice","113","354577","0.0-61.0-1.17","2407","5018","21","Male","false","false","true","true","""event"",""trial"",""time""
""fullscreenenter"",""5"",""29610""
","
","
","""event"",""trial"",""time""
""fullscreenenter"",""5"",""29610""
","
","26.59999990463257","","48","","","3000","1","146.5,346.59999990463257,490.39999997615814,898.5999999046326,906.3999999761581,1218.7999999523163,1258.3999999761581,1618.6999999284744,1634.3999999761581","49,48,49,48,49,49,48,49,48","images/tutyellowplanet.jpg","images/tutalien4","images/tutalien3","images/tutrocket1","images/tutalien4","images/t.png","2","practice","true","2","common","1","2022-12-06 14:34:35.917"
"two-step-fixation","114","355584","0.0-61.0-2.17","2407","5018","21","Male","false","false","true","true","""event"",""trial"",""time""
""fullscreenenter"",""5"",""29610""
","
","
","""event"",""trial"",""time""
""fullscreenenter"",""5"",""29610""
","
","","images/earth.jpg","","","","","","","","","","","","","","fixation","","","","","",""
"d3-animate-choice","115","357713","0.0-61.0-0.18","2407","5018","21","Male","false","false","true","true","""event"",""trial"",""time""
""fullscreenenter"",""5"",""29610""
","
","
","""event"",""trial"",""time""
""fullscreenenter"",""5"",""29610""
","
","121.90000009536743","","48","","","3000","1","394,458.10000002384186,706.5,706.6000000238419,937.9000000953674,986.2000000476837,1426.2000000476837,1457.8000000715256,1882,1905.8000000715256,2065.9000000953674","49,48,48,49,48,49,48,49,48,49,49","images/earth.jpg","images/tutrocket2","images/tutrocket1","null","images/tutrocket2","","1","practice","null","2","","",""
"d3-animate-choice","116","360064","0.0-61.0-1.18","2407","5018","21","Male","false","false","true","true","""event"",""trial"",""time""
""fullscreenenter"",""5"",""29610""
","
","
","""event"",""trial"",""time""
""fullscreenenter"",""5"",""29610""
","
","345.7999999523163","","48","","","3000","1","529.5,721.7000000476837,753.7999999523163,937.7999999523163,977.7000000476837,1201.8999999761581,1209.5","49,48,49,48,49,48,49","images/tutgreenplanet.jpg","images/tutalien2","images/tutalien1","images/tutrocket2","images/tutalien2","images/t.png","2","practice","true","2","common","1","2022-12-06 14:34:41.404"
"two-step-fixation","117","361072","0.0-61.0-2.18","2407","5018","21","Male","false","false","true","true","""event"",""trial"",""time""
""fullscreenenter"",""5"",""29610""
","
","
","""event"",""trial"",""time""
""fullscreenenter"",""5"",""29610""
","
","","images/earth.jpg","","","","","","","","","","","","","","fixation","","","","","",""
"d3-animate-choice","118","363145","0.0-61.0-0.19","2407","5018","21","Male","false","false","true","true","""event"",""trial"",""time""
""fullscreenenter"",""5"",""29610""
","
","
","""event"",""trial"",""time""
""fullscreenenter"",""5"",""29610""
","
","66.20000004768372","","49","","","3000","1","258.2000000476837,610.3999999761581,874.1000000238419,1106.1000000238419,1626.7000000476837","48,49,48,49,49","images/earth.jpg","images/tutrocket2","images/tutrocket1","null","images/tutrocket1","","1","practice","null","1","","",""
"d3-animate-choice","119","365455","0.0-61.0-1.19","2407","5018","21","Male","false","false","true","true","""event"",""trial"",""time""
""fullscreenenter"",""5"",""29610""
","
","
","""event"",""trial"",""time""
""fullscreenenter"",""5"",""29610""
","
","305.59999990463257","","49","","","3000","1","746,1073.5999999046326,1241.3999999761581,1425.3999999761581,1626,1817.2999999523163,2001.3999999761581,2258","49,48,49,48,49,48,49,48","images/tutgreenplanet.jpg","images/tutalien2","images/tutalien1","images/tutrocket1","images/tutalien1","images/nothing.png","2","practice","false","1","rare","0","2022-12-06 14:34:46.795"
"two-step-fixation","120","366461","0.0-61.0-2.19","2407","5018","21","Male","false","false","true","true","""event"",""trial"",""time""
""fullscreenenter"",""5"",""29610""
","
","
","""event"",""trial"",""time""
""fullscreenenter"",""5"",""29610""
","
","","images/earth.jpg","","","","","","","","","","","","","","fixation","","","","","",""
"d3-instructions","121","369996","0.0-62.0","2407","5018","21","Male","false","false","true","true","""event"",""trial"",""time""
""fullscreenenter"",""5"",""29610""
","
","
","""event"",""trial"",""time""
""fullscreenenter"",""5"",""29610""
","
","","","","","","","","","","","","","","","","","","","","","",""
"audio-keyboard-response","122","372012","0.0-63.0","2407","5018","21","Male","false","false","true","true","""event"",""trial"",""time""
""fullscreenenter"",""5"",""29610""
","
","
","""event"",""trial"",""time""
""fullscreenenter"",""5"",""29610""
","
","2021","audio/instructions/treasure_feedback.wav","32","","","","","","","","","","","","","","","","","","",""
"d3-instructions","123","381924","0.0-64.0","2407","5018","21","Male","false","false","true","true","""event"",""trial"",""time""
""fullscreenenter"",""5"",""29610""
","
","
","""event"",""trial"",""time""
""fullscreenenter"",""5"",""29610""
","
","","","","","","","","","","","","","","","","","","","","","",""
"d3-instructions","124","385508","0.0-65.0","2407","5018","21","Male","false","false","true","true","""event"",""trial"",""time""
""fullscreenenter"",""5"",""29610""
","
","
","""event"",""trial"",""time""
""fullscreenenter"",""5"",""29610""
","
","","","","","","","","","","","","","","","","","","","","","",""
"d3-instructions","125","387852","0.0-66.0","2407","5018","21","Male","false","false","true","true","""event"",""trial"",""time""
""fullscreenenter"",""5"",""29610""
","
","
","""event"",""trial"",""time""
""fullscreenenter"",""5"",""29610""
","
","","","","","","","","","","","","","","","","","","","","","",""
"d3-instructions","126","391548","0.0-67.0","2407","5018","21","Male","false","false","true","true","""event"",""trial"",""time""
""fullscreenenter"",""5"",""29610""
","
","
","""event"",""trial"",""time""
""fullscreenenter"",""5"",""29610""
","
","","","","","","","","","","","","","","","","","","","","","",""
"d3-instructions","127","395044","0.0-68.0","2407","5018","21","Male","false","false","true","true","""event"",""trial"",""time""
""fullscreenenter"",""5"",""29610""
","
","
","""event"",""trial"",""time""
""fullscreenenter"",""5"",""29610""
","
","","","","","","","","","","","","","","","","","","","","","",""
"instructions-quiz","128","397838","0.0-69.0","2407","5018","21","Male","false","false","true","true","""event"",""trial"",""time""
""fullscreenenter"",""5"",""29610""
","
","
","""event"",""trial"",""time""
""fullscreenenter"",""5"",""29610""
","
","2792.100000023842","audio/quiz/Q1_Prompt.wav","","1","","","","","","","","","","","","","","","","","",""
"audio-keyboard-response","129","399372","0.0-70.0","2407","5018","21","Male","false","false","true","true","""event"",""trial"",""time""
""fullscreenenter"",""5"",""29610""
","
","
","""event"",""trial"",""time""
""fullscreenenter"",""5"",""29610""
","
","1531","audio/quiz/Q1_Correct.wav","32","","","","","","","","","","","","","","","","","","",""
"instructions-quiz","130","403722","0.0-71.0","2407","5018","21","Male","false","false","true","true","""event"",""trial"",""time""
""fullscreenenter"",""5"",""29610""
","
","
","""event"",""trial"",""time""
""fullscreenenter"",""5"",""29610""
","
","4348.5","audio/quiz/Q2_Prompt.wav","","0","","","","","","","","","","","","","","","","","",""
"audio-keyboard-response","131","404660","0.0-72.0","2407","5018","21","Male","false","false","true","true","""event"",""trial"",""time""
""fullscreenenter"",""5"",""29610""
","
","
","""event"",""trial"",""time""
""fullscreenenter"",""5"",""29610""
","
","939","audio/quiz/Q2_Correct.wav","32","","","","","","","","","","","","","","","","","","",""
"instructions-quiz","132","407246","0.0-73.0","2407","5018","21","Male","false","false","true","true","""event"",""trial"",""time""
""fullscreenenter"",""5"",""29610""
","
","
","""event"",""trial"",""time""
""fullscreenenter"",""5"",""29610""
","
","2584.600000023842","audio/quiz/Q3_Prompt.wav","","1","","","","","","","","","","","","","","","","","",""
"audio-keyboard-response","133","407732","0.0-74.0","2407","5018","21","Male","false","false","true","true","""event"",""trial"",""time""
""fullscreenenter"",""5"",""29610""
","
","
","""event"",""trial"",""time""
""fullscreenenter"",""5"",""29610""
","
","491","audio/quiz/Q3_Correct.wav","32","","","","","","","","","","","","","","","","","","",""
"d3-instructions","134","410036","0.0-75.0","2407","5018","21","Male","false","false","true","true","""event"",""trial"",""time""
""fullscreenenter"",""5"",""29610""
","
","
","""event"",""trial"",""time""
""fullscreenenter"",""5"",""29610""
","
","","","","","","","","","","","","","","","","","","","","","",""
"d3-animate-choice","135","413393","0.0-76.0-0.0","2407","5018","21","Male","false","false","true","true","""event"",""trial"",""time""
""fullscreenenter"",""5"",""29610""
","
","
","""event"",""trial"",""time""
""fullscreenenter"",""5"",""29610""
","
","1350.7999999523163","","49","","","3000","1","","","images/earth.jpg","images/rocket1","images/rocket2","null","images/rocket2","","1","real","null","1","","",""
"d3-animate-choice","136","416137","0.0-76.0-1.0","2407","5018","21","Male","false","false","true","true","""event"",""trial"",""time""
""fullscreenenter"",""5"",""29610""
","
","
","""event"",""trial"",""time""
""fullscreenenter"",""5"",""29610""
","
","737.3999999761581","","49","","","3000","1","","","images/redplanet1.jpg","images/alien2","images/alien1","images/rocket2","images/alien1","images/t.png","2","real","true","1","common","1","2022-12-06 14:35:37.477"
"two-step-fixation","137","417145","0.0-76.0-2.0","2407","5018","21","Male","false","false","true","true","""event"",""trial"",""time""
""fullscreenenter"",""5"",""29610""
","
","
","""event"",""trial"",""time""
""fullscreenenter"",""5"",""29610""
","
","","images/earth.jpg","","","","","","","","","","","","","","fixation","","","","","",""
"d3-animate-choice","138","419401","0.0-76.0-0.1","2407","5018","21","Male","false","false","true","true","""event"",""trial"",""time""
""fullscreenenter"",""5"",""29610""
","
","
","""event"",""trial"",""time""
""fullscreenenter"",""5"",""29610""
","
","249.69999992847443","","49","","","3000","1","","","images/earth.jpg","images/rocket1","images/rocket2","null","images/rocket2","","1","real","null","1","","",""
"d3-animate-choice","139","422720","0.0-76.0-1.1","2407","5018","21","Male","false","false","true","true","""event"",""trial"",""time""
""fullscreenenter"",""5"",""29610""
","
","
","""event"",""trial"",""time""
""fullscreenenter"",""5"",""29610""
","
","1306.2000000476837","","48","","","3000","1","","","images/purpleplanet.jpg","images/alien4","images/alien3","images/rocket2","images/alien4","images/nothing.png","2","real","false","2","rare","0","2022-12-06 14:35:44.060"
"two-step-fixation","140","423738","0.0-76.0-2.1","2407","5018","21","Male","false","false","true","true","""event"",""trial"",""time""
""fullscreenenter"",""5"",""29610""
","
","
","""event"",""trial"",""time""
""fullscreenenter"",""5"",""29610""
","
","","images/earth.jpg","","","","","","","","","","","","","","fixation","","","","","",""
"d3-animate-choice","141","426015","0.0-76.0-0.2","2407","5018","21","Male","false","false","true","true","""event"",""trial"",""time""
""fullscreenenter"",""5"",""29610""
","
","
","""event"",""trial"",""time""
""fullscreenenter"",""5"",""29610""
","
","272.90000009536743","","49","","","3000","1","","","images/earth.jpg","images/rocket1","images/rocket2","null","images/rocket2","","1","real","null","1","","",""
"d3-animate-choice","142","428728","0.0-76.0-1.2","2407","5018","21","Male","false","false","true","true","""event"",""trial"",""time""
""fullscreenenter"",""5"",""29610""
","
","
","""event"",""trial"",""time""
""fullscreenenter"",""5"",""29610""
","
","699.4000000953674","","49","","","3000","1","","","images/redplanet1.jpg","images/alien2","images/alien1","images/rocket2","images/alien1","images/nothing.png","2","real","true","1","common","0","2022-12-06 14:35:50.068"
"two-step-fixation","143","429750","0.0-76.0-2.2","2407","5018","21","Male","false","false","true","true","""event"",""trial"",""time""
""fullscreenenter"",""5"",""29610""
","
","
","""event"",""trial"",""time""
""fullscreenenter"",""5"",""29610""
","
","","images/earth.jpg","","","","","","","","","","","","","","fixation","","","","","",""
"d3-animate-choice","144","432105","0.0-76.0-0.3","2407","5018","21","Male","false","false","true","true","""event"",""trial"",""time""
""fullscreenenter"",""5"",""29610""
","
","
","""event"",""trial"",""time""
""fullscreenenter"",""5"",""29610""
","
","348.5","","49","","","3000","1","","","images/earth.jpg","images/rocket1","images/rocket2","null","images/rocket2","","1","real","null","1","","",""
"d3-animate-choice","145","434534","0.0-76.0-1.3","2407","5018","21","Male","false","false","true","true","""event"",""trial"",""time""
""fullscreenenter"",""5"",""29610""
","
","
","""event"",""trial"",""time""
""fullscreenenter"",""5"",""29610""
","
","425.40000009536743","","49","","","3000","1","","","images/redplanet1.jpg","images/alien2","images/alien1","images/rocket2","images/alien1","images/nothing.png","2","real","true","1","common","0","2022-12-06 14:35:55.874"
"two-step-fixation","146","435537","0.0-76.0-2.3","2407","5018","21","Male","false","false","true","true","""event"",""trial"",""time""
""fullscreenenter"",""5"",""29610""
","
","
","""event"",""trial"",""time""
""fullscreenenter"",""5"",""29610""
","
","","images/earth.jpg","","","","","","","","","","","","","","fixation","","","","","",""
"d3-animate-choice","147","438519","0.0-76.0-0.4","2407","5018","21","Male","false","false","true","true","""event"",""trial"",""time""
""fullscreenenter"",""5"",""29610""
","
","
","""event"",""trial"",""time""
""fullscreenenter"",""5"",""29610""
","
","977.5","","49","","","3000","1","","","images/earth.jpg","images/rocket1","images/rocket2","null","images/rocket2","","1","real","null","1","","",""
"d3-animate-choice","148","441023","0.0-76.0-1.4","2407","5018","21","Male","false","false","true","true","""event"",""trial"",""time""
""fullscreenenter"",""5"",""29610""
","
","
","""event"",""trial"",""time""
""fullscreenenter"",""5"",""29610""
","
","500.3000000715256","","48","","","3000","1","","","images/redplanet1.jpg","images/alien2","images/alien1","images/rocket2","images/alien2","images/nothing.png","2","real","true","2","common","0","2022-12-06 14:36:02.363"
"two-step-fixation","149","442029","0.0-76.0-2.4","2407","5018","21","Male","false","false","true","true","""event"",""trial"",""time""
""fullscreenenter"",""5"",""29610""
","
","
","""event"",""trial"",""time""
""fullscreenenter"",""5"",""29610""
","
","","images/earth.jpg","","","","","","","","","","","","","","fixation","","","","","",""
"d3-animate-choice","150","444385","0.0-76.0-0.5","2407","5018","21","Male","false","false","true","true","""event"",""trial"",""time""
""fullscreenenter"",""5"",""29610""
","
","
","""event"",""trial"",""time""
""fullscreenenter"",""5"",""29610""
","
","350.10000002384186","","49","","","3000","1","","","images/earth.jpg","images/rocket1","images/rocket2","null","images/rocket2","","1","real","null","1","","",""
"d3-animate-choice","151","446777","0.0-76.0-1.5","2407","5018","21","Male","false","false","true","true","""event"",""trial"",""time""
""fullscreenenter"",""5"",""29610""
","
","
","""event"",""trial"",""time""
""fullscreenenter"",""5"",""29610""
","
","385.6999999284744","","49","","","3000","1","","","images/redplanet1.jpg","images/alien2","images/alien1","images/rocket2","images/alien1","images/nothing.png","2","real","true","1","common","0","2022-12-06 14:36:08.117"
"two-step-fixation","152","447784","0.0-76.0-2.5","2407","5018","21","Male","false","false","true","true","""event"",""trial"",""time""
""fullscreenenter"",""5"",""29610""
","
","
","""event"",""trial"",""time""
""fullscreenenter"",""5"",""29610""
","
","","images/earth.jpg","","","","","","","","","","","","","","fixation","","","","","",""
"d3-animate-choice","153","450129","0.0-76.0-0.6","2407","5018","21","Male","false","false","true","true","""event"",""trial"",""time""
""fullscreenenter"",""5"",""29610""
","
","
","""event"",""trial"",""time""
""fullscreenenter"",""5"",""29610""
","
","338.39999997615814","","48","","","3000","1","","","images/earth.jpg","images/rocket1","images/rocket2","null","images/rocket1","","1","real","null","2","","",""
"d3-animate-choice","154","452721","0.0-76.0-1.6","2407","5018","21","Male","false","false","true","true","""event"",""trial"",""time""
""fullscreenenter"",""5"",""29610""
","
","
","""event"",""trial"",""time""
""fullscreenenter"",""5"",""29610""
","
","586.1999999284744","","49","","","3000","1","","","images/purpleplanet.jpg","images/alien4","images/alien3","images/rocket1","images/alien3","images/nothing.png","2","real","true","1","common","0","2022-12-06 14:36:14.061"
"two-step-fixation","155","453730","0.0-76.0-2.6","2407","5018","21","Male","false","false","true","true","""event"",""trial"",""time""
""fullscreenenter"",""5"",""29610""
","
","
","""event"",""trial"",""time""
""fullscreenenter"",""5"",""29610""
","
","","images/earth.jpg","","","","","","","","","","","","","","fixation","","","","","",""
"d3-animate-choice","156","456001","0.0-76.0-0.7","2407","5018","21","Male","false","false","true","true","""event"",""trial"",""time""
""fullscreenenter"",""5"",""29610""
","
","
","""event"",""trial"",""time""
""fullscreenenter"",""5"",""29610""
","
","265.39999997615814","","48","","","3000","1","","","images/earth.jpg","images/rocket1","images/rocket2","null","images/rocket1","","1","real","null","2","","",""
"d3-animate-choice","157","458665","0.0-76.0-1.7","2407","5018","21","Male","false","false","true","true","""event"",""trial"",""time""
""fullscreenenter"",""5"",""29610""
","
","
","""event"",""trial"",""time""
""fullscreenenter"",""5"",""29610""
","
","657.3999999761581","","48","","","3000","1","","","images/purpleplanet.jpg","images/alien4","images/alien3","images/rocket1","images/alien4","images/nothing.png","2","real","true","2","common","0","2022-12-06 14:36:20.005"
"two-step-fixation","158","459673","0.0-76.0-2.7","2407","5018","21","Male","false","false","true","true","""event"",""trial"",""time""
""fullscreenenter"",""5"",""29610""
","
","
","""event"",""trial"",""time""
""fullscreenenter"",""5"",""29610""
","
","","images/earth.jpg","","","","","","","","","","","","","","fixation","","","","","",""
"d3-animate-choice","159","462002","0.0-76.0-0.8","2407","5018","21","Male","false","false","true","true","""event"",""trial"",""time""
""fullscreenenter"",""5"",""29610""
","
","
","""event"",""trial"",""time""
""fullscreenenter"",""5"",""29610""
","
","322","","49","","","3000","1","","","images/earth.jpg","images/rocket1","images/rocket2","null","images/rocket2","","1","real","null","1","","",""
"d3-animate-choice","160","464561","0.0-76.0-1.8","2407","5018","21","Male","false","false","true","true","""event"",""trial"",""time""
""fullscreenenter"",""5"",""29610""
","
","
","""event"",""trial"",""time""
""fullscreenenter"",""5"",""29610""
","
","552.8000000715256","","49","","","3000","1","","","images/redplanet1.jpg","images/alien2","images/alien1","images/rocket2","images/alien1","images/nothing.png","2","real","true","1","common","0","2022-12-06 14:36:25.901"
"two-step-fixation","161","465570","0.0-76.0-2.8","2407","5018","21","Male","false","false","true","true","""event"",""trial"",""time""
""fullscreenenter"",""5"",""29610""
","
","
","""event"",""trial"",""time""
""fullscreenenter"",""5"",""29610""
","
","","images/earth.jpg","","","","","","","","","","","","","","fixation","","","","","",""
"d3-animate-choice","162","468072","0.0-76.0-0.9","2407","5018","21","Male","false","false","true","true","""event"",""trial"",""time""
""fullscreenenter"",""5"",""29610""
","
","
","""event"",""trial"",""time""
""fullscreenenter"",""5"",""29610""
","
","496.6999999284744","","49","","","3000","1","","","images/earth.jpg","images/rocket1","images/rocket2","null","images/rocket2","","1","real","null","1","","",""
"d3-animate-choice","163","470512","0.0-76.0-1.9","2407","5018","21","Male","false","false","true","true","""event"",""trial"",""time""
""fullscreenenter"",""5"",""29610""
","
","
","""event"",""trial"",""time""
""fullscreenenter"",""5"",""29610""
","
","434.3000000715256","","49","","","3000","1","","","images/redplanet1.jpg","images/alien2","images/alien1","images/rocket2","images/alien1","images/nothing.png","2","real","true","1","common","0","2022-12-06 14:36:31.852"
"two-step-fixation","164","471518","0.0-76.0-2.9","2407","5018","21","Male","false","false","true","true","""event"",""trial"",""time""
""fullscreenenter"",""5"",""29610""
","
","
","""event"",""trial"",""time""
""fullscreenenter"",""5"",""29610""
","
","","images/earth.jpg","","","","","","","","","","","","","","fixation","","","","","",""
"d3-animate-choice","165","473776","0.0-76.0-0.10","2407","5018","21","Male","false","false","true","true","""event"",""trial"",""time""
""fullscreenenter"",""5"",""29610""
","
","
","""event"",""trial"",""time""
""fullscreenenter"",""5"",""29610""
","
","252.70000004768372","","49","","","3000","1","","","images/earth.jpg","images/rocket1","images/rocket2","null","images/rocket2","","1","real","null","1","","",""
"d3-animate-choice","166","476274","0.0-76.0-1.10","2407","5018","21","Male","false","false","true","true","""event"",""trial"",""time""
""fullscreenenter"",""5"",""29610""
","
","
","""event"",""trial"",""time""
""fullscreenenter"",""5"",""29610""
","
","490.2999999523163","","48","","","3000","1","","","images/redplanet1.jpg","images/alien2","images/alien1","images/rocket2","images/alien2","images/nothing.png","2","real","true","2","common","0","2022-12-06 14:36:37.614"
"two-step-fixation","167","477281","0.0-76.0-2.10","2407","5018","21","Male","false","false","true","true","""event"",""trial"",""time""
""fullscreenenter"",""5"",""29610""
","
","
","""event"",""trial"",""time""
""fullscreenenter"",""5"",""29610""
","
","","images/earth.jpg","","","","","","","","","","","","","","fixation","","","","","",""
"d3-animate-choice","168","479801","0.0-76.0-0.11","2407","5018","21","Male","false","false","true","true","""event"",""trial"",""time""
""fullscreenenter"",""5"",""29610""
","
","
","""event"",""trial"",""time""
""fullscreenenter"",""5"",""29610""
","
","514.1000000238419","","49","","","3000","1","","","images/earth.jpg","images/rocket1","images/rocket2","null","images/rocket2","","1","real","null","1","","",""
"d3-animate-choice","169","482313","0.0-76.0-1.11","2407","5018","21","Male","false","false","true","true","""event"",""trial"",""time""
""fullscreenenter"",""5"",""29610""
","
","
","""event"",""trial"",""time""
""fullscreenenter"",""5"",""29610""
","
","506.39999997615814","","48","","","3000","1","","","images/redplanet1.jpg","images/alien2","images/alien1","images/rocket2","images/alien2","images/t.png","2","real","true","2","common","1","2022-12-06 14:36:43.653"
"two-step-fixation","170","483321","0.0-76.0-2.11","2407","5018","21","Male","false","false","true","true","""event"",""trial"",""time""
""fullscreenenter"",""5"",""29610""
","
","
","""event"",""trial"",""time""
""fullscreenenter"",""5"",""29610""
","
","","images/earth.jpg","","","","","","","","","","","","","","fixation","","","","","",""
"d3-animate-choice","171","486143","0.0-76.0-0.12","2407","5018","21","Male","false","false","true","true","""event"",""trial"",""time""
""fullscreenenter"",""5"",""29610""
","
","
","""event"",""trial"",""time""
""fullscreenenter"",""5"",""29610""
","
","817.7000000476837","","48","","","3000","1","","","images/earth.jpg","images/rocket1","images/rocket2","null","images/rocket1","","1","real","null","2","","",""
"d3-animate-choice","172","489409","0.0-76.0-1.12","2407","5018","21","Male","false","false","true","true","""event"",""trial"",""time""
""fullscreenenter"",""5"",""29610""
","
","
","""event"",""trial"",""time""
""fullscreenenter"",""5"",""29610""
","
","1259.7000000476837","","49","","","3000","1","","","images/redplanet1.jpg","images/alien2","images/alien1","images/rocket1","images/alien1","images/t.png","2","real","false","1","rare","1","2022-12-06 14:36:50.749"
"two-step-fixation","173","490417","0.0-76.0-2.12","2407","5018","21","Male","false","false","true","true","""event"",""trial"",""time""
""fullscreenenter"",""5"",""29610""
","
","
","""event"",""trial"",""time""
""fullscreenenter"",""5"",""29610""
","
","","images/earth.jpg","","","","","","","","","","","","","","fixation","","","","","",""
"d3-animate-choice","174","492881","0.0-76.0-0.13","2407","5018","21","Male","false","false","true","true","""event"",""trial"",""time""
""fullscreenenter"",""5"",""29610""
","
","
","""event"",""trial"",""time""
""fullscreenenter"",""5"",""29610""
","
","457.5","","48","","","3000","1","","","images/earth.jpg","images/rocket1","images/rocket2","null","images/rocket1","","1","real","null","2","","",""
"d3-animate-choice","175","495901","0.0-76.0-1.13","2407","5018","21","Male","false","false","true","true","""event"",""trial"",""time""
""fullscreenenter"",""5"",""29610""
","
","
","""event"",""trial"",""time""
""fullscreenenter"",""5"",""29610""
","
","1017.8000000715256","","49","","","3000","1","","","images/purpleplanet.jpg","images/alien4","images/alien3","images/rocket1","images/alien3","images/nothing.png","2","real","true","1","common","0","2022-12-06 14:36:57.241"
"two-step-fixation","176","496905","0.0-76.0-2.13","2407","5018","21","Male","false","false","true","true","""event"",""trial"",""time""
""fullscreenenter"",""5"",""29610""
","
","
","""event"",""trial"",""time""
""fullscreenenter"",""5"",""29610""
","
","","images/earth.jpg","","","","","","","","","","","","","","fixation","","","","","",""
"d3-animate-choice","177","499453","0.0-76.0-0.14","2407","5018","21","Male","false","false","true","true","""event"",""trial"",""time""
""fullscreenenter"",""5"",""29610""
","
","
","""event"",""trial"",""time""
""fullscreenenter"",""5"",""29610""
","
","545.2000000476837","","49","","","3000","1","","","images/earth.jpg","images/rocket1","images/rocket2","null","images/rocket2","","1","real","null","1","","",""
"d3-animate-choice","178","502193","0.0-76.0-1.14","2407","5018","21","Male","false","false","true","true","""event"",""trial"",""time""
""fullscreenenter"",""5"",""29610""
","
","
","""event"",""trial"",""time""
""fullscreenenter"",""5"",""29610""
","
","733.7000000476837","","49","","","3000","1","","","images/purpleplanet.jpg","images/alien4","images/alien3","images/rocket2","images/alien3","images/nothing.png","2","real","false","1","rare","0","2022-12-06 14:37:03.533"
"two-step-fixation","179","503200","0.0-76.0-2.14","2407","5018","21","Male","false","false","true","true","""event"",""trial"",""time""
""fullscreenenter"",""5"",""29610""
","
","
","""event"",""trial"",""time""
""fullscreenenter"",""5"",""29610""
","
","","images/earth.jpg","","","","","","","","","","","","","","fixation","","","","","",""
"d3-animate-choice","180","505625","0.0-76.0-0.15","2407","5018","21","Male","false","false","true","true","""event"",""trial"",""time""
""fullscreenenter"",""5"",""29610""
","
","
","""event"",""trial"",""time""
""fullscreenenter"",""5"",""29610""
","
","417.89999997615814","","49","","","3000","1","","","images/earth.jpg","images/rocket1","images/rocket2","null","images/rocket2","","1","real","null","1","","",""
"d3-animate-choice","181","508281","0.0-76.0-1.15","2407","5018","21","Male","false","false","true","true","""event"",""trial"",""time""
""fullscreenenter"",""5"",""29610""
","
","
","""event"",""trial"",""time""
""fullscreenenter"",""5"",""29610""
","
","649.2000000476837","","48","","","3000","1","","","images/purpleplanet.jpg","images/alien4","images/alien3","images/rocket2","images/alien4","images/nothing.png","2","real","false","2","rare","0","2022-12-06 14:37:09.621"
"two-step-fixation","182","509289","0.0-76.0-2.15","2407","5018","21","Male","false","false","true","true","""event"",""trial"",""time""
""fullscreenenter"",""5"",""29610""
","
","
","""event"",""trial"",""time""
""fullscreenenter"",""5"",""29610""
","
","","images/earth.jpg","","","","","","","","","","","","","","fixation","","","","","",""
"d3-animate-choice","183","511577","0.0-76.0-0.16","2407","5018","21","Male","false","false","true","true","""event"",""trial"",""time""
""fullscreenenter"",""5"",""29610""
","
","
","""event"",""trial"",""time""
""fullscreenenter"",""5"",""29610""
","
","281.5","","49","","","3000","1","","","images/earth.jpg","images/rocket1","images/rocket2","null","images/rocket2","","1","real","null","1","","",""
"d3-animate-choice","184","514052","0.0-76.0-1.16","2407","5018","21","Male","false","false","true","true","""event"",""trial"",""time""
""fullscreenenter"",""5"",""29610""
","
","
","""event"",""trial"",""time""
""fullscreenenter"",""5"",""29610""
","
","473.3000000715256","","48","","","3000","1","","","images/purpleplanet.jpg","images/alien4","images/alien3","images/rocket2","images/alien4","images/t.png","2","real","false","2","rare","1","2022-12-06 14:37:15.392"
"two-step-fixation","185","515057","0.0-76.0-2.16","2407","5018","21","Male","false","false","true","true","""event"",""trial"",""time""
""fullscreenenter"",""5"",""29610""
","
","
","""event"",""trial"",""time""
""fullscreenenter"",""5"",""29610""
","
","","images/earth.jpg","","","","","","","","","","","","","","fixation","","","","","",""
"d3-animate-choice","186","517537","0.0-76.0-0.17","2407","5018","21","Male","false","false","true","true","""event"",""trial"",""time""
""fullscreenenter"",""5"",""29610""
","
","
","""event"",""trial"",""time""
""fullscreenenter"",""5"",""29610""
","
","473.7000000476837","","48","","","3000","1","","","images/earth.jpg","images/rocket1","images/rocket2","null","images/rocket1","","1","real","null","2","","",""
"d3-animate-choice","187","520072","0.0-76.0-1.17","2407","5018","21","Male","false","false","true","true","""event"",""trial"",""time""
""fullscreenenter"",""5"",""29610""
","
","
","""event"",""trial"",""time""
""fullscreenenter"",""5"",""29610""
","
","528.8000000715256","","48","","","3000","1","","","images/purpleplanet.jpg","images/alien4","images/alien3","images/rocket1","images/alien4","images/nothing.png","2","real","true","2","common","0","2022-12-06 14:37:21.413"
"two-step-fixation","188","521081","0.0-76.0-2.17","2407","5018","21","Male","false","false","true","true","""event"",""trial"",""time""
""fullscreenenter"",""5"",""29610""
","
","
","""event"",""trial"",""time""
""fullscreenenter"",""5"",""29610""
","
","","images/earth.jpg","","","","","","","","","","","","","","fixation","","","","","",""
"d3-animate-choice","189","523766","0.0-76.0-0.18","2407","5018","21","Male","false","false","true","true","""event"",""trial"",""time""
""fullscreenenter"",""5"",""29610""
","
","
","""event"",""trial"",""time""
""fullscreenenter"",""5"",""29610""
","
","674","","49","","","3000","1","","","images/earth.jpg","images/rocket1","images/rocket2","null","images/rocket2","","1","real","null","1","","",""
"d3-animate-choice","190","526281","0.0-76.0-1.18","2407","5018","21","Male","false","false","true","true","""event"",""trial"",""time""
""fullscreenenter"",""5"",""29610""
","
","
","""event"",""trial"",""time""
""fullscreenenter"",""5"",""29610""
","
","508.8000000715256","","49","","","3000","1","","","images/redplanet1.jpg","images/alien2","images/alien1","images/rocket2","images/alien1","images/t.png","2","real","true","1","common","1","2022-12-06 14:37:27.621"
"two-step-fixation","191","527290","0.0-76.0-2.18","2407","5018","21","Male","false","false","true","true","""event"",""trial"",""time""
""fullscreenenter"",""5"",""29610""
","
","
","""event"",""trial"",""time""
""fullscreenenter"",""5"",""29610""
","
","","images/earth.jpg","","","","","","","","","","","","","","fixation","","","","","",""
"d3-animate-choice","192","529417","0.0-76.0-0.19","2407","5018","21","Male","false","false","true","true","""event"",""trial"",""time""
""fullscreenenter"",""5"",""29610""
","
","
","""event"",""trial"",""time""
""fullscreenenter"",""5"",""29610""
","
","120.5","","48","","","3000","1","384.8000000715256,536.8000000715256,784.5,969,1208.4000000953674,1352.8000000715256,1640.7000000476837,1736.7000000476837,2056.8000000715256","49,48,49,48,49,48,49,48,49","images/earth.jpg","images/rocket1","images/rocket2","null","images/rocket1","","1","real","null","2","","",""
"d3-animate-choice","193","531430","0.0-76.0-1.19","2407","5018","21","Male","false","false","true","true","""event"",""trial"",""time""
""fullscreenenter"",""5"",""29610""
","
","
","""event"",""trial"",""time""
""fullscreenenter"",""5"",""29610""
","
","9.299999952316284","","48","","","3000","1","425.2999999523163,665.2000000476837,921.3999999761581,985.6000000238419,1265.7000000476837,1465.2999999523163,1617.6000000238419,1913.6000000238419","49,48,49,48,48,49,48,49","images/purpleplanet.jpg","images/alien4","images/alien3","images/rocket1","images/alien4","images/t.png","2","real","true","2","common","1","2022-12-06 14:37:32.770"
"two-step-fixation","194","532433","0.0-76.0-2.19","2407","5018","21","Male","false","false","true","true","""event"",""trial"",""time""
""fullscreenenter"",""5"",""29610""
","
","
","""event"",""trial"",""time""
""fullscreenenter"",""5"",""29610""
","
","","images/earth.jpg","","","","","","","","","","","","","","fixation","","","","","",""
"d3-animate-choice","195","534569","0.0-76.0-0.20","2407","5018","21","Male","false","false","true","true","""event"",""trial"",""time""
""fullscreenenter"",""5"",""29610""
","
","
","""event"",""trial"",""time""
""fullscreenenter"",""5"",""29610""
","
","129","","49","","","3000","1","289.2999999523163,497.1999999284744,633.5,857.3999999761581,897.3999999761581,1161.5,1257.5,1497.2999999523163,1649.1999999284744,1898,2081.1999999284744","48,49,48,49,48,48,49,48,49,48,49","images/earth.jpg","images/rocket1","images/rocket2","null","images/rocket2","","1","real","null","1","","",""
"d3-animate-choice","196","536597","0.0-76.0-1.20","2407","5018","21","Male","false","false","true","true","""event"",""trial"",""time""
""fullscreenenter"",""5"",""29610""
","
","
","""event"",""trial"",""time""
""fullscreenenter"",""5"",""29610""
","
","17.600000023841858","","48","","","3000","1","297.5,393.8000000715256,561.5,753.6000000238419,865.8000000715256,1105.5,1161.5,1369.3999999761581,1521.3000000715256,1657.7000000476837,1865.7000000476837,1945.3999999761581","48,49,48,49,48,48,49,48,49,48,49,48","images/redplanet1.jpg","images/alien2","images/alien1","images/rocket2","images/alien2","images/t.png","2","real","true","2","common","1","2022-12-06 14:37:37.937"
"two-step-fixation","197","537601","0.0-76.0-2.20","2407","5018","21","Male","false","false","true","true","""event"",""trial"",""time""
""fullscreenenter"",""5"",""29610""
","
","
","""event"",""trial"",""time""
""fullscreenenter"",""5"",""29610""
","
","","images/earth.jpg","","","","","","","","","","","","","","fixation","","","","","",""
"d3-animate-choice","198","539774","0.0-76.0-0.21","2407","5018","21","Male","false","false","true","true","""event"",""trial"",""time""
""fullscreenenter"",""5"",""29610""
","
","
","""event"",""trial"",""time""
""fullscreenenter"",""5"",""29610""
","
","169.5","","48","","","3000","1","288.89999997615814,449,681.1000000238419,721.1000000238419,945,1041.1000000238419,1240.8999999761581,1416.8000000715256,1585.1000000238419,1776.8000000715256,2041.1000000238419,2097.2000000476837","49,48,49,48,48,49,48,49,48,49,48,49","images/earth.jpg","images/rocket1","images/rocket2","null","images/rocket1","","1","real","null","2","","",""
"d3-animate-choice","199","541886","0.0-76.0-1.21","2407","5018","21","Male","false","false","true","true","""event"",""trial"",""time""
""fullscreenenter"",""5"",""29610""
","
","
","""event"",""trial"",""time""
""fullscreenenter"",""5"",""29610""
","
","108.20000004768372","","48","","","3000","1","236.5,396.60000002384186,532.7000000476837,700.3999999761581,780.3999999761581,956.7000000476837,1004.6000000238419,1236.5,1252.3999999761581,1492.5,1629,1780.3999999761581,1988.5,2060.600000023842","49,48,49,48,49,48,49,48,49,49,48,49,48,49","images/purpleplanet.jpg","images/alien4","images/alien3","images/rocket1","images/alien4","images/t.png","2","real","true","2","common","1","2022-12-06 14:37:43.227"
"two-step-fixation","200","542888","0.0-76.0-2.21","2407","5018","21","Male","false","false","true","true","""event"",""trial"",""time""
""fullscreenenter"",""5"",""29610""
","
","
","""event"",""trial"",""time""
""fullscreenenter"",""5"",""29610""
","
","","images/earth.jpg","","","","","","","","","","","","","","fixation","","","","","",""
"d3-animate-choice","201","545089","0.0-76.0-0.22","2407","5018","21","Male","false","false","true","true","""event"",""trial"",""time""
""fullscreenenter"",""5"",""29610""
","
","
","""event"",""trial"",""time""
""fullscreenenter"",""5"",""29610""
","
","193.79999995231628","","48","","","3000","1","209.79999995231628,425.89999997615814,441.6999999284744,633.7999999523163,673.6999999284744,873.7999999523163,905.7999999523163,1114.2999999523163,1297.8999999761581,1401.8999999761581,1657.6999999284744,1697.6999999284744,1961.8999999761581,2153.6999999284744","49,49,48,49,48,49,48,49,48,49,49,48,48,49","images/earth.jpg","images/rocket1","images/rocket2","null","images/rocket1","","1","real","null","2","","",""
"d3-animate-choice","202","547264","0.0-76.0-1.22","2407","5018","21","Male","false","false","true","true","""event"",""trial"",""time""
""fullscreenenter"",""5"",""29610""
","
","
","""event"",""trial"",""time""
""fullscreenenter"",""5"",""29610""
","
","169.5","","48","","","3000","1","370,497.5,658.3000000715256,793.5,937.6000000238419,1105.5,1234,1473.3999999761581,1713.6000000238419,1905.7000000476837,2105.600000023842","49,48,49,48,49,48,49,49,49,49,49","images/purpleplanet.jpg","images/alien4","images/alien3","images/rocket1","images/alien4","images/t.png","2","real","true","2","common","1","2022-12-06 14:37:48.604"
"two-step-fixation","203","548268","0.0-76.0-2.22","2407","5018","21","Male","false","false","true","true","""event"",""trial"",""time""
""fullscreenenter"",""5"",""29610""
","
","
","""event"",""trial"",""time""
""fullscreenenter"",""5"",""29610""
","
","","images/earth.jpg","","","","","","","","","","","","","","fixation","","","","","",""
"d3-animate-choice","204","550413","0.0-76.0-0.23","2407","5018","21","Male","false","false","true","true","""event"",""trial"",""time""
""fullscreenenter"",""5"",""29610""
","
","
","""event"",""trial"",""time""
""fullscreenenter"",""5"",""29610""
","
","142.39999997615814","","49","","","3000","1","262.39999997615814,374.2000000476837,486.5,558.8000000715256,694.5,766.5,926.3999999761581,990.3999999761581,1150.3999999761581,1190.3999999761581,1430.3999999761581,1502.5,1678.5,1726.8000000715256,1910.3000000715256,2038.5,2142.399999976158","48,49,48,49,48,49,48,49,48,49,49,48,49,48,49,48,49","images/earth.jpg","images/rocket1","images/rocket2","null","images/rocket2","","1","real","null","1","","",""
"d3-animate-choice","205","552593","0.0-76.0-1.23","2407","5018","21","Male","false","false","true","true","""event"",""trial"",""time""
""fullscreenenter"",""5"",""29610""
","
","
","""event"",""trial"",""time""
""fullscreenenter"",""5"",""29610""
","
","173.09999990463257","","48","","","3000","1","269.1999999284744,469.1999999284744,501.1999999284744,709.1999999284744,725.2999999523163,973.2999999523163,997.0999999046326,1229.3999999761581,1261,1469.0999999046326,1717.1999999284744,1901.2999999523163,2109.1999999284744","49,48,49,48,49,49,48,48,49,49,49,49,49","images/purpleplanet.jpg","images/alien4","images/alien3","images/rocket2","images/alien4","images/t.png","2","real","false","2","rare","1","2022-12-06 14:37:53.933"
"two-step-fixation","206","553599","0.0-76.0-2.23","2407","5018","21","Male","false","false","true","true","""event"",""trial"",""time""
""fullscreenenter"",""5"",""29610""
","
","
","""event"",""trial"",""time""
""fullscreenenter"",""5"",""29610""
","
","","images/earth.jpg","","","","","","","","","","","","","","fixation","","","","","",""
"d3-animate-choice","207","555672","0.0-76.0-0.24","2407","5018","21","Male","false","false","true","true","""event"",""trial"",""time""
""fullscreenenter"",""5"",""29610""
","
","
","""event"",""trial"",""time""
""fullscreenenter"",""5"",""29610""
","
","66.79999995231628","","48","","","3000","1","363.10000002384186,363.2000000476837,922.8999999761581,1651.1000000238419,1970.8999999761581","48,49,49,48,49","images/earth.jpg","images/rocket1","images/rocket2","null","images/rocket1","","1","real","null","2","","",""
"d3-animate-choice","208","557857","0.0-76.0-1.24","2407","5018","21","Male","false","false","true","true","""event"",""trial"",""time""
""fullscreenenter"",""5"",""29610""
","
","
","""event"",""trial"",""time""
""fullscreenenter"",""5"",""29610""
","
","178.39999997615814","","49","","","3000","1","394.39999997615814,666.6999999284744,890.6000000238419,906.1000000238419,1178.6000000238419,1314.1000000238419,1466.5,1698.3999999761581,1874.2999999523163,2066.2999999523163","49,49,48,49,48,49,48,49,48,49","images/redplanet1.jpg","images/alien2","images/alien1","images/rocket1","images/alien1","images/nothing.png","2","real","false","1","rare","0","2022-12-06 14:37:59.197"
"two-step-fixation","209","558864","0.0-76.0-2.24","2407","5018","21","Male","false","false","true","true","""event"",""trial"",""time""
""fullscreenenter"",""5"",""29610""
","
","
","""event"",""trial"",""time""
""fullscreenenter"",""5"",""29610""
","
","","images/earth.jpg","","","","","","","","","","","","","","fixation","","","","","",""
"d3-animate-choice","210","561061","0.0-76.0-0.25","2407","5018","21","Male","false","false","true","true","""event"",""trial"",""time""
""fullscreenenter"",""5"",""29610""
","
","
","""event"",""trial"",""time""
""fullscreenenter"",""5"",""29610""
","
","193.29999995231628","","48","","","3000","1","385.39999997615814,553.2999999523163,753.3999999761581,850.2000000476837,1073.2999999523163,1129.6000000238419,1393.7000000476837,1401.2000000476837,1705.2999999523163,1953.3999999761581,2177.399999976158","49,48,49,48,49,48,49,48,48,49,48","images/earth.jpg","images/rocket1","images/rocket2","null","images/rocket1","","1","real","null","2","","",""
"d3-animate-choice","211","563465","0.0-76.0-1.25","2407","5018","21","Male","false","false","true","true","""event"",""trial"",""time""
""fullscreenenter"",""5"",""29610""
","
","
","""event"",""trial"",""time""
""fullscreenenter"",""5"",""29610""
","
","397.10000002384186","","48","","","3000","1","653,885.3000000715256,1197.2000000476837,2349.4000000953674","48,49,48,49","images/purpleplanet.jpg","images/alien4","images/alien3","images/rocket1","images/alien4","images/t.png","2","real","true","2","common","1","2022-12-06 14:38:04.805"
"two-step-fixation","212","564472","0.0-76.0-2.25","2407","5018","21","Male","false","false","true","true","""event"",""trial"",""time""
""fullscreenenter"",""5"",""29610""
","
","
","""event"",""trial"",""time""
""fullscreenenter"",""5"",""29610""
","
","","images/earth.jpg","","","","","","","","","","","","","","fixation","","","","","",""
"d3-animate-choice","213","566518","0.0-76.0-0.26","2407","5018","21","Male","false","false","true","true","""event"",""trial"",""time""
""fullscreenenter"",""5"",""29610""
","
","
","""event"",""trial"",""time""
""fullscreenenter"",""5"",""29610""
","
","42.299999952316284","","48","","","3000","1","282.5,522.0999999046326,762.0999999046326,818.2999999523163,1418.2999999523163,1698.5,1962.1999999284744","48,48,49,48,48,48,48","images/earth.jpg","images/rocket1","images/rocket2","null","images/rocket1","","1","real","null","2","","",""
"d3-animate-choice","214","568741","0.0-76.0-1.26","2407","5018","21","Male","false","false","true","true","""event"",""trial"",""time""
""fullscreenenter"",""5"",""29610""
","
","
","""event"",""trial"",""time""
""fullscreenenter"",""5"",""29610""
","
","211.79999995231628","","48","","","3000","1","460.10000002384186,731.8999999761581,1644.2000000476837,2068","48,48,48,48","images/purpleplanet.jpg","images/alien4","images/alien3","images/rocket1","images/alien4","images/t.png","2","real","true","2","common","1","2022-12-06 14:38:10.081"
"two-step-fixation","215","569748","0.0-76.0-2.26","2407","5018","21","Male","false","false","true","true","""event"",""trial"",""time""
""fullscreenenter"",""5"",""29610""
","
","
","""event"",""trial"",""time""
""fullscreenenter"",""5"",""29610""
","
","","images/earth.jpg","","","","","","","","","","","","","","fixation","","","","","",""
"d3-animate-choice","216","572073","0.0-76.0-0.27","2407","5018","21","Male","false","false","true","true","""event"",""trial"",""time""
""fullscreenenter"",""5"",""29610""
","
","
","""event"",""trial"",""time""
""fullscreenenter"",""5"",""29610""
","
","318.5","","48","","","3000","1","598.7000000476837,926.5,1246.5,1582.6000000238419,1958.7000000476837","48,48,48,48,48","images/earth.jpg","images/rocket1","images/rocket2","null","images/rocket1","","1","real","null","2","","",""
"d3-animate-choice","217","574361","0.0-76.0-1.27","2407","5018","21","Male","false","false","true","true","""event"",""trial"",""time""
""fullscreenenter"",""5"",""29610""
","
","
","""event"",""trial"",""time""
""fullscreenenter"",""5"",""29610""
","
","281.60000002384186","","48","","","3000","1","761.3999999761581,1153.3999999761581,1505.6000000238419,1961.3999999761581","48,48,48,48","images/redplanet1.jpg","images/alien2","images/alien1","images/rocket1","images/alien2","images/nothing.png","2","real","false","2","rare","0","2022-12-06 14:38:15.701"
"two-step-fixation","218","575364","0.0-76.0-2.27","2407","5018","21","Male","false","false","true","true","""event"",""trial"",""time""
""fullscreenenter"",""5"",""29610""
","
","
","""event"",""trial"",""time""
""fullscreenenter"",""5"",""29610""
","
","","images/earth.jpg","","","","","","","","","","","","","","fixation","","","","","",""
"d3-animate-choice","219","577841","0.0-76.0-0.28","2407","5018","21","Male","false","false","true","true","""event"",""trial"",""time""
""fullscreenenter"",""5"",""29610""
","
","
","""event"",""trial"",""time""
""fullscreenenter"",""5"",""29610""
","
","470.7000000476837","","49","","","3000","1","926.7000000476837,1286.6000000238419,1734.7000000476837,2318.600000023842","48,49,48,48","images/earth.jpg","images/rocket1","images/rocket2","null","images/rocket2","","1","real","null","1","","",""
"d3-animate-choice","220","580078","0.0-76.0-1.28","2407","5018","21","Male","false","false","true","true","""event"",""trial"",""time""
""fullscreenenter"",""5"",""29610""
","
","
","""event"",""trial"",""time""
""fullscreenenter"",""5"",""29610""
","
","233.69999992847443","","49","","","3000","1","601.8999999761581,985.5,1273.6999999284744,1577.7999999523163,1825.5999999046326,2105.5999999046326","49,49,48,49,48,49","images/redplanet1.jpg","images/alien2","images/alien1","images/rocket2","images/alien1","images/nothing.png","2","real","true","1","common","0","2022-12-06 14:38:21.418"
"two-step-fixation","221","581081","0.0-76.0-2.28","2407","5018","21","Male","false","false","true","true","""event"",""trial"",""time""
""fullscreenenter"",""5"",""29610""
","
","
","""event"",""trial"",""time""
""fullscreenenter"",""5"",""29610""
","
","","images/earth.jpg","","","","","","","","","","","","","","fixation","","","","","",""
"d3-animate-choice","222","583114","0.0-76.0-0.29","2407","5018","21","Male","false","false","true","true","""event"",""trial"",""time""
""fullscreenenter"",""5"",""29610""
","
","
","""event"",""trial"",""time""
""fullscreenenter"",""5"",""29610""
","
","25.299999952316284","","48","","","3000","1","297.2999999523163,521.1999999284744,1009.3999999761581,1577.2999999523163,1937.6000000238419","48,48,48,48,48","images/earth.jpg","images/rocket1","images/rocket2","null","images/rocket1","","1","real","null","2","","",""
"d3-animate-choice","223","585368","0.0-76.0-1.29","2407","5018","21","Male","false","false","true","true","""event"",""trial"",""time""
""fullscreenenter"",""5"",""29610""
","
","
","""event"",""trial"",""time""
""fullscreenenter"",""5"",""29610""
","
","248.89999997615814","","48","","","3000","1","584.7999999523163,992.8999999761581","48,48","images/purpleplanet.jpg","images/alien4","images/alien3","images/rocket1","images/alien4","images/nothing.png","2","real","true","2","common","0","2022-12-06 14:38:26.708"
"two-step-fixation","224","586375","0.0-76.0-2.29","2407","5018","21","Male","false","false","true","true","""event"",""trial"",""time""
""fullscreenenter"",""5"",""29610""
","
","
","""event"",""trial"",""time""
""fullscreenenter"",""5"",""29610""
","
","","images/earth.jpg","","","","","","","","","","","","","","fixation","","","","","",""
"d3-animate-choice","225","588681","0.0-76.0-0.30","2407","5018","21","Male","false","false","true","true","""event"",""trial"",""time""
""fullscreenenter"",""5"",""29610""
","
","
","""event"",""trial"",""time""
""fullscreenenter"",""5"",""29610""
","
","299.39999997615814","","48","","","3000","1","971.3999999761581,1635.8999999761581","48,48","images/earth.jpg","images/rocket1","images/rocket2","null","images/rocket1","","1","real","null","2","","",""
"d3-animate-choice","226","590697","0.0-76.0-1.30","2407","5018","21","Male","false","false","true","true","""event"",""trial"",""time""
""fullscreenenter"",""5"",""29610""
","
","
","""event"",""trial"",""time""
""fullscreenenter"",""5"",""29610""
","
","9.399999976158142","","48","","","3000","1","497.1999999284744","48","images/redplanet1.jpg","images/alien2","images/alien1","images/rocket1","images/alien2","images/t.png","2","real","false","2","rare","1","2022-12-06 14:38:32.037"
"two-step-fixation","227","591705","0.0-76.0-2.30","2407","5018","21","Male","false","false","true","true","""event"",""trial"",""time""
""fullscreenenter"",""5"",""29610""
","
","
","""event"",""trial"",""time""
""fullscreenenter"",""5"",""29610""
","
","","images/earth.jpg","","","","","","","","","","","","","","fixation","","","","","",""
"d3-animate-choice","228","593904","0.0-76.0-0.31","2407","5018","21","Male","false","false","true","true","""event"",""trial"",""time""
""fullscreenenter"",""5"",""29610""
","
","
","""event"",""trial"",""time""
""fullscreenenter"",""5"",""29610""
","
","193","","48","","","3000","1","","","images/earth.jpg","images/rocket1","images/rocket2","null","images/rocket1","","1","real","null","2","","",""
"d3-animate-choice","229","596314","0.0-76.0-1.31","2407","5018","21","Male","false","false","true","true","""event"",""trial"",""time""
""fullscreenenter"",""5"",""29610""
","
","
","""event"",""trial"",""time""
""fullscreenenter"",""5"",""29610""
","
","402.7000000476837","","48","","","3000","1","2322.5","48","images/purpleplanet.jpg","images/alien4","images/alien3","images/rocket1","images/alien4","images/t.png","2","real","true","2","common","1","2022-12-06 14:38:37.654"
"two-step-fixation","230","597321","0.0-76.0-2.31","2407","5018","21","Male","false","false","true","true","""event"",""trial"",""time""
""fullscreenenter"",""5"",""29610""
","
","
","""event"",""trial"",""time""
""fullscreenenter"",""5"",""29610""
","
","","images/earth.jpg","","","","","","","","","","","","","","fixation","","","","","",""
"d3-animate-choice","231","599601","0.0-76.0-0.32","2407","5018","21","Male","false","false","true","true","""event"",""trial"",""time""
""fullscreenenter"",""5"",""29610""
","
","
","""event"",""trial"",""time""
""fullscreenenter"",""5"",""29610""
","
