"trial_type","trial_index","time_elapsed","internal_node_id","participant_id","subject_id","age","gender","rocket_sides","red_planet_first_rocket","red_display_order","purple_display_order","interactions","blur_events","focus_events","fullscreenenter_events","fullscreenexit_events","rt","stimulus","key_press","button_pressed","success","duration","valid_pressed","rts","keys","planet_text","right_text","left_text","center_text","chosen_text","reward_text","trial_stage","practice_trial","transition_type","choice","transition","reward","timestamp"
"pavlovia","0","5","0.0-0.0","3897","7251","22","Male","false","true","true","false","
","
","
","
","
","","","","","","","","","","","","","","","","","","","","","",""
"html-keyboard-response","1","1175","0.0-1.0","3897","7251","22","Male","false","true","true","false","
","
","
","
","
","1168.5","Welcome! Press the space bar to begin.","32","","","","","","","","","","","","","","","","","","",""
"audio-keyboard-response","2","3983","0.0-2.0","3897","7251","22","Male","false","true","true","false","
","
","
","
","
","2691","audio/beep_loop.wav","32","","","","","","","","","","","","","","","","","","",""
"audio-button-response","3","7982","0.0-3.0","3897","7251","22","Male","false","true","true","false","
","
","
","
","
","NaN","audio/fish.mp3","","1","","","","","","","","","","","","","","","","","",""
"audio-button-response","4","12510","0.0-4.0","3897","7251","22","Male","false","true","true","false","""event"",""trial"",""time""
""fullscreenenter"",""5"",""19676""
","
","
","""event"",""trial"",""time""
""fullscreenenter"",""5"",""19676""
","
","NaN","audio/tiger.mp3","","4","","","","","","","","","","","","","","","","","",""
"fullscreen","5","20592","0.0-5.0","3897","7251","22","Male","false","true","true","false","""event"",""trial"",""time""
""fullscreenenter"",""5"",""19676""
","
","
","""event"",""trial"",""time""
""fullscreenenter"",""5"",""19676""
","
","","","","","true","","","","","","","","","","","","","","","","",""
"d3-instructions","6","39233","0.0-6.0","3897","7251","22","Male","false","true","true","false","""event"",""trial"",""time""
""fullscreenenter"",""5"",""19676""
","
","
","""event"",""trial"",""time""
""fullscreenenter"",""5"",""19676""
","
","","","","","","","","","","","","","","","","","","","","","",""
"d3-instructions","7","49964","0.0-7.0","3897","7251","22","Male","false","true","true","false","""event"",""trial"",""time""
""fullscreenenter"",""5"",""19676""
","
","
","""event"",""trial"",""time""
""fullscreenenter"",""5"",""19676""
","
","","","","","","","","","","","","","","","","","","","","","",""
"d3-instructions","8","57736","0.0-8.0","3897","7251","22","Male","false","true","true","false","""event"",""trial"",""time""
""fullscreenenter"",""5"",""19676""
","
","
","""event"",""trial"",""time""
""fullscreenenter"",""5"",""19676""
","
","","","","","","","","","","","","","","","","","","","","","",""
"d3-instructions","9","62261","0.0-9.0","3897","7251","22","Male","false","true","true","false","""event"",""trial"",""time""
""fullscreenenter"",""5"",""19676""
","
","
","""event"",""trial"",""time""
""fullscreenenter"",""5"",""19676""
","
","","","","","","","","","","","","","","","","","","","","","",""
"d3-instructions","10","84225","0.0-10.0","3897","7251","22","Male","false","true","true","false","""event"",""trial"",""time""
""fullscreenenter"",""5"",""19676""
","
","
","""event"",""trial"",""time""
""fullscreenenter"",""5"",""19676""
","
","","","","","","","","","","","","","","","","","","","","","",""
"d3-animate-choice","11","88289","0.0-11.0","3897","7251","22","Male","false","true","true","false","""event"",""trial"",""time""
""fullscreenenter"",""5"",""19676""
","
","
","""event"",""trial"",""time""
""fullscreenenter"",""5"",""19676""
","
","2041.5","","49","","","3000","1","2958.5,3769.199999988079","50,50","images/tutgreenplanet.jpg","images/tutalien1","images/tutalien2","null","images/tutalien2","","NA","practice","null","","","",""
"d3-animate-choice","12","90394","0.0-12.0","3897","7251","22","Male","false","true","true","false","""event"",""trial"",""time""
""fullscreenenter"",""5"",""19676""
","
","
","""event"",""trial"",""time""
""fullscreenenter"",""5"",""19676""
","
","91.80000001192093","","49","","","3000","1","229.10000002384186,1788.800000011921","50,50","images/tutgreenplanet.jpg","images/tutalien1","images/tutalien2","null","images/tutalien2","","NA","practice","null","","","",""
"d3-animate-choice","13","94131","0.0-13.0","3897","7251","22","Male","false","true","true","false","""event"",""trial"",""time""
""fullscreenenter"",""5"",""19676""
","
","
","""event"",""trial"",""time""
""fullscreenenter"",""5"",""19676""
","
","148.80000001192093","","50","","","3000","1","554.4000000059605,938.2000000178814,1723.2000000178814","50,50,48","images/tutgreenplanet.jpg","images/tutalien1","images/tutalien2","null","images/tutalien1","","NA","practice","null","","","",""
"d3-animate-choice","14","96600","0.0-14.0","3897","7251","22","Male","false","true","true","false","""event"",""trial"",""time""
""fullscreenenter"",""5"",""19676""
","
","
","""event"",""trial"",""time""
""fullscreenenter"",""5"",""19676""
","
","459.40000000596046","","48","","","3000","1","","","images/tutgreenplanet.jpg","images/tutalien1","images/tutalien2","null","images/tutalien1","","NA","practice","null","","","",""
"d3-instructions","15","103876","0.0-15.0","3897","7251","22","Male","false","true","true","false","""event"",""trial"",""time""
""fullscreenenter"",""5"",""19676""
","
","
","""event"",""trial"",""time""
""fullscreenenter"",""5"",""19676""
","
","","","","","","","","","","","","","","","","","","","","","",""
"d3-instructions","16","115663","0.0-16.0","3897","7251","22","Male","false","true","true","false","""event"",""trial"",""time""
""fullscreenenter"",""5"",""19676""
","
","
","""event"",""trial"",""time""
""fullscreenenter"",""5"",""19676""
","
","","","","","","","","","","","","","","","","","","","","","",""
"d3-instructions","17","125607","0.0-17.0","3897","7251","22","Male","false","true","true","false","""event"",""trial"",""time""
""fullscreenenter"",""5"",""19676""
","
","
","""event"",""trial"",""time""
""fullscreenenter"",""5"",""19676""
","
","","","","","","","","","","","","","","","","","","","","","",""
"d3-instructions","18","137876","0.0-18.0","3897","7251","22","Male","false","true","true","false","""event"",""trial"",""time""
""fullscreenenter"",""5"",""19676""
","
","
","""event"",""trial"",""time""
""fullscreenenter"",""5"",""19676""
","
","","","","","","","","","","","","","","","","","","","","","",""
"d3-instructions","19","151306","0.0-19.0","3897","7251","22","Male","false","true","true","false","""event"",""trial"",""time""
""fullscreenenter"",""5"",""19676""
","
","
","""event"",""trial"",""time""
""fullscreenenter"",""5"",""19676""
","
","","","","","","","","","","","","","","","","","","","","","",""
"d3-animate-choice","20","154162","0.0-20.0","3897","7251","22","Male","false","true","true","false","""event"",""trial"",""time""
""fullscreenenter"",""5"",""19676""
","
","
","""event"",""trial"",""time""
""fullscreenenter"",""5"",""19676""
","
","849.3000000119209","","49","","","3000","1","1375.0999999940395,1760.300000011921,2102.199999988079,2461.5,2767.0999999940395","49,49,49,49,49","images/tutyellowplanet.jpg","null","images/tutalien3","null","images/tutalien3","images/t.png","NA","practice","null","","","",""
"d3-animate-choice","21","156425","0.0-21.0","3897","7251","22","Male","false","true","true","false","""event"",""trial"",""time""
""fullscreenenter"",""5"",""19676""
","
","
","""event"",""trial"",""time""
""fullscreenenter"",""5"",""19676""
","
","245.69999998807907","","49","","","3000","1","568.1999999880791,898.4000000059605,1233","49,49,49","images/tutyellowplanet.jpg","null","images/tutalien3","null","images/tutalien3","images/t.png","NA","practice","null","","","",""
"d3-animate-choice","22","161431","0.0-22.0","3897","7251","22","Male","false","true","true","false","""event"",""trial"",""time""
""fullscreenenter"",""5"",""19676""
","
","
","""event"",""trial"",""time""
""fullscreenenter"",""5"",""19676""
","
","2985.699999988079","","49","","","3000","1","3649.699999988079,4169.4000000059605,4530,4884.5","49,49,49,49","images/tutyellowplanet.jpg","null","images/tutalien3","null","images/tutalien3","images/t.png","NA","practice","null","","","",""
"d3-animate-choice","23","163621","0.0-23.0","3897","7251","22","Male","false","true","true","false","""event"",""trial"",""time""
""fullscreenenter"",""5"",""19676""
","
","
","""event"",""trial"",""time""
""fullscreenenter"",""5"",""19676""
","
","184.7999999821186","","49","","","3000","1","566.1999999880791,1006.6999999880791,1509.7999999821186,2005.5999999940395","49,49,49,49","images/tutyellowplanet.jpg","null","images/tutalien3","null","images/tutalien3","images/t.png","NA","practice","null","","","",""
"d3-animate-choice","24","168490","0.0-24.0","3897","7251","22","Male","false","true","true","false","""event"",""trial"",""time""
""fullscreenenter"",""5"",""19676""
","
","
","""event"",""trial"",""time""
""fullscreenenter"",""5"",""19676""
","
","2857.600000023842","","49","","","3000","1","3467.800000011921,4131.600000023842","49,49","images/tutyellowplanet.jpg","null","images/tutalien3","null","images/tutalien3","images/t.png","NA","practice","null","","","",""
"d3-animate-choice","25","170588","0.0-25.0","3897","7251","22","Male","false","true","true","false","""event"",""trial"",""time""
""fullscreenenter"",""5"",""19676""
","
","
","""event"",""trial"",""time""
""fullscreenenter"",""5"",""19676""
","
","87","","49","","","3000","1","699.3000000119209,1218.800000011921,1541.300000011921,1762.9000000059605,1993.300000011921","49,49,49,49,49","images/tutyellowplanet.jpg","null","images/tutalien3","null","images/tutalien3","images/t.png","NA","practice","null","","","",""
"d3-animate-choice","26","172726","0.0-26.0","3897","7251","22","Male","false","true","true","false","""event"",""trial"",""time""
""fullscreenenter"",""5"",""19676""
","
","
","""event"",""trial"",""time""
""fullscreenenter"",""5"",""19676""
","
","134","","49","","","3000","1","","","images/tutyellowplanet.jpg","null","images/tutalien3","null","images/tutalien3","images/t.png","NA","practice","null","","","",""
"d3-animate-choice","27","176461","0.0-27.0","3897","7251","22","Male","false","true","true","false","""event"",""trial"",""time""
""fullscreenenter"",""5"",""19676""
","
","
","""event"",""trial"",""time""
""fullscreenenter"",""5"",""19676""
","
","974.6999999880791","","48","","","3000","1","1720,1929.300000011921,2091.0999999940395,2253.5,2380.4000000059605,2524.699999988079,2653.800000011921,2789.5,2942,3093","49,49,49,49,49,49,49,49,49,49","images/tutyellowplanet.jpg","null","images/tutalien3","null","images/tutalien3","images/t.png","NA","practice","null","","","",""
"d3-animate-choice","28","180100","0.0-28.0","3897","7251","22","Male","false","true","true","false","""event"",""trial"",""time""
""fullscreenenter"",""5"",""19676""
","
","
","""event"",""trial"",""time""
""fullscreenenter"",""5"",""19676""
","
","1619.0999999940395","","49","","","3000","1","1924.5999999940395,2743.699999988079,3024.0999999940395,3315.199999988079,3594.5","49,49,49,49,49","images/tutyellowplanet.jpg","null","images/tutalien3","null","images/tutalien3","images/t.png","NA","practice","null","","","",""
"d3-animate-choice","29","182553","0.0-29.0","3897","7251","22","Male","false","true","true","false","""event"",""trial"",""time""
""fullscreenenter"",""5"",""19676""
","
","
","""event"",""trial"",""time""
""fullscreenenter"",""5"",""19676""
","
","447.7000000178814","","49","","","3000","1","682.9000000059605,883.9000000059605,1081.800000011921,1260,1489,1703.4000000059605,1902,1917.5,2150.9000000059605","49,49,49,49,49,49,49,48,48","images/tutyellowplanet.jpg","null","images/tutalien3","null","images/tutalien3","images/t.png","NA","practice","null","","","",""
"d3-instructions","30","189656","0.0-30.0","3897","7251","22","Male","false","true","true","false","""event"",""trial"",""time""
""fullscreenenter"",""5"",""19676""
","
","
","""event"",""trial"",""time""
""fullscreenenter"",""5"",""19676""
","
","","","","","","","","","","","","","","","","","","","","","",""
"d3-instructions","31","199463","0.0-31.0","3897","7251","22","Male","false","true","true","false","""event"",""trial"",""time""
""fullscreenenter"",""5"",""19676""
","
","
","""event"",""trial"",""time""
""fullscreenenter"",""5"",""19676""
","
","","","","","","","","","","","","","","","","","","","","","",""
"d3-instructions","32","206730","0.0-32.0","3897","7251","22","Male","false","true","true","false","""event"",""trial"",""time""
""fullscreenenter"",""5"",""19676""
","
","
","""event"",""trial"",""time""
""fullscreenenter"",""5"",""19676""
","
","","","","","","","","","","","","","","","","","","","","","",""
"d3-instructions","33","217097","0.0-33.0","3897","7251","22","Male","false","true","true","false","""event"",""trial"",""time""
""fullscreenenter"",""5"",""19676""
","
","
","""event"",""trial"",""time""
""fullscreenenter"",""5"",""19676""
","
","","","","","","","","","","","","","","","","","","","","","",""
"d3-animate-choice","34","220490","0.0-34.0","3897","7251","22","Male","false","true","true","false","""event"",""trial"",""time""
""fullscreenenter"",""5"",""19676""
","
","
","""event"",""trial"",""time""
""fullscreenenter"",""5"",""19676""
","
","1381.800000011921","","49","","","3000","1","2324","49","images/tutgreenplanet.jpg","images/tutalien1","images/tutalien2","null","images/tutalien2","images/nothing.png","NA","practice","null","","","",""
"d3-animate-choice","35","223118","0.0-35.0","3897","7251","22","Male","false","true","true","false","""event"",""trial"",""time""
""fullscreenenter"",""5"",""19676""
","
","
","""event"",""trial"",""time""
""fullscreenenter"",""5"",""19676""
","
","620.1999999880791","","49","","","3000","1","1100.2999999821186","49","images/tutgreenplanet.jpg","images/tutalien1","images/tutalien2","null","images/tutalien2","images/t.png","NA","practice","null","","","",""
"d3-animate-choice","36","225720","0.0-36.0","3897","7251","22","Male","false","true","true","false","""event"",""trial"",""time""
""fullscreenenter"",""5"",""19676""
","
","
","""event"",""trial"",""time""
""fullscreenenter"",""5"",""19676""
","
","585","","48","","","3000","1","","","images/tutgreenplanet.jpg","images/tutalien1","images/tutalien2","null","images/tutalien1","images/nothing.png","NA","practice","null","","","",""
"d3-animate-choice","37","228462","0.0-37.0","3897","7251","22","Male","false","true","true","false","""event"",""trial"",""time""
""fullscreenenter"",""5"",""19676""
","
","
","""event"",""trial"",""time""
""fullscreenenter"",""5"",""19676""
","
","729.6999999880791","","49","","","3000","1","","","images/tutgreenplanet.jpg","images/tutalien1","images/tutalien2","null","images/tutalien2","images/t.png","NA","practice","null","","","",""
"d3-animate-choice","38","231010","0.0-38.0","3897","7251","22","Male","false","true","true","false","""event"",""trial"",""time""
""fullscreenenter"",""5"",""19676""
","
","
","""event"",""trial"",""time""
""fullscreenenter"",""5"",""19676""
","
","540.0999999940395","","49","","","3000","1","","","images/tutgreenplanet.jpg","images/tutalien1","images/tutalien2","null","images/tutalien2","images/t.png","NA","practice","null","","","",""
"d3-animate-choice","39","233319","0.0-39.0","3897","7251","22","Male","false","true","true","false","""event"",""trial"",""time""
""fullscreenenter"",""5"",""19676""
","
","
","""event"",""trial"",""time""
""fullscreenenter"",""5"",""19676""
","
","302.90000000596046","","48","","","3000","1","","","images/tutgreenplanet.jpg","images/tutalien1","images/tutalien2","null","images/tutalien1","images/t.png","NA","practice","null","","","",""
"d3-animate-choice","40","235589","0.0-40.0","3897","7251","22","Male","false","true","true","false","""event"",""trial"",""time""
""fullscreenenter"",""5"",""19676""
","
","
","""event"",""trial"",""time""
""fullscreenenter"",""5"",""19676""
","
","264.7000000178814","","49","","","3000","1","1777.5","48","images/tutgreenplanet.jpg","images/tutalien1","images/tutalien2","null","images/tutalien2","images/t.png","NA","practice","null","","","",""
"d3-animate-choice","41","237604","0.0-41.0","3897","7251","22","Male","false","true","true","false","""event"",""trial"",""time""
""fullscreenenter"",""5"",""19676""
","
","
","""event"",""trial"",""time""
""fullscreenenter"",""5"",""19676""
","
","7.9000000059604645","","48","","","3000","1","","","images/tutgreenplanet.jpg","images/tutalien1","images/tutalien2","null","images/tutalien1","images/nothing.png","NA","practice","null","","","",""
"d3-animate-choice","42","239657","0.0-42.0","3897","7251","22","Male","false","true","true","false","""event"",""trial"",""time""
""fullscreenenter"",""5"",""19676""
","
","
","""event"",""trial"",""time""
""fullscreenenter"",""5"",""19676""
","
","39.5","","48","","","3000","1","","","images/tutgreenplanet.jpg","images/tutalien1","images/tutalien2","null","images/tutalien1","images/nothing.png","NA","practice","null","","","",""
"d3-animate-choice","43","242146","0.0-43.0","3897","7251","22","Male","false","true","true","false","""event"",""trial"",""time""
""fullscreenenter"",""5"",""19676""
","
","
","""event"",""trial"",""time""
""fullscreenenter"",""5"",""19676""
","
","480.09999999403954","","48","","","3000","1","","","images/tutgreenplanet.jpg","images/tutalien1","images/tutalien2","null","images/tutalien1","images/nothing.png","NA","practice","null","","","",""
"d3-instructions","44","255555","0.0-44.0","3897","7251","22","Male","false","true","true","false","""event"",""trial"",""time""
""fullscreenenter"",""5"",""19676""
","
","
","""event"",""trial"",""time""
""fullscreenenter"",""5"",""19676""
","
","","","","","","","","","","","","","","","","","","","","","",""
"d3-instructions","45","260986","0.0-45.0","3897","7251","22","Male","false","true","true","false","""event"",""trial"",""time""
""fullscreenenter"",""5"",""19676""
","
","
","""event"",""trial"",""time""
""fullscreenenter"",""5"",""19676""
","
","","","","","","","","","","","","","","","","","","","","","",""
"d3-instructions","46","265043","0.0-46.0","3897","7251","22","Male","false","true","true","false","""event"",""trial"",""time""
""fullscreenenter"",""5"",""19676""
","
","
","""event"",""trial"",""time""
""fullscreenenter"",""5"",""19676""
","
","","","","","","","","","","","","","","","","","","","","","",""
"d3-instructions","47","280761","0.0-47.0","3897","7251","22","Male","false","true","true","false","""event"",""trial"",""time""
""fullscreenenter"",""5"",""19676""
","
","
","""event"",""trial"",""time""
""fullscreenenter"",""5"",""19676""
","
","","","","","","","","","","","","","","","","","","","","","",""
"d3-instructions","48","290313","0.0-48.0","3897","7251","22","Male","false","true","true","false","""event"",""trial"",""time""
""fullscreenenter"",""5"",""19676""
","
","
","""event"",""trial"",""time""
""fullscreenenter"",""5"",""19676""
","
","","","","","","","","","","","","","","","","","","","","","",""
"d3-instructions","49","299221","0.0-49.0","3897","7251","22","Male","false","true","true","false","""event"",""trial"",""time""
""fullscreenenter"",""5"",""19676""
","
","
","""event"",""trial"",""time""
""fullscreenenter"",""5"",""19676""
","
","","","","","","","","","","","","","","","","","","","","","",""
"d3-instructions","50","307765","0.0-50.0","3897","7251","22","Male","false","true","true","false","""event"",""trial"",""time""
""fullscreenenter"",""5"",""19676""
","
","
","""event"",""trial"",""time""
""fullscreenenter"",""5"",""19676""
","
","","","","","","","","","","","","","","","","","","","","","",""
"d3-instructions","51","310440","0.0-51.0","3897","7251","22","Male","false","true","true","false","""event"",""trial"",""time""
""fullscreenenter"",""5"",""19676""
","
","
","""event"",""trial"",""time""
""fullscreenenter"",""5"",""19676""
","
","","","","","","","","","","","","","","","","","","","","","",""
"d3-instructions","52","312942","0.0-52.0","3897","7251","22","Male","false","true","true","false","""event"",""trial"",""time""
""fullscreenenter"",""5"",""19676""
","
","
","""event"",""trial"",""time""
""fullscreenenter"",""5"",""19676""
","
","","","","","","","","","","","","","","","","","","","","","",""
"d3-instructions","53","325782","0.0-53.0","3897","7251","22","Male","false","true","true","false","""event"",""trial"",""time""
""fullscreenenter"",""5"",""19676""
","
","
","""event"",""trial"",""time""
""fullscreenenter"",""5"",""19676""
","
","","","","","","","","","","","","","","","","","","","","","",""
"d3-instructions","54","328784","0.0-54.0","3897","7251","22","Male","false","true","true","false","""event"",""trial"",""time""
""fullscreenenter"",""5"",""19676""
","
","
","""event"",""trial"",""time""
""fullscreenenter"",""5"",""19676""
","
","","","","","","","","","","","","","","","","","","","","","",""
"d3-instructions","55","332472","0.0-55.0","3897","7251","22","Male","false","true","true","false","""event"",""trial"",""time""
""fullscreenenter"",""5"",""19676""
","
","
","""event"",""trial"",""time""
""fullscreenenter"",""5"",""19676""
","
","","","","","","","","","","","","","","","","","","","","","",""
"d3-instructions","56","340344","0.0-56.0","3897","7251","22","Male","false","true","true","false","""event"",""trial"",""time""
""fullscreenenter"",""5"",""19676""
","
","
","""event"",""trial"",""time""
""fullscreenenter"",""5"",""19676""
","
","","","","","","","","","","","","","","","","","","","","","",""
"d3-instructions","57","349726","0.0-57.0","3897","7251","22","Male","false","true","true","false","""event"",""trial"",""time""
""fullscreenenter"",""5"",""19676""
","
","
","""event"",""trial"",""time""
""fullscreenenter"",""5"",""19676""
","
","","","","","","","","","","","","","","","","","","","","","",""
"d3-instructions","58","357776","0.0-58.0","3897","7251","22","Male","false","true","true","false","""event"",""trial"",""time""
""fullscreenenter"",""5"",""19676""
","
","
","""event"",""trial"",""time""
""fullscreenenter"",""5"",""19676""
","
","","","","","","","","","","","","","","","","","","","","","",""
"d3-instructions","59","362072","0.0-59.0","3897","7251","22","Male","false","true","true","false","""event"",""trial"",""time""
""fullscreenenter"",""5"",""19676""
","
","
","""event"",""trial"",""time""
""fullscreenenter"",""5"",""19676""
","
","","","","","","","","","","","","","","","","","","","","","",""
"d3-instructions","60","364680","0.0-60.0","3897","7251","22","Male","false","true","true","false","""event"",""trial"",""time""
""fullscreenenter"",""5"",""19676""
","
","
","""event"",""trial"",""time""
""fullscreenenter"",""5"",""19676""
","
","","","","","","","","","","","","","","","","","","","","","",""
"d3-animate-choice","61","367833","0.0-61.0-0.0","3897","7251","22","Male","false","true","true","false","""event"",""trial"",""time""
""fullscreenenter"",""5"",""19676""
","
","
","""event"",""trial"",""time""
""fullscreenenter"",""5"",""19676""
","
","1141.1000000238419","","49","","","3000","1","2318.4000000059605","49","images/earth.jpg","images/tutrocket1","images/tutrocket2","null","images/tutrocket2","","1","practice","null","1","","",""
"d3-animate-choice","62","371163","0.0-61.0-1.0","3897","7251","22","Male","false","true","true","false","""event"",""trial"",""time""
""fullscreenenter"",""5"",""19676""
","
","
","""event"",""trial"",""time""
""fullscreenenter"",""5"",""19676""
","
","1310.5999999940395","","49","","","3000","1","2345.9000000059605,3154.0999999940395","49,49","images/tutgreenplanet.jpg","images/tutalien2","images/tutalien1","images/tutrocket2","images/tutalien1","images/t.png","2","practice","false","1","rare","1","2023-03-03 07:38:11.987"
"two-step-fixation","63","372179","0.0-61.0-2.0","3897","7251","22","Male","false","true","true","false","""event"",""trial"",""time""
""fullscreenenter"",""5"",""19676""
","
","
","""event"",""trial"",""time""
""fullscreenenter"",""5"",""19676""
","
","","images/earth.jpg","","","","","","","","","","","","","","fixation","","","","","",""
"d3-animate-choice","64","374689","0.0-61.0-0.1","3897","7251","22","Male","false","true","true","false","""event"",""trial"",""time""
""fullscreenenter"",""5"",""19676""
","
","
","""event"",""trial"",""time""
""fullscreenenter"",""5"",""19676""
","
","502.59999999403954","","48","","","3000","1","1391.5999999940395","48","images/earth.jpg","images/tutrocket1","images/tutrocket2","null","images/tutrocket1","","1","practice","null","2","","",""
"d3-animate-choice","65","377495","0.0-61.0-1.1","3897","7251","22","Male","false","true","true","false","""event"",""trial"",""time""
""fullscreenenter"",""5"",""19676""
","
","
","""event"",""trial"",""time""
""fullscreenenter"",""5"",""19676""
","
","793.5","","48","","","3000","1","1436.2999999821186,2277.699999988079","48,48","images/tutgreenplanet.jpg","images/tutalien2","images/tutalien1","images/tutrocket1","images/tutalien2","images/nothing.png","2","practice","true","2","common","0","2023-03-03 07:38:18.318"
"two-step-fixation","66","378502","0.0-61.0-2.1","3897","7251","22","Male","false","true","true","false","""event"",""trial"",""time""
""fullscreenenter"",""5"",""19676""
","
","
","""event"",""trial"",""time""
""fullscreenenter"",""5"",""19676""
","
","","images/earth.jpg","","","","","","","","","","","","","","fixation","","","","","",""
"d3-animate-choice","67","380677","0.0-61.0-0.2","3897","7251","22","Male","false","true","true","false","""event"",""trial"",""time""
""fullscreenenter"",""5"",""19676""
","
","
","""event"",""trial"",""time""
""fullscreenenter"",""5"",""19676""
","
","163.80000001192093","","49","","","3000","1","","","images/earth.jpg","images/tutrocket1","images/tutrocket2","null","images/tutrocket2","","1","practice","null","1","","",""
"d3-animate-choice","68","383117","0.0-61.0-1.2","3897","7251","22","Male","false","true","true","false","""event"",""trial"",""time""
""fullscreenenter"",""5"",""19676""
","
","
","""event"",""trial"",""time""
""fullscreenenter"",""5"",""19676""
","
","423.80000001192093","","49","","","3000","1","918.9000000059605","49","images/tutyellowplanet.jpg","images/tutalien4","images/tutalien3","images/tutrocket2","images/tutalien3","images/nothing.png","2","practice","true","1","common","0","2023-03-03 07:38:23.941"
"two-step-fixation","69","384135","0.0-61.0-2.2","3897","7251","22","Male","false","true","true","false","""event"",""trial"",""time""
""fullscreenenter"",""5"",""19676""
","
","
","""event"",""trial"",""time""
""fullscreenenter"",""5"",""19676""
","
","","images/earth.jpg","","","","","","","","","","","","","","fixation","","","","","",""
"d3-animate-choice","70","386300","0.0-61.0-0.3","3897","7251","22","Male","false","true","true","false","""event"",""trial"",""time""
""fullscreenenter"",""5"",""19676""
","
","
","""event"",""trial"",""time""
""fullscreenenter"",""5"",""19676""
","
","156.7000000178814","","48","","","3000","1","855.7000000178814,1331.2000000178814,1613.9000000059605,1748.800000011921,2074.0999999940395","48,48,48,49,49","images/earth.jpg","images/tutrocket1","images/tutrocket2","null","images/tutrocket1","","1","practice","null","2","","",""
"d3-animate-choice","71","388581","0.0-61.0-1.3","3897","7251","22","Male","false","true","true","false","""event"",""trial"",""time""
""fullscreenenter"",""5"",""19676""
","
","
","""event"",""trial"",""time""
""fullscreenenter"",""5"",""19676""
","
","273.7000000178814","","49","","","3000","1","718.3000000119209","49","images/tutyellowplanet.jpg","images/tutalien4","images/tutalien3","images/tutrocket1","images/tutalien3","images/nothing.png","2","practice","false","1","rare","0","2023-03-03 07:38:29.404"
"two-step-fixation","72","389585","0.0-61.0-2.3","3897","7251","22","Male","false","true","true","false","""event"",""trial"",""time""
""fullscreenenter"",""5"",""19676""
","
","
","""event"",""trial"",""time""
""fullscreenenter"",""5"",""19676""
","
","","images/earth.jpg","","","","","","","","","","","","","","fixation","","","","","",""
"d3-animate-choice","73","391618","0.0-61.0-0.4","3897","7251","22","Male","false","true","true","false","""event"",""trial"",""time""
""fullscreenenter"",""5"",""19676""
","
","
","""event"",""trial"",""time""
""fullscreenenter"",""5"",""19676""
","
","24.599999994039536","","49","","","3000","1","910.6999999880791","49","images/earth.jpg","images/tutrocket1","images/tutrocket2","null","images/tutrocket2","","1","practice","null","1","","",""
"d3-animate-choice","74","393801","0.0-61.0-1.4","3897","7251","22","Male","false","true","true","false","""event"",""trial"",""time""
""fullscreenenter"",""5"",""19676""
","
","
","""event"",""trial"",""time""
""fullscreenenter"",""5"",""19676""
","
","175.10000002384186","","48","","","3000","1","","","images/tutgreenplanet.jpg","images/tutalien2","images/tutalien1","images/tutrocket2","images/tutalien2","images/t.png","2","practice","false","2","rare","1","2023-03-03 07:38:34.624"
"two-step-fixation","75","394808","0.0-61.0-2.4","3897","7251","22","Male","false","true","true","false","""event"",""trial"",""time""
""fullscreenenter"",""5"",""19676""
","
","
","""event"",""trial"",""time""
""fullscreenenter"",""5"",""19676""
","
","","images/earth.jpg","","","","","","","","","","","","","","fixation","","","","","",""
"d3-animate-choice","76","396863","0.0-61.0-0.5","3897","7251","22","Male","false","true","true","false","""event"",""trial"",""time""
""fullscreenenter"",""5"",""19676""
","
","
","""event"",""trial"",""time""
""fullscreenenter"",""5"",""19676""
","
","46.099999994039536","","48","","","3000","1","1524.300000011921,1889.0999999940395","49,49","images/earth.jpg","images/tutrocket1","images/tutrocket2","null","images/tutrocket1","","1","practice","null","2","","",""
"d3-animate-choice","77","399142","0.0-61.0-1.5","3897","7251","22","Male","false","true","true","false","""event"",""trial"",""time""
""fullscreenenter"",""5"",""19676""
","
","
","""event"",""trial"",""time""
""fullscreenenter"",""5"",""19676""
","
","272.60000002384186","","49","","","3000","1","581.9000000059605,1064.6000000238419","49,49","images/tutyellowplanet.jpg","images/tutalien4","images/tutalien3","images/tutrocket1","images/tutalien3","images/t.png","2","practice","false","1","rare","1","2023-03-03 07:38:39.965"
"two-step-fixation","78","400149","0.0-61.0-2.5","3897","7251","22","Male","false","true","true","false","""event"",""trial"",""time""
""fullscreenenter"",""5"",""19676""
","
","
","""event"",""trial"",""time""
""fullscreenenter"",""5"",""19676""
","
","","images/earth.jpg","","","","","","","","","","","","","","fixation","","","","","",""
"d3-animate-choice","79","402628","0.0-61.0-0.6","3897","7251","22","Male","false","true","true","false","""event"",""trial"",""time""
""fullscreenenter"",""5"",""19676""
","
","
","""event"",""trial"",""time""
""fullscreenenter"",""5"",""19676""
","
","471.09999999403954","","48","","","3000","1","1165,1587,2029.7999999821186,2336.399999976158,2444.7999999821186","49,48,49,48,49","images/earth.jpg","images/tutrocket1","images/tutrocket2","null","images/tutrocket1","","1","practice","null","2","","",""
"d3-animate-choice","80","404867","0.0-61.0-1.6","3897","7251","22","Male","false","true","true","false","""event"",""trial"",""time""
""fullscreenenter"",""5"",""19676""
","
","
","""event"",""trial"",""time""
""fullscreenenter"",""5"",""19676""
","
","232.5","","48","","","3000","1","378.30000001192093,824.3000000119209,1827.2000000178814","49,48,48","images/tutgreenplanet.jpg","images/tutalien2","images/tutalien1","images/tutrocket1","images/tutalien2","images/nothing.png","2","practice","true","2","common","0","2023-03-03 07:38:45.690"
"two-step-fixation","81","405874","0.0-61.0-2.6","3897","7251","22","Male","false","true","true","false","""event"",""trial"",""time""
""fullscreenenter"",""5"",""19676""
","
","
","""event"",""trial"",""time""
""fullscreenenter"",""5"",""19676""
","
","","images/earth.jpg","","","","","","","","","","","","","","fixation","","","","","",""
"d3-animate-choice","82","408036","0.0-61.0-0.7","3897","7251","22","Male","false","true","true","false","""event"",""trial"",""time""
""fullscreenenter"",""5"",""19676""
","
","
","""event"",""trial"",""time""
""fullscreenenter"",""5"",""19676""
","
","153.89999997615814","","49","","","3000","1","1432.8999999761581,1898.5","49,49","images/earth.jpg","images/tutrocket1","images/tutrocket2","null","images/tutrocket2","","1","practice","null","1","","",""
"d3-animate-choice","83","410346","0.0-61.0-1.7","3897","7251","22","Male","false","true","true","false","""event"",""trial"",""time""
""fullscreenenter"",""5"",""19676""
","
","
","""event"",""trial"",""time""
""fullscreenenter"",""5"",""19676""
","
","302.40000000596046","","49","","","3000","1","695.9000000059605,1849.5","49,49","images/tutyellowplanet.jpg","images/tutalien4","images/tutalien3","images/tutrocket2","images/tutalien3","images/nothing.png","2","practice","true","1","common","0","2023-03-03 07:38:51.170"
"two-step-fixation","84","411355","0.0-61.0-2.7","3897","7251","22","Male","false","true","true","false","""event"",""trial"",""time""
""fullscreenenter"",""5"",""19676""
","
","
","""event"",""trial"",""time""
""fullscreenenter"",""5"",""19676""
","
","","images/earth.jpg","","","","","","","","","","","","","","fixation","","","","","",""
"d3-animate-choice","85","413492","0.0-61.0-0.8","3897","7251","22","Male","false","true","true","false","""event"",""trial"",""time""
""fullscreenenter"",""5"",""19676""
","
","
","""event"",""trial"",""time""
""fullscreenenter"",""5"",""19676""
","
","128.89999997615814","","48","","","3000","1","","","images/earth.jpg","images/tutrocket1","images/tutrocket2","null","images/tutrocket1","","1","practice","null","2","","",""
"d3-animate-choice","86","415807","0.0-61.0-1.8","3897","7251","22","Male","false","true","true","false","""event"",""trial"",""time""
""fullscreenenter"",""5"",""19676""
","
","
","""event"",""trial"",""time""
""fullscreenenter"",""5"",""19676""
","
","307.7000000178814","","48","","","3000","1","644.9000000059605","48","images/tutgreenplanet.jpg","images/tutalien2","images/tutalien1","images/tutrocket1","images/tutalien2","images/nothing.png","2","practice","true","2","common","0","2023-03-03 07:38:56.631"
"two-step-fixation","87","416814","0.0-61.0-2.8","3897","7251","22","Male","false","true","true","false","""event"",""trial"",""time""
""fullscreenenter"",""5"",""19676""
","
","
","""event"",""trial"",""time""
""fullscreenenter"",""5"",""19676""
","
","","images/earth.jpg","","","","","","","","","","","","","","fixation","","","","","",""
"d3-animate-choice","88","419069","0.0-61.0-0.9","3897","7251","22","Male","false","true","true","false","""event"",""trial"",""time""
""fullscreenenter"",""5"",""19676""
","
","
","""event"",""trial"",""time""
""fullscreenenter"",""5"",""19676""
","
","248.19999998807907","","49","","","3000","1","","","images/earth.jpg","images/tutrocket1","images/tutrocket2","null","images/tutrocket2","","1","practice","null","1","","",""
"d3-animate-choice","89","421608","0.0-61.0-1.9","3897","7251","22","Male","false","true","true","false","""event"",""trial"",""time""
""fullscreenenter"",""5"",""19676""
","
","
","""event"",""trial"",""time""
""fullscreenenter"",""5"",""19676""
","
","532","","49","","","3000","1","","","images/tutyellowplanet.jpg","images/tutalien4","images/tutalien3","images/tutrocket2","images/tutalien3","images/t.png","2","practice","true","1","common","1","2023-03-03 07:39:02.431"
"two-step-fixation","90","422615","0.0-61.0-2.9","3897","7251","22","Male","false","true","true","false","""event"",""trial"",""time""
""fullscreenenter"",""5"",""19676""
","
","
","""event"",""trial"",""time""
""fullscreenenter"",""5"",""19676""
","
","","images/earth.jpg","","","","","","","","","","","","","","fixation","","","","","",""
"d3-animate-choice","91","424708","0.0-61.0-0.10","3897","7251","22","Male","false","true","true","false","""event"",""trial"",""time""
""fullscreenenter"",""5"",""19676""
","
","
","""event"",""trial"",""time""
""fullscreenenter"",""5"",""19676""
","
","85.30000001192093","","48","","","3000","1","","","images/earth.jpg","images/tutrocket1","images/tutrocket2","null","images/tutrocket1","","1","practice","null","2","","",""
"d3-animate-choice","92","427449","0.0-61.0-1.10","3897","7251","22","Male","false","true","true","false","""event"",""trial"",""time""
""fullscreenenter"",""5"",""19676""
","
","
","""event"",""trial"",""time""
""fullscreenenter"",""5"",""19676""
","
","723.5","","48","","","3000","1","","","images/tutgreenplanet.jpg","images/tutalien2","images/tutalien1","images/tutrocket1","images/tutalien2","images/nothing.png","2","practice","true","2","common","0","2023-03-03 07:39:08.273"
"two-step-fixation","93","428457","0.0-61.0-2.10","3897","7251","22","Male","false","true","true","false","""event"",""trial"",""time""
""fullscreenenter"",""5"",""19676""
","
","
","""event"",""trial"",""time""
""fullscreenenter"",""5"",""19676""
","
","","images/earth.jpg","","","","","","","","","","","","","","fixation","","","","","",""
"d3-animate-choice","94","430573","0.0-61.0-0.11","3897","7251","22","Male","false","true","true","false","""event"",""trial"",""time""
""fullscreenenter"",""5"",""19676""
","
","
","""event"",""trial"",""time""
""fullscreenenter"",""5"",""19676""
","
","108.40000000596046","","49","","","3000","1","","","images/earth.jpg","images/tutrocket1","images/tutrocket2","null","images/tutrocket2","","1","practice","null","1","","",""
"d3-animate-choice","95","433023","0.0-61.0-1.11","3897","7251","22","Male","false","true","true","false","""event"",""trial"",""time""
""fullscreenenter"",""5"",""19676""
","
","
","""event"",""trial"",""time""
""fullscreenenter"",""5"",""19676""
","
","442.90000000596046","","49","","","3000","1","811.2000000178814","49","images/tutgreenplanet.jpg","images/tutalien2","images/tutalien1","images/tutrocket2","images/tutalien1","images/nothing.png","2","practice","false","1","rare","0","2023-03-03 07:39:13.846"
"two-step-fixation","96","434032","0.0-61.0-2.11","3897","7251","22","Male","false","true","true","false","""event"",""trial"",""time""
""fullscreenenter"",""5"",""19676""
","
","
","""event"",""trial"",""time""
""fullscreenenter"",""5"",""19676""
","
","","images/earth.jpg","","","","","","","","","","","","","","fixation","","","","","",""
"d3-animate-choice","97","436194","0.0-61.0-0.12","3897","7251","22","Male","false","true","true","false","""event"",""trial"",""time""
""fullscreenenter"",""5"",""19676""
","
","
","""event"",""trial"",""time""
""fullscreenenter"",""5"",""19676""
","
","155.7999999821186","","48","","","3000","1","","","images/earth.jpg","images/tutrocket1","images/tutrocket2","null","images/tutrocket1","","1","practice","null","2","","",""
"d3-animate-choice","98","438653","0.0-61.0-1.12","3897","7251","22","Male","false","true","true","false","""event"",""trial"",""time""
""fullscreenenter"",""5"",""19676""
","
","
","""event"",""trial"",""time""
""fullscreenenter"",""5"",""19676""
","
","452.09999999403954","","48","","","3000","1","872.0999999940395","48","images/tutyellowplanet.jpg","images/tutalien4","images/tutalien3","images/tutrocket1","images/tutalien4","images/t.png","2","practice","false","2","rare","1","2023-03-03 07:39:19.477"
"two-step-fixation","99","439661","0.0-61.0-2.12","3897","7251","22","Male","false","true","true","false","""event"",""trial"",""time""
""fullscreenenter"",""5"",""19676""
","
","
","""event"",""trial"",""time""
""fullscreenenter"",""5"",""19676""
","
","","images/earth.jpg","","","","","","","","","","","","","","fixation","","","","","",""
"d3-animate-choice","100","441775","0.0-61.0-0.13","3897","7251","22","Male","false","true","true","false","""event"",""trial"",""time""
""fullscreenenter"",""5"",""19676""
","
","
","""event"",""trial"",""time""
""fullscreenenter"",""5"",""19676""
","
","105.30000001192093","","49","","","3000","1","428.60000002384186","49","images/earth.jpg","images/tutrocket1","images/tutrocket2","null","images/tutrocket2","","1","practice","null","1","","",""
"d3-animate-choice","101","444801","0.0-61.0-1.13","3897","7251","22","Male","false","true","true","false","""event"",""trial"",""time""
""fullscreenenter"",""5"",""19676""
","
","
","""event"",""trial"",""time""
""fullscreenenter"",""5"",""19676""
","
","1018.6999999880791","","49","","","3000","1","1334.699999988079","49","images/tutyellowplanet.jpg","images/tutalien4","images/tutalien3","images/tutrocket2","images/tutalien3","images/t.png","2","practice","true","1","common","1","2023-03-03 07:39:25.624"
"two-step-fixation","102","445809","0.0-61.0-2.13","3897","7251","22","Male","false","true","true","false","""event"",""trial"",""time""
""fullscreenenter"",""5"",""19676""
","
","
","""event"",""trial"",""time""
""fullscreenenter"",""5"",""19676""
","
","","images/earth.jpg","","","","","","","","","","","","","","fixation","","","","","",""
"d3-animate-choice","103","448069","0.0-61.0-0.14","3897","7251","22","Male","false","true","true","false","""event"",""trial"",""time""
""fullscreenenter"",""5"",""19676""
","
","
","""event"",""trial"",""time""
""fullscreenenter"",""5"",""19676""
","
","240.90000000596046","","48","","","3000","1","","","images/earth.jpg","images/tutrocket1","images/tutrocket2","null","images/tutrocket1","","1","practice","null","2","","",""
"d3-animate-choice","104","450646","0.0-61.0-1.14","3897","7251","22","Male","false","true","true","false","""event"",""trial"",""time""
""fullscreenenter"",""5"",""19676""
","
","
","""event"",""trial"",""time""
""fullscreenenter"",""5"",""19676""
","
","568.7000000178814","","48","","","3000","1","1045.5999999940395","48","images/tutgreenplanet.jpg","images/tutalien2","images/tutalien1","images/tutrocket1","images/tutalien2","images/nothing.png","2","practice","true","2","common","0","2023-03-03 07:39:31.469"
"two-step-fixation","105","451653","0.0-61.0-2.14","3897","7251","22","Male","false","true","true","false","""event"",""trial"",""time""
""fullscreenenter"",""5"",""19676""
","
","
","""event"",""trial"",""time""
""fullscreenenter"",""5"",""19676""
","
","","images/earth.jpg","","","","","","","","","","","","","","fixation","","","","","",""
"d3-animate-choice","106","453894","0.0-61.0-0.15","3897","7251","22","Male","false","true","true","false","""event"",""trial"",""time""
""fullscreenenter"",""5"",""19676""
","
","
","""event"",""trial"",""time""
""fullscreenenter"",""5"",""19676""
","
","231.80000001192093","","48","","","3000","1","1636.1000000238419,2057.2000000178814","49,49","images/earth.jpg","images/tutrocket1","images/tutrocket2","null","images/tutrocket1","","1","practice","null","2","","",""
"d3-animate-choice","107","456179","0.0-61.0-1.15","3897","7251","22","Male","false","true","true","false","""event"",""trial"",""time""
""fullscreenenter"",""5"",""19676""
","
","
","""event"",""trial"",""time""
""fullscreenenter"",""5"",""19676""
","
","277","","49","","","3000","1","611.3000000119209,1716.300000011921","49,49","images/tutyellowplanet.jpg","images/tutalien4","images/tutalien3","images/tutrocket1","images/tutalien3","images/nothing.png","2","practice","false","1","rare","0","2023-03-03 07:39:37.003"
"two-step-fixation","108","457188","0.0-61.0-2.15","3897","7251","22","Male","false","true","true","false","""event"",""trial"",""time""
""fullscreenenter"",""5"",""19676""
","
","
","""event"",""trial"",""time""
""fullscreenenter"",""5"",""19676""
","
","","images/earth.jpg","","","","","","","","","","","","","","fixation","","","","","",""
"d3-animate-choice","109","459410","0.0-61.0-0.16","3897","7251","22","Male","false","true","true","false","""event"",""trial"",""time""
""fullscreenenter"",""5"",""19676""
","
","
","""event"",""trial"",""time""
""fullscreenenter"",""5"",""19676""
","
","215","","48","","","3000","1","","","images/earth.jpg","images/tutrocket1","images/tutrocket2","null","images/tutrocket1","","1","practice","null","2","","",""
"d3-animate-choice","110","462010","0.0-61.0-1.16","3897","7251","22","Male","false","true","true","false","""event"",""trial"",""time""
""fullscreenenter"",""5"",""19676""
","
","
","""event"",""trial"",""time""
""fullscreenenter"",""5"",""19676""
","
","591.8000000119209","","48","","","3000","1","793.1000000238419,1451.5","49,49","images/tutgreenplanet.jpg","images/tutalien2","images/tutalien1","images/tutrocket1","images/tutalien2","images/nothing.png","2","practice","true","2","common","0","2023-03-03 07:39:42.833"
"two-step-fixation","111","463017","0.0-61.0-2.16","3897","7251","22","Male","false","true","true","false","""event"",""trial"",""time""
""fullscreenenter"",""5"",""19676""
","
","
","""event"",""trial"",""time""
""fullscreenenter"",""5"",""19676""
","
","","images/earth.jpg","","","","","","","","","","","","","","fixation","","","","","",""
"d3-animate-choice","112","465178","0.0-61.0-0.17","3897","7251","22","Male","false","true","true","false","""event"",""trial"",""time""
""fullscreenenter"",""5"",""19676""
","
","
","""event"",""trial"",""time""
""fullscreenenter"",""5"",""19676""
","
","153.90000000596046","","48","","","3000","1","488.5","48","images/earth.jpg","images/tutrocket1","images/tutrocket2","null","images/tutrocket1","","1","practice","null","2","","",""
"d3-animate-choice","113","467690","0.0-61.0-1.17","3897","7251","22","Male","false","true","true","false","""event"",""trial"",""time""
""fullscreenenter"",""5"",""19676""
","
","
","""event"",""trial"",""time""
""fullscreenenter"",""5"",""19676""
","
","504.30000001192093","","49","","","3000","1","874.3000000119209","49","images/tutyellowplanet.jpg","images/tutalien4","images/tutalien3","images/tutrocket1","images/tutalien3","images/nothing.png","2","practice","false","1","rare","0","2023-03-03 07:39:48.513"
"two-step-fixation","114","468697","0.0-61.0-2.17","3897","7251","22","Male","false","true","true","false","""event"",""trial"",""time""
""fullscreenenter"",""5"",""19676""
","
","
","""event"",""trial"",""time""
""fullscreenenter"",""5"",""19676""
","
","","images/earth.jpg","","","","","","","","","","","","","","fixation","","","","","",""
"d3-animate-choice","115","470871","0.0-61.0-0.18","3897","7251","22","Male","false","true","true","false","""event"",""trial"",""time""
""fullscreenenter"",""5"",""19676""
","
","
","""event"",""trial"",""time""
""fullscreenenter"",""5"",""19676""
","
","166.59999999403954","","49","","","3000","1","1375","49","images/earth.jpg","images/tutrocket1","images/tutrocket2","null","images/tutrocket2","","1","practice","null","1","","",""
"d3-animate-choice","116","473316","0.0-61.0-1.18","3897","7251","22","Male","false","true","true","false","""event"",""trial"",""time""
""fullscreenenter"",""5"",""19676""
","
","
","""event"",""trial"",""time""
""fullscreenenter"",""5"",""19676""
","
","436.90000000596046","","48","","","3000","1","760.6999999880791","48","images/tutyellowplanet.jpg","images/tutalien4","images/tutalien3","images/tutrocket2","images/tutalien4","images/t.png","2","practice","true","2","common","1","2023-03-03 07:39:54.139"
"two-step-fixation","117","474324","0.0-61.0-2.18","3897","7251","22","Male","false","true","true","false","""event"",""trial"",""time""
""fullscreenenter"",""5"",""19676""
","
","
","""event"",""trial"",""time""
""fullscreenenter"",""5"",""19676""
","
","","images/earth.jpg","","","","","","","","","","","","","","fixation","","","","","",""
"d3-animate-choice","118","476341","0.0-61.0-0.19","3897","7251","22","Male","false","true","true","false","""event"",""trial"",""time""
""fullscreenenter"",""5"",""19676""
","
","
","""event"",""trial"",""time""
""fullscreenenter"",""5"",""19676""
","
","9.799999982118607","","49","","","3000","1","397.09999999403954,472.59999999403954,711.6999999880791,1001.6999999880791,1215.699999988079,1254.7999999821186,1440.5999999940395,1587.199999988079,1798.4000000059605,1950.699999988079","49,48,49,49,48,49,48,49,48,49","images/earth.jpg","images/tutrocket1","images/tutrocket2","null","images/tutrocket2","","1","practice","null","1","","",""
"d3-animate-choice","119","478490","0.0-61.0-1.19","3897","7251","22","Male","false","true","true","false","""event"",""trial"",""time""
""fullscreenenter"",""5"",""19676""
","
","
","""event"",""trial"",""time""
""fullscreenenter"",""5"",""19676""
","
","140.80000001192093","","48","","","3000","1","376.10000002384186,659.2000000178814,1425","49,48,48","images/tutyellowplanet.jpg","images/tutalien4","images/tutalien3","images/tutrocket2","images/tutalien4","images/nothing.png","2","practice","true","2","common","0","2023-03-03 07:39:59.313"
"two-step-fixation","120","479498","0.0-61.0-2.19","3897","7251","22","Male","false","true","true","false","""event"",""trial"",""time""
""fullscreenenter"",""5"",""19676""
","
","
","""event"",""trial"",""time""
""fullscreenenter"",""5"",""19676""
","
","","images/earth.jpg","","","","","","","","","","","","","","fixation","","","","","",""
"d3-instructions","121","484641","0.0-62.0","3897","7251","22","Male","false","true","true","false","""event"",""trial"",""time""
""fullscreenenter"",""5"",""19676""
","
","
","""event"",""trial"",""time""
""fullscreenenter"",""5"",""19676""
","
","","","","","","","","","","","","","","","","","","","","","",""
"audio-keyboard-response","122","487080","0.0-63.0","3897","7251","22","Male","false","true","true","false","""event"",""trial"",""time""
""fullscreenenter"",""5"",""19676""
","
","
","""event"",""trial"",""time""
""fullscreenenter"",""5"",""19676""
","
","2429","audio/instructions/treasure_feedback.wav","32","","","","","","","","","","","","","","","","","","",""
"d3-instructions","123","502636","0.0-64.0","3897","7251","22","Male","false","true","true","false","""event"",""trial"",""time""
""fullscreenenter"",""5"",""19676""
","
","
","""event"",""trial"",""time""
""fullscreenenter"",""5"",""19676""
","
","","","","","","","","","","","","","","","","","","","","","",""
"d3-instructions","124","515272","0.0-65.0","3897","7251","22","Male","false","true","true","false","""event"",""trial"",""time""
""fullscreenenter"",""5"",""19676""
","
","
","""event"",""trial"",""time""
""fullscreenenter"",""5"",""19676""
","
","","","","","","","","","","","","","","","","","","","","","",""
"d3-instructions","125","534402","0.0-66.0","3897","7251","22","Male","false","true","true","false","""event"",""trial"",""time""
""fullscreenenter"",""5"",""19676""
","
","
","""event"",""trial"",""time""
""fullscreenenter"",""5"",""19676""
","
","","","","","","","","","","","","","","","","","","","","","",""
"d3-instructions","126","537710","0.0-67.0","3897","7251","22","Male","false","true","true","false","""event"",""trial"",""time""
""fullscreenenter"",""5"",""19676""
","
","
","""event"",""trial"",""time""
""fullscreenenter"",""5"",""19676""
","
","","","","","","","","","","","","","","","","","","","","","",""
"d3-instructions","127","545010","0.0-68.0","3897","7251","22","Male","false","true","true","false","""event"",""trial"",""time""
""fullscreenenter"",""5"",""19676""
","
","
","""event"",""trial"",""time""
""fullscreenenter"",""5"",""19676""
","
","","","","","","","","","","","","","","","","","","","","","",""
"instructions-quiz","128","551626","0.0-69.0","3897","7251","22","Male","false","true","true","false","""event"",""trial"",""time""
""fullscreenenter"",""5"",""19676""
","
","
","""event"",""trial"",""time""
""fullscreenenter"",""5"",""19676""
","
","6612.0999999940395","audio/quiz/Q1_Prompt.wav","","0","","","","","","","","","","","","","","","","","",""
"audio-keyboard-response","129","554488","0.0-70.0","3897","7251","22","Male","false","true","true","false","""event"",""trial"",""time""
""fullscreenenter"",""5"",""19676""
","
","
","""event"",""trial"",""time""
""fullscreenenter"",""5"",""19676""
","
","2851","audio/quiz/Q1_Incorrect.wav","49","","","","","","","","","","","","","","","","","","",""
"instructions-quiz","130","561999","0.0-71.0","3897","7251","22","Male","false","true","true","false","""event"",""trial"",""time""
""fullscreenenter"",""5"",""19676""
","
","
","""event"",""trial"",""time""
""fullscreenenter"",""5"",""19676""
","
","7507","audio/quiz/Q2_Prompt.wav","","0","","","","","","","","","","","","","","","","","",""
"audio-keyboard-response","131","565093","0.0-72.0","3897","7251","22","Male","false","true","true","false","""event"",""trial"",""time""
""fullscreenenter"",""5"",""19676""
","
","
","""event"",""trial"",""time""
""fullscreenenter"",""5"",""19676""
","
","3091","audio/quiz/Q2_Correct.wav","32","","","","","","","","","","","","","","","","","","",""
"instructions-quiz","132","567577","0.0-73.0","3897","7251","22","Male","false","true","true","false","""event"",""trial"",""time""
""fullscreenenter"",""5"",""19676""
","
","
","""event"",""trial"",""time""
""fullscreenenter"",""5"",""19676""
","
","2479.899999976158","audio/quiz/Q3_Prompt.wav","","1","","","","","","","","","","","","","","","","","",""
"audio-keyboard-response","133","570028","0.0-74.0","3897","7251","22","Male","false","true","true","false","""event"",""trial"",""time""
""fullscreenenter"",""5"",""19676""
","
","
","""event"",""trial"",""time""
""fullscreenenter"",""5"",""19676""
","
","2440","audio/quiz/Q3_Correct.wav","32","","","","","","","","","","","","","","","","","","",""
"d3-instructions","134","574301","0.0-75.0","3897","7251","22","Male","false","true","true","false","""event"",""trial"",""time""
""fullscreenenter"",""5"",""19676""
","
","
","""event"",""trial"",""time""
""fullscreenenter"",""5"",""19676""
","
","","","","","","","","","","","","","","","","","","","","","",""
"pavlovia","135","574306","0.0-76.0","3897","7251","22","Male","false","true","true","false","""event"",""trial"",""time""
""fullscreenenter"",""5"",""19676""
","
","
","""event"",""trial"",""time""
""fullscreenenter"",""5"",""19676""
","
","","","","","","","","","","","","","","","","","","","","","",""
"d3-animate-choice","136","577621","0.0-77.0-0.0","3897","7251","22","Male","false","true","true","false","""event"",""trial"",""time""
""fullscreenenter"",""5"",""19676""
","
","
","""event"",""trial"",""time""
""fullscreenenter"",""5"",""19676""
","
","1306","","49","","","3000","1","2159.899999976158","49","images/earth.jpg","images/rocket1","images/rocket2","null","images/rocket2","","1","real","null","1","","",""
"d3-animate-choice","137","580096","0.0-77.0-1.0","3897","7251","22","Male","false","true","true","false","""event"",""trial"",""time""
""fullscreenenter"",""5"",""19676""
","
","
","""event"",""trial"",""time""
""fullscreenenter"",""5"",""19676""
","
","456.09999999403954","","49","","","3000","1","882.2999999821186","49","images/purpleplanet.jpg","images/alien4","images/alien3","images/rocket2","images/alien3","images/nothing.png","2","real","true","1","common","0","2023-03-03 07:41:40.919"
"two-step-fixation","138","581111","0.0-77.0-2.0","3897","7251","22","Male","false","true","true","false","""event"",""trial"",""time""
""fullscreenenter"",""5"",""19676""
","
","
","""event"",""trial"",""time""
""fullscreenenter"",""5"",""19676""
","
","","images/earth.jpg","","","","","","","","","","","","","","fixation","","","","","",""
"d3-animate-choice","139","583126","0.0-77.0-0.1","3897","7251","22","Male","false","true","true","false","""event"",""trial"",""time""
""fullscreenenter"",""5"",""19676""
","
","
","""event"",""trial"",""time""
""fullscreenenter"",""5"",""19676""
","
","1.0999999940395355","","48","","","3000","1","298.5","48","images/earth.jpg","images/rocket1","images/rocket2","null","images/rocket1","","1","real","null","2","","",""
"d3-animate-choice","140","585513","0.0-77.0-1.1","3897","7251","22","Male","false","true","true","false","""event"",""trial"",""time""
""fullscreenenter"",""5"",""19676""
","
","
","""event"",""trial"",""time""
""fullscreenenter"",""5"",""19676""
","
","379.09999999403954","","49","","","3000","1","","","images/purpleplanet.jpg","images/alien4","images/alien3","images/rocket1","images/alien3","images/t.png","2","real","false","1","rare","1","2023-03-03 07:41:46.336"
"two-step-fixation","141","586522","0.0-77.0-2.1","3897","7251","22","Male","false","true","true","false","""event"",""trial"",""time""
""fullscreenenter"",""5"",""19676""
","
","
","""event"",""trial"",""time""
""fullscreenenter"",""5"",""19676""
","
","","images/earth.jpg","","","","","","","","","","","","","","fixation","","","","","",""
"d3-animate-choice","142","588912","0.0-77.0-0.2","3897","7251","22","Male","false","true","true","false","""event"",""trial"",""time""
""fullscreenenter"",""5"",""19676""
","
","
","""event"",""trial"",""time""
""fullscreenenter"",""5"",""19676""
","
","382","","49","","","3000","1","","","images/earth.jpg","images/rocket1","images/rocket2","null","images/rocket2","","1","real","null","1","","",""
"d3-animate-choice","143","591203","0.0-77.0-1.2","3897","7251","22","Male","false","true","true","false","""event"",""trial"",""time""
""fullscreenenter"",""5"",""19676""
","
","
","""event"",""trial"",""time""
""fullscreenenter"",""5"",""19676""
","
","284.19999998807907","","48","","","3000","1","731.4000000059605","48","images/purpleplanet.jpg","images/alien4","images/alien3","images/rocket2","images/alien4","images/nothing.png","2","real","true","2","common","0","2023-03-03 07:41:52.026"
"two-step-fixation","144","592209","0.0-77.0-2.2","3897","7251","22","Male","false","true","true","false","""event"",""trial"",""time""
""fullscreenenter"",""5"",""19676""
","
","
","""event"",""trial"",""time""
""fullscreenenter"",""5"",""19676""
","
","","images/earth.jpg","","","","","","","","","","","","","","fixation","","","","","",""
"d3-animate-choice","145","594259","0.0-77.0-0.3","3897","7251","22","Male","false","true","true","false","""event"",""trial"",""time""
""fullscreenenter"",""5"",""19676""
","
","
","""event"",""trial"",""time""
""fullscreenenter"",""5"",""19676""
","
","42.89999997615814","","49","","","3000","1","","","images/earth.jpg","images/rocket1","images/rocket2","null","images/rocket2","","1","real","null","1","","",""
"d3-animate-choice","146","596954","0.0-77.0-1.3","3897","7251","22","Male","false","true","true","false","""event"",""trial"",""time""
""fullscreenenter"",""5"",""19676""
","
","
","""event"",""trial"",""time""
""fullscreenenter"",""5"",""19676""
","
","671.3000000119209","","48","","","3000","1","","","images/purpleplanet.jpg","images/alien4","images/alien3","images/rocket2","images/alien4","images/t.png","2","real","true","2","common","1","2023-03-03 07:41:57.777"
"two-step-fixation","147","597961","0.0-77.0-2.3","3897","7251","22","Male","false","true","true","false","""event"",""trial"",""time""
""fullscreenenter"",""5"",""19676""
","
","
","""event"",""trial"",""time""
""fullscreenenter"",""5"",""19676""
","
","","images/earth.jpg","","","","","","","","","","","","","","fixation","","","","","",""
"d3-animate-choice","148","600151","0.0-77.0-0.4","3897","7251","22","Male","false","true","true","false","""event"",""trial"",""time""
""fullscreenenter"",""5"",""19676""
","
","
","""event"",""trial"",""time""
""fullscreenenter"",""5"",""19676""
","
","186.2999999821186","","48","","","3000","1","","","images/earth.jpg","images/rocket1","images/rocket2","null","images/rocket1","","1","real","null","2","","",""
"d3-animate-choice","149","602447","0.0-77.0-1.4","3897","7251","22","Male","false","true","true","false","""event"",""trial"",""time""
""fullscreenenter"",""5"",""19676""
","
","
","""event"",""trial"",""time""
""fullscreenenter"",""5"",""19676""
","
","285.5","","49","","","3000","1","529.0999999940395,747.5,1035.699999988079,1311.7999999821186","49,49,49,49","images/redplanet1.jpg","images/alien2","images/alien1","images/rocket1","images/alien1","images/nothing.png","2","real","true","1","common","0","2023-03-03 07:42:03.270"
"two-step-fixation","150","603453","0.0-77.0-2.4","3897","7251","22","Male","false","true","true","false","""event"",""trial"",""time""
""fullscreenenter"",""5"",""19676""
","
","
","""event"",""trial"",""time""
""fullscreenenter"",""5"",""19676""
","
","","images/earth.jpg","","","","","","","","","","","","","","fixation","","","","","",""
"d3-animate-choice","151","605534","0.0-77.0-0.5","3897","7251","22","Male","false","true","true","false","""event"",""trial"",""time""
""fullscreenenter"",""5"",""19676""
","
","
","""event"",""trial"",""time""
""fullscreenenter"",""5"",""19676""
","
","73.90000000596046","","48","","","3000","1","280.90000000596046","48","images/earth.jpg","images/rocket1","images/rocket2","null","images/rocket1","","1","real","null","2","","",""
"d3-animate-choice","152","607908","0.0-77.0-1.5","3897","7251","22","Male","false","true","true","false","""event"",""trial"",""time""
""fullscreenenter"",""5"",""19676""
","
","
","""event"",""trial"",""time""
""fullscreenenter"",""5"",""19676""
","
","367.40000000596046","","49","","","3000","1","605,805.3000000119209","49,49","images/redplanet1.jpg","images/alien2","images/alien1","images/rocket1","images/alien1","images/nothing.png","2","real","true","1","common","0","2023-03-03 07:42:08.731"
"two-step-fixation","153","608914","0.0-77.0-2.5","3897","7251","22","Male","false","true","true","false","""event"",""trial"",""time""
""fullscreenenter"",""5"",""19676""
","
","
","""event"",""trial"",""time""
""fullscreenenter"",""5"",""19676""
","
","","images/earth.jpg","","","","","","","","","","","","","","fixation","","","","","",""
"d3-animate-choice","154","611235","0.0-77.0-0.6","3897","7251","22","Male","false","true","true","false","""event"",""trial"",""time""
""fullscreenenter"",""5"",""19676""
","
","
","""event"",""trial"",""time""
""fullscreenenter"",""5"",""19676""
","
","311.09999999403954","","48","","","3000","1","2302","48","images/earth.jpg","images/rocket1","images/rocket2","null","images/rocket1","","1","real","null","2","","",""
"d3-animate-choice","155","613560","0.0-77.0-1.6","3897","7251","22","Male","false","true","true","false","""event"",""trial"",""time""
""fullscreenenter"",""5"",""19676""
","
","
","""event"",""trial"",""time""
""fullscreenenter"",""5"",""19676""
","
","317.7999999821186","","48","","","3000","1","665.9000000059605","48","images/redplanet1.jpg","images/alien2","images/alien1","images/rocket1","images/alien2","images/t.png","2","real","true","2","common","1","2023-03-03 07:42:14.384"
"two-step-fixation","156","614568","0.0-77.0-2.6","3897","7251","22","Male","false","true","true","false","""event"",""trial"",""time""
""fullscreenenter"",""5"",""19676""
","
","
","""event"",""trial"",""time""
""fullscreenenter"",""5"",""19676""
","
","","images/earth.jpg","","","","","","","","","","","","","","fixation","","","","","",""
"d3-animate-choice","157","616820","0.0-77.0-0.7","3897","7251","22","Male","false","true","true","false","""event"",""trial"",""time""
""fullscreenenter"",""5"",""19676""
","
","
","""event"",""trial"",""time""
""fullscreenenter"",""5"",""19676""
","
","244.60000002384186","","49","","","3000","1","2054.300000011921","49","images/earth.jpg","images/rocket1","images/rocket2","null","images/rocket2","","1","real","null","1","","",""
"d3-animate-choice","158","619229","0.0-77.0-1.7","3897","7251","22","Male","false","true","true","false","""event"",""trial"",""time""
""fullscreenenter"",""5"",""19676""
","
","
","""event"",""trial"",""time""
""fullscreenenter"",""5"",""19676""
","
","401.59999999403954","","48","","","3000","1","","","images/redplanet1.jpg","images/alien2","images/alien1","images/rocket2","images/alien2","images/t.png","2","real","false","2","rare","1","2023-03-03 07:42:20.052"
"two-step-fixation","159","620235","0.0-77.0-2.7","3897","7251","22","Male","false","true","true","false","""event"",""trial"",""time""
""fullscreenenter"",""5"",""19676""
","
","
","""event"",""trial"",""time""
""fullscreenenter"",""5"",""19676""
","
","","images/earth.jpg","","","","","","","","","","","","","","fixation","","","","","",""
"d3-animate-choice","160","622502","0.0-77.0-0.8","3897","7251","22","Male","false","true","true","false","""event"",""trial"",""time""
""fullscreenenter"",""5"",""19676""
","
","
","""event"",""trial"",""time""
""fullscreenenter"",""5"",""19676""
","
","258","","48","","","3000","1","2046.7000000178814","49","images/earth.jpg","images/rocket1","images/rocket2","null","images/rocket1","","1","real","null","2","","",""
"d3-animate-choice","161","624761","0.0-77.0-1.8","3897","7251","22","Male","false","true","true","false","""event"",""trial"",""time""
""fullscreenenter"",""5"",""19676""
","
","
","""event"",""trial"",""time""
""fullscreenenter"",""5"",""19676""
","
","252.30000001192093","","49","","","3000","1","513.5999999940395","49","images/purpleplanet.jpg","images/alien4","images/alien3","images/rocket1","images/alien3","images/t.png","2","real","false","1","rare","1","2023-03-03 07:42:25.584"
"two-step-fixation","162","625766","0.0-77.0-2.8","3897","7251","22","Male","false","true","true","false","""event"",""trial"",""time""
""fullscreenenter"",""5"",""19676""
","
","
","""event"",""trial"",""time""
""fullscreenenter"",""5"",""19676""
","
","","images/earth.jpg","","","","","","","","","","","","","","fixation","","","","","",""
"d3-animate-choice","163","628071","0.0-77.0-0.9","3897","7251","22","Male","false","true","true","false","""event"",""trial"",""time""
""fullscreenenter"",""5"",""19676""
","
","
","""event"",""trial"",""time""
""fullscreenenter"",""5"",""19676""
","
","300.19999998807907","","49","","","3000","1","","","images/earth.jpg","images/rocket1","images/rocket2","null","images/rocket2","","1","real","null","1","","",""
"d3-animate-choice","164","630391","0.0-77.0-1.9","3897","7251","22","Male","false","true","true","false","""event"",""trial"",""time""
""fullscreenenter"",""5"",""19676""
","
","
","""event"",""trial"",""time""
""fullscreenenter"",""5"",""19676""
","
","312.30000001192093","","49","","","3000","1","744.8000000119209","48","images/purpleplanet.jpg","images/alien4","images/alien3","images/rocket2","images/alien3","images/nothing.png","2","real","true","1","common","0","2023-03-03 07:42:31.214"
"two-step-fixation","165","631397","0.0-77.0-2.9","3897","7251","22","Male","false","true","true","false","""event"",""trial"",""time""
""fullscreenenter"",""5"",""19676""
","
","
","""event"",""trial"",""time""
""fullscreenenter"",""5"",""19676""
","
","","images/earth.jpg","","","","","","","","","","","","","","fixation","","","","","",""
"d3-animate-choice","166","633573","0.0-77.0-0.10","3897","7251","22","Male","false","true","true","false","""event"",""trial"",""time""
""fullscreenenter"",""5"",""19676""
","
","
","""event"",""trial"",""time""
""fullscreenenter"",""5"",""19676""
","
","168.19999998807907","","49","","","3000","1","456.40000000596046,1852.699999988079","49,49","images/earth.jpg","images/rocket1","images/rocket2","null","images/rocket2","","1","real","null","1","","",""
"d3-animate-choice","167","635609","0.0-77.0-1.10","3897","7251","22","Male","false","true","true","false","""event"",""trial"",""time""
""fullscreenenter"",""5"",""19676""
","
","
","""event"",""trial"",""time""
""fullscreenenter"",""5"",""19676""
","
","28.799999982118607","","49","","","3000","1","287.5,556.6999999880791,754.0999999940395","49,49,49","images/purpleplanet.jpg","images/alien4","images/alien3","images/rocket2","images/alien3","images/nothing.png","2","real","true","1","common","0","2023-03-03 07:42:36.433"
"two-step-fixation","168","636616","0.0-77.0-2.10","3897","7251","22","Male","false","true","true","false","""event"",""trial"",""time""
""fullscreenenter"",""5"",""19676""
","
","
","""event"",""trial"",""time""
""fullscreenenter"",""5"",""19676""
","
","","images/earth.jpg","","","","","","","","","","","","","","fixation","","","","","",""
"d3-animate-choice","169","638701","0.0-77.0-0.11","3897","7251","22","Male","false","true","true","false","""event"",""trial"",""time""
""fullscreenenter"",""5"",""19676""
","
","
","""event"",""trial"",""time""
""fullscreenenter"",""5"",""19676""
","
","77.5","","48","","","3000","1","276.40000000596046","48","images/earth.jpg","images/rocket1","images/rocket2","null","images/rocket1","","1","real","null","2","","",""
"d3-animate-choice","170","640977","0.0-77.0-1.11","3897","7251","22","Male","false","true","true","false","""event"",""trial"",""time""
""fullscreenenter"",""5"",""19676""
","
","
","""event"",""trial"",""time""
""fullscreenenter"",""5"",""19676""
","
","267.89999997615814","","48","","","3000","1","508.5,713.0999999940395","48,48","images/redplanet1.jpg","images/alien2","images/alien1","images/rocket1","images/alien2","images/t.png","2","real","true","2","common","1","2023-03-03 07:42:41.800"
"two-step-fixation","171","641984","0.0-77.0-2.11","3897","7251","22","Male","false","true","true","false","""event"",""trial"",""time""
""fullscreenenter"",""5"",""19676""
","
","
","""event"",""trial"",""time""
""fullscreenenter"",""5"",""19676""
","
","","images/earth.jpg","","","","","","","","","","","","","","fixation","","","","","",""
"d3-animate-choice","172","644257","0.0-77.0-0.12","3897","7251","22","Male","false","true","true","false","""event"",""trial"",""time""
""fullscreenenter"",""5"",""19676""
","
","
","""event"",""trial"",""time""
""fullscreenenter"",""5"",""19676""
","
","266.40000000596046","","48","","","3000","1","","","images/earth.jpg","images/rocket1","images/rocket2","null","images/rocket1","","1","real","null","2","","",""
"d3-animate-choice","173","646337","0.0-77.0-1.12","3897","7251","22","Male","false","true","true","false","""event"",""trial"",""time""
""fullscreenenter"",""5"",""19676""
","
","
","""event"",""trial"",""time""
""fullscreenenter"",""5"",""19676""
","
","71.40000000596046","","49","","","3000","1","379.80000001192093","49","images/purpleplanet.jpg","images/alien4","images/alien3","images/rocket1","images/alien3","images/nothing.png","2","real","false","1","rare","0","2023-03-03 07:42:47.160"
"two-step-fixation","174","647343","0.0-77.0-2.12","3897","7251","22","Male","false","true","true","false","""event"",""trial"",""time""
""fullscreenenter"",""5"",""19676""
","
","
","""event"",""trial"",""time""
""fullscreenenter"",""5"",""19676""
","
","","images/earth.jpg","","","","","","","","","","","","","","fixation","","","","","",""
"d3-animate-choice","175","649429","0.0-77.0-0.13","3897","7251","22","Male","false","true","true","false","""event"",""trial"",""time""
""fullscreenenter"",""5"",""19676""
","
","
","""event"",""trial"",""time""
""fullscreenenter"",""5"",""19676""
","
","78.69999998807907","","48","","","3000","1","251.30000001192093","48","images/earth.jpg","images/rocket1","images/rocket2","null","images/rocket1","","1","real","null","2","","",""
"d3-animate-choice","176","651735","0.0-77.0-1.13","3897","7251","22","Male","false","true","true","false","""event"",""trial"",""time""
""fullscreenenter"",""5"",""19676""
","
","
","""event"",""trial"",""time""
""fullscreenenter"",""5"",""19676""
","
","297.89999997615814","","49","","","3000","1","534.1999999880791,735.1999999880791","49,49","images/redplanet1.jpg","images/alien2","images/alien1","images/rocket1","images/alien1","images/nothing.png","2","real","true","1","common","0","2023-03-03 07:42:52.559"
"two-step-fixation","177","652741","0.0-77.0-2.13","3897","7251","22","Male","false","true","true","false","""event"",""trial"",""time""
""fullscreenenter"",""5"",""19676""
","
","
","""event"",""trial"",""time""
""fullscreenenter"",""5"",""19676""
","
","","images/earth.jpg","","","","","","","","","","","","","","fixation","","","","","",""
"d3-animate-choice","178","654778","0.0-77.0-0.14","3897","7251","22","Male","false","true","true","false","""event"",""trial"",""time""
""fullscreenenter"",""5"",""19676""
","
","
","""event"",""trial"",""time""
""fullscreenenter"",""5"",""19676""
","
","30.19999998807907","","48","","","3000","1","230.59999999403954,424.69999998807907","48,48","images/earth.jpg","images/rocket1","images/rocket2","null","images/rocket1","","1","real","null","2","","",""
"d3-animate-choice","179","657008","0.0-77.0-1.14","3897","7251","22","Male","false","true","true","false","""event"",""trial"",""time""
""fullscreenenter"",""5"",""19676""
","
","
","""event"",""trial"",""time""
""fullscreenenter"",""5"",""19676""
","
","220.90000000596046","","49","","","3000","1","419.19999998807907","49","images/purpleplanet.jpg","images/alien4","images/alien3","images/rocket1","images/alien3","images/nothing.png","2","real","false","1","rare","0","2023-03-03 07:42:57.831"
"two-step-fixation","180","658014","0.0-77.0-2.14","3897","7251","22","Male","false","true","true","false","""event"",""trial"",""time""
""fullscreenenter"",""5"",""19676""
","
","
","""event"",""trial"",""time""
""fullscreenenter"",""5"",""19676""
","
","","images/earth.jpg","","","","","","","","","","","","","","fixation","","","","","",""
"d3-animate-choice","181","660129","0.0-77.0-0.15","3897","7251","22","Male","false","true","true","false","""event"",""trial"",""time""
""fullscreenenter"",""5"",""19676""
","
","
","""event"",""trial"",""time""
""fullscreenenter"",""5"",""19676""
","
","109.69999998807907","","48","","","3000","1","323.69999998807907,509.09999999403954,1787.3999999761581","48,48,48","images/earth.jpg","images/rocket1","images/rocket2","null","images/rocket1","","1","real","null","2","","",""
"d3-animate-choice","182","662147","0.0-77.0-1.15","3897","7251","22","Male","false","true","true","false","""event"",""trial"",""time""
""fullscreenenter"",""5"",""19676""
","
","
","""event"",""trial"",""time""
""fullscreenenter"",""5"",""19676""
","
","7.800000011920929","","48","","","3000","1","180,479","48,48","images/redplanet1.jpg","images/alien2","images/alien1","images/rocket1","images/alien2","images/t.png","2","real","true","2","common","1","2023-03-03 07:43:02.970"
"two-step-fixation","183","663154","0.0-77.0-2.15","3897","7251","22","Male","false","true","true","false","""event"",""trial"",""time""
""fullscreenenter"",""5"",""19676""
","
","
","""event"",""trial"",""time""
""fullscreenenter"",""5"",""19676""
","
","","images/earth.jpg","","","","","","","","","","","","","","fixation","","","","","",""
"d3-animate-choice","184","665180","0.0-77.0-0.16","3897","7251","22","Male","false","true","true","false","""event"",""trial"",""time""
""fullscreenenter"",""5"",""19676""
","
","
","""event"",""trial"",""time""
""fullscreenenter"",""5"",""19676""
","
","19.80000001192093","","49","","","3000","1","214.5","49","images/earth.jpg","images/rocket1","images/rocket2","null","images/rocket2","","1","real","null","1","","",""
"d3-animate-choice","185","667506","0.0-77.0-1.16","3897","7251","22","Male","false","true","true","false","""event"",""trial"",""time""
""fullscreenenter"",""5"",""19676""
","
","
","""event"",""trial"",""time""
""fullscreenenter"",""5"",""19676""
","
","318.2000000178814","","49","","","3000","1","583.5","49","images/purpleplanet.jpg","images/alien4","images/alien3","images/rocket2","images/alien3","images/nothing.png","2","real","true","1","common","0","2023-03-03 07:43:08.329"
"two-step-fixation","186","668511","0.0-77.0-2.16","3897","7251","22","Male","false","true","true","false","""event"",""trial"",""time""
""fullscreenenter"",""5"",""19676""
","
","
","""event"",""trial"",""time""
""fullscreenenter"",""5"",""19676""
","
","","images/earth.jpg","","","","","","","","","","","","","","fixation","","","","","",""
"d3-animate-choice","187","670537","0.0-77.0-0.17","3897","7251","22","Male","false","true","true","false","""event"",""trial"",""time""
""fullscreenenter"",""5"",""19676""
","
","
","""event"",""trial"",""time""
""fullscreenenter"",""5"",""19676""
","
","18.099999994039536","","48","","","3000","1","208.40000000596046,1988.4000000059605","48,49","images/earth.jpg","images/rocket1","images/rocket2","null","images/rocket1","","1","real","null","2","","",""
"d3-animate-choice","188","672989","0.0-77.0-1.17","3897","7251","22","Male","false","true","true","false","""event"",""trial"",""time""
""fullscreenenter"",""5"",""19676""
","
","
","""event"",""trial"",""time""
""fullscreenenter"",""5"",""19676""
","
","444.59999999403954","","49","","","3000","1","","","images/redplanet1.jpg","images/alien2","images/alien1","images/rocket1","images/alien1","images/t.png","2","real","true","1","common","1","2023-03-03 07:43:13.812"
"two-step-fixation","189","673996","0.0-77.0-2.17","3897","7251","22","Male","false","true","true","false","""event"",""trial"",""time""
""fullscreenenter"",""5"",""19676""
","
","
","""event"",""trial"",""time""
""fullscreenenter"",""5"",""19676""
","
","","images/earth.jpg","","","","","","","","","","","","","","fixation","","","","","",""
"d3-animate-choice","190","676009","0.0-77.0-0.18","3897","7251","22","Male","false","true","true","false","""event"",""trial"",""time""
""fullscreenenter"",""5"",""19676""
","
","
","""event"",""trial"",""time""
""fullscreenenter"",""5"",""19676""
","
","6.4000000059604645","","49","","","3000","1","202.90000000596046,1629.0999999940395","49,48","images/earth.jpg","images/rocket1","images/rocket2","null","images/rocket2","","1","real","null","1","","",""
"d3-animate-choice","191","678136","0.0-77.0-1.18","3897","7251","22","Male","false","true","true","false","""event"",""trial"",""time""
""fullscreenenter"",""5"",""19676""
","
","
","""event"",""trial"",""time""
""fullscreenenter"",""5"",""19676""
","
","116.7999999821186","","48","","","3000","1","380.59999999403954","48","images/purpleplanet.jpg","images/alien4","images/alien3","images/rocket2","images/alien4","images/t.png","2","real","true","2","common","1","2023-03-03 07:43:18.959"
"two-step-fixation","192","679142","0.0-77.0-2.18","3897","7251","22","Male","false","true","true","false","""event"",""trial"",""time""
""fullscreenenter"",""5"",""19676""
","
","
","""event"",""trial"",""time""
""fullscreenenter"",""5"",""19676""
","
","","images/earth.jpg","","","","","","","","","","","","","","fixation","","","","","",""
"d3-animate-choice","193","681301","0.0-77.0-0.19","3897","7251","22","Male","false","true","true","false","""event"",""trial"",""time""
""fullscreenenter"",""5"",""19676""
","
","
","""event"",""trial"",""time""
""fullscreenenter"",""5"",""19676""
","
","151.7000000178814","","48","","","3000","1","364.40000000596046,2134.800000011921","48,48","images/earth.jpg","images/rocket1","images/rocket2","null","images/rocket1","","1","real","null","2","","",""
"d3-animate-choice","194","683569","0.0-77.0-1.19","3897","7251","22","Male","false","true","true","false","""event"",""trial"",""time""
""fullscreenenter"",""5"",""19676""
","
","
","""event"",""trial"",""time""
""fullscreenenter"",""5"",""19676""
","
","260.89999997615814","","48","","","3000","1","643.5999999940395","48","images/purpleplanet.jpg","images/alien4","images/alien3","images/rocket1","images/alien4","images/t.png","2","real","false","2","rare","1","2023-03-03 07:43:24.392"
"two-step-fixation","195","684576","0.0-77.0-2.19","3897","7251","22","Male","false","true","true","false","""event"",""trial"",""time""
""fullscreenenter"",""5"",""19676""
","
","
","""event"",""trial"",""time""
""fullscreenenter"",""5"",""19676""
","
","","images/earth.jpg","","","","","","","","","","","","","","fixation","","","","","",""
"d3-animate-choice","196","686793","0.0-77.0-0.20","3897","7251","22","Male","false","true","true","false","""event"",""trial"",""time""
""fullscreenenter"",""5"",""19676""
","
","
","""event"",""trial"",""time""
""fullscreenenter"",""5"",""19676""
","
","209.5","","49","","","3000","1","397.69999998807907,1361.4000000059605,2050.5","49,48,48","images/earth.jpg","images/rocket1","images/rocket2","null","images/rocket2","","1","real","null","1","","",""
"d3-animate-choice","197","689024","0.0-77.0-1.20","3897","7251","22","Male","false","true","true","false","""event"",""trial"",""time""
""fullscreenenter"",""5"",""19676""
","
","
","""event"",""trial"",""time""
""fullscreenenter"",""5"",""19676""
","
","223.5","","49","","","3000","1","500.19999998807907","49","images/redplanet1.jpg","images/alien2","images/alien1","images/rocket2","images/alien1","images/t.png","2","real","false","1","rare","1","2023-03-03 07:43:29.847"
"two-step-fixation","198","690031","0.0-77.0-2.20","3897","7251","22","Male","false","true","true","false","""event"",""trial"",""time""
""fullscreenenter"",""5"",""19676""
","
","
","""event"",""trial"",""time""
""fullscreenenter"",""5"",""19676""
","
","","images/earth.jpg","","","","","","","","","","","","","","fixation","","","","","",""
"d3-animate-choice","199","692071","0.0-77.0-0.21","3897","7251","22","Male","false","true","true","false","""event"",""trial"",""time""
""fullscreenenter"",""5"",""19676""
","
","
","""event"",""trial"",""time""
""fullscreenenter"",""5"",""19676""
","
","28.80000001192093","","49","","","3000","1","","","images/earth.jpg","images/rocket1","images/rocket2","null","images/rocket2","","1","real","null","1","","",""
"d3-animate-choice","200","694263","0.0-77.0-1.21","3897","7251","22","Male","false","true","true","false","""event"",""trial"",""time""
""fullscreenenter"",""5"",""19676""
","
","
","""event"",""trial"",""time""
""fullscreenenter"",""5"",""19676""
","
","188.2000000178814","","48","","","3000","1","458.40000000596046","48","images/purpleplanet.jpg","images/alien4","images/alien3","images/rocket2","images/alien4","images/t.png","2","real","true","2","common","1","2023-03-03 07:43:35.086"
"two-step-fixation","201","695268","0.0-77.0-2.21","3897","7251","22","Male","false","true","true","false","""event"",""trial"",""time""
""fullscreenenter"",""5"",""19676""
","
","
","""event"",""trial"",""time""
""fullscreenenter"",""5"",""19676""
","
","","images/earth.jpg","","","","","","","","","","","","","","fixation","","","","","",""
"d3-animate-choice","202","697560","0.0-77.0-0.22","3897","7251","22","Male","false","true","true","false","""event"",""trial"",""time""
""fullscreenenter"",""5"",""19676""
","
","
","""event"",""trial"",""time""
""fullscreenenter"",""5"",""19676""
","
","283.40000000596046","","49","","","3000","1","1846.0999999940395,2155","48,48","images/earth.jpg","images/rocket1","images/rocket2","null","images/rocket2","","1","real","null","1","","",""
"d3-animate-choice","203","699646","0.0-77.0-1.22","3897","7251","22","Male","false","true","true","false","""event"",""trial"",""time""
""fullscreenenter"",""5"",""19676""
","
","
","""event"",""trial"",""time""
""fullscreenenter"",""5"",""19676""
","
","80.2000000178814","","48","","","3000","1","307.80000001192093","48","images/purpleplanet.jpg","images/alien4","images/alien3","images/rocket2","images/alien4","images/t.png","2","real","true","2","common","1","2023-03-03 07:43:40.469"
"two-step-fixation","204","700653","0.0-77.0-2.22","3897","7251","22","Male","false","true","true","false","""event"",""trial"",""time""
""fullscreenenter"",""5"",""19676""
","
","
","""event"",""trial"",""time""
""fullscreenenter"",""5"",""19676""
","
","","images/earth.jpg","","","","","","","","","","","","","","fixation","","","","","",""
"d3-animate-choice","205","702802","0.0-77.0-0.23","3897","7251","22","Male","false","true","true","false","""event"",""trial"",""time""
""fullscreenenter"",""5"",""19676""
","
","
","""event"",""trial"",""time""
""fullscreenenter"",""5"",""19676""
","
","141.59999999403954","","49","","","3000","1","319.90000000596046","49","images/earth.jpg","images/rocket1","images/rocket2","null","images/rocket2","","1","real","null","1","","",""
"d3-animate-choice","206","705019","0.0-77.0-1.23","3897","7251","22","Male","false","true","true","false","""event"",""trial"",""time""
""fullscreenenter"",""5"",""19676""
","
","
","""event"",""trial"",""time""
""fullscreenenter"",""5"",""19676""
","
","212.80000001192093","","49","","","3000","1","447.80000001192093","49","images/redplanet1.jpg","images/alien2","images/alien1","images/rocket2","images/alien1","images/t.png","2","real","false","1","rare","1","2023-03-03 07:43:45.842"
"two-step-fixation","207","706025","0.0-77.0-2.23","3897","7251","22","Male","false","true","true","false","""event"",""trial"",""time""
""fullscreenenter"",""5"",""19676""
","
","
","""event"",""trial"",""time""
""fullscreenenter"",""5"",""19676""
","
","","images/earth.jpg","","","","","","","","","","","","","","fixation","","","","","",""
"d3-animate-choice","208","708062","0.0-77.0-0.24","3897","7251","22","Male","false","true","true","false","""event"",""trial"",""time""
""fullscreenenter"",""5"",""19676""
","
","
","""event"",""trial"",""time""
""fullscreenenter"",""5"",""19676""
","
","30","","48","","","3000","1","","","images/earth.jpg","images/rocket1","images/rocket2","null","images/rocket1","","1","real","null","2","","",""
"d3-animate-choice","209","710282","0.0-77.0-1.24","3897","7251","22","Male","false","true","true","false","""event"",""trial"",""time""
""fullscreenenter"",""5"",""19676""
","
","
","""event"",""trial"",""time""
""fullscreenenter"",""5"",""19676""
","
","213.19999998807907","","48","","","3000","1","419,795.2999999821186","48,48","images/redplanet1.jpg","images/alien2","images/alien1","images/rocket1","images/alien2","images/nothing.png","2","real","true","2","common","0","2023-03-03 07:43:51.105"
"two-step-fixation","210","711290","0.0-77.0-2.24","3897","7251","22","Male","false","true","true","false","""event"",""trial"",""time""
""fullscreenenter"",""5"",""19676""
","
","
","""event"",""trial"",""time""
""fullscreenenter"",""5"",""19676""
","
","","images/earth.jpg","","","","","","","","","","","","","","fixation","","","","","",""
"d3-animate-choice","211","713628","0.0-77.0-0.25","3897","7251","22","Male","false","true","true","false","""event"",""trial"",""time""
""fullscreenenter"",""5"",""19676""
","
","
","""event"",""trial"",""time""
""fullscreenenter"",""5"",""19676""
","
","332.30000001192093","","48","","","3000","1","571,796.5,1592.800000011921,2026.9000000059605","48,48,49,49","images/earth.jpg","images/rocket1","images/rocket2","null","images/rocket1","","1","real","null","2","","",""
"d3-animate-choice","212","715725","0.0-77.0-1.25","3897","7251","22","Male","false","true","true","false","""event"",""trial"",""time""
""fullscreenenter"",""5"",""19676""
","
","
","""event"",""trial"",""time""
""fullscreenenter"",""5"",""19676""
","
","90.30000001192093","","49","","","3000","1","327.80000001192093","49","images/redplanet1.jpg","images/alien2","images/alien1","images/rocket1","images/alien1","images/nothing.png","2","real","true","1","common","0","2023-03-03 07:43:56.549"
"two-step-fixation","213","716733","0.0-77.0-2.25","3897","7251","22","Male","false","true","true","false","""event"",""trial"",""time""
""fullscreenenter"",""5"",""19676""
","
","
","""event"",""trial"",""time""
""fullscreenenter"",""5"",""19676""
","
","","images/earth.jpg","","","","","","","","","","","","","","fixation","","","","","",""
"d3-animate-choice","214","719138","0.0-77.0-0.26","3897","7251","22","Male","false","true","true","false","""event"",""trial"",""time""
""fullscreenenter"",""5"",""19676""
","
","
","""event"",""trial"",""time""
""fullscreenenter"",""5"",""19676""
","
","397.69999998807907","","48","","","3000","1","590.7999999821186,1883.7999999821186,2331.9000000059605","48,48,48","images/earth.jpg","images/rocket1","images/rocket2","null","images/rocket1","","1","real","null","2","","",""
"d3-animate-choice","215","721289","0.0-77.0-1.26","3897","7251","22","Male","false","true","true","false","""event"",""trial"",""time""
""fullscreenenter"",""5"",""19676""
","
","
","""event"",""trial"",""time""
""fullscreenenter"",""5"",""19676""
","
","144.7999999821186","","48","","","3000","1","498.2999999821186,2144.5","48,48","images/redplanet1.jpg","images/alien2","images/alien1","images/rocket1","images/alien2","images/t.png","2","real","true","2","common","1","2023-03-03 07:44:02.112"
"two-step-fixation","216","722296","0.0-77.0-2.26","3897","7251","22","Male","false","true","true","false","""event"",""trial"",""time""
""fullscreenenter"",""5"",""19676""
","
","
","""event"",""trial"",""time""
""fullscreenenter"",""5"",""19676""
","
","","images/earth.jpg","","","","","","","","","","","","","","fixation","","","","","",""
"d3-animate-choice","217","724548","0.0-77.0-0.27","3897","7251","22","Male","false","true","true","false","""event"",""trial"",""time""
""fullscreenenter"",""5"",""19676""
","
","
","""event"",""trial"",""time""
""fullscreenenter"",""5"",""19676""
","
","243.90000000596046","","49","","","3000","1","460.7000000178814,1104.4000000059605,1988","49,49,49","images/earth.jpg","images/rocket1","images/rocket2","null","images/rocket2","","1","real","null","1","","",""
"d3-animate-choice","218","726771","0.0-77.0-1.27","3897","7251","22","Male","false","true","true","false","""event"",""trial"",""time""
""fullscreenenter"",""5"",""19676""
","
","
","""event"",""trial"",""time""
""fullscreenenter"",""5"",""19676""
","
","216","","49","","","3000","1","412.7000000178814","49","images/purpleplanet.jpg","images/alien4","images/alien3","images/rocket2","images/alien3","images/nothing.png","2","real","true","1","common","0","2023-03-03 07:44:07.594"
"two-step-fixation","219","727778","0.0-77.0-2.27","3897","7251","22","Male","false","true","true","false","""event"",""trial"",""time""
""fullscreenenter"",""5"",""19676""
","
","
","""event"",""trial"",""time""
""fullscreenenter"",""5"",""19676""
","
","","images/earth.jpg","","","","","","","","","","","","","","fixation","","","","","",""
"d3-animate-choice","220","729834","0.0-77.0-0.28","3897","7251","22","Male","false","true","true","false","""event"",""trial"",""time""
""fullscreenenter"",""5"",""19676""
","
","
","""event"",""trial"",""time""
""fullscreenenter"",""5"",""19676""
","
","48.29999998211861","","49","","","3000","1","328.5,638.2999999821186","48,49","images/earth.jpg","images/rocket1","images/rocket2","null","images/rocket2","","1","real","null","1","","",""
"d3-animate-choice","221","731957","0.0-77.0-1.28","3897","7251","22","Male","false","true","true","false","""event"",""trial"",""time""
""fullscreenenter"",""5"",""19676""
","
","
","""event"",""trial"",""time""
""fullscreenenter"",""5"",""19676""
","
","117.2000000178814","","48","","","3000","1","372","48","images/purpleplanet.jpg","images/alien4","images/alien3","images/rocket2","images/alien4","images/t.png","2","real","true","2","common","1","2023-03-03 07:44:12.781"
"two-step-fixation","222","732964","0.0-77.0-2.28","3897","7251","22","Male","false","true","true","false","""event"",""trial"",""time""
""fullscreenenter"",""5"",""19676""
","
","
","""event"",""trial"",""time""
""fullscreenenter"",""5"",""19676""
","
","","images/earth.jpg","","","","","","","","","","","","","","fixation","","","","","",""
"d3-animate-choice","223","735181","0.0-77.0-0.29","3897","7251","22","Male","false","true","true","false","""event"",""trial"",""time""
""fullscreenenter"",""5"",""19676""
","
","
","""event"",""trial"",""time""
""fullscreenenter"",""5"",""19676""
","
","209.69999998807907","","48","","","3000","1","1937.699999988079,2149","49,49","images/earth.jpg","images/rocket1","images/rocket2","null","images/rocket1","","1","real","null","2","","",""
"d3-animate-choice","224","737242","0.0-77.0-1.29","3897","7251","22","Male","false","true","true","false","""event"",""trial"",""time""
""fullscreenenter"",""5"",""19676""
","
","
","""event"",""trial"",""time""
""fullscreenenter"",""5"",""19676""
","
","52.400000005960464","","48","","","3000","1","138.2000000178814,310.5,409.59999999403954,579.0999999940395","49,49,49,49","images/redplanet1.jpg","images/alien2","images/alien1","images/rocket1","images/alien2","images/nothing.png","2","real","true","2","common","0","2023-03-03 07:44:18.065"
"two-step-fixation","225","738248","0.0-77.0-2.29","3897","7251","22","Male","false","true","true","false","""event"",""trial"",""time""
""fullscreenenter"",""5"",""19676""
","
","
","""event"",""trial"",""time""
""fullscreenenter"",""5"",""19676""
","
","","images/earth.jpg","","","","","","","","","","","","","","fixation","","","","","",""
"d3-animate-choice","226","740449","0.0-77.0-0.30","3897","7251","22","Male","false","true","true","false","""event"",""trial"",""time""
""fullscreenenter"",""5"",""19676""
","
","
","""event"",""trial"",""time""
""fullscreenenter"",""5"",""19676""
","
","191.7999999821186","","48","","","3000","1","434.59999999403954","48","images/earth.jpg","images/rocket1","images/rocket2","null","images/rocket1","","1","real","null","2","","",""
"d3-animate-choice","227","742458","0.0-77.0-1.30","3897","7251","22","Male","false","true","true","false","""event"",""trial"",""time""
""fullscreenenter"",""5"",""19676""
","
","
","""event"",""trial"",""time""
""fullscreenenter"",""5"",""19676""
","
","1.0999999940395355","","49","","","3000","1","273.89999997615814","48","images/redplanet1.jpg","images/alien2","images/alien1","images/rocket1","images/alien1","images/t.png","2","real","true","1","common","1","2023-03-03 07:44:23.281"
"two-step-fixation","228","743462","0.0-77.0-2.30","3897","7251","22","Male","false","true","true","false","""event"",""trial"",""time""
""fullscreenenter"",""5"",""19676""
","
","
","""event"",""trial"",""time""
""fullscreenenter"",""5"",""19676""
","
","","images/earth.jpg","","","","","","","","","","","","","","fixation","","","","","",""
"d3-animate-choice","229","745745","0.0-77.0-0.31","3897","7251","22","Male","false","true","true","false","""event"",""trial"",""time""
""fullscreenenter"",""5"",""19676""
","
","
","""event"",""trial"",""time""
""fullscreenenter"",""5"",""19676""
","
","275.09999999403954","","48","","","3000","1","1147.699999988079,1813.7999999821186","49,49","images/earth.jpg","images/rocket1","images/rocket2","null","images/rocket1","","1","real","null","2","","",""
"d3-animate-choice","230","747774","0.0-77.0-1.31","3897","7251","22","Male","false","true","true","false","""event"",""trial"",""time""
""fullscreenenter"",""5"",""19676""
","
","
","""event"",""trial"",""time""
""fullscreenenter"",""5"",""19676""
","
","20","","49","","","3000","1","345.60000002384186","49","images/purpleplanet.jpg","images/alien4","images/alien3","images/rocket1","images/alien3","images/nothing.png","2","real","false","1","rare","0","2023-03-03 07:44:28.597"
"two-step-fixation","231","748780","0.0-77.0-2.31","3897","7251","22","Male","false","true","true","false","""event"",""trial"",""time""
""fullscreenenter"",""5"",""19676""
","
","
","""event"",""trial"",""time""
""fullscreenenter"",""5"",""19676""
","
","","images/earth.jpg","","","","","","","","","","","","","","fixation","","","","","",""
"d3-animate-choice","232","750885","0.0-77.0-0.32","3897","7251","22","Male","false","true","true","false","""event"",""trial"",""time""
""fullscreenenter"",""5"",""19676""
","
","
","""event"",""trial"",""time""
""fullscreenenter"",""5"",""19676""
","
","96","","49","","","3000","1","260.5,412","49,49","images/earth.jpg","images/rocket1","images/rocket2","null","images/rocket2","","1","real","null","1","","",""
"d3-animate-choice","233","753233","0.0-77.0-1.32","3897","7251","22","Male","false","true","true","false","""event"",""trial"",""time""
""fullscreenenter"",""5"",""19676""
","
","
","""event"",""trial"",""time""
""fullscreenenter"",""5"",""19676""
","
","341.19999998807907","","49","","","3000","1","572.3000000119209,2293.4000000059605","49,49","images/redplanet1.jpg","images/alien2","images/alien1","images/rocket2","images/alien1","images/t.png","2","real","false","1","rare","1","2023-03-03 07:44:34.056"
"two-step-fixation","234","754239","0.0-77.0-2.32","3897","7251","22","Male","false","true","true","false","""event"",""trial"",""time""
""fullscreenenter"",""5"",""19676""
","
","
","""event"",""trial"",""time""
""fullscreenenter"",""5"",""19676""
","
","","images/earth.jpg","","","","","","","","","","","","","","fixation","","","","","",""
"d3-animate-choice","235","756263","0.0-77.0-0.33","3897","7251","22","Male","false","true","true","false","""event"",""trial"",""time""
""fullscreenenter"",""5"",""19676""
","
","
","""event"",""trial"",""time""
""fullscreenenter"",""5"",""19676""
","
","18","","48","","","3000","1","367.5,1674.7000000178814","48,48","images/earth.jpg","images/rocket1","images/rocket2","null","images/rocket1","","1","real","null","2","","",""
"d3-animate-choice","236","758497","0.0-77.0-1.33","3897","7251","22","Male","false","true","true","false","""event"",""trial"",""time""
""fullscreenenter"",""5"",""19676""
","
","
","""event"",""trial"",""time""
""fullscreenenter"",""5"",""19676""
","
","226.30000001192093","","48","","","3000","1","694,1204,1716.5999999940395,2179.2000000178814,2196.800000011921","48,48,48,49,48","images/purpleplanet.jpg","images/alien4","images/alien3","images/rocket1","images/alien4","images/t.png","2","real","false","2","rare","1","2023-03-03 07:44:39.320"
"two-step-fixation","237","759504","0.0-77.0-2.33","3897","7251","22","Male","false","true","true","false","""event"",""trial"",""time""
""fullscreenenter"",""5"",""19676""
","
","
","""event"",""trial"",""time""
""fullscreenenter"",""5"",""19676""
","
","","images/earth.jpg","","","","","","","","","","","","","","fixation","","","","","",""
