"trial_type","trial_index","time_elapsed","internal_node_id","participant_id","subject_id","age","gender","rocket_sides","red_planet_first_rocket","red_display_order","purple_display_order","interactions","blur_events","focus_events","fullscreenenter_events","fullscreenexit_events","rt","stimulus","key_press","button_pressed","success","duration","valid_pressed","rts","keys","planet_text","right_text","left_text","center_text","chosen_text","reward_text","trial_stage","practice_trial","transition_type","choice","transition","reward","timestamp"
"pavlovia","0","3","0.0-0.0","169","6352","22","Female","false","false","true","false","
","
","
","
","
","","","","","","","","","","","","","","","","","","","","","",""
"html-keyboard-response","1","935","0.0-1.0","169","6352","22","Female","false","false","true","false","
","
","
","
","
","931.7000000029802","Welcome! Press the space bar to begin.","32","","","","","","","","","","","","","","","","","","",""
"audio-keyboard-response","2","1795","0.0-2.0","169","6352","22","Female","false","false","true","false","
","
","
","
","
","743","audio/beep_loop.wav","32","","","","","","","","","","","","","","","","","","",""
"audio-button-response","3","3008","0.0-3.0","169","6352","22","Female","false","false","true","false","
","
","
","
","
","NaN","audio/fish.mp3","","1","","","","","","","","","","","","","","","","","",""
"audio-button-response","4","6414","0.0-4.0","169","6352","22","Female","false","false","true","false","""event"",""trial"",""time""
""fullscreenenter"",""5"",""8784""
","
","
","""event"",""trial"",""time""
""fullscreenenter"",""5"",""8784""
","
","NaN","audio/tiger.mp3","","4","","","","","","","","","","","","","","","","","",""
"fullscreen","5","9781","0.0-5.0","169","6352","22","Female","false","false","true","false","""event"",""trial"",""time""
""fullscreenenter"",""5"",""8784""
","
","
","""event"",""trial"",""time""
""fullscreenenter"",""5"",""8784""
","
","","","","","true","","","","","","","","","","","","","","","","",""
"d3-instructions","6","24070","0.0-6.0","169","6352","22","Female","false","false","true","false","""event"",""trial"",""time""
""fullscreenenter"",""5"",""8784""
","
","
","""event"",""trial"",""time""
""fullscreenenter"",""5"",""8784""
","
","","","","","","","","","","","","","","","","","","","","","",""
"d3-instructions","7","24679","0.0-7.0","169","6352","22","Female","false","false","true","false","""event"",""trial"",""time""
""fullscreenenter"",""5"",""8784""
","
","
","""event"",""trial"",""time""
""fullscreenenter"",""5"",""8784""
","
","","","","","","","","","","","","","","","","","","","","","",""
"d3-instructions","8","25110","0.0-8.0","169","6352","22","Female","false","false","true","false","""event"",""trial"",""time""
""fullscreenenter"",""5"",""8784""
","
","
","""event"",""trial"",""time""
""fullscreenenter"",""5"",""8784""
","
","","","","","","","","","","","","","","","","","","","","","",""
"d3-instructions","9","25504","0.0-9.0","169","6352","22","Female","false","false","true","false","""event"",""trial"",""time""
""fullscreenenter"",""5"",""8784""
","
","
","""event"",""trial"",""time""
""fullscreenenter"",""5"",""8784""
","
","","","","","","","","","","","","","","","","","","","","","",""
"d3-instructions","10","25877","0.0-10.0","169","6352","22","Female","false","false","true","false","""event"",""trial"",""time""
""fullscreenenter"",""5"",""8784""
","
","
","""event"",""trial"",""time""
""fullscreenenter"",""5"",""8784""
","
","","","","","","","","","","","","","","","","","","","","","",""
"d3-animate-choice","11","29948","0.0-11.0","169","6352","22","Female","false","false","true","false","""event"",""trial"",""time""
""fullscreenenter"",""5"",""8784""
","
","
","""event"",""trial"",""time""
""fullscreenenter"",""5"",""8784""
","
","351.29999999701977","","32","","","3000","1","1355.5,2059.5999999940395,2797.5999999940395,3551.5999999940395,3782.5,4017.0999999940395","32,49,50,189,189,189","images/tutgreenplanet.jpg","images/tutalien1","images/tutalien2","null","images/tutalien2","","NA","practice","null","","","",""
"d3-animate-choice","12","34442","0.0-12.0","169","6352","22","Female","false","false","true","false","""event"",""trial"",""time""
""fullscreenenter"",""5"",""8784""
","
","
","""event"",""trial"",""time""
""fullscreenenter"",""5"",""8784""
","
","843.5","","189","","","3000","1","2486.2999999970198,2742.2999999970198,2958.4000000059605","48,48,48","images/tutgreenplanet.jpg","images/tutalien1","images/tutalien2","null","images/tutalien1","","NA","practice","null","","","",""
"d3-animate-choice","13","36746","0.0-13.0","169","6352","22","Female","false","false","true","false","""event"",""trial"",""time""
""fullscreenenter"",""5"",""8784""
","
","
","""event"",""trial"",""time""
""fullscreenenter"",""5"",""8784""
","
","300.3999999910593","","49","","","3000","1","","","images/tutgreenplanet.jpg","images/tutalien1","images/tutalien2","null","images/tutalien2","","NA","practice","null","","","",""
"d3-animate-choice","14","39190","0.0-14.0","169","6352","22","Female","false","false","true","false","""event"",""trial"",""time""
""fullscreenenter"",""5"",""8784""
","
","
","""event"",""trial"",""time""
""fullscreenenter"",""5"",""8784""
","
","430.30000001192093","","48","","","3000","1","","","images/tutgreenplanet.jpg","images/tutalien1","images/tutalien2","null","images/tutalien1","","NA","practice","null","","","",""
"d3-instructions","15","40518","0.0-15.0","169","6352","22","Female","false","false","true","false","""event"",""trial"",""time""
""fullscreenenter"",""5"",""8784""
","
","
","""event"",""trial"",""time""
""fullscreenenter"",""5"",""8784""
","
","","","","","","","","","","","","","","","","","","","","","",""
"d3-instructions","16","41102","0.0-16.0","169","6352","22","Female","false","false","true","false","""event"",""trial"",""time""
""fullscreenenter"",""5"",""8784""
","
","
","""event"",""trial"",""time""
""fullscreenenter"",""5"",""8784""
","
","","","","","","","","","","","","","","","","","","","","","",""
"d3-instructions","17","41617","0.0-17.0","169","6352","22","Female","false","false","true","false","""event"",""trial"",""time""
""fullscreenenter"",""5"",""8784""
","
","
","""event"",""trial"",""time""
""fullscreenenter"",""5"",""8784""
","
","","","","","","","","","","","","","","","","","","","","","",""
"d3-instructions","18","41970","0.0-18.0","169","6352","22","Female","false","false","true","false","""event"",""trial"",""time""
""fullscreenenter"",""5"",""8784""
","
","
","""event"",""trial"",""time""
""fullscreenenter"",""5"",""8784""
","
","","","","","","","","","","","","","","","","","","","","","",""
"d3-instructions","19","42291","0.0-19.0","169","6352","22","Female","false","false","true","false","""event"",""trial"",""time""
""fullscreenenter"",""5"",""8784""
","
","
","""event"",""trial"",""time""
""fullscreenenter"",""5"",""8784""
","
","","","","","","","","","","","","","","","","","","","","","",""
"d3-animate-choice","20","45538","0.0-20.0","169","6352","22","Female","false","false","true","false","""event"",""trial"",""time""
""fullscreenenter"",""5"",""8784""
","
","
","""event"",""trial"",""time""
""fullscreenenter"",""5"",""8784""
","
","477.79999999701977","","32","","","3000","1","1243.7000000029802","49","images/tutyellowplanet.jpg","null","images/tutalien3","null","images/tutalien3","images/t.png","NA","practice","null","","","",""
"d3-animate-choice","21","47908","0.0-21.0","169","6352","22","Female","false","false","true","false","""event"",""trial"",""time""
""fullscreenenter"",""5"",""8784""
","
","
","""event"",""trial"",""time""
""fullscreenenter"",""5"",""8784""
","
","363.59999999403954","","49","","","3000","1","","","images/tutyellowplanet.jpg","null","images/tutalien3","null","images/tutalien3","images/t.png","NA","practice","null","","","",""
"d3-animate-choice","22","50331","0.0-22.0","169","6352","22","Female","false","false","true","false","""event"",""trial"",""time""
""fullscreenenter"",""5"",""8784""
","
","
","""event"",""trial"",""time""
""fullscreenenter"",""5"",""8784""
","
","419.20000000298023","","49","","","3000","1","1862.4000000059605","49","images/tutyellowplanet.jpg","null","images/tutalien3","null","images/tutalien3","images/t.png","NA","practice","null","","","",""
"d3-animate-choice","23","52559","0.0-23.0","169","6352","22","Female","false","false","true","false","""event"",""trial"",""time""
""fullscreenenter"",""5"",""8784""
","
","
","""event"",""trial"",""time""
""fullscreenenter"",""5"",""8784""
","
","215.5","","49","","","3000","1","","","images/tutyellowplanet.jpg","null","images/tutalien3","null","images/tutalien3","images/t.png","NA","practice","null","","","",""
"d3-animate-choice","24","54771","0.0-24.0","169","6352","22","Female","false","false","true","false","""event"",""trial"",""time""
""fullscreenenter"",""5"",""8784""
","
","
","""event"",""trial"",""time""
""fullscreenenter"",""5"",""8784""
","
","204.59999999403954","","49","","","3000","1","","","images/tutyellowplanet.jpg","null","images/tutalien3","null","images/tutalien3","images/t.png","NA","practice","null","","","",""
"d3-animate-choice","25","57053","0.0-25.0","169","6352","22","Female","false","false","true","false","""event"",""trial"",""time""
""fullscreenenter"",""5"",""8784""
","
","
","""event"",""trial"",""time""
""fullscreenenter"",""5"",""8784""
","
","270.20000000298023","","49","","","3000","1","","","images/tutyellowplanet.jpg","null","images/tutalien3","null","images/tutalien3","images/t.png","NA","practice","null","","","",""
"d3-animate-choice","26","59515","0.0-26.0","169","6352","22","Female","false","false","true","false","""event"",""trial"",""time""
""fullscreenenter"",""5"",""8784""
","
","
","""event"",""trial"",""time""
""fullscreenenter"",""5"",""8784""
","
","452.79999999701977","","49","","","3000","1","","","images/tutyellowplanet.jpg","null","images/tutalien3","null","images/tutalien3","images/t.png","NA","practice","null","","","",""
"d3-animate-choice","27","61547","0.0-27.0","169","6352","22","Female","false","false","true","false","""event"",""trial"",""time""
""fullscreenenter"",""5"",""8784""
","
","
","""event"",""trial"",""time""
""fullscreenenter"",""5"",""8784""
","
","30","","49","","","3000","1","","","images/tutyellowplanet.jpg","null","images/tutalien3","null","images/tutalien3","images/t.png","NA","practice","null","","","",""
"d3-animate-choice","28","63901","0.0-28.0","169","6352","22","Female","false","false","true","false","""event"",""trial"",""time""
""fullscreenenter"",""5"",""8784""
","
","
","""event"",""trial"",""time""
""fullscreenenter"",""5"",""8784""
","
","342.69999998807907","","49","","","3000","1","","","images/tutyellowplanet.jpg","null","images/tutalien3","null","images/tutalien3","images/t.png","NA","practice","null","","","",""
"d3-animate-choice","29","66190","0.0-29.0","169","6352","22","Female","false","false","true","false","""event"",""trial"",""time""
""fullscreenenter"",""5"",""8784""
","
","
","""event"",""trial"",""time""
""fullscreenenter"",""5"",""8784""
","
","283.09999999403954","","49","","","3000","1","","","images/tutyellowplanet.jpg","null","images/tutalien3","null","images/tutalien3","images/t.png","NA","practice","null","","","",""
"d3-instructions","30","67274","0.0-30.0","169","6352","22","Female","false","false","true","false","""event"",""trial"",""time""
""fullscreenenter"",""5"",""8784""
","
","
","""event"",""trial"",""time""
""fullscreenenter"",""5"",""8784""
","
","","","","","","","","","","","","","","","","","","","","","",""
"d3-instructions","31","67796","0.0-31.0","169","6352","22","Female","false","false","true","false","""event"",""trial"",""time""
""fullscreenenter"",""5"",""8784""
","
","
","""event"",""trial"",""time""
""fullscreenenter"",""5"",""8784""
","
","","","","","","","","","","","","","","","","","","","","","",""
"d3-instructions","32","68409","0.0-32.0","169","6352","22","Female","false","false","true","false","""event"",""trial"",""time""
""fullscreenenter"",""5"",""8784""
","
","
","""event"",""trial"",""time""
""fullscreenenter"",""5"",""8784""
","
","","","","","","","","","","","","","","","","","","","","","",""
"d3-instructions","33","69156","0.0-33.0","169","6352","22","Female","false","false","true","false","""event"",""trial"",""time""
""fullscreenenter"",""5"",""8784""
","
","
","""event"",""trial"",""time""
""fullscreenenter"",""5"",""8784""
","
","","","","","","","","","","","","","","","","","","","","","",""
"d3-animate-choice","34","71924","0.0-34.0","169","6352","22","Female","false","false","true","false","""event"",""trial"",""time""
""fullscreenenter"",""5"",""8784""
","
","
","""event"",""trial"",""time""
""fullscreenenter"",""5"",""8784""
","
","760.5999999940395","","49","","","3000","1","","","images/tutgreenplanet.jpg","images/tutalien1","images/tutalien2","null","images/tutalien2","images/nothing.png","NA","practice","null","","","",""
"d3-animate-choice","35","74259","0.0-35.0","169","6352","22","Female","false","false","true","false","""event"",""trial"",""time""
""fullscreenenter"",""5"",""8784""
","
","
","""event"",""trial"",""time""
""fullscreenenter"",""5"",""8784""
","
","329","","48","","","3000","1","","","images/tutgreenplanet.jpg","images/tutalien1","images/tutalien2","null","images/tutalien1","images/nothing.png","NA","practice","null","","","",""
"d3-animate-choice","36","76524","0.0-36.0","169","6352","22","Female","false","false","true","false","""event"",""trial"",""time""
""fullscreenenter"",""5"",""8784""
","
","
","""event"",""trial"",""time""
""fullscreenenter"",""5"",""8784""
","
","262.20000000298023","","49","","","3000","1","","","images/tutgreenplanet.jpg","images/tutalien1","images/tutalien2","null","images/tutalien2","images/t.png","NA","practice","null","","","",""
"d3-animate-choice","37","78839","0.0-37.0","169","6352","22","Female","false","false","true","false","""event"",""trial"",""time""
""fullscreenenter"",""5"",""8784""
","
","
","""event"",""trial"",""time""
""fullscreenenter"",""5"",""8784""
","
","302.20000000298023","","49","","","3000","1","918.5999999940395,1512.2000000029802","49,49","images/tutgreenplanet.jpg","images/tutalien1","images/tutalien2","null","images/tutalien2","images/t.png","NA","practice","null","","","",""
"d3-animate-choice","38","81638","0.0-38.0","169","6352","22","Female","false","false","true","false","""event"",""trial"",""time""
""fullscreenenter"",""5"",""8784""
","
","
","""event"",""trial"",""time""
""fullscreenenter"",""5"",""8784""
","
","797.7000000029802","","49","","","3000","1","","","images/tutgreenplanet.jpg","images/tutalien1","images/tutalien2","null","images/tutalien2","images/t.png","NA","practice","null","","","",""
"d3-animate-choice","39","84076","0.0-39.0","169","6352","22","Female","false","false","true","false","""event"",""trial"",""time""
""fullscreenenter"",""5"",""8784""
","
","
","""event"",""trial"",""time""
""fullscreenenter"",""5"",""8784""
","
","433.30000001192093","","49","","","3000","1","","","images/tutgreenplanet.jpg","images/tutalien1","images/tutalien2","null","images/tutalien2","images/t.png","NA","practice","null","","","",""
"d3-animate-choice","40","86421","0.0-40.0","169","6352","22","Female","false","false","true","false","""event"",""trial"",""time""
""fullscreenenter"",""5"",""8784""
","
","
","""event"",""trial"",""time""
""fullscreenenter"",""5"",""8784""
","
","336.70000000298023","","49","","","3000","1","","","images/tutgreenplanet.jpg","images/tutalien1","images/tutalien2","null","images/tutalien2","images/t.png","NA","practice","null","","","",""
"d3-animate-choice","41","89173","0.0-41.0","169","6352","22","Female","false","false","true","false","""event"",""trial"",""time""
""fullscreenenter"",""5"",""8784""
","
","
","""event"",""trial"",""time""
""fullscreenenter"",""5"",""8784""
","
","745.9000000059605","","49","","","3000","1","","","images/tutgreenplanet.jpg","images/tutalien1","images/tutalien2","null","images/tutalien2","images/t.png","NA","practice","null","","","",""
"d3-animate-choice","42","92206","0.0-42.0","169","6352","22","Female","false","false","true","false","""event"",""trial"",""time""
""fullscreenenter"",""5"",""8784""
","
","
","""event"",""trial"",""time""
""fullscreenenter"",""5"",""8784""
","
","1023","","49","","","3000","1","","","images/tutgreenplanet.jpg","images/tutalien1","images/tutalien2","null","images/tutalien2","images/t.png","NA","practice","null","","","",""
"d3-animate-choice","43","94566","0.0-43.0","169","6352","22","Female","false","false","true","false","""event"",""trial"",""time""
""fullscreenenter"",""5"",""8784""
","
","
","""event"",""trial"",""time""
""fullscreenenter"",""5"",""8784""
","
","355.80000001192093","","49","","","3000","1","1275.9000000059605","49","images/tutgreenplanet.jpg","images/tutalien1","images/tutalien2","null","images/tutalien2","images/t.png","NA","practice","null","","","",""
"d3-instructions","44","96498","0.0-44.0","169","6352","22","Female","false","false","true","false","""event"",""trial"",""time""
""fullscreenenter"",""5"",""8784""
","
","
","""event"",""trial"",""time""
""fullscreenenter"",""5"",""8784""
","
","","","","","","","","","","","","","","","","","","","","","",""
"d3-instructions","45","97879","0.0-45.0","169","6352","22","Female","false","false","true","false","""event"",""trial"",""time""
""fullscreenenter"",""5"",""8784""
","
","
","""event"",""trial"",""time""
""fullscreenenter"",""5"",""8784""
","
","","","","","","","","","","","","","","","","","","","","","",""
"d3-instructions","46","98665","0.0-46.0","169","6352","22","Female","false","false","true","false","""event"",""trial"",""time""
""fullscreenenter"",""5"",""8784""
","
","
","""event"",""trial"",""time""
""fullscreenenter"",""5"",""8784""
","
","","","","","","","","","","","","","","","","","","","","","",""
"d3-instructions","47","99326","0.0-47.0","169","6352","22","Female","false","false","true","false","""event"",""trial"",""time""
""fullscreenenter"",""5"",""8784""
","
","
","""event"",""trial"",""time""
""fullscreenenter"",""5"",""8784""
","
","","","","","","","","","","","","","","","","","","","","","",""
"d3-instructions","48","99990","0.0-48.0","169","6352","22","Female","false","false","true","false","""event"",""trial"",""time""
""fullscreenenter"",""5"",""8784""
","
","
","""event"",""trial"",""time""
""fullscreenenter"",""5"",""8784""
","
","","","","","","","","","","","","","","","","","","","","","",""
"d3-instructions","49","100592","0.0-49.0","169","6352","22","Female","false","false","true","false","""event"",""trial"",""time""
""fullscreenenter"",""5"",""8784""
","
","
","""event"",""trial"",""time""
""fullscreenenter"",""5"",""8784""
","
","","","","","","","","","","","","","","","","","","","","","",""
"d3-instructions","50","101254","0.0-50.0","169","6352","22","Female","false","false","true","false","""event"",""trial"",""time""
""fullscreenenter"",""5"",""8784""
","
","
","""event"",""trial"",""time""
""fullscreenenter"",""5"",""8784""
","
","","","","","","","","","","","","","","","","","","","","","",""
"d3-instructions","51","101896","0.0-51.0","169","6352","22","Female","false","false","true","false","""event"",""trial"",""time""
""fullscreenenter"",""5"",""8784""
","
","
","""event"",""trial"",""time""
""fullscreenenter"",""5"",""8784""
","
","","","","","","","","","","","","","","","","","","","","","",""
"d3-instructions","52","102543","0.0-52.0","169","6352","22","Female","false","false","true","false","""event"",""trial"",""time""
""fullscreenenter"",""5"",""8784""
","
","
","""event"",""trial"",""time""
""fullscreenenter"",""5"",""8784""
","
","","","","","","","","","","","","","","","","","","","","","",""
"d3-instructions","53","103159","0.0-53.0","169","6352","22","Female","false","false","true","false","""event"",""trial"",""time""
""fullscreenenter"",""5"",""8784""
","
","
","""event"",""trial"",""time""
""fullscreenenter"",""5"",""8784""
","
","","","","","","","","","","","","","","","","","","","","","",""
"d3-instructions","54","103787","0.0-54.0","169","6352","22","Female","false","false","true","false","""event"",""trial"",""time""
""fullscreenenter"",""5"",""8784""
","
","
","""event"",""trial"",""time""
""fullscreenenter"",""5"",""8784""
","
","","","","","","","","","","","","","","","","","","","","","",""
"d3-instructions","55","104422","0.0-55.0","169","6352","22","Female","false","false","true","false","""event"",""trial"",""time""
""fullscreenenter"",""5"",""8784""
","
","
","""event"",""trial"",""time""
""fullscreenenter"",""5"",""8784""
","
","","","","","","","","","","","","","","","","","","","","","",""
"d3-instructions","56","105046","0.0-56.0","169","6352","22","Female","false","false","true","false","""event"",""trial"",""time""
""fullscreenenter"",""5"",""8784""
","
","
","""event"",""trial"",""time""
""fullscreenenter"",""5"",""8784""
","
","","","","","","","","","","","","","","","","","","","","","",""
"d3-instructions","57","105663","0.0-57.0","169","6352","22","Female","false","false","true","false","""event"",""trial"",""time""
""fullscreenenter"",""5"",""8784""
","
","
","""event"",""trial"",""time""
""fullscreenenter"",""5"",""8784""
","
","","","","","","","","","","","","","","","","","","","","","",""
"d3-instructions","58","106311","0.0-58.0","169","6352","22","Female","false","false","true","false","""event"",""trial"",""time""
""fullscreenenter"",""5"",""8784""
","
","
","""event"",""trial"",""time""
""fullscreenenter"",""5"",""8784""
","
","","","","","","","","","","","","","","","","","","","","","",""
"d3-instructions","59","106925","0.0-59.0","169","6352","22","Female","false","false","true","false","""event"",""trial"",""time""
""fullscreenenter"",""5"",""8784""
","
","
","""event"",""trial"",""time""
""fullscreenenter"",""5"",""8784""
","
","","","","","","","","","","","","","","","","","","","","","",""
"d3-instructions","60","107584","0.0-60.0","169","6352","22","Female","false","false","true","false","""event"",""trial"",""time""
""fullscreenenter"",""5"",""8784""
","
","
","""event"",""trial"",""time""
""fullscreenenter"",""5"",""8784""
","
","","","","","","","","","","","","","","","","","","","","","",""
"d3-animate-choice","61","111598","0.0-61.0-0.0","169","6352","22","Female","false","false","true","false","""event"",""trial"",""time""
""fullscreenenter"",""5"",""8784""
","
","
","""event"",""trial"",""time""
""fullscreenenter"",""5"",""8784""
","
","39.6000000089407","","32","","","3000","1","1225.9000000059605,3271.2000000029802","50,49","images/earth.jpg","images/tutrocket2","images/tutrocket1","null","images/tutrocket1","","1","practice","null","","","",""
"d3-animate-choice","62","115613","0.0-61.0-1.0","169","6352","22","Female","false","false","true","false","""event"",""trial"",""time""
""fullscreenenter"",""5"",""8784""
","
","
","""event"",""trial"",""time""
""fullscreenenter"",""5"",""8784""
","
","2977.5","","49","","","3000","1","","","images/tutyellowplanet.jpg","images/tutalien4","images/tutalien3","images/tutrocket1","images/tutalien3","","2","practice","true","1","common","0","2023-02-24 22:58:53.803"
"two-step-fixation","63","116620","0.0-61.0-2.0","169","6352","22","Female","false","false","true","false","""event"",""trial"",""time""
""fullscreenenter"",""5"",""8784""
","
","
","""event"",""trial"",""time""
""fullscreenenter"",""5"",""8784""
","
","","images/earth.jpg","","","","","","","","","","","","","","fixation","","","","","",""
"d3-animate-choice","64","119357","0.0-61.0-0.1","169","6352","22","Female","false","false","true","false","""event"",""trial"",""time""
""fullscreenenter"",""5"",""8784""
","
","
","""event"",""trial"",""time""
""fullscreenenter"",""5"",""8784""
","
","727.6999999880791","","49","","","3000","1","","","images/earth.jpg","images/tutrocket2","images/tutrocket1","null","images/tutrocket1","","1","practice","null","1","","",""
"d3-animate-choice","65","123254","0.0-61.0-1.1","169","6352","22","Female","false","false","true","false","""event"",""trial"",""time""
""fullscreenenter"",""5"",""8784""
","
","
","""event"",""trial"",""time""
""fullscreenenter"",""5"",""8784""
","
","1886.2999999970198","","49","","","3000","1","2349.5999999940395,2612.199999988079,2985.199999988079,3271.0999999940395,3523","49,49,49,49,49","images/tutgreenplanet.jpg","images/tutalien2","images/tutalien1","images/tutrocket1","images/tutalien1","images/t.png","2","practice","false","1","rare","1","2023-02-24 22:59:01.444"
"two-step-fixation","66","124265","0.0-61.0-2.1","169","6352","22","Female","false","false","true","false","""event"",""trial"",""time""
""fullscreenenter"",""5"",""8784""
","
","
","""event"",""trial"",""time""
""fullscreenenter"",""5"",""8784""
","
","","images/earth.jpg","","","","","","","","","","","","","","fixation","","","","","",""
"d3-animate-choice","67","126790","0.0-61.0-0.2","169","6352","22","Female","false","false","true","false","""event"",""trial"",""time""
""fullscreenenter"",""5"",""8784""
","
","
","""event"",""trial"",""time""
""fullscreenenter"",""5"",""8784""
","
","514.8000000119209","","49","","","3000","1","","","images/earth.jpg","images/tutrocket2","images/tutrocket1","null","images/tutrocket1","","1","practice","null","1","","",""
"d3-animate-choice","68","129600","0.0-61.0-1.2","169","6352","22","Female","false","false","true","false","""event"",""trial"",""time""
""fullscreenenter"",""5"",""8784""
","
","
","""event"",""trial"",""time""
""fullscreenenter"",""5"",""8784""
","
","803.5999999940395","","49","","","3000","1","1202.199999988079","49","images/tutyellowplanet.jpg","images/tutalien4","images/tutalien3","images/tutrocket1","images/tutalien3","images/t.png","2","practice","true","1","common","1","2023-02-24 22:59:07.790"
"two-step-fixation","69","130607","0.0-61.0-2.2","169","6352","22","Female","false","false","true","false","""event"",""trial"",""time""
""fullscreenenter"",""5"",""8784""
","
","
","""event"",""trial"",""time""
""fullscreenenter"",""5"",""8784""
","
","","images/earth.jpg","","","","","","","","","","","","","","fixation","","","","","",""
"d3-animate-choice","70","133106","0.0-61.0-0.3","169","6352","22","Female","false","false","true","false","""event"",""trial"",""time""
""fullscreenenter"",""5"",""8784""
","
","
","""event"",""trial"",""time""
""fullscreenenter"",""5"",""8784""
","
","489.79999999701977","","49","","","3000","1","","","images/earth.jpg","images/tutrocket2","images/tutrocket1","null","images/tutrocket1","","1","practice","null","1","","",""
"d3-animate-choice","71","135567","0.0-61.0-1.3","169","6352","22","Female","false","false","true","false","""event"",""trial"",""time""
""fullscreenenter"",""5"",""8784""
","
","
","""event"",""trial"",""time""
""fullscreenenter"",""5"",""8784""
","
","451.59999999403954","","49","","","3000","1","","","images/tutyellowplanet.jpg","images/tutalien4","images/tutalien3","images/tutrocket1","images/tutalien3","images/t.png","2","practice","true","1","common","1","2023-02-24 22:59:13.757"
"two-step-fixation","72","136574","0.0-61.0-2.3","169","6352","22","Female","false","false","true","false","""event"",""trial"",""time""
""fullscreenenter"",""5"",""8784""
","
","
","""event"",""trial"",""time""
""fullscreenenter"",""5"",""8784""
","
","","images/earth.jpg","","","","","","","","","","","","","","fixation","","","","","",""
"d3-animate-choice","73","140584","0.0-61.0-0.4","169","6352","22","Female","false","false","true","false","""event"",""trial"",""time""
""fullscreenenter"",""5"",""8784""
","
","
","""event"",""trial"",""time""
""fullscreenenter"",""5"",""8784""
","
","2489.7000000029802","","49","","","3000","1","3962","49","images/earth.jpg","images/tutrocket2","images/tutrocket1","null","images/tutrocket1","","1","practice","null","1","","",""
"d3-animate-choice","74","143185","0.0-61.0-1.4","169","6352","22","Female","false","false","true","false","""event"",""trial"",""time""
""fullscreenenter"",""5"",""8784""
","
","
","""event"",""trial"",""time""
""fullscreenenter"",""5"",""8784""
","
","590.5","","49","","","3000","1","1817.7999999970198","49","images/tutyellowplanet.jpg","images/tutalien4","images/tutalien3","images/tutrocket1","images/tutalien3","images/nothing.png","2","practice","true","1","common","0","2023-02-24 22:59:21.375"
"two-step-fixation","75","144189","0.0-61.0-2.4","169","6352","22","Female","false","false","true","false","""event"",""trial"",""time""
""fullscreenenter"",""5"",""8784""
","
","
","""event"",""trial"",""time""
""fullscreenenter"",""5"",""8784""
","
","","images/earth.jpg","","","","","","","","","","","","","","fixation","","","","","",""
"d3-animate-choice","76","147080","0.0-61.0-0.5","169","6352","22","Female","false","false","true","false","""event"",""trial"",""time""
""fullscreenenter"",""5"",""8784""
","
","
","""event"",""trial"",""time""
""fullscreenenter"",""5"",""8784""
","
","879.5999999940395","","49","","","3000","1","1728.2999999970198","49","images/earth.jpg","images/tutrocket2","images/tutrocket1","null","images/tutrocket1","","1","practice","null","1","","",""
"d3-animate-choice","77","149449","0.0-61.0-1.5","169","6352","22","Female","false","false","true","false","""event"",""trial"",""time""
""fullscreenenter"",""5"",""8784""
","
","
","""event"",""trial"",""time""
""fullscreenenter"",""5"",""8784""
","
","364.5","","49","","","3000","1","1882.7999999970198","49","images/tutyellowplanet.jpg","images/tutalien4","images/tutalien3","images/tutrocket1","images/tutalien3","images/nothing.png","2","practice","true","1","common","0","2023-02-24 22:59:27.639"
"two-step-fixation","78","150454","0.0-61.0-2.5","169","6352","22","Female","false","false","true","false","""event"",""trial"",""time""
""fullscreenenter"",""5"",""8784""
","
","
","""event"",""trial"",""time""
""fullscreenenter"",""5"",""8784""
","
","","images/earth.jpg","","","","","","","","","","","","","","fixation","","","","","",""
"d3-animate-choice","79","153094","0.0-61.0-0.6","169","6352","22","Female","false","false","true","false","""event"",""trial"",""time""
""fullscreenenter"",""5"",""8784""
","
","
","""event"",""trial"",""time""
""fullscreenenter"",""5"",""8784""
","
","636.2999999970198","","49","","","3000","1","1033,2481.5","49,49","images/earth.jpg","images/tutrocket2","images/tutrocket1","null","images/tutrocket1","","1","practice","null","1","","",""
"d3-animate-choice","80","156305","0.0-61.0-1.6","169","6352","22","Female","false","false","true","false","""event"",""trial"",""time""
""fullscreenenter"",""5"",""8784""
","
","
","""event"",""trial"",""time""
""fullscreenenter"",""5"",""8784""
","
","1198.8999999910593","","49","","","3000","1","1652,2220,2583.3999999910593,2982.0999999940395","49,49,49,49","images/tutgreenplanet.jpg","images/tutalien2","images/tutalien1","images/tutrocket1","images/tutalien1","images/t.png","2","practice","false","1","rare","1","2023-02-24 22:59:34.495"
"two-step-fixation","81","157311","0.0-61.0-2.6","169","6352","22","Female","false","false","true","false","""event"",""trial"",""time""
""fullscreenenter"",""5"",""8784""
","
","
","""event"",""trial"",""time""
""fullscreenenter"",""5"",""8784""
","
","","images/earth.jpg","","","","","","","","","","","","","","fixation","","","","","",""
"d3-animate-choice","82","159759","0.0-61.0-0.7","169","6352","22","Female","false","false","true","false","""event"",""trial"",""time""
""fullscreenenter"",""5"",""8784""
","
","
","""event"",""trial"",""time""
""fullscreenenter"",""5"",""8784""
","
","445.5","","49","","","3000","1","806.3000000119209,1191.800000011921,1444.4000000059605,1833.1000000089407,2343.800000011921","49,49,49,49,49","images/earth.jpg","images/tutrocket2","images/tutrocket1","null","images/tutrocket1","","1","practice","null","1","","",""
"d3-animate-choice","83","161922","0.0-61.0-1.7","169","6352","22","Female","false","false","true","false","""event"",""trial"",""time""
""fullscreenenter"",""5"",""8784""
","
","
","""event"",""trial"",""time""
""fullscreenenter"",""5"",""8784""
","
","155.79999999701977","","49","","","3000","1","484.1000000089407,1256.6000000089407,1774.4000000059605","49,49,49","images/tutgreenplanet.jpg","images/tutalien2","images/tutalien1","images/tutrocket1","images/tutalien1","images/nothing.png","2","practice","false","1","rare","0","2023-02-24 22:59:40.112"
"two-step-fixation","84","162928","0.0-61.0-2.7","169","6352","22","Female","false","false","true","false","""event"",""trial"",""time""
""fullscreenenter"",""5"",""8784""
","
","
","""event"",""trial"",""time""
""fullscreenenter"",""5"",""8784""
","
","","images/earth.jpg","","","","","","","","","","","","","","fixation","","","","","",""
"d3-animate-choice","85","165230","0.0-61.0-0.8","169","6352","22","Female","false","false","true","false","""event"",""trial"",""time""
""fullscreenenter"",""5"",""8784""
","
","
","""event"",""trial"",""time""
""fullscreenenter"",""5"",""8784""
","
","293.40000000596046","","49","","","3000","1","582,834.4000000059605,1139,1476.7000000029802,2184.300000011921","49,49,49,49,49","images/earth.jpg","images/tutrocket2","images/tutrocket1","null","images/tutrocket1","","1","practice","null","1","","",""
"d3-animate-choice","86","167451","0.0-61.0-1.8","169","6352","22","Female","false","false","true","false","""event"",""trial"",""time""
""fullscreenenter"",""5"",""8784""
","
","
","""event"",""trial"",""time""
""fullscreenenter"",""5"",""8784""
","
","213.20000000298023","","49","","","3000","1","604.5,1185.7999999970198,1773.2999999970198,2162.5","49,49,49,49","images/tutyellowplanet.jpg","images/tutalien4","images/tutalien3","images/tutrocket1","images/tutalien3","images/t.png","2","practice","true","1","common","1","2023-02-24 22:59:45.641"
"two-step-fixation","87","168455","0.0-61.0-2.8","169","6352","22","Female","false","false","true","false","""event"",""trial"",""time""
""fullscreenenter"",""5"",""8784""
","
","
","""event"",""trial"",""time""
""fullscreenenter"",""5"",""8784""
","
","","images/earth.jpg","","","","","","","","","","","","","","fixation","","","","","",""
"d3-animate-choice","88","170609","0.0-61.0-0.9","169","6352","22","Female","false","false","true","false","""event"",""trial"",""time""
""fullscreenenter"",""5"",""8784""
","
","
","""event"",""trial"",""time""
""fullscreenenter"",""5"",""8784""
","
","146.6000000089407","","49","","","3000","1","1401,1749.7000000029802","49,49","images/earth.jpg","images/tutrocket2","images/tutrocket1","null","images/tutrocket1","","1","practice","null","1","","",""
"d3-animate-choice","89","172965","0.0-61.0-1.9","169","6352","22","Female","false","false","true","false","""event"",""trial"",""time""
""fullscreenenter"",""5"",""8784""
","
","
","""event"",""trial"",""time""
""fullscreenenter"",""5"",""8784""
","
","348.5","","49","","","3000","1","1343.4000000059605,1871.6000000089407,2321.6000000089407","49,49,49","images/tutyellowplanet.jpg","images/tutalien4","images/tutalien3","images/tutrocket1","images/tutalien3","images/nothing.png","2","practice","true","1","common","0","2023-02-24 22:59:51.155"
"two-step-fixation","90","173976","0.0-61.0-2.9","169","6352","22","Female","false","false","true","false","""event"",""trial"",""time""
""fullscreenenter"",""5"",""8784""
","
","
","""event"",""trial"",""time""
""fullscreenenter"",""5"",""8784""
","
","","images/earth.jpg","","","","","","","","","","","","","","fixation","","","","","",""
"d3-animate-choice","91","176225","0.0-61.0-0.10","169","6352","22","Female","false","false","true","false","""event"",""trial"",""time""
""fullscreenenter"",""5"",""8784""
","
","
","""event"",""trial"",""time""
""fullscreenenter"",""5"",""8784""
","
","242.40000000596046","","49","","","3000","1","699.2000000029802,1015.5,1275.6000000089407,1545.4000000059605,1821.2999999970198","49,49,49,49,49","images/earth.jpg","images/tutrocket2","images/tutrocket1","null","images/tutrocket1","","1","practice","null","1","","",""
"d3-animate-choice","92","178794","0.0-61.0-1.10","169","6352","22","Female","false","false","true","false","""event"",""trial"",""time""
""fullscreenenter"",""5"",""8784""
","
","
","""event"",""trial"",""time""
""fullscreenenter"",""5"",""8784""
","
","556.5999999940395","","49","","","3000","1","1058.8999999910593,1425.5,1748.7999999970198,2092.3999999910593,2413.7999999970198","49,49,49,49,49","images/tutyellowplanet.jpg","images/tutalien4","images/tutalien3","images/tutrocket1","images/tutalien3","images/t.png","2","practice","true","1","common","1","2023-02-24 22:59:56.984"
"two-step-fixation","93","179798","0.0-61.0-2.10","169","6352","22","Female","false","false","true","false","""event"",""trial"",""time""
""fullscreenenter"",""5"",""8784""
","
","
","""event"",""trial"",""time""
""fullscreenenter"",""5"",""8784""
","
","","images/earth.jpg","","","","","","","","","","","","","","fixation","","","","","",""
"d3-animate-choice","94","182207","0.0-61.0-0.11","169","6352","22","Female","false","false","true","false","""event"",""trial"",""time""
""fullscreenenter"",""5"",""8784""
","
","
","""event"",""trial"",""time""
""fullscreenenter"",""5"",""8784""
","
","399.90000000596046","","49","","","3000","1","765.2000000029802,1680.7000000029802,2023.5","49,49,49","images/earth.jpg","images/tutrocket2","images/tutrocket1","null","images/tutrocket1","","1","practice","null","1","","",""
"d3-animate-choice","95","184350","0.0-61.0-1.11","169","6352","22","Female","false","false","true","false","""event"",""trial"",""time""
""fullscreenenter"",""5"",""8784""
","
","
","""event"",""trial"",""time""
""fullscreenenter"",""5"",""8784""
","
","138.3999999910593","","49","","","3000","1","620.5999999940395,1831.7999999970198","49,49","images/tutgreenplanet.jpg","images/tutalien2","images/tutalien1","images/tutrocket1","images/tutalien1","images/nothing.png","2","practice","false","1","rare","0","2023-02-24 23:00:02.540"
"two-step-fixation","96","185360","0.0-61.0-2.11","169","6352","22","Female","false","false","true","false","""event"",""trial"",""time""
""fullscreenenter"",""5"",""8784""
","
","
","""event"",""trial"",""time""
""fullscreenenter"",""5"",""8784""
","
","","images/earth.jpg","","","","","","","","","","","","","","fixation","","","","","",""
"d3-animate-choice","97","187391","0.0-61.0-0.12","169","6352","22","Female","false","false","true","false","""event"",""trial"",""time""
""fullscreenenter"",""5"",""8784""
","
","
","""event"",""trial"",""time""
""fullscreenenter"",""5"",""8784""
","
","22.400000005960464","","49","","","3000","1","325.79999999701977,596.2000000029802,1104.5,1722.5999999940395","49,49,49,49","images/earth.jpg","images/tutrocket2","images/tutrocket1","null","images/tutrocket1","","1","practice","null","1","","",""
"d3-animate-choice","98","189483","0.0-61.0-1.12","169","6352","22","Female","false","false","true","false","""event"",""trial"",""time""
""fullscreenenter"",""5"",""8784""
","
","
","""event"",""trial"",""time""
""fullscreenenter"",""5"",""8784""
","
","81.90000000596046","","49","","","3000","1","387.20000000298023,823.2999999970198,1102.5,1539.9000000059605,1826.6000000089407","49,49,49,49,49","images/tutgreenplanet.jpg","images/tutalien2","images/tutalien1","images/tutrocket1","images/tutalien1","images/nothing.png","2","practice","false","1","rare","0","2023-02-24 23:00:07.673"
"two-step-fixation","99","190486","0.0-61.0-2.12","169","6352","22","Female","false","false","true","false","""event"",""trial"",""time""
""fullscreenenter"",""5"",""8784""
","
","
","""event"",""trial"",""time""
""fullscreenenter"",""5"",""8784""
","
","","images/earth.jpg","","","","","","","","","","","","","","fixation","","","","","",""
"d3-animate-choice","100","193794","0.0-61.0-0.13","169","6352","22","Female","false","false","true","false","""event"",""trial"",""time""
""fullscreenenter"",""5"",""8784""
","
","
","""event"",""trial"",""time""
""fullscreenenter"",""5"",""8784""
","
","1298.4000000059605","","49","","","3000","1","1662.9000000059605,2829.7000000029802,3257.5","49,49,49","images/earth.jpg","images/tutrocket2","images/tutrocket1","null","images/tutrocket1","","1","practice","null","1","","",""
"d3-animate-choice","101","196250","0.0-61.0-1.13","169","6352","22","Female","false","false","true","false","""event"",""trial"",""time""
""fullscreenenter"",""5"",""8784""
","
","
","""event"",""trial"",""time""
""fullscreenenter"",""5"",""8784""
","
","443.90000000596046","","49","","","3000","1","883.2000000029802,1815.2000000029802","49,49","images/tutyellowplanet.jpg","images/tutalien4","images/tutalien3","images/tutrocket1","images/tutalien3","images/nothing.png","2","practice","true","1","common","0","2023-02-24 23:00:14.440"
"two-step-fixation","102","197258","0.0-61.0-2.13","169","6352","22","Female","false","false","true","false","""event"",""trial"",""time""
""fullscreenenter"",""5"",""8784""
","
","
","""event"",""trial"",""time""
""fullscreenenter"",""5"",""8784""
","
","","images/earth.jpg","","","","","","","","","","","","","","fixation","","","","","",""
"d3-animate-choice","103","200474","0.0-61.0-0.14","169","6352","22","Female","false","false","true","false","""event"",""trial"",""time""
""fullscreenenter"",""5"",""8784""
","
","
","""event"",""trial"",""time""
""fullscreenenter"",""5"",""8784""
","
","1209.3999999910593","","49","","","3000","1","1713.2999999970198","49","images/earth.jpg","images/tutrocket2","images/tutrocket1","null","images/tutrocket1","","1","practice","null","1","","",""
"d3-animate-choice","104","202685","0.0-61.0-1.14","169","6352","22","Female","false","false","true","false","""event"",""trial"",""time""
""fullscreenenter"",""5"",""8784""
","
","
","""event"",""trial"",""time""
""fullscreenenter"",""5"",""8784""
","
","205.30000001192093","","49","","","3000","1","508.1000000089407,785.1000000089407,1906.6000000089407","49,49,49","images/tutyellowplanet.jpg","images/tutalien4","images/tutalien3","images/tutrocket1","images/tutalien3","images/nothing.png","2","practice","true","1","common","0","2023-02-24 23:00:20.875"
"two-step-fixation","105","203698","0.0-61.0-2.14","169","6352","22","Female","false","false","true","false","""event"",""trial"",""time""
""fullscreenenter"",""5"",""8784""
","
","
","""event"",""trial"",""time""
""fullscreenenter"",""5"",""8784""
","
","","images/earth.jpg","","","","","","","","","","","","","","fixation","","","","","",""
"d3-animate-choice","106","205753","0.0-61.0-0.15","169","6352","22","Female","false","false","true","false","""event"",""trial"",""time""
""fullscreenenter"",""5"",""8784""
","
","
","""event"",""trial"",""time""
""fullscreenenter"",""5"",""8784""
","
","51","","49","","","3000","1","377.6000000089407,631.3000000119209,1943.9000000059605","49,49,49","images/earth.jpg","images/tutrocket2","images/tutrocket1","null","images/tutrocket1","","1","practice","null","1","","",""
"d3-animate-choice","107","208400","0.0-61.0-1.15","169","6352","22","Female","false","false","true","false","""event"",""trial"",""time""
""fullscreenenter"",""5"",""8784""
","
","
","""event"",""trial"",""time""
""fullscreenenter"",""5"",""8784""
","
","639.7000000029802","","49","","","3000","1","1346.0999999940395","49","images/tutgreenplanet.jpg","images/tutalien2","images/tutalien1","images/tutrocket1","images/tutalien1","images/nothing.png","2","practice","false","1","rare","0","2023-02-24 23:00:26.590"
"two-step-fixation","108","209411","0.0-61.0-2.15","169","6352","22","Female","false","false","true","false","""event"",""trial"",""time""
""fullscreenenter"",""5"",""8784""
","
","
","""event"",""trial"",""time""
""fullscreenenter"",""5"",""8784""
","
","","images/earth.jpg","","","","","","","","","","","","","","fixation","","","","","",""
"d3-animate-choice","109","212139","0.0-61.0-0.16","169","6352","22","Female","false","false","true","false","""event"",""trial"",""time""
""fullscreenenter"",""5"",""8784""
","
","
","""event"",""trial"",""time""
""fullscreenenter"",""5"",""8784""
","
","717.9000000059605","","49","","","3000","1","1760.800000011921,2305.4000000059605","49,49","images/earth.jpg","images/tutrocket2","images/tutrocket1","null","images/tutrocket1","","1","practice","null","1","","",""
"d3-animate-choice","110","214385","0.0-61.0-1.16","169","6352","22","Female","false","false","true","false","""event"",""trial"",""time""
""fullscreenenter"",""5"",""8784""
","
","
","""event"",""trial"",""time""
""fullscreenenter"",""5"",""8784""
","
","237","","49","","","3000","1","609,915.6999999880791,1591.7999999970198","49,49,49","images/tutyellowplanet.jpg","images/tutalien4","images/tutalien3","images/tutrocket1","images/tutalien3","images/nothing.png","2","practice","true","1","common","0","2023-02-24 23:00:32.575"
"two-step-fixation","111","215395","0.0-61.0-2.16","169","6352","22","Female","false","false","true","false","""event"",""trial"",""time""
""fullscreenenter"",""5"",""8784""
","
","
","""event"",""trial"",""time""
""fullscreenenter"",""5"",""8784""
","
","","images/earth.jpg","","","","","","","","","","","","","","fixation","","","","","",""
"d3-animate-choice","112","217514","0.0-61.0-0.17","169","6352","22","Female","false","false","true","false","""event"",""trial"",""time""
""fullscreenenter"",""5"",""8784""
","
","
","""event"",""trial"",""time""
""fullscreenenter"",""5"",""8784""
","
","111","","49","","","3000","1","1973","49","images/earth.jpg","images/tutrocket2","images/tutrocket1","null","images/tutrocket1","","1","practice","null","1","","",""
"d3-animate-choice","113","220585","0.0-61.0-1.17","169","6352","22","Female","false","false","true","false","""event"",""trial"",""time""
""fullscreenenter"",""5"",""8784""
","
","
","""event"",""trial"",""time""
""fullscreenenter"",""5"",""8784""
","
","1061.5","","49","","","3000","1","1610.9000000059605,2179.800000011921,2439.4000000059605,2716.4000000059605","49,49,49,49","images/tutyellowplanet.jpg","images/tutalien4","images/tutalien3","images/tutrocket1","images/tutalien3","images/nothing.png","2","practice","true","1","common","0","2023-02-24 23:00:38.775"
"two-step-fixation","114","221595","0.0-61.0-2.17","169","6352","22","Female","false","false","true","false","""event"",""trial"",""time""
""fullscreenenter"",""5"",""8784""
","
","
","""event"",""trial"",""time""
""fullscreenenter"",""5"",""8784""
","
","","images/earth.jpg","","","","","","","","","","","","","","fixation","","","","","",""
"d3-animate-choice","115","224748","0.0-61.0-0.18","169","6352","22","Female","false","false","true","false","""event"",""trial"",""time""
""fullscreenenter"",""5"",""8784""
","
","
","""event"",""trial"",""time""
""fullscreenenter"",""5"",""8784""
","
","1148.2999999970198","","49","","","3000","1","1568,1879.7999999970198,2103.2000000029802","49,49,49","images/earth.jpg","images/tutrocket2","images/tutrocket1","null","images/tutrocket1","","1","practice","null","1","","",""
"d3-animate-choice","116","227041","0.0-61.0-1.18","169","6352","22","Female","false","false","true","false","""event"",""trial"",""time""
""fullscreenenter"",""5"",""8784""
","
","
","""event"",""trial"",""time""
""fullscreenenter"",""5"",""8784""
","
","284.90000000596046","","49","","","3000","1","659.7999999970198,942.7999999970198,2127.0999999940395","49,49,49","images/tutyellowplanet.jpg","images/tutalien4","images/tutalien3","images/tutrocket1","images/tutalien3","images/nothing.png","2","practice","true","1","common","0","2023-02-24 23:00:45.231"
"two-step-fixation","117","228048","0.0-61.0-2.18","169","6352","22","Female","false","false","true","false","""event"",""trial"",""time""
""fullscreenenter"",""5"",""8784""
","
","
","""event"",""trial"",""time""
""fullscreenenter"",""5"",""8784""
","
","","images/earth.jpg","","","","","","","","","","","","","","fixation","","","","","",""
"d3-animate-choice","118","230789","0.0-61.0-0.19","169","6352","22","Female","false","false","true","false","""event"",""trial"",""time""
""fullscreenenter"",""5"",""8784""
","
","
","""event"",""trial"",""time""
""fullscreenenter"",""5"",""8784""
","
","729.2999999970198","","49","","","3000","1","2200.5","49","images/earth.jpg","images/tutrocket2","images/tutrocket1","null","images/tutrocket1","","1","practice","null","1","","",""
"d3-animate-choice","119","234706","0.0-61.0-1.19","169","6352","22","Female","false","false","true","false","""event"",""trial"",""time""
""fullscreenenter"",""5"",""8784""
","
","
","""event"",""trial"",""time""
""fullscreenenter"",""5"",""8784""
","
","1909.9000000059605","","49","","","3000","1","2808,3559.5","49,49","images/tutyellowplanet.jpg","images/tutalien4","images/tutalien3","images/tutrocket1","images/tutalien3","images/nothing.png","2","practice","true","1","common","0","2023-02-24 23:00:52.896"
"two-step-fixation","120","235713","0.0-61.0-2.19","169","6352","22","Female","false","false","true","false","""event"",""trial"",""time""
""fullscreenenter"",""5"",""8784""
","
","
","""event"",""trial"",""time""
""fullscreenenter"",""5"",""8784""
","
","","images/earth.jpg","","","","","","","","","","","","","","fixation","","","","","",""
"d3-instructions","121","239411","0.0-62.0","169","6352","22","Female","false","false","true","false","""event"",""trial"",""time""
""fullscreenenter"",""5"",""8784""
","
","
","""event"",""trial"",""time""
""fullscreenenter"",""5"",""8784""
","
","","","","","","","","","","","","","","","","","","","","","",""
"audio-keyboard-response","122","240291","0.0-63.0","169","6352","22","Female","false","false","true","false","""event"",""trial"",""time""
""fullscreenenter"",""5"",""8784""
","
","
","""event"",""trial"",""time""
""fullscreenenter"",""5"",""8784""
","
","877","audio/instructions/treasure_feedback.wav","32","","","","","","","","","","","","","","","","","","",""
"d3-instructions","123","241208","0.0-64.0","169","6352","22","Female","false","false","true","false","""event"",""trial"",""time""
""fullscreenenter"",""5"",""8784""
","
","
","""event"",""trial"",""time""
""fullscreenenter"",""5"",""8784""
","
","","","","","","","","","","","","","","","","","","","","","",""
"d3-instructions","124","241681","0.0-65.0","169","6352","22","Female","false","false","true","false","""event"",""trial"",""time""
""fullscreenenter"",""5"",""8784""
","
","
","""event"",""trial"",""time""
""fullscreenenter"",""5"",""8784""
","
","","","","","","","","","","","","","","","","","","","","","",""
"d3-instructions","125","242136","0.0-66.0","169","6352","22","Female","false","false","true","false","""event"",""trial"",""time""
""fullscreenenter"",""5"",""8784""
","
","
","""event"",""trial"",""time""
""fullscreenenter"",""5"",""8784""
","
","","","","","","","","","","","","","","","","","","","","","",""
"d3-instructions","126","242525","0.0-67.0","169","6352","22","Female","false","false","true","false","""event"",""trial"",""time""
""fullscreenenter"",""5"",""8784""
","
","
","""event"",""trial"",""time""
""fullscreenenter"",""5"",""8784""
","
","","","","","","","","","","","","","","","","","","","","","",""
"d3-instructions","127","242941","0.0-68.0","169","6352","22","Female","false","false","true","false","""event"",""trial"",""time""
""fullscreenenter"",""5"",""8784""
","
","
","""event"",""trial"",""time""
""fullscreenenter"",""5"",""8784""
","
","","","","","","","","","","","","","","","","","","","","","",""
"instructions-quiz","128","245263","0.0-69.0","169","6352","22","Female","false","false","true","false","""event"",""trial"",""time""
""fullscreenenter"",""5"",""8784""
","
","
","""event"",""trial"",""time""
""fullscreenenter"",""5"",""8784""
","
","2320.5999999940395","audio/quiz/Q1_Prompt.wav","","1","","","","","","","","","","","","","","","","","",""
"audio-keyboard-response","129","246116","0.0-70.0","169","6352","22","Female","false","false","true","false","""event"",""trial"",""time""
""fullscreenenter"",""5"",""8784""
","
","
","""event"",""trial"",""time""
""fullscreenenter"",""5"",""8784""
","
","853","audio/quiz/Q1_Correct.wav","32","","","","","","","","","","","","","","","","","","",""
"instructions-quiz","130","248416","0.0-71.0","169","6352","22","Female","false","false","true","false","""event"",""trial"",""time""
""fullscreenenter"",""5"",""8784""
","
","
","""event"",""trial"",""time""
""fullscreenenter"",""5"",""8784""
","
","2299.0999999940395","audio/quiz/Q2_Prompt.wav","","1","","","","","","","","","","","","","","","","","",""
"audio-keyboard-response","131","249521","0.0-72.0","169","6352","22","Female","false","false","true","false","""event"",""trial"",""time""
""fullscreenenter"",""5"",""8784""
","
","
","""event"",""trial"",""time""
""fullscreenenter"",""5"",""8784""
","
","1103","audio/quiz/Q2_Incorrect.wav","32","","","","","","","","","","","","","","","","","","",""
"instructions-quiz","132","250123","0.0-73.0","169","6352","22","Female","false","false","true","false","""event"",""trial"",""time""
""fullscreenenter"",""5"",""8784""
","
","
","""event"",""trial"",""time""
""fullscreenenter"",""5"",""8784""
","
","601.2999999970198","audio/quiz/Q3_Prompt.wav","","0","","","","","","","","","","","","","","","","","",""
"audio-keyboard-response","133","251114","0.0-74.0","169","6352","22","Female","false","false","true","false","""event"",""trial"",""time""
""fullscreenenter"",""5"",""8784""
","
","
","""event"",""trial"",""time""
""fullscreenenter"",""5"",""8784""
","
","987","audio/quiz/Q3_Incorrect.wav","32","","","","","","","","","","","","","","","","","","",""
"d3-instructions","134","252275","0.0-75.0","169","6352","22","Female","false","false","true","false","""event"",""trial"",""time""
""fullscreenenter"",""5"",""8784""
","
","
","""event"",""trial"",""time""
""fullscreenenter"",""5"",""8784""
","
","","","","","","","","","","","","","","","","","","","","","",""
"pavlovia","135","252276","0.0-76.0","169","6352","22","Female","false","false","true","false","""event"",""trial"",""time""
""fullscreenenter"",""5"",""8784""
","
","
","""event"",""trial"",""time""
""fullscreenenter"",""5"",""8784""
","
","","","","","","","","","","","","","","","","","","","","","",""
"d3-animate-choice","136","255497","0.0-77.0-0.0","169","6352","22","Female","false","false","true","false","""event"",""trial"",""time""
""fullscreenenter"",""5"",""8784""
","
","
","""event"",""trial"",""time""
""fullscreenenter"",""5"",""8784""
","
","1212.2999999970198","","49","","","3000","1","","","images/earth.jpg","images/rocket1","images/rocket2","null","images/rocket2","","1","real","null","1","","",""
"d3-animate-choice","137","258185","0.0-77.0-1.0","169","6352","22","Female","false","false","true","false","""event"",""trial"",""time""
""fullscreenenter"",""5"",""8784""
","
","
","""event"",""trial"",""time""
""fullscreenenter"",""5"",""8784""
","
","679.7000000029802","","49","","","3000","1","","","images/redplanet1.jpg","images/alien2","images/alien1","images/rocket2","images/alien1","images/nothing.png","2","real","true","1","common","0","2023-02-24 23:01:16.375"
"two-step-fixation","138","259195","0.0-77.0-2.0","169","6352","22","Female","false","false","true","false","""event"",""trial"",""time""
""fullscreenenter"",""5"",""8784""
","
","
","""event"",""trial"",""time""
""fullscreenenter"",""5"",""8784""
","
","","images/earth.jpg","","","","","","","","","","","","","","fixation","","","","","",""
"d3-animate-choice","139","261550","0.0-77.0-0.1","169","6352","22","Female","false","false","true","false","""event"",""trial"",""time""
""fullscreenenter"",""5"",""8784""
","
","
","""event"",""trial"",""time""
""fullscreenenter"",""5"",""8784""
","
","350.29999999701977","","49","","","3000","1","","","images/earth.jpg","images/rocket1","images/rocket2","null","images/rocket2","","1","real","null","1","","",""
"d3-animate-choice","140","263874","0.0-77.0-1.1","169","6352","22","Female","false","false","true","false","""event"",""trial"",""time""
""fullscreenenter"",""5"",""8784""
","
","
","""event"",""trial"",""time""
""fullscreenenter"",""5"",""8784""
","
","320.5","","49","","","3000","1","1008.8000000119209,1843.800000011921","49,49","images/redplanet1.jpg","images/alien2","images/alien1","images/rocket2","images/alien1","images/nothing.png","2","real","true","1","common","0","2023-02-24 23:01:22.064"
"two-step-fixation","141","264882","0.0-77.0-2.1","169","6352","22","Female","false","false","true","false","""event"",""trial"",""time""
""fullscreenenter"",""5"",""8784""
","
","
","""event"",""trial"",""time""
""fullscreenenter"",""5"",""8784""
","
","","images/earth.jpg","","","","","","","","","","","","","","fixation","","","","","",""
"d3-animate-choice","142","268042","0.0-77.0-0.2","169","6352","22","Female","false","false","true","false","""event"",""trial"",""time""
""fullscreenenter"",""5"",""8784""
","
","
","""event"",""trial"",""time""
""fullscreenenter"",""5"",""8784""
","
","1156.2000000029802","","49","","","3000","1","1548.2000000029802,2578.5","49,49","images/earth.jpg","images/rocket1","images/rocket2","null","images/rocket2","","1","real","null","1","","",""
"d3-animate-choice","143","270521","0.0-77.0-1.2","169","6352","22","Female","false","false","true","false","""event"",""trial"",""time""
""fullscreenenter"",""5"",""8784""
","
","
","""event"",""trial"",""time""
""fullscreenenter"",""5"",""8784""
","
","470.5","","49","","","3000","1","1116.2000000029802,2185.5","49,49","images/redplanet1.jpg","images/alien2","images/alien1","images/rocket2","images/alien1","images/nothing.png","2","real","true","1","common","0","2023-02-24 23:01:28.711"
"two-step-fixation","144","271525","0.0-77.0-2.2","169","6352","22","Female","false","false","true","false","""event"",""trial"",""time""
""fullscreenenter"",""5"",""8784""
","
","
","""event"",""trial"",""time""
""fullscreenenter"",""5"",""8784""
","
","","images/earth.jpg","","","","","","","","","","","","","","fixation","","","","","",""
"d3-animate-choice","145","274451","0.0-77.0-0.3","169","6352","22","Female","false","false","true","false","""event"",""trial"",""time""
""fullscreenenter"",""5"",""8784""
","
","
","""event"",""trial"",""time""
""fullscreenenter"",""5"",""8784""
","
","918.7000000029802","","49","","","3000","1","","","images/earth.jpg","images/rocket1","images/rocket2","null","images/rocket2","","1","real","null","1","","",""
"d3-animate-choice","146","276837","0.0-77.0-1.3","169","6352","22","Female","false","false","true","false","""event"",""trial"",""time""
""fullscreenenter"",""5"",""8784""
","
","
","""event"",""trial"",""time""
""fullscreenenter"",""5"",""8784""
","
","374.70000000298023","","49","","","3000","1","1636.800000011921","49","images/redplanet1.jpg","images/alien2","images/alien1","images/rocket2","images/alien1","images/t.png","2","real","true","1","common","1","2023-02-24 23:01:35.027"
"two-step-fixation","147","277842","0.0-77.0-2.3","169","6352","22","Female","false","false","true","false","""event"",""trial"",""time""
""fullscreenenter"",""5"",""8784""
","
","
","""event"",""trial"",""time""
""fullscreenenter"",""5"",""8784""
","
","","images/earth.jpg","","","","","","","","","","","","","","fixation","","","","","",""
"d3-animate-choice","148","280946","0.0-77.0-0.4","169","6352","22","Female","false","false","true","false","""event"",""trial"",""time""
""fullscreenenter"",""5"",""8784""
","
","
","""event"",""trial"",""time""
""fullscreenenter"",""5"",""8784""
","
","1101.5","","49","","","3000","1","","","images/earth.jpg","images/rocket1","images/rocket2","null","images/rocket2","","1","real","null","1","","",""
"d3-animate-choice","149","283106","0.0-77.0-1.4","169","6352","22","Female","false","false","true","false","""event"",""trial"",""time""
""fullscreenenter"",""5"",""8784""
","
","
","""event"",""trial"",""time""
""fullscreenenter"",""5"",""8784""
","
","151.90000000596046","","49","","","3000","1","1558.5","49","images/redplanet1.jpg","images/alien2","images/alien1","images/rocket2","images/alien1","images/nothing.png","2","real","true","1","common","0","2023-02-24 23:01:41.297"
"two-step-fixation","150","284109","0.0-77.0-2.4","169","6352","22","Female","false","false","true","false","""event"",""trial"",""time""
""fullscreenenter"",""5"",""8784""
","
","
","""event"",""trial"",""time""
""fullscreenenter"",""5"",""8784""
","
","","images/earth.jpg","","","","","","","","","","","","","","fixation","","","","","",""
"d3-animate-choice","151","287171","0.0-77.0-0.5","169","6352","22","Female","false","false","true","false","""event"",""trial"",""time""
""fullscreenenter"",""5"",""8784""
","
","
","""event"",""trial"",""time""
""fullscreenenter"",""5"",""8784""
","
","1058.5","","49","","","3000","1","2037.2000000029802,2419.7999999970198,2958.1000000089407","49,49,49","images/earth.jpg","images/rocket1","images/rocket2","null","images/rocket2","","1","real","null","1","","",""
"d3-animate-choice","152","289370","0.0-77.0-1.5","169","6352","22","Female","false","false","true","false","""event"",""trial"",""time""
""fullscreenenter"",""5"",""8784""
","
","
","""event"",""trial"",""time""
""fullscreenenter"",""5"",""8784""
","
","191.70000000298023","","49","","","3000","1","741.7000000029802,1351.7999999970198,1704.9000000059605,2144.7000000029802","49,49,49,49","images/redplanet1.jpg","images/alien2","images/alien1","images/rocket2","images/alien1","images/nothing.png","2","real","true","1","common","0","2023-02-24 23:01:47.560"
"two-step-fixation","153","290381","0.0-77.0-2.5","169","6352","22","Female","false","false","true","false","""event"",""trial"",""time""
""fullscreenenter"",""5"",""8784""
","
","
","""event"",""trial"",""time""
""fullscreenenter"",""5"",""8784""
","
","","images/earth.jpg","","","","","","","","","","","","","","fixation","","","","","",""
"d3-animate-choice","154","292740","0.0-77.0-0.6","169","6352","22","Female","false","false","true","false","""event"",""trial"",""time""
""fullscreenenter"",""5"",""8784""
","
","
","""event"",""trial"",""time""
""fullscreenenter"",""5"",""8784""
","
","348.79999999701977","","49","","","3000","1","1073.8999999910593,1528.199999988079,1899","49,49,49","images/earth.jpg","images/rocket1","images/rocket2","null","images/rocket2","","1","real","null","1","","",""
"d3-animate-choice","155","294813","0.0-77.0-1.6","169","6352","22","Female","false","false","true","false","""event"",""trial"",""time""
""fullscreenenter"",""5"",""8784""
","
","
","""event"",""trial"",""time""
""fullscreenenter"",""5"",""8784""
","
","62.099999994039536","","49","","","3000","1","502,985,1290.8999999910593,1847.8999999910593","49,49,49,49","images/redplanet1.jpg","images/alien2","images/alien1","images/rocket2","images/alien1","images/nothing.png","2","real","true","1","common","0","2023-02-24 23:01:53.003"
"two-step-fixation","156","295815","0.0-77.0-2.6","169","6352","22","Female","false","false","true","false","""event"",""trial"",""time""
""fullscreenenter"",""5"",""8784""
","
","
","""event"",""trial"",""time""
""fullscreenenter"",""5"",""8784""
","
","","images/earth.jpg","","","","","","","","","","","","","","fixation","","","","","",""
"d3-animate-choice","157","298293","0.0-77.0-0.7","169","6352","22","Female","false","false","true","false","""event"",""trial"",""time""
""fullscreenenter"",""5"",""8784""
","
","
","""event"",""trial"",""time""
""fullscreenenter"",""5"",""8784""
","
","474.20000000298023","","49","","","3000","1","1021.7000000029802,1483,1899.2000000029802,2239","49,49,49,49","images/earth.jpg","images/rocket1","images/rocket2","null","images/rocket2","","1","real","null","1","","",""
"d3-animate-choice","158","300413","0.0-77.0-1.7","169","6352","22","Female","false","false","true","false","""event"",""trial"",""time""
""fullscreenenter"",""5"",""8784""
","
","
","""event"",""trial"",""time""
""fullscreenenter"",""5"",""8784""
","
","112.29999999701977","","49","","","3000","1","632.9000000059605,1004.9000000059605,1390.5,2056.2000000029802","49,49,49,49","images/redplanet1.jpg","images/alien2","images/alien1","images/rocket2","images/alien1","images/nothing.png","2","real","true","1","common","0","2023-02-24 23:01:58.603"
"two-step-fixation","159","301418","0.0-77.0-2.7","169","6352","22","Female","false","false","true","false","""event"",""trial"",""time""
""fullscreenenter"",""5"",""8784""
","
","
","""event"",""trial"",""time""
""fullscreenenter"",""5"",""8784""
","
","","images/earth.jpg","","","","","","","","","","","","","","fixation","","","","","",""
"d3-animate-choice","160","303646","0.0-77.0-0.8","169","6352","22","Female","false","false","true","false","""event"",""trial"",""time""
""fullscreenenter"",""5"",""8784""
","
","
","""event"",""trial"",""time""
""fullscreenenter"",""5"",""8784""
","
","219.5","","49","","","3000","1","704.7999999970198,1828.9000000059605","49,49","images/earth.jpg","images/rocket1","images/rocket2","null","images/rocket2","","1","real","null","1","","",""
"d3-animate-choice","161","306171","0.0-77.0-1.8","169","6352","22","Female","false","false","true","false","""event"",""trial"",""time""
""fullscreenenter"",""5"",""8784""
","
","
","""event"",""trial"",""time""
""fullscreenenter"",""5"",""8784""
","
","522.5","","49","","","3000","1","1271.7999999970198,2105.2000000029802","49,49","images/redplanet1.jpg","images/alien2","images/alien1","images/rocket2","images/alien1","images/nothing.png","2","real","true","1","common","0","2023-02-24 23:02:04.361"
"two-step-fixation","162","307181","0.0-77.0-2.8","169","6352","22","Female","false","false","true","false","""event"",""trial"",""time""
""fullscreenenter"",""5"",""8784""
","
","
","""event"",""trial"",""time""
""fullscreenenter"",""5"",""8784""
","
","","images/earth.jpg","","","","","","","","","","","","","","fixation","","","","","",""
"d3-animate-choice","163","309526","0.0-77.0-0.9","169","6352","22","Female","false","false","true","false","""event"",""trial"",""time""
""fullscreenenter"",""5"",""8784""
","
","
","""event"",""trial"",""time""
""fullscreenenter"",""5"",""8784""
","
","339.79999999701977","","49","","","3000","1","667.8999999910593,1011.5,1254.199999988079,1474.2999999970198,1731.8999999910593,2061,2327.699999988079","49,49,49,49,49,49,49","images/earth.jpg","images/rocket1","images/rocket2","null","images/rocket2","","1","real","null","1","","",""
"d3-animate-choice","164","311778","0.0-77.0-1.9","169","6352","22","Female","false","false","true","false","""event"",""trial"",""time""
""fullscreenenter"",""5"",""8784""
","
","
","""event"",""trial"",""time""
""fullscreenenter"",""5"",""8784""
","
","246.40000000596046","","49","","","3000","1","451.5,898.5999999940395,1218.2000000029802,1606.5999999940395,2188.5","49,49,49,49,49","images/redplanet1.jpg","images/alien2","images/alien1","images/rocket2","images/alien1","images/nothing.png","2","real","true","1","common","0","2023-02-24 23:02:09.968"
"two-step-fixation","165","312788","0.0-77.0-2.9","169","6352","22","Female","false","false","true","false","""event"",""trial"",""time""
""fullscreenenter"",""5"",""8784""
","
","
","""event"",""trial"",""time""
""fullscreenenter"",""5"",""8784""
","
","","images/earth.jpg","","","","","","","","","","","","","","fixation","","","","","",""
"d3-animate-choice","166","314850","0.0-77.0-0.10","169","6352","22","Female","false","false","true","false","""event"",""trial"",""time""
""fullscreenenter"",""5"",""8784""
","
","
","""event"",""trial"",""time""
""fullscreenenter"",""5"",""8784""
","
","55.5","","49","","","3000","1","357.20000000298023,640.7999999970198,940.4000000059605,1396.7000000029802,1968.7999999970198","49,49,49,49,49","images/earth.jpg","images/rocket1","images/rocket2","null","images/rocket2","","1","real","null","1","","",""
"d3-animate-choice","167","317149","0.0-77.0-1.10","169","6352","22","Female","false","false","true","false","""event"",""trial"",""time""
""fullscreenenter"",""5"",""8784""
","
","
","""event"",""trial"",""time""
""fullscreenenter"",""5"",""8784""
","
","293.29999999701977","","49","","","3000","1","647.8999999910593,932,1403.8999999910593,1977.2000000029802","49,49,49,49","images/redplanet1.jpg","images/alien2","images/alien1","images/rocket2","images/alien1","images/nothing.png","2","real","true","1","common","0","2023-02-24 23:02:15.339"
"two-step-fixation","168","318158","0.0-77.0-2.10","169","6352","22","Female","false","false","true","false","""event"",""trial"",""time""
""fullscreenenter"",""5"",""8784""
","
","
","""event"",""trial"",""time""
""fullscreenenter"",""5"",""8784""
","
","","images/earth.jpg","","","","","","","","","","","","","","fixation","","","","","",""
"d3-animate-choice","169","320250","0.0-77.0-0.11","169","6352","22","Female","false","false","true","false","""event"",""trial"",""time""
""fullscreenenter"",""5"",""8784""
","
","
","""event"",""trial"",""time""
""fullscreenenter"",""5"",""8784""
","
","88.79999999701977","","49","","","3000","1","383.40000000596046,850.7000000029802,1091.2000000029802,1285.5","49,49,49,49","images/earth.jpg","images/rocket1","images/rocket2","null","images/rocket2","","1","real","null","1","","",""
"d3-animate-choice","170","322478","0.0-77.0-1.11","169","6352","22","Female","false","false","true","false","""event"",""trial"",""time""
""fullscreenenter"",""5"",""8784""
","
","
","""event"",""trial"",""time""
""fullscreenenter"",""5"",""8784""
","
","220.79999999701977","","49","","","3000","1","685.5,1050.5,2037.5","49,49,49","images/redplanet1.jpg","images/alien2","images/alien1","images/rocket2","images/alien1","images/nothing.png","2","real","true","1","common","0","2023-02-24 23:02:20.668"
"two-step-fixation","171","323484","0.0-77.0-2.11","169","6352","22","Female","false","false","true","false","""event"",""trial"",""time""
""fullscreenenter"",""5"",""8784""
","
","
","""event"",""trial"",""time""
""fullscreenenter"",""5"",""8784""
","
","","images/earth.jpg","","","","","","","","","","","","","","fixation","","","","","",""
"d3-animate-choice","172","325822","0.0-77.0-0.12","169","6352","22","Female","false","false","true","false","""event"",""trial"",""time""
""fullscreenenter"",""5"",""8784""
","
","
","""event"",""trial"",""time""
""fullscreenenter"",""5"",""8784""
","
","328.5","","49","","","3000","1","692.9000000059605,1219.2999999970198,1822,2198.7000000029802","49,49,49,49","images/earth.jpg","images/rocket1","images/rocket2","null","images/rocket2","","1","real","null","1","","",""
"d3-animate-choice","173","328029","0.0-77.0-1.12","169","6352","22","Female","false","false","true","false","""event"",""trial"",""time""
""fullscreenenter"",""5"",""8784""
","
","
","""event"",""trial"",""time""
""fullscreenenter"",""5"",""8784""
","
","196.20000000298023","","49","","","3000","1","413.20000000298023,634.7999999970198,851.7999999970198,1106.7999999970198,1399.1000000089407,1613.2000000029802,1825.6000000089407,2047.1000000089407","49,49,49,49,49,49,49,49","images/purpleplanet.jpg","images/alien4","images/alien3","images/rocket2","images/alien3","images/t.png","2","real","false","1","rare","1","2023-02-24 23:02:26.219"
"two-step-fixation","174","329037","0.0-77.0-2.12","169","6352","22","Female","false","false","true","false","""event"",""trial"",""time""
""fullscreenenter"",""5"",""8784""
","
","
","""event"",""trial"",""time""
""fullscreenenter"",""5"",""8784""
","
","","images/earth.jpg","","","","","","","","","","","","","","fixation","","","","","",""
"d3-animate-choice","175","331360","0.0-77.0-0.13","169","6352","22","Female","false","false","true","false","""event"",""trial"",""time""
""fullscreenenter"",""5"",""8784""
","
","
","""event"",""trial"",""time""
""fullscreenenter"",""5"",""8784""
","
","309.70000000298023","","49","","","3000","1","547.3999999910593,784.2999999970198,1062.7000000029802,1406.7999999970198,2227","49,49,49,49,49","images/earth.jpg","images/rocket1","images/rocket2","null","images/rocket2","","1","real","null","1","","",""
"d3-animate-choice","176","333614","0.0-77.0-1.13","169","6352","22","Female","false","false","true","false","""event"",""trial"",""time""
""fullscreenenter"",""5"",""8784""
","
","
","""event"",""trial"",""time""
""fullscreenenter"",""5"",""8784""
","
","251.09999999403954","","49","","","3000","1","547.9000000059605,830.9000000059605,1187.0999999940395","49,49,49","images/redplanet1.jpg","images/alien2","images/alien1","images/rocket2","images/alien1","images/t.png","2","real","true","1","common","1","2023-02-24 23:02:31.804"
"two-step-fixation","177","334619","0.0-77.0-2.13","169","6352","22","Female","false","false","true","false","""event"",""trial"",""time""
""fullscreenenter"",""5"",""8784""
","
","
","""event"",""trial"",""time""
""fullscreenenter"",""5"",""8784""
","
","","images/earth.jpg","","","","","","","","","","","","","","fixation","","","","","",""
"d3-animate-choice","178","337501","0.0-77.0-0.14","169","6352","22","Female","false","false","true","false","""event"",""trial"",""time""
""fullscreenenter"",""5"",""8784""
","
","
","""event"",""trial"",""time""
""fullscreenenter"",""5"",""8784""
","
","875.8000000119209","","49","","","3000","1","1168,2390.300000011921,2824.5","49,49,49","images/earth.jpg","images/rocket1","images/rocket2","null","images/rocket2","","1","real","null","1","","",""
"d3-animate-choice","179","339998","0.0-77.0-1.14","169","6352","22","Female","false","false","true","false","""event"",""trial"",""time""
""fullscreenenter"",""5"",""8784""
","
","
","""event"",""trial"",""time""
""fullscreenenter"",""5"",""8784""
","
","488","","49","","","3000","1","2229.7999999970198","49","images/redplanet1.jpg","images/alien2","images/alien1","images/rocket2","images/alien1","images/t.png","2","real","true","1","common","1","2023-02-24 23:02:38.188"
"two-step-fixation","180","341004","0.0-77.0-2.14","169","6352","22","Female","false","false","true","false","""event"",""trial"",""time""
""fullscreenenter"",""5"",""8784""
","
","
","""event"",""trial"",""time""
""fullscreenenter"",""5"",""8784""
","
","","images/earth.jpg","","","","","","","","","","","","","","fixation","","","","","",""
"d3-animate-choice","181","343732","0.0-77.0-0.15","169","6352","22","Female","false","false","true","false","""event"",""trial"",""time""
""fullscreenenter"",""5"",""8784""
","
","
","""event"",""trial"",""time""
""fullscreenenter"",""5"",""8784""
","
","722.2999999970198","","49","","","3000","1","1832.2999999970198,2426.2999999970198","49,49","images/earth.jpg","images/rocket1","images/rocket2","null","images/rocket2","","1","real","null","1","","",""
"d3-animate-choice","182","345931","0.0-77.0-1.15","169","6352","22","Female","false","false","true","false","""event"",""trial"",""time""
""fullscreenenter"",""5"",""8784""
","
","
","""event"",""trial"",""time""
""fullscreenenter"",""5"",""8784""
","
","192.1000000089407","","49","","","3000","1","770.1000000089407,1108.7000000029802,1640.1000000089407,2182.6000000089407","49,49,49,49","images/purpleplanet.jpg","images/alien4","images/alien3","images/rocket2","images/alien3","images/nothing.png","2","real","false","1","rare","0","2023-02-24 23:02:44.121"
"two-step-fixation","183","346935","0.0-77.0-2.15","169","6352","22","Female","false","false","true","false","""event"",""trial"",""time""
""fullscreenenter"",""5"",""8784""
","
","
","""event"",""trial"",""time""
""fullscreenenter"",""5"",""8784""
","
","","images/earth.jpg","","","","","","","","","","","","","","fixation","","","","","",""
"d3-animate-choice","184","349541","0.0-77.0-0.16","169","6352","22","Female","false","false","true","false","""event"",""trial"",""time""
""fullscreenenter"",""5"",""8784""
","
","
","""event"",""trial"",""time""
""fullscreenenter"",""5"",""8784""
","
","601","","49","","","3000","1","815.1000000089407,1455.4000000059605,1801.1000000089407,2149.6000000089407","49,49,49,49","images/earth.jpg","images/rocket1","images/rocket2","null","images/rocket2","","1","real","null","1","","",""
"d3-animate-choice","185","351550","0.0-77.0-1.16","169","6352","22","Female","false","false","true","false","""event"",""trial"",""time""
""fullscreenenter"",""5"",""8784""
","
","
","""event"",""trial"",""time""
""fullscreenenter"",""5"",""8784""
","
","1.7999999970197678","","49","","","3000","1","236.20000000298023,709.4000000059605,1358.6000000089407,1720.5","49,49,49,49","images/purpleplanet.jpg","images/alien4","images/alien3","images/rocket2","images/alien3","images/t.png","2","real","false","1","rare","1","2023-02-24 23:02:49.740"
"two-step-fixation","186","352554","0.0-77.0-2.16","169","6352","22","Female","false","false","true","false","""event"",""trial"",""time""
""fullscreenenter"",""5"",""8784""
","
","
","""event"",""trial"",""time""
""fullscreenenter"",""5"",""8784""
","
","","images/earth.jpg","","","","","","","","","","","","","","fixation","","","","","",""
"d3-animate-choice","187","354654","0.0-77.0-0.17","169","6352","22","Female","false","false","true","false","""event"",""trial"",""time""
""fullscreenenter"",""5"",""8784""
","
","
","""event"",""trial"",""time""
""fullscreenenter"",""5"",""8784""
","
","95.40000000596046","","49","","","3000","1","566.2000000029802,972.7999999970198,1458.5,1881.2999999970198","49,49,49,49","images/earth.jpg","images/rocket1","images/rocket2","null","images/rocket2","","1","real","null","1","","",""
"d3-animate-choice","188","356902","0.0-77.0-1.17","169","6352","22","Female","false","false","true","false","""event"",""trial"",""time""
""fullscreenenter"",""5"",""8784""
","
","
","""event"",""trial"",""time""
""fullscreenenter"",""5"",""8784""
","
","242.59999999403954","","49","","","3000","1","871.3999999910593,1299,1942.5999999940395,2179.199999988079","49,49,49,49","images/redplanet1.jpg","images/alien2","images/alien1","images/rocket2","images/alien1","images/t.png","2","real","true","1","common","1","2023-02-24 23:02:55.092"
"two-step-fixation","189","357904","0.0-77.0-2.17","169","6352","22","Female","false","false","true","false","""event"",""trial"",""time""
""fullscreenenter"",""5"",""8784""
","
","
","""event"",""trial"",""time""
""fullscreenenter"",""5"",""8784""
","
","","images/earth.jpg","","","","","","","","","","","","","","fixation","","","","","",""
"d3-animate-choice","190","360396","0.0-77.0-0.18","169","6352","22","Female","false","false","true","false","""event"",""trial"",""time""
""fullscreenenter"",""5"",""8784""
","
","
","""event"",""trial"",""time""
""fullscreenenter"",""5"",""8784""
","
","482.6000000089407","","49","","","3000","1","824,1094.6000000089407,1322.6000000089407,1867,2405.7999999970198","49,49,49,49,49","images/earth.jpg","images/rocket1","images/rocket2","null","images/rocket2","","1","real","null","1","","",""
"d3-animate-choice","191","362568","0.0-77.0-1.18","169","6352","22","Female","false","false","true","false","""event"",""trial"",""time""
""fullscreenenter"",""5"",""8784""
","
","
","""event"",""trial"",""time""
""fullscreenenter"",""5"",""8784""
","
","162.79999999701977","","49","","","3000","1","614.2999999970198,1251.2000000029802,1631.5999999940395","49,49,49","images/redplanet1.jpg","images/alien2","images/alien1","images/rocket2","images/alien1","images/t.png","2","real","true","1","common","1","2023-02-24 23:03:00.758"
"two-step-fixation","192","363571","0.0-77.0-2.18","169","6352","22","Female","false","false","true","false","""event"",""trial"",""time""
""fullscreenenter"",""5"",""8784""
","
","
","""event"",""trial"",""time""
""fullscreenenter"",""5"",""8784""
","
","","images/earth.jpg","","","","","","","","","","","","","","fixation","","","","","",""
"d3-animate-choice","193","365987","0.0-77.0-0.19","169","6352","22","Female","false","false","true","false","""event"",""trial"",""time""
""fullscreenenter"",""5"",""8784""
","
","
","""event"",""trial"",""time""
""fullscreenenter"",""5"",""8784""
","
","410.79999999701977","","49","","","3000","1","1222.199999988079,2048.5,2363.699999988079","49,49,49","images/earth.jpg","images/rocket1","images/rocket2","null","images/rocket2","","1","real","null","1","","",""
"d3-animate-choice","194","368478","0.0-77.0-1.19","169","6352","22","Female","false","false","true","false","""event"",""trial"",""time""
""fullscreenenter"",""5"",""8784""
","
","
","""event"",""trial"",""time""
""fullscreenenter"",""5"",""8784""
","
","480.5","","49","","","3000","1","1019.7000000029802,1481.5,2056.7000000029802,2382.5999999940395","49,49,49,49","images/redplanet1.jpg","images/alien2","images/alien1","images/rocket2","images/alien1","images/t.png","2","real","true","1","common","1","2023-02-24 23:03:06.668"
"two-step-fixation","195","369485","0.0-77.0-2.19","169","6352","22","Female","false","false","true","false","""event"",""trial"",""time""
""fullscreenenter"",""5"",""8784""
","
","
","""event"",""trial"",""time""
""fullscreenenter"",""5"",""8784""
","
","","images/earth.jpg","","","","","","","","","","","","","","fixation","","","","","",""
"d3-animate-choice","196","372373","0.0-77.0-0.20","169","6352","22","Female","false","false","true","false","""event"",""trial"",""time""
""fullscreenenter"",""5"",""8784""
","
","
","""event"",""trial"",""time""
""fullscreenenter"",""5"",""8784""
","
","882.1000000089407","","49","","","3000","1","1785.7000000029802,2148.4000000059605,2657.1000000089407","49,49,49","images/earth.jpg","images/rocket1","images/rocket2","null","images/rocket2","","1","real","null","1","","",""
"d3-animate-choice","197","374564","0.0-77.0-1.20","169","6352","22","Female","false","false","true","false","""event"",""trial"",""time""
""fullscreenenter"",""5"",""8784""
","
","
","""event"",""trial"",""time""
""fullscreenenter"",""5"",""8784""
","
","183.19999998807907","","49","","","3000","1","771.7999999970198,1794.699999988079","49,49","images/redplanet1.jpg","images/alien2","images/alien1","images/rocket2","images/alien1","images/nothing.png","2","real","true","1","common","0","2023-02-24 23:03:12.754"
"two-step-fixation","198","375577","0.0-77.0-2.20","169","6352","22","Female","false","false","true","false","""event"",""trial"",""time""
""fullscreenenter"",""5"",""8784""
","
","
","""event"",""trial"",""time""
""fullscreenenter"",""5"",""8784""
","
","","images/earth.jpg","","","","","","","","","","","","","","fixation","","","","","",""
"d3-animate-choice","199","378086","0.0-77.0-0.21","169","6352","22","Female","false","false","true","false","""event"",""trial"",""time""
""fullscreenenter"",""5"",""8784""
","
","
","""event"",""trial"",""time""
""fullscreenenter"",""5"",""8784""
","
","504.20000000298023","","49","","","3000","1","1226.4000000059605,1698.4000000059605,2481.5","49,49,49","images/earth.jpg","images/rocket1","images/rocket2","null","images/rocket2","","1","real","null","1","","",""
"d3-animate-choice","200","380448","0.0-77.0-1.21","169","6352","22","Female","false","false","true","false","""event"",""trial"",""time""
""fullscreenenter"",""5"",""8784""
","
","
","""event"",""trial"",""time""
""fullscreenenter"",""5"",""8784""
","
","351.59999999403954","","49","","","3000","1","856.7999999970198,1487.4000000059605,1963.2999999970198","49,49,49","images/redplanet1.jpg","images/alien2","images/alien1","images/rocket2","images/alien1","images/nothing.png","2","real","true","1","common","0","2023-02-24 23:03:18.638"
"two-step-fixation","201","381452","0.0-77.0-2.21","169","6352","22","Female","false","false","true","false","""event"",""trial"",""time""
""fullscreenenter"",""5"",""8784""
","
","
","""event"",""trial"",""time""
""fullscreenenter"",""5"",""8784""
","
","","images/earth.jpg","","","","","","","","","","","","","","fixation","","","","","",""
"d3-animate-choice","202","384476","0.0-77.0-0.22","169","6352","22","Female","false","false","true","false","""event"",""trial"",""time""
""fullscreenenter"",""5"",""8784""
","
","
","""event"",""trial"",""time""
""fullscreenenter"",""5"",""8784""
","
","1016.7999999970198","","49","","","3000","1","","","images/earth.jpg","images/rocket1","images/rocket2","null","images/rocket2","","1","real","null","1","","",""
"d3-animate-choice","203","386729","0.0-77.0-1.22","169","6352","22","Female","false","false","true","false","""event"",""trial"",""time""
""fullscreenenter"",""5"",""8784""
","
","
","""event"",""trial"",""time""
""fullscreenenter"",""5"",""8784""
","
","247.20000000298023","","49","","","3000","1","1129.5999999940395,1454.3999999910593,1816","49,49,49","images/redplanet1.jpg","images/alien2","images/alien1","images/rocket2","images/alien1","images/nothing.png","2","real","true","1","common","0","2023-02-24 23:03:24.919"
"two-step-fixation","204","387734","0.0-77.0-2.22","169","6352","22","Female","false","false","true","false","""event"",""trial"",""time""
""fullscreenenter"",""5"",""8784""
","
","
","""event"",""trial"",""time""
""fullscreenenter"",""5"",""8784""
","
","","images/earth.jpg","","","","","","","","","","","","","","fixation","","","","","",""
"d3-animate-choice","205","390296","0.0-77.0-0.23","169","6352","22","Female","false","false","true","false","""event"",""trial"",""time""
""fullscreenenter"",""5"",""8784""
","
","
","""event"",""trial"",""time""
""fullscreenenter"",""5"",""8784""
","
","559.7000000029802","","49","","","3000","1","946.1000000089407,1210.300000011921,1490.2000000029802,1851.6000000089407,2094.300000011921,2333.6000000089407,2560.6000000089407","49,49,49,49,49,49,49","images/earth.jpg","images/rocket1","images/rocket2","null","images/rocket2","","1","real","null","1","","",""
"d3-animate-choice","206","392662","0.0-77.0-1.23","169","6352","22","Female","false","false","true","false","""event"",""trial"",""time""
""fullscreenenter"",""5"",""8784""
","
","
","""event"",""trial"",""time""
""fullscreenenter"",""5"",""8784""
","
","357.70000000298023","","49","","","3000","1","999.5,1481.5,1932.7000000029802,2237","49,49,49,49","images/redplanet1.jpg","images/alien2","images/alien1","images/rocket2","images/alien1","images/t.png","2","real","true","1","common","1","2023-02-24 23:03:30.852"
"two-step-fixation","207","393669","0.0-77.0-2.23","169","6352","22","Female","false","false","true","false","""event"",""trial"",""time""
""fullscreenenter"",""5"",""8784""
","
","
","""event"",""trial"",""time""
""fullscreenenter"",""5"",""8784""
","
","","images/earth.jpg","","","","","","","","","","","","","","fixation","","","","","",""
"d3-animate-choice","208","395850","0.0-77.0-0.24","169","6352","22","Female","false","false","true","false","""event"",""trial"",""time""
""fullscreenenter"",""5"",""8784""
","
","
","""event"",""trial"",""time""
""fullscreenenter"",""5"",""8784""
","
","177.70000000298023","","49","","","3000","1","557.9000000059605,1071","49,49","images/earth.jpg","images/rocket1","images/rocket2","null","images/rocket2","","1","real","null","1","","",""
"d3-animate-choice","209","397893","0.0-77.0-1.24","169","6352","22","Female","false","false","true","false","""event"",""trial"",""time""
""fullscreenenter"",""5"",""8784""
","
","
","""event"",""trial"",""time""
""fullscreenenter"",""5"",""8784""
","
","33.1000000089407","","49","","","3000","1","410.6000000089407,753.6000000089407,1082,1333.7000000029802,1558.4000000059605","49,49,49,49,49","images/redplanet1.jpg","images/alien2","images/alien1","images/rocket2","images/alien1","images/t.png","2","real","true","1","common","1","2023-02-24 23:03:36.083"
"two-step-fixation","210","398901","0.0-77.0-2.24","169","6352","22","Female","false","false","true","false","""event"",""trial"",""time""
""fullscreenenter"",""5"",""8784""
","
","
","""event"",""trial"",""time""
""fullscreenenter"",""5"",""8784""
","
","","images/earth.jpg","","","","","","","","","","","","","","fixation","","","","","",""
"d3-animate-choice","211","401375","0.0-77.0-0.25","169","6352","22","Female","false","false","true","false","""event"",""trial"",""time""
""fullscreenenter"",""5"",""8784""
","
","
","""event"",""trial"",""time""
""fullscreenenter"",""5"",""8784""
","
","467.90000000596046","","49","","","3000","1","738.5,2005.300000011921","49,49","images/earth.jpg","images/rocket1","images/rocket2","null","images/rocket2","","1","real","null","1","","",""
"d3-animate-choice","212","403390","0.0-77.0-1.25","169","6352","22","Female","false","false","true","false","""event"",""trial"",""time""
""fullscreenenter"",""5"",""8784""
","
","
","""event"",""trial"",""time""
""fullscreenenter"",""5"",""8784""
","
","10.5","","49","","","3000","1","1090.6000000089407,1722.2000000029802","49,49","images/redplanet1.jpg","images/alien2","images/alien1","images/rocket2","images/alien1","images/nothing.png","2","real","true","1","common","0","2023-02-24 23:03:41.580"
"two-step-fixation","213","404397","0.0-77.0-2.25","169","6352","22","Female","false","false","true","false","""event"",""trial"",""time""
""fullscreenenter"",""5"",""8784""
","
","
","""event"",""trial"",""time""
""fullscreenenter"",""5"",""8784""
","
","","images/earth.jpg","","","","","","","","","","","","","","fixation","","","","","",""
"d3-animate-choice","214","406848","0.0-77.0-0.26","169","6352","22","Female","false","false","true","false","""event"",""trial"",""time""
""fullscreenenter"",""5"",""8784""
","
","
","""event"",""trial"",""time""
""fullscreenenter"",""5"",""8784""
","
","445.20000000298023","","49","","","3000","1","769.2999999970198,1326.7000000029802,1958.3999999910593,2194.3999999910593,2405.5999999940395","49,49,49,49,49","images/earth.jpg","images/rocket1","images/rocket2","null","images/rocket2","","1","real","null","1","","",""
"d3-animate-choice","215","409032","0.0-77.0-1.26","169","6352","22","Female","false","false","true","false","""event"",""trial"",""time""
""fullscreenenter"",""5"",""8784""
","
","
","""event"",""trial"",""time""
""fullscreenenter"",""5"",""8784""
","
","181","","49","","","3000","1","541.8000000119209,890.3000000119209,1429.800000011921,1790.9000000059605,2111.2000000029802","49,49,49,49,49","images/redplanet1.jpg","images/alien2","images/alien1","images/rocket2","images/alien1","images/nothing.png","2","real","true","1","common","0","2023-02-24 23:03:47.222"
"two-step-fixation","216","410038","0.0-77.0-2.26","169","6352","22","Female","false","false","true","false","""event"",""trial"",""time""
""fullscreenenter"",""5"",""8784""
","
","
","""event"",""trial"",""time""
""fullscreenenter"",""5"",""8784""
","
","","images/earth.jpg","","","","","","","","","","","","","","fixation","","","","","",""
"d3-animate-choice","217","412226","0.0-77.0-0.27","169","6352","22","Female","false","false","true","false","""event"",""trial"",""time""
""fullscreenenter"",""5"",""8784""
","
","
","""event"",""trial"",""time""
""fullscreenenter"",""5"",""8784""
","
","180.20000000298023","","49","","","3000","1","706.7000000029802,1216.800000011921,1657.9000000059605,2100.7000000029802","49,49,49,49","images/earth.jpg","images/rocket1","images/rocket2","null","images/rocket2","","1","real","null","1","","",""
"d3-animate-choice","218","414559","0.0-77.0-1.27","169","6352","22","Female","false","false","true","false","""event"",""trial"",""time""
""fullscreenenter"",""5"",""8784""
","
","
","""event"",""trial"",""time""
""fullscreenenter"",""5"",""8784""
","
","324.59999999403954","","49","","","3000","1","966.2999999970198","49","images/redplanet1.jpg","images/alien2","images/alien1","images/rocket2","images/alien1","images/t.png","2","real","true","1","common","1","2023-02-24 23:03:52.749"
"two-step-fixation","219","415562","0.0-77.0-2.27","169","6352","22","Female","false","false","true","false","""event"",""trial"",""time""
""fullscreenenter"",""5"",""8784""
","
","
","""event"",""trial"",""time""
""fullscreenenter"",""5"",""8784""
","
","","images/earth.jpg","","","","","","","","","","","","","","fixation","","","","","",""
"d3-animate-choice","220","418422","0.0-77.0-0.28","169","6352","22","Female","false","false","true","false","""event"",""trial"",""time""
""fullscreenenter"",""5"",""8784""
","
","
","""event"",""trial"",""time""
""fullscreenenter"",""5"",""8784""
","
","843.6999999880791","","49","","","3000","1","1493.7999999970198,2316.8999999910593","49,49","images/earth.jpg","images/rocket1","images/rocket2","null","images/rocket2","","1","real","null","1","","",""
"d3-animate-choice","221","420577","0.0-77.0-1.28","169","6352","22","Female","false","false","true","false","""event"",""trial"",""time""
""fullscreenenter"",""5"",""8784""
","
","
","""event"",""trial"",""time""
""fullscreenenter"",""5"",""8784""
","
","149.29999999701977","","49","","","3000","1","971.2000000029802,1826.7999999970198","49,49","images/redplanet1.jpg","images/alien2","images/alien1","images/rocket2","images/alien1","images/t.png","2","real","true","1","common","1","2023-02-24 23:03:58.768"
"two-step-fixation","222","421583","0.0-77.0-2.28","169","6352","22","Female","false","false","true","false","""event"",""trial"",""time""
""fullscreenenter"",""5"",""8784""
","
","
","""event"",""trial"",""time""
""fullscreenenter"",""5"",""8784""
","
","","images/earth.jpg","","","","","","","","","","","","","","fixation","","","","","",""
"d3-animate-choice","223","424463","0.0-77.0-0.29","169","6352","22","Female","false","false","true","false","""event"",""trial"",""time""
""fullscreenenter"",""5"",""8784""
","
","
","""event"",""trial"",""time""
""fullscreenenter"",""5"",""8784""
","
","870.6000000089407","","49","","","3000","1","1578.7000000029802,2360.2000000029802","49,49","images/earth.jpg","images/rocket1","images/rocket2","null","images/rocket2","","1","real","null","1","","",""
"d3-animate-choice","224","426840","0.0-77.0-1.29","169","6352","22","Female","false","false","true","false","""event"",""trial"",""time""
""fullscreenenter"",""5"",""8784""
","
","
","""event"",""trial"",""time""
""fullscreenenter"",""5"",""8784""
","
","366.79999999701977","","49","","","3000","1","1097.8999999910593,1465.8999999910593,1943.3999999910593","49,49,49","images/redplanet1.jpg","images/alien2","images/alien1","images/rocket2","images/alien1","images/nothing.png","2","real","true","1","common","0","2023-02-24 23:04:05.030"
"two-step-fixation","225","427844","0.0-77.0-2.29","169","6352","22","Female","false","false","true","false","""event"",""trial"",""time""
""fullscreenenter"",""5"",""8784""
","
","
","""event"",""trial"",""time""
""fullscreenenter"",""5"",""8784""
","
","","images/earth.jpg","","","","","","","","","","","","","","fixation","","","","","",""
"d3-animate-choice","226","429927","0.0-77.0-0.30","169","6352","22","Female","false","false","true","false","""event"",""trial"",""time""
""fullscreenenter"",""5"",""8784""
","
","
","""event"",""trial"",""time""
""fullscreenenter"",""5"",""8784""
","
","71.79999999701977","","49","","","3000","1","603.0999999940395,955,1650.5","49,49,49","images/earth.jpg","images/rocket1","images/rocket2","null","images/rocket2","","1","real","null","1","","",""
"d3-animate-choice","227","432225","0.0-77.0-1.30","169","6352","22","Female","false","false","true","false","""event"",""trial"",""time""
""fullscreenenter"",""5"",""8784""
","
","
","""event"",""trial"",""time""
""fullscreenenter"",""5"",""8784""
","
","285","","49","","","3000","1","932.8999999910593,1608.5999999940395,1962.8999999910593","49,49,49","images/redplanet1.jpg","images/alien2","images/alien1","images/rocket2","images/alien1","images/t.png","2","real","true","1","common","1","2023-02-24 23:04:10.415"
"two-step-fixation","228","433228","0.0-77.0-2.30","169","6352","22","Female","false","false","true","false","""event"",""trial"",""time""
""fullscreenenter"",""5"",""8784""
","
","
","""event"",""trial"",""time""
""fullscreenenter"",""5"",""8784""
","
","","images/earth.jpg","","","","","","","","","","","","","","fixation","","","","","",""
"d3-animate-choice","229","435550","0.0-77.0-0.31","169","6352","22","Female","false","false","true","false","""event"",""trial"",""time""
""fullscreenenter"",""5"",""8784""
","
","
","""event"",""trial"",""time""
""fullscreenenter"",""5"",""8784""
","
","316.8999999910593","","49","","","3000","1","645.7999999970198,1464.199999988079,2279","49,49,49","images/earth.jpg","images/rocket1","images/rocket2","null","images/rocket2","","1","real","null","1","","",""
"d3-animate-choice","230","438644","0.0-77.0-1.31","169","6352","22","Female","false","false","true","false","""event"",""trial"",""time""
""fullscreenenter"",""5"",""8784""
","
","
","""event"",""trial"",""time""
""fullscreenenter"",""5"",""8784""
","
","1091.2999999970198","","49","","","3000","1","1541.9000000059605","49","images/purpleplanet.jpg","images/alien4","images/alien3","images/rocket2","images/alien3","images/nothing.png","2","real","false","1","rare","0","2023-02-24 23:04:16.834"
"two-step-fixation","231","439656","0.0-77.0-2.31","169","6352","22","Female","false","false","true","false","""event"",""trial"",""time""
""fullscreenenter"",""5"",""8784""
","
","
","""event"",""trial"",""time""
""fullscreenenter"",""5"",""8784""
","
","","images/earth.jpg","","","","","","","","","","","","","","fixation","","","","","",""
"d3-animate-choice","232","442128","0.0-77.0-0.32","169","6352","22","Female","false","false","true","false","""event"",""trial"",""time""
""fullscreenenter"",""5"",""8784""
","
","
","""event"",""trial"",""time""
""fullscreenenter"",""5"",""8784""
","
","463.59999999403954","","49","","","3000","1","1290.3999999910593,1900.5,2442.2999999970198","49,49,49","images/earth.jpg","images/rocket1","images/rocket2","null","images/rocket2","","1","real","null","1","","",""
"d3-animate-choice","233","444711","0.0-77.0-1.32","169","6352","22","Female","false","false","true","false","""event"",""trial"",""time""
""fullscreenenter"",""5"",""8784""
","
","
","""event"",""trial"",""time""
""fullscreenenter"",""5"",""8784""
","
