"trial_type","trial_index","time_elapsed","internal_node_id","participant_id","subject_id","age","gender","rocket_sides","red_planet_first_rocket","red_display_order","purple_display_order","interactions","blur_events","focus_events","fullscreenenter_events","fullscreenexit_events","rt","stimulus","key_press","button_pressed","success","duration","valid_pressed","rts","keys","planet_text","right_text","left_text","center_text","chosen_text","reward_text","trial_stage","practice_trial","transition_type","choice","transition","reward","timestamp"
"pavlovia","0","15","0.0-0.0","190","739","12","Male","true","true","false","false","
","
","
","
","
","","","","","","","","","","","","","","","","","","","","","",""
"html-keyboard-response","1","1739","0.0-1.0","190","739","12","Male","true","true","false","false","
","
","
","
","
","1721.300000000745","Welcome! Press the space bar to begin.","32","","","","","","","","","","","","","","","","","","",""
"audio-keyboard-response","2","5252","0.0-2.0","190","739","12","Male","true","true","false","false","
","
","
","
","
","3467","audio/beep_loop.wav","32","","","","","","","","","","","","","","","","","","",""
"audio-button-response","3","8032","0.0-3.0","190","739","12","Male","true","true","false","false","
","
","
","
","
","NaN","audio/fish.mp3","","1","","","","","","","","","","","","","","","","","",""
"audio-button-response","4","11738","0.0-4.0","190","739","12","Male","true","true","false","false","""event"",""trial"",""time""
""fullscreenenter"",""5"",""15120""
","
","
","""event"",""trial"",""time""
""fullscreenenter"",""5"",""15120""
","
","NaN","audio/tiger.mp3","","4","","","","","","","","","","","","","","","","","",""
"fullscreen","5","16109","0.0-5.0","190","739","12","Male","true","true","false","false","""event"",""trial"",""time""
""fullscreenenter"",""5"",""15120""
","
","
","""event"",""trial"",""time""
""fullscreenenter"",""5"",""15120""
","
","","","","","true","","","","","","","","","","","","","","","","",""
"d3-instructions","6","43495","0.0-6.0","190","739","12","Male","true","true","false","false","""event"",""trial"",""time""
""fullscreenenter"",""5"",""15120""
","
","
","""event"",""trial"",""time""
""fullscreenenter"",""5"",""15120""
","
","","","","","","","","","","","","","","","","","","","","","",""
"d3-instructions","7","52302","0.0-7.0","190","739","12","Male","true","true","false","false","""event"",""trial"",""time""
""fullscreenenter"",""5"",""15120""
","
","
","""event"",""trial"",""time""
""fullscreenenter"",""5"",""15120""
","
","","","","","","","","","","","","","","","","","","","","","",""
"d3-instructions","8","58112","0.0-8.0","190","739","12","Male","true","true","false","false","""event"",""trial"",""time""
""fullscreenenter"",""5"",""15120""
","
","
","""event"",""trial"",""time""
""fullscreenenter"",""5"",""15120""
","
","","","","","","","","","","","","","","","","","","","","","",""
"d3-instructions","9","68983","0.0-9.0","190","739","12","Male","true","true","false","false","""event"",""trial"",""time""
""fullscreenenter"",""5"",""15120""
","
","
","""event"",""trial"",""time""
""fullscreenenter"",""5"",""15120""
","
","","","","","","","","","","","","","","","","","","","","","",""
"d3-instructions","10","85623","0.0-10.0","190","739","12","Male","true","true","false","false","""event"",""trial"",""time""
""fullscreenenter"",""5"",""15120""
","
","
","""event"",""trial"",""time""
""fullscreenenter"",""5"",""15120""
","
","","","","","","","","","","","","","","","","","","","","","",""
"d3-animate-choice","11","91193","0.0-11.0","190","739","12","Male","true","true","false","false","""event"",""trial"",""time""
""fullscreenenter"",""5"",""15120""
","
","
","""event"",""trial"",""time""
""fullscreenenter"",""5"",""15120""
","
","3554.10000000149","","49","","","3000","1","","","images/tutgreenplanet.jpg","images/tutalien1","images/tutalien2","null","images/tutalien2","","NA","practice","null","","","",""
"d3-animate-choice","12","94533","0.0-12.0","190","739","12","Male","true","true","false","false","""event"",""trial"",""time""
""fullscreenenter"",""5"",""15120""
","
","
","""event"",""trial"",""time""
""fullscreenenter"",""5"",""15120""
","
","1331.5","","48","","","3000","1","","","images/tutgreenplanet.jpg","images/tutalien1","images/tutalien2","null","images/tutalien1","","NA","practice","null","","","",""
"d3-animate-choice","13","97763","0.0-13.0","190","739","12","Male","true","true","false","false","""event"",""trial"",""time""
""fullscreenenter"",""5"",""15120""
","
","
","""event"",""trial"",""time""
""fullscreenenter"",""5"",""15120""
","
","1218.800000000745","","48","","","3000","1","","","images/tutgreenplanet.jpg","images/tutalien1","images/tutalien2","null","images/tutalien1","","NA","practice","null","","","",""
"d3-animate-choice","14","100326","0.0-14.0","190","739","12","Male","true","true","false","false","""event"",""trial"",""time""
""fullscreenenter"",""5"",""15120""
","
","
","""event"",""trial"",""time""
""fullscreenenter"",""5"",""15120""
","
","552.0999999996275","","48","","","3000","1","","","images/tutgreenplanet.jpg","images/tutalien1","images/tutalien2","null","images/tutalien1","","NA","practice","null","","","",""
"d3-instructions","15","108166","0.0-15.0","190","739","12","Male","true","true","false","false","""event"",""trial"",""time""
""fullscreenenter"",""5"",""15120""
","
","
","""event"",""trial"",""time""
""fullscreenenter"",""5"",""15120""
","
","","","","","","","","","","","","","","","","","","","","","",""
"d3-instructions","16","114760","0.0-16.0","190","739","12","Male","true","true","false","false","""event"",""trial"",""time""
""fullscreenenter"",""5"",""15120""
","
","
","""event"",""trial"",""time""
""fullscreenenter"",""5"",""15120""
","
","","","","","","","","","","","","","","","","","","","","","",""
"d3-instructions","17","119418","0.0-17.0","190","739","12","Male","true","true","false","false","""event"",""trial"",""time""
""fullscreenenter"",""5"",""15120""
","
","
","""event"",""trial"",""time""
""fullscreenenter"",""5"",""15120""
","
","","","","","","","","","","","","","","","","","","","","","",""
"d3-instructions","18","130441","0.0-18.0","190","739","12","Male","true","true","false","false","""event"",""trial"",""time""
""fullscreenenter"",""5"",""15120""
","
","
","""event"",""trial"",""time""
""fullscreenenter"",""5"",""15120""
","
","","","","","","","","","","","","","","","","","","","","","",""
"d3-instructions","19","144193","0.0-19.0","190","739","12","Male","true","true","false","false","""event"",""trial"",""time""
""fullscreenenter"",""5"",""15120""
","
","
","""event"",""trial"",""time""
""fullscreenenter"",""5"",""15120""
","
","","","","","","","","","","","","","","","","","","","","","",""
"d3-animate-choice","20","148516","0.0-20.0","190","739","12","Male","true","true","false","false","""event"",""trial"",""time""
""fullscreenenter"",""5"",""15120""
","
","
","""event"",""trial"",""time""
""fullscreenenter"",""5"",""15120""
","
","2316.5999999996275","","49","","","3000","1","","","images/tutyellowplanet.jpg","null","images/tutalien3","null","images/tutalien3","images/t.png","NA","practice","null","","","",""
"d3-animate-choice","21","150962","0.0-21.0","190","739","12","Male","true","true","false","false","""event"",""trial"",""time""
""fullscreenenter"",""5"",""15120""
","
","
","""event"",""trial"",""time""
""fullscreenenter"",""5"",""15120""
","
","439.90000000037253","","49","","","3000","1","","","images/tutyellowplanet.jpg","null","images/tutalien3","null","images/tutalien3","images/t.png","NA","practice","null","","","",""
"d3-animate-choice","22","153205","0.0-22.0","190","739","12","Male","true","true","false","false","""event"",""trial"",""time""
""fullscreenenter"",""5"",""15120""
","
","
","""event"",""trial"",""time""
""fullscreenenter"",""5"",""15120""
","
","236.7999999988824","","49","","","3000","1","","","images/tutyellowplanet.jpg","null","images/tutalien3","null","images/tutalien3","images/nothing.png","NA","practice","null","","","",""
"d3-animate-choice","23","155562","0.0-23.0","190","739","12","Male","true","true","false","false","""event"",""trial"",""time""
""fullscreenenter"",""5"",""15120""
","
","
","""event"",""trial"",""time""
""fullscreenenter"",""5"",""15120""
","
","351.90000000037253","","49","","","3000","1","","","images/tutyellowplanet.jpg","null","images/tutalien3","null","images/tutalien3","images/t.png","NA","practice","null","","","",""
"d3-animate-choice","24","157901","0.0-24.0","190","739","12","Male","true","true","false","false","""event"",""trial"",""time""
""fullscreenenter"",""5"",""15120""
","
","
","""event"",""trial"",""time""
""fullscreenenter"",""5"",""15120""
","
","333.09999999962747","","49","","","3000","1","","","images/tutyellowplanet.jpg","null","images/tutalien3","null","images/tutalien3","images/t.png","NA","practice","null","","","",""
"d3-animate-choice","25","160182","0.0-25.0","190","739","12","Male","true","true","false","false","""event"",""trial"",""time""
""fullscreenenter"",""5"",""15120""
","
","
","""event"",""trial"",""time""
""fullscreenenter"",""5"",""15120""
","
","272.30000000074506","","49","","","3000","1","","","images/tutyellowplanet.jpg","null","images/tutalien3","null","images/tutalien3","images/t.png","NA","practice","null","","","",""
"d3-animate-choice","26","162499","0.0-26.0","190","739","12","Male","true","true","false","false","""event"",""trial"",""time""
""fullscreenenter"",""5"",""15120""
","
","
","""event"",""trial"",""time""
""fullscreenenter"",""5"",""15120""
","
","308.19999999925494","","49","","","3000","1","","","images/tutyellowplanet.jpg","null","images/tutalien3","null","images/tutalien3","images/nothing.png","NA","practice","null","","","",""
"d3-animate-choice","27","164907","0.0-27.0","190","739","12","Male","true","true","false","false","""event"",""trial"",""time""
""fullscreenenter"",""5"",""15120""
","
","
","""event"",""trial"",""time""
""fullscreenenter"",""5"",""15120""
","
","400.3999999985099","","49","","","3000","1","","","images/tutyellowplanet.jpg","null","images/tutalien3","null","images/tutalien3","images/nothing.png","NA","practice","null","","","",""
"d3-animate-choice","28","167222","0.0-28.0","190","739","12","Male","true","true","false","false","""event"",""trial"",""time""
""fullscreenenter"",""5"",""15120""
","
","
","""event"",""trial"",""time""
""fullscreenenter"",""5"",""15120""
","
","309.90000000037253","","49","","","3000","1","","","images/tutyellowplanet.jpg","null","images/tutalien3","null","images/tutalien3","images/t.png","NA","practice","null","","","",""
"d3-animate-choice","29","169572","0.0-29.0","190","739","12","Male","true","true","false","false","""event"",""trial"",""time""
""fullscreenenter"",""5"",""15120""
","
","
","""event"",""trial"",""time""
""fullscreenenter"",""5"",""15120""
","
","344.09999999962747","","49","","","3000","1","","","images/tutyellowplanet.jpg","null","images/tutalien3","null","images/tutalien3","images/t.png","NA","practice","null","","","",""
"d3-instructions","30","176113","0.0-30.0","190","739","12","Male","true","true","false","false","""event"",""trial"",""time""
""fullscreenenter"",""5"",""15120""
","
","
","""event"",""trial"",""time""
""fullscreenenter"",""5"",""15120""
","
","","","","","","","","","","","","","","","","","","","","","",""
"d3-instructions","31","183409","0.0-31.0","190","739","12","Male","true","true","false","false","""event"",""trial"",""time""
""fullscreenenter"",""5"",""15120""
","
","
","""event"",""trial"",""time""
""fullscreenenter"",""5"",""15120""
","
","","","","","","","","","","","","","","","","","","","","","",""
"d3-instructions","32","190564","0.0-32.0","190","739","12","Male","true","true","false","false","""event"",""trial"",""time""
""fullscreenenter"",""5"",""15120""
","
","
","""event"",""trial"",""time""
""fullscreenenter"",""5"",""15120""
","
","","","","","","","","","","","","","","","","","","","","","",""
"d3-instructions","33","200703","0.0-33.0","190","739","12","Male","true","true","false","false","""event"",""trial"",""time""
""fullscreenenter"",""5"",""15120""
","
","
","""event"",""trial"",""time""
""fullscreenenter"",""5"",""15120""
","
","","","","","","","","","","","","","","","","","","","","","",""
"d3-animate-choice","34","204837","0.0-34.0","190","739","12","Male","true","true","false","false","""event"",""trial"",""time""
""fullscreenenter"",""5"",""15120""
","
","
","""event"",""trial"",""time""
""fullscreenenter"",""5"",""15120""
","
","2127.5","","49","","","3000","1","","","images/tutgreenplanet.jpg","images/tutalien1","images/tutalien2","null","images/tutalien2","images/t.png","NA","practice","null","","","",""
"d3-animate-choice","35","207778","0.0-35.0","190","739","12","Male","true","true","false","false","""event"",""trial"",""time""
""fullscreenenter"",""5"",""15120""
","
","
","""event"",""trial"",""time""
""fullscreenenter"",""5"",""15120""
","
","933.6000000014901","","49","","","3000","1","","","images/tutgreenplanet.jpg","images/tutalien1","images/tutalien2","null","images/tutalien2","images/t.png","NA","practice","null","","","",""
"d3-animate-choice","36","210449","0.0-36.0","190","739","12","Male","true","true","false","false","""event"",""trial"",""time""
""fullscreenenter"",""5"",""15120""
","
","
","""event"",""trial"",""time""
""fullscreenenter"",""5"",""15120""
","
","658.5","","49","","","3000","1","","","images/tutgreenplanet.jpg","images/tutalien1","images/tutalien2","null","images/tutalien2","images/t.png","NA","practice","null","","","",""
"d3-animate-choice","37","212917","0.0-37.0","190","739","12","Male","true","true","false","false","""event"",""trial"",""time""
""fullscreenenter"",""5"",""15120""
","
","
","""event"",""trial"",""time""
""fullscreenenter"",""5"",""15120""
","
","459.90000000037253","","49","","","3000","1","","","images/tutgreenplanet.jpg","images/tutalien1","images/tutalien2","null","images/tutalien2","images/t.png","NA","practice","null","","","",""
"d3-animate-choice","38","215448","0.0-38.0","190","739","12","Male","true","true","false","false","""event"",""trial"",""time""
""fullscreenenter"",""5"",""15120""
","
","
","""event"",""trial"",""time""
""fullscreenenter"",""5"",""15120""
","
","525.7999999988824","","49","","","3000","1","","","images/tutgreenplanet.jpg","images/tutalien1","images/tutalien2","null","images/tutalien2","images/t.png","NA","practice","null","","","",""
"d3-animate-choice","39","217832","0.0-39.0","190","739","12","Male","true","true","false","false","""event"",""trial"",""time""
""fullscreenenter"",""5"",""15120""
","
","
","""event"",""trial"",""time""
""fullscreenenter"",""5"",""15120""
","
","377.09999999962747","","49","","","3000","1","","","images/tutgreenplanet.jpg","images/tutalien1","images/tutalien2","null","images/tutalien2","images/t.png","NA","practice","null","","","",""
"d3-animate-choice","40","220220","0.0-40.0","190","739","12","Male","true","true","false","false","""event"",""trial"",""time""
""fullscreenenter"",""5"",""15120""
","
","
","""event"",""trial"",""time""
""fullscreenenter"",""5"",""15120""
","
","382.7000000011176","","49","","","3000","1","","","images/tutgreenplanet.jpg","images/tutalien1","images/tutalien2","null","images/tutalien2","images/t.png","NA","practice","null","","","",""
"d3-animate-choice","41","222687","0.0-41.0","190","739","12","Male","true","true","false","false","""event"",""trial"",""time""
""fullscreenenter"",""5"",""15120""
","
","
","""event"",""trial"",""time""
""fullscreenenter"",""5"",""15120""
","
","461.19999999925494","","49","","","3000","1","","","images/tutgreenplanet.jpg","images/tutalien1","images/tutalien2","null","images/tutalien2","images/t.png","NA","practice","null","","","",""
"d3-animate-choice","42","225155","0.0-42.0","190","739","12","Male","true","true","false","false","""event"",""trial"",""time""
""fullscreenenter"",""5"",""15120""
","
","
","""event"",""trial"",""time""
""fullscreenenter"",""5"",""15120""
","
","461","","48","","","3000","1","","","images/tutgreenplanet.jpg","images/tutalien1","images/tutalien2","null","images/tutalien1","images/nothing.png","NA","practice","null","","","",""
"d3-animate-choice","43","227507","0.0-43.0","190","739","12","Male","true","true","false","false","""event"",""trial"",""time""
""fullscreenenter"",""5"",""15120""
","
","
","""event"",""trial"",""time""
""fullscreenenter"",""5"",""15120""
","
","344.90000000037253","","48","","","3000","1","","","images/tutgreenplanet.jpg","images/tutalien1","images/tutalien2","null","images/tutalien1","images/nothing.png","NA","practice","null","","","",""
"d3-instructions","44","241947","0.0-44.0","190","739","12","Male","true","true","false","false","""event"",""trial"",""time""
""fullscreenenter"",""5"",""15120""
","
","
","""event"",""trial"",""time""
""fullscreenenter"",""5"",""15120""
","
","","","","","","","","","","","","","","","","","","","","","",""
"d3-instructions","45","245755","0.0-45.0","190","739","12","Male","true","true","false","false","""event"",""trial"",""time""
""fullscreenenter"",""5"",""15120""
","
","
","""event"",""trial"",""time""
""fullscreenenter"",""5"",""15120""
","
","","","","","","","","","","","","","","","","","","","","","",""
"d3-instructions","46","250282","0.0-46.0","190","739","12","Male","true","true","false","false","""event"",""trial"",""time""
""fullscreenenter"",""5"",""15120""
","
","
","""event"",""trial"",""time""
""fullscreenenter"",""5"",""15120""
","
","","","","","","","","","","","","","","","","","","","","","",""
"d3-instructions","47","267242","0.0-47.0","190","739","12","Male","true","true","false","false","""event"",""trial"",""time""
""fullscreenenter"",""5"",""15120""
","
","
","""event"",""trial"",""time""
""fullscreenenter"",""5"",""15120""
","
","","","","","","","","","","","","","","","","","","","","","",""
"d3-instructions","48","274010","0.0-48.0","190","739","12","Male","true","true","false","false","""event"",""trial"",""time""
""fullscreenenter"",""5"",""15120""
","
","
","""event"",""trial"",""time""
""fullscreenenter"",""5"",""15120""
","
","","","","","","","","","","","","","","","","","","","","","",""
"d3-instructions","49","284209","0.0-49.0","190","739","12","Male","true","true","false","false","""event"",""trial"",""time""
""fullscreenenter"",""5"",""15120""
","
","
","""event"",""trial"",""time""
""fullscreenenter"",""5"",""15120""
","
","","","","","","","","","","","","","","","","","","","","","",""
"d3-instructions","50","292967","0.0-50.0","190","739","12","Male","true","true","false","false","""event"",""trial"",""time""
""fullscreenenter"",""5"",""15120""
","
","
","""event"",""trial"",""time""
""fullscreenenter"",""5"",""15120""
","
","","","","","","","","","","","","","","","","","","","","","",""
"d3-instructions","51","295750","0.0-51.0","190","739","12","Male","true","true","false","false","""event"",""trial"",""time""
""fullscreenenter"",""5"",""15120""
","
","
","""event"",""trial"",""time""
""fullscreenenter"",""5"",""15120""
","
","","","","","","","","","","","","","","","","","","","","","",""
"d3-instructions","52","298460","0.0-52.0","190","739","12","Male","true","true","false","false","""event"",""trial"",""time""
""fullscreenenter"",""5"",""15120""
","
","
","""event"",""trial"",""time""
""fullscreenenter"",""5"",""15120""
","
","","","","","","","","","","","","","","","","","","","","","",""
"d3-instructions","53","309939","0.0-53.0","190","739","12","Male","true","true","false","false","""event"",""trial"",""time""
""fullscreenenter"",""5"",""15120""
","
","
","""event"",""trial"",""time""
""fullscreenenter"",""5"",""15120""
","
","","","","","","","","","","","","","","","","","","","","","",""
"d3-instructions","54","320672","0.0-54.0","190","739","12","Male","true","true","false","false","""event"",""trial"",""time""
""fullscreenenter"",""5"",""15120""
","
","
","""event"",""trial"",""time""
""fullscreenenter"",""5"",""15120""
","
","","","","","","","","","","","","","","","","","","","","","",""
"d3-instructions","55","325844","0.0-55.0","190","739","12","Male","true","true","false","false","""event"",""trial"",""time""
""fullscreenenter"",""5"",""15120""
","
","
","""event"",""trial"",""time""
""fullscreenenter"",""5"",""15120""
","
","","","","","","","","","","","","","","","","","","","","","",""
"d3-instructions","56","331582","0.0-56.0","190","739","12","Male","true","true","false","false","""event"",""trial"",""time""
""fullscreenenter"",""5"",""15120""
","
","
","""event"",""trial"",""time""
""fullscreenenter"",""5"",""15120""
","
","","","","","","","","","","","","","","","","","","","","","",""
"d3-instructions","57","341369","0.0-57.0","190","739","12","Male","true","true","false","false","""event"",""trial"",""time""
""fullscreenenter"",""5"",""15120""
","
","
","""event"",""trial"",""time""
""fullscreenenter"",""5"",""15120""
","
","","","","","","","","","","","","","","","","","","","","","",""
"d3-instructions","58","353780","0.0-58.0","190","739","12","Male","true","true","false","false","""event"",""trial"",""time""
""fullscreenenter"",""5"",""15120""
","
","
","""event"",""trial"",""time""
""fullscreenenter"",""5"",""15120""
","
","","","","","","","","","","","","","","","","","","","","","",""
"d3-instructions","59","356371","0.0-59.0","190","739","12","Male","true","true","false","false","""event"",""trial"",""time""
""fullscreenenter"",""5"",""15120""
","
","
","""event"",""trial"",""time""
""fullscreenenter"",""5"",""15120""
","
","","","","","","","","","","","","","","","","","","","","","",""
"d3-instructions","60","362666","0.0-60.0","190","739","12","Male","true","true","false","false","""event"",""trial"",""time""
""fullscreenenter"",""5"",""15120""
","
","
","""event"",""trial"",""time""
""fullscreenenter"",""5"",""15120""
","
","","","","","","","","","","","","","","","","","","","","","",""
"d3-animate-choice","61","365675","0.0-61.0-0.0","190","739","12","Male","true","true","false","false","""event"",""trial"",""time""
""fullscreenenter"",""5"",""15120""
","
","
","""event"",""trial"",""time""
""fullscreenenter"",""5"",""15120""
","
","1001.8000000007451","","49","","","3000","1","","","images/earth.jpg","images/tutrocket2","images/tutrocket1","null","images/tutrocket1","","1","practice","null","1","","",""
"d3-animate-choice","62","368945","0.0-61.0-1.0","190","739","12","Male","true","true","false","false","""event"",""trial"",""time""
""fullscreenenter"",""5"",""15120""
","
","
","""event"",""trial"",""time""
""fullscreenenter"",""5"",""15120""
","
","1259.5","","49","","","3000","1","","","images/tutyellowplanet.jpg","images/tutalien4","images/tutalien3","images/tutrocket1","images/tutalien3","images/nothing.png","2","practice","false","1","rare","0","2022-02-16 01:35:22.222"
"two-step-fixation","63","369951","0.0-61.0-2.0","190","739","12","Male","true","true","false","false","""event"",""trial"",""time""
""fullscreenenter"",""5"",""15120""
","
","
","""event"",""trial"",""time""
""fullscreenenter"",""5"",""15120""
","
","","images/earth.jpg","","","","","","","","","","","","","","fixation","","","","","",""
"d3-animate-choice","64","372908","0.0-61.0-0.1","190","739","12","Male","true","true","false","false","""event"",""trial"",""time""
""fullscreenenter"",""5"",""15120""
","
","
","""event"",""trial"",""time""
""fullscreenenter"",""5"",""15120""
","
","947.6999999992549","","49","","","3000","1","","","images/earth.jpg","images/tutrocket2","images/tutrocket1","null","images/tutrocket1","","1","practice","null","1","","",""
"d3-animate-choice","65","376065","0.0-61.0-1.1","190","739","12","Male","true","true","false","false","""event"",""trial"",""time""
""fullscreenenter"",""5"",""15120""
","
","
","""event"",""trial"",""time""
""fullscreenenter"",""5"",""15120""
","
","1148.2999999988824","","48","","","3000","1","","","images/tutyellowplanet.jpg","images/tutalien4","images/tutalien3","images/tutrocket1","images/tutalien4","images/nothing.png","2","practice","false","2","rare","0","2022-02-16 01:35:29.342"
"two-step-fixation","66","377070","0.0-61.0-2.1","190","739","12","Male","true","true","false","false","""event"",""trial"",""time""
""fullscreenenter"",""5"",""15120""
","
","
","""event"",""trial"",""time""
""fullscreenenter"",""5"",""15120""
","
","","images/earth.jpg","","","","","","","","","","","","","","fixation","","","","","",""
"d3-animate-choice","67","379591","0.0-61.0-0.2","190","739","12","Male","true","true","false","false","""event"",""trial"",""time""
""fullscreenenter"",""5"",""15120""
","
","
","""event"",""trial"",""time""
""fullscreenenter"",""5"",""15120""
","
","514.3999999985099","","48","","","3000","1","","","images/earth.jpg","images/tutrocket2","images/tutrocket1","null","images/tutrocket2","","1","practice","null","2","","",""
"d3-animate-choice","68","382518","0.0-61.0-1.2","190","739","12","Male","true","true","false","false","""event"",""trial"",""time""
""fullscreenenter"",""5"",""15120""
","
","
","""event"",""trial"",""time""
""fullscreenenter"",""5"",""15120""
","
","920","","49","","","3000","1","","","images/tutgreenplanet.jpg","images/tutalien2","images/tutalien1","images/tutrocket2","images/tutalien1","images/nothing.png","2","practice","false","1","rare","0","2022-02-16 01:35:35.795"
"two-step-fixation","69","383524","0.0-61.0-2.2","190","739","12","Male","true","true","false","false","""event"",""trial"",""time""
""fullscreenenter"",""5"",""15120""
","
","
","""event"",""trial"",""time""
""fullscreenenter"",""5"",""15120""
","
","","images/earth.jpg","","","","","","","","","","","","","","fixation","","","","","",""
"d3-animate-choice","70","385909","0.0-61.0-0.3","190","739","12","Male","true","true","false","false","""event"",""trial"",""time""
""fullscreenenter"",""5"",""15120""
","
","
","""event"",""trial"",""time""
""fullscreenenter"",""5"",""15120""
","
","378.30000000074506","","48","","","3000","1","","","images/earth.jpg","images/tutrocket2","images/tutrocket1","null","images/tutrocket2","","1","practice","null","2","","",""
"d3-animate-choice","71","388238","0.0-61.0-1.3","190","739","12","Male","true","true","false","false","""event"",""trial"",""time""
""fullscreenenter"",""5"",""15120""
","
","
","""event"",""trial"",""time""
""fullscreenenter"",""5"",""15120""
","
","318.69999999925494","","48","","","3000","1","","","images/tutgreenplanet.jpg","images/tutalien2","images/tutalien1","images/tutrocket2","images/tutalien2","images/nothing.png","2","practice","false","2","rare","0","2022-02-16 01:35:41.516"
"two-step-fixation","72","389248","0.0-61.0-2.3","190","739","12","Male","true","true","false","false","""event"",""trial"",""time""
""fullscreenenter"",""5"",""15120""
","
","
","""event"",""trial"",""time""
""fullscreenenter"",""5"",""15120""
","
","","images/earth.jpg","","","","","","","","","","","","","","fixation","","","","","",""
"d3-animate-choice","73","391777","0.0-61.0-0.4","190","739","12","Male","true","true","false","false","""event"",""trial"",""time""
""fullscreenenter"",""5"",""15120""
","
","
","""event"",""trial"",""time""
""fullscreenenter"",""5"",""15120""
","
","521.6999999992549","","48","","","3000","1","","","images/earth.jpg","images/tutrocket2","images/tutrocket1","null","images/tutrocket2","","1","practice","null","2","","",""
"d3-animate-choice","74","394783","0.0-61.0-1.4","190","739","12","Male","true","true","false","false","""event"",""trial"",""time""
""fullscreenenter"",""5"",""15120""
","
","
","""event"",""trial"",""time""
""fullscreenenter"",""5"",""15120""
","
","990.9000000003725","","48","","","3000","1","","","images/tutgreenplanet.jpg","images/tutalien2","images/tutalien1","images/tutrocket2","images/tutalien2","images/nothing.png","2","practice","false","2","rare","0","2022-02-16 01:35:48.061"
"two-step-fixation","75","395794","0.0-61.0-2.4","190","739","12","Male","true","true","false","false","""event"",""trial"",""time""
""fullscreenenter"",""5"",""15120""
","
","
","""event"",""trial"",""time""
""fullscreenenter"",""5"",""15120""
","
","","images/earth.jpg","","","","","","","","","","","","","","fixation","","","","","",""
"d3-animate-choice","76","398385","0.0-61.0-0.5","190","739","12","Male","true","true","false","false","""event"",""trial"",""time""
""fullscreenenter"",""5"",""15120""
","
","
","""event"",""trial"",""time""
""fullscreenenter"",""5"",""15120""
","
","583.8000000007451","","48","","","3000","1","","","images/earth.jpg","images/tutrocket2","images/tutrocket1","null","images/tutrocket2","","1","practice","null","2","","",""
"d3-animate-choice","77","400786","0.0-61.0-1.5","190","739","12","Male","true","true","false","false","""event"",""trial"",""time""
""fullscreenenter"",""5"",""15120""
","
","
","""event"",""trial"",""time""
""fullscreenenter"",""5"",""15120""
","
","391.30000000074506","","49","","","3000","1","","","images/tutgreenplanet.jpg","images/tutalien2","images/tutalien1","images/tutrocket2","images/tutalien1","images/nothing.png","2","practice","false","1","rare","0","2022-02-16 01:35:54.063"
"two-step-fixation","78","401792","0.0-61.0-2.5","190","739","12","Male","true","true","false","false","""event"",""trial"",""time""
""fullscreenenter"",""5"",""15120""
","
","
","""event"",""trial"",""time""
""fullscreenenter"",""5"",""15120""
","
","","images/earth.jpg","","","","","","","","","","","","","","fixation","","","","","",""
"d3-animate-choice","79","404089","0.0-61.0-0.6","190","739","12","Male","true","true","false","false","""event"",""trial"",""time""
""fullscreenenter"",""5"",""15120""
","
","
","""event"",""trial"",""time""
""fullscreenenter"",""5"",""15120""
","
","288.59999999962747","","49","","","3000","1","","","images/earth.jpg","images/tutrocket2","images/tutrocket1","null","images/tutrocket1","","1","practice","null","1","","",""
"d3-animate-choice","80","406549","0.0-61.0-1.6","190","739","12","Male","true","true","false","false","""event"",""trial"",""time""
""fullscreenenter"",""5"",""15120""
","
","
","""event"",""trial"",""time""
""fullscreenenter"",""5"",""15120""
","
","451.2000000011176","","49","","","3000","1","","","images/tutgreenplanet.jpg","images/tutalien2","images/tutalien1","images/tutrocket1","images/tutalien1","images/t.png","2","practice","true","1","common","1","2022-02-16 01:35:59.826"
"two-step-fixation","81","407554","0.0-61.0-2.6","190","739","12","Male","true","true","false","false","""event"",""trial"",""time""
""fullscreenenter"",""5"",""15120""
","
","
","""event"",""trial"",""time""
""fullscreenenter"",""5"",""15120""
","
","","images/earth.jpg","","","","","","","","","","","","","","fixation","","","","","",""
"d3-animate-choice","82","409685","0.0-61.0-0.7","190","739","12","Male","true","true","false","false","""event"",""trial"",""time""
""fullscreenenter"",""5"",""15120""
","
","
","""event"",""trial"",""time""
""fullscreenenter"",""5"",""15120""
","
","123.59999999962747","","49","","","3000","1","","","images/earth.jpg","images/tutrocket2","images/tutrocket1","null","images/tutrocket1","","1","practice","null","1","","",""
"d3-animate-choice","83","412299","0.0-61.0-1.7","190","739","12","Male","true","true","false","false","""event"",""trial"",""time""
""fullscreenenter"",""5"",""15120""
","
","
","""event"",""trial"",""time""
""fullscreenenter"",""5"",""15120""
","
","608.2000000011176","","48","","","3000","1","","","images/tutgreenplanet.jpg","images/tutalien2","images/tutalien1","images/tutrocket1","images/tutalien2","images/nothing.png","2","practice","true","2","common","0","2022-02-16 01:36:05.579"
"two-step-fixation","84","413306","0.0-61.0-2.7","190","739","12","Male","true","true","false","false","""event"",""trial"",""time""
""fullscreenenter"",""5"",""15120""
","
","
","""event"",""trial"",""time""
""fullscreenenter"",""5"",""15120""
","
","","images/earth.jpg","","","","","","","","","","","","","","fixation","","","","","",""
"d3-animate-choice","85","415767","0.0-61.0-0.8","190","739","12","Male","true","true","false","false","""event"",""trial"",""time""
""fullscreenenter"",""5"",""15120""
","
","
","""event"",""trial"",""time""
""fullscreenenter"",""5"",""15120""
","
","453.2000000011176","","49","","","3000","1","","","images/earth.jpg","images/tutrocket2","images/tutrocket1","null","images/tutrocket1","","1","practice","null","1","","",""
"d3-animate-choice","86","418085","0.0-61.0-1.8","190","739","12","Male","true","true","false","false","""event"",""trial"",""time""
""fullscreenenter"",""5"",""15120""
","
","
","""event"",""trial"",""time""
""fullscreenenter"",""5"",""15120""
","
","307.2000000011176","","49","","","3000","1","","","images/tutyellowplanet.jpg","images/tutalien4","images/tutalien3","images/tutrocket1","images/tutalien3","images/t.png","2","practice","false","1","rare","1","2022-02-16 01:36:11.362"
"two-step-fixation","87","419091","0.0-61.0-2.8","190","739","12","Male","true","true","false","false","""event"",""trial"",""time""
""fullscreenenter"",""5"",""15120""
","
","
","""event"",""trial"",""time""
""fullscreenenter"",""5"",""15120""
","
","","images/earth.jpg","","","","","","","","","","","","","","fixation","","","","","",""
"d3-animate-choice","88","421690","0.0-61.0-0.9","190","739","12","Male","true","true","false","false","""event"",""trial"",""time""
""fullscreenenter"",""5"",""15120""
","
","
","""event"",""trial"",""time""
""fullscreenenter"",""5"",""15120""
","
","592.5999999996275","","49","","","3000","1","","","images/earth.jpg","images/tutrocket2","images/tutrocket1","null","images/tutrocket1","","1","practice","null","1","","",""
"d3-animate-choice","89","424063","0.0-61.0-1.9","190","739","12","Male","true","true","false","false","""event"",""trial"",""time""
""fullscreenenter"",""5"",""15120""
","
","
","""event"",""trial"",""time""
""fullscreenenter"",""5"",""15120""
","
","364.59999999962747","","49","","","3000","1","","","images/tutgreenplanet.jpg","images/tutalien2","images/tutalien1","images/tutrocket1","images/tutalien1","images/nothing.png","2","practice","true","1","common","0","2022-02-16 01:36:17.340"
"two-step-fixation","90","425068","0.0-61.0-2.9","190","739","12","Male","true","true","false","false","""event"",""trial"",""time""
""fullscreenenter"",""5"",""15120""
","
","
","""event"",""trial"",""time""
""fullscreenenter"",""5"",""15120""
","
","","images/earth.jpg","","","","","","","","","","","","","","fixation","","","","","",""
"d3-animate-choice","91","427439","0.0-61.0-0.10","190","739","12","Male","true","true","false","false","""event"",""trial"",""time""
""fullscreenenter"",""5"",""15120""
","
","
","""event"",""trial"",""time""
""fullscreenenter"",""5"",""15120""
","
","364.59999999962747","","48","","","3000","1","","","images/earth.jpg","images/tutrocket2","images/tutrocket1","null","images/tutrocket2","","1","practice","null","2","","",""
"d3-animate-choice","92","429836","0.0-61.0-1.10","190","739","12","Male","true","true","false","false","""event"",""trial"",""time""
""fullscreenenter"",""5"",""15120""
","
","
","""event"",""trial"",""time""
""fullscreenenter"",""5"",""15120""
","
","387.2000000011176","","49","","","3000","1","","","images/tutyellowplanet.jpg","images/tutalien4","images/tutalien3","images/tutrocket2","images/tutalien3","images/t.png","2","practice","true","1","common","1","2022-02-16 01:36:23.113"
"two-step-fixation","93","430842","0.0-61.0-2.10","190","739","12","Male","true","true","false","false","""event"",""trial"",""time""
""fullscreenenter"",""5"",""15120""
","
","
","""event"",""trial"",""time""
""fullscreenenter"",""5"",""15120""
","
","","images/earth.jpg","","","","","","","","","","","","","","fixation","","","","","",""
"d3-animate-choice","94","433237","0.0-61.0-0.11","190","739","12","Male","true","true","false","false","""event"",""trial"",""time""
""fullscreenenter"",""5"",""15120""
","
","
","""event"",""trial"",""time""
""fullscreenenter"",""5"",""15120""
","
","384.2999999988824","","48","","","3000","1","","","images/earth.jpg","images/tutrocket2","images/tutrocket1","null","images/tutrocket2","","1","practice","null","2","","",""
"d3-animate-choice","95","435579","0.0-61.0-1.11","190","739","12","Male","true","true","false","false","""event"",""trial"",""time""
""fullscreenenter"",""5"",""15120""
","
","
","""event"",""trial"",""time""
""fullscreenenter"",""5"",""15120""
","
","335.5","","49","","","3000","1","","","images/tutyellowplanet.jpg","images/tutalien4","images/tutalien3","images/tutrocket2","images/tutalien3","images/nothing.png","2","practice","true","1","common","0","2022-02-16 01:36:28.856"
"two-step-fixation","96","436584","0.0-61.0-2.11","190","739","12","Male","true","true","false","false","""event"",""trial"",""time""
""fullscreenenter"",""5"",""15120""
","
","
","""event"",""trial"",""time""
""fullscreenenter"",""5"",""15120""
","
","","images/earth.jpg","","","","","","","","","","","","","","fixation","","","","","",""
"d3-animate-choice","97","439050","0.0-61.0-0.12","190","739","12","Male","true","true","false","false","""event"",""trial"",""time""
""fullscreenenter"",""5"",""15120""
","
","
","""event"",""trial"",""time""
""fullscreenenter"",""5"",""15120""
","
","460.2000000011176","","48","","","3000","1","","","images/earth.jpg","images/tutrocket2","images/tutrocket1","null","images/tutrocket2","","1","practice","null","2","","",""
"d3-animate-choice","98","441276","0.0-61.0-1.12","190","739","12","Male","true","true","false","false","""event"",""trial"",""time""
""fullscreenenter"",""5"",""15120""
","
","
","""event"",""trial"",""time""
""fullscreenenter"",""5"",""15120""
","
","217","","49","","","3000","1","","","images/tutgreenplanet.jpg","images/tutalien2","images/tutalien1","images/tutrocket2","images/tutalien1","images/t.png","2","practice","false","1","rare","1","2022-02-16 01:36:34.553"
"two-step-fixation","99","442280","0.0-61.0-2.12","190","739","12","Male","true","true","false","false","""event"",""trial"",""time""
""fullscreenenter"",""5"",""15120""
","
","
","""event"",""trial"",""time""
""fullscreenenter"",""5"",""15120""
","
","","images/earth.jpg","","","","","","","","","","","","","","fixation","","","","","",""
"d3-animate-choice","100","444593","0.0-61.0-0.13","190","739","12","Male","true","true","false","false","""event"",""trial"",""time""
""fullscreenenter"",""5"",""15120""
","
","
","""event"",""trial"",""time""
""fullscreenenter"",""5"",""15120""
","
","306.30000000074506","","49","","","3000","1","","","images/earth.jpg","images/tutrocket2","images/tutrocket1","null","images/tutrocket1","","1","practice","null","1","","",""
"d3-animate-choice","101","447167","0.0-61.0-1.13","190","739","12","Male","true","true","false","false","""event"",""trial"",""time""
""fullscreenenter"",""5"",""15120""
","
","
","""event"",""trial"",""time""
""fullscreenenter"",""5"",""15120""
","
","565","","49","","","3000","1","","","images/tutgreenplanet.jpg","images/tutalien2","images/tutalien1","images/tutrocket1","images/tutalien1","images/t.png","2","practice","true","1","common","1","2022-02-16 01:36:40.444"
"two-step-fixation","102","448172","0.0-61.0-2.13","190","739","12","Male","true","true","false","false","""event"",""trial"",""time""
""fullscreenenter"",""5"",""15120""
","
","
","""event"",""trial"",""time""
""fullscreenenter"",""5"",""15120""
","
","","images/earth.jpg","","","","","","","","","","","","","","fixation","","","","","",""
"d3-animate-choice","103","450384","0.0-61.0-0.14","190","739","12","Male","true","true","false","false","""event"",""trial"",""time""
""fullscreenenter"",""5"",""15120""
","
","
","""event"",""trial"",""time""
""fullscreenenter"",""5"",""15120""
","
","204.19999999925494","","49","","","3000","1","","","images/earth.jpg","images/tutrocket2","images/tutrocket1","null","images/tutrocket1","","1","practice","null","1","","",""
"d3-animate-choice","104","453204","0.0-61.0-1.14","190","739","12","Male","true","true","false","false","""event"",""trial"",""time""
""fullscreenenter"",""5"",""15120""
","
","
","""event"",""trial"",""time""
""fullscreenenter"",""5"",""15120""
","
","811.3000000007451","","49","","","3000","1","","","images/tutyellowplanet.jpg","images/tutalien4","images/tutalien3","images/tutrocket1","images/tutalien3","images/t.png","2","practice","false","1","rare","1","2022-02-16 01:36:46.481"
"two-step-fixation","105","454209","0.0-61.0-2.14","190","739","12","Male","true","true","false","false","""event"",""trial"",""time""
""fullscreenenter"",""5"",""15120""
","
","
","""event"",""trial"",""time""
""fullscreenenter"",""5"",""15120""
","
","","images/earth.jpg","","","","","","","","","","","","","","fixation","","","","","",""
"d3-animate-choice","106","456569","0.0-61.0-0.15","190","739","12","Male","true","true","false","false","""event"",""trial"",""time""
""fullscreenenter"",""5"",""15120""
","
","
","""event"",""trial"",""time""
""fullscreenenter"",""5"",""15120""
","
","353.80000000074506","","49","","","3000","1","","","images/earth.jpg","images/tutrocket2","images/tutrocket1","null","images/tutrocket1","","1","practice","null","1","","",""
"d3-animate-choice","107","459251","0.0-61.0-1.15","190","739","12","Male","true","true","false","false","""event"",""trial"",""time""
""fullscreenenter"",""5"",""15120""
","
","
","""event"",""trial"",""time""
""fullscreenenter"",""5"",""15120""
","
","674.1999999992549","","49","","","3000","1","","","images/tutgreenplanet.jpg","images/tutalien2","images/tutalien1","images/tutrocket1","images/tutalien1","images/nothing.png","2","practice","true","1","common","0","2022-02-16 01:36:52.528"
"two-step-fixation","108","460256","0.0-61.0-2.15","190","739","12","Male","true","true","false","false","""event"",""trial"",""time""
""fullscreenenter"",""5"",""15120""
","
","
","""event"",""trial"",""time""
""fullscreenenter"",""5"",""15120""
","
","","images/earth.jpg","","","","","","","","","","","","","","fixation","","","","","",""
"d3-animate-choice","109","462383","0.0-61.0-0.16","190","739","12","Male","true","true","false","false","""event"",""trial"",""time""
""fullscreenenter"",""5"",""15120""
","
","
","""event"",""trial"",""time""
""fullscreenenter"",""5"",""15120""
","
","119","","49","","","3000","1","","","images/earth.jpg","images/tutrocket2","images/tutrocket1","null","images/tutrocket1","","1","practice","null","1","","",""
"d3-animate-choice","110","464692","0.0-61.0-1.16","190","739","12","Male","true","true","false","false","""event"",""trial"",""time""
""fullscreenenter"",""5"",""15120""
","
","
","""event"",""trial"",""time""
""fullscreenenter"",""5"",""15120""
","
","299.80000000074506","","49","","","3000","1","","","images/tutgreenplanet.jpg","images/tutalien2","images/tutalien1","images/tutrocket1","images/tutalien1","images/nothing.png","2","practice","true","1","common","0","2022-02-16 01:36:57.970"
"two-step-fixation","111","465698","0.0-61.0-2.16","190","739","12","Male","true","true","false","false","""event"",""trial"",""time""
""fullscreenenter"",""5"",""15120""
","
","
","""event"",""trial"",""time""
""fullscreenenter"",""5"",""15120""
","
","","images/earth.jpg","","","","","","","","","","","","","","fixation","","","","","",""
"d3-animate-choice","112","468573","0.0-61.0-0.17","190","739","12","Male","true","true","false","false","""event"",""trial"",""time""
""fullscreenenter"",""5"",""15120""
","
","
","""event"",""trial"",""time""
""fullscreenenter"",""5"",""15120""
","
","868.5999999996275","","48","","","3000","1","","","images/earth.jpg","images/tutrocket2","images/tutrocket1","null","images/tutrocket2","","1","practice","null","2","","",""
"d3-animate-choice","113","471257","0.0-61.0-1.17","190","739","12","Male","true","true","false","false","""event"",""trial"",""time""
""fullscreenenter"",""5"",""15120""
","
","
","""event"",""trial"",""time""
""fullscreenenter"",""5"",""15120""
","
","677","","49","","","3000","1","","","images/tutyellowplanet.jpg","images/tutalien4","images/tutalien3","images/tutrocket2","images/tutalien3","images/nothing.png","2","practice","true","1","common","0","2022-02-16 01:37:04.534"
"two-step-fixation","114","472261","0.0-61.0-2.17","190","739","12","Male","true","true","false","false","""event"",""trial"",""time""
""fullscreenenter"",""5"",""15120""
","
","
","""event"",""trial"",""time""
""fullscreenenter"",""5"",""15120""
","
","","images/earth.jpg","","","","","","","","","","","","","","fixation","","","","","",""
"d3-animate-choice","115","474381","0.0-61.0-0.18","190","739","12","Male","true","true","false","false","""event"",""trial"",""time""
""fullscreenenter"",""5"",""15120""
","
","
","""event"",""trial"",""time""
""fullscreenenter"",""5"",""15120""
","
","114.30000000074506","","48","","","3000","1","","","images/earth.jpg","images/tutrocket2","images/tutrocket1","null","images/tutrocket2","","1","practice","null","2","","",""
"d3-animate-choice","116","476760","0.0-61.0-1.18","190","739","12","Male","true","true","false","false","""event"",""trial"",""time""
""fullscreenenter"",""5"",""15120""
","
","
","""event"",""trial"",""time""
""fullscreenenter"",""5"",""15120""
","
","369.80000000074506","","48","","","3000","1","2246.9000000003725","49","images/tutyellowplanet.jpg","images/tutalien4","images/tutalien3","images/tutrocket2","images/tutalien4","images/t.png","2","practice","true","2","common","1","2022-02-16 01:37:10.037"
"two-step-fixation","117","477766","0.0-61.0-2.18","190","739","12","Male","true","true","false","false","""event"",""trial"",""time""
""fullscreenenter"",""5"",""15120""
","
","
","""event"",""trial"",""time""
""fullscreenenter"",""5"",""15120""
","
","","images/earth.jpg","","","","","","","","","","","","","","fixation","","","","","",""
"d3-animate-choice","118","480042","0.0-61.0-0.19","190","739","12","Male","true","true","false","false","""event"",""trial"",""time""
""fullscreenenter"",""5"",""15120""
","
","
","""event"",""trial"",""time""
""fullscreenenter"",""5"",""15120""
","
","268.69999999925494","","48","","","3000","1","","","images/earth.jpg","images/tutrocket2","images/tutrocket1","null","images/tutrocket2","","1","practice","null","2","","",""
"d3-animate-choice","119","482385","0.0-61.0-1.19","190","739","12","Male","true","true","false","false","""event"",""trial"",""time""
""fullscreenenter"",""5"",""15120""
","
","
","""event"",""trial"",""time""
""fullscreenenter"",""5"",""15120""
","
","335.1000000014901","","48","","","3000","1","","","images/tutyellowplanet.jpg","images/tutalien4","images/tutalien3","images/tutrocket2","images/tutalien4","images/nothing.png","2","practice","true","2","common","0","2022-02-16 01:37:15.662"
"two-step-fixation","120","483390","0.0-61.0-2.19","190","739","12","Male","true","true","false","false","""event"",""trial"",""time""
""fullscreenenter"",""5"",""15120""
","
","
","""event"",""trial"",""time""
""fullscreenenter"",""5"",""15120""
","
","","images/earth.jpg","","","","","","","","","","","","","","fixation","","","","","",""
"d3-instructions","121","490168","0.0-62.0","190","739","12","Male","true","true","false","false","""event"",""trial"",""time""
""fullscreenenter"",""5"",""15120""
","
","
","""event"",""trial"",""time""
""fullscreenenter"",""5"",""15120""
","
","","","","","","","","","","","","","","","","","","","","","",""
"audio-keyboard-response","122","494772","0.0-63.0","190","739","12","Male","true","true","false","false","""event"",""trial"",""time""
""fullscreenenter"",""5"",""15120""
","
","
","""event"",""trial"",""time""
""fullscreenenter"",""5"",""15120""
","
","4608","audio/instructions/treasure_feedback.wav","32","","","","","","","","","","","","","","","","","","",""
"d3-instructions","123","507899","0.0-64.0","190","739","12","Male","true","true","false","false","""event"",""trial"",""time""
""fullscreenenter"",""5"",""15120""
","
","
","""event"",""trial"",""time""
""fullscreenenter"",""5"",""15120""
","
","","","","","","","","","","","","","","","","","","","","","",""
"d3-instructions","124","525751","0.0-65.0","190","739","12","Male","true","true","false","false","""event"",""trial"",""time""
""fullscreenenter"",""5"",""15120""
","
","
","""event"",""trial"",""time""
""fullscreenenter"",""5"",""15120""
","
","","","","","","","","","","","","","","","","","","","","","",""
"d3-instructions","125","550301","0.0-66.0","190","739","12","Male","true","true","false","false","""event"",""trial"",""time""
""fullscreenenter"",""5"",""15120""
","
","
","""event"",""trial"",""time""
""fullscreenenter"",""5"",""15120""
","
","","","","","","","","","","","","","","","","","","","","","",""
"d3-instructions","126","566968","0.0-67.0","190","739","12","Male","true","true","false","false","""event"",""trial"",""time""
""fullscreenenter"",""5"",""15120""
","
","
","""event"",""trial"",""time""
""fullscreenenter"",""5"",""15120""
","
","","","","","","","","","","","","","","","","","","","","","",""
"d3-instructions","127","570248","0.0-68.0","190","739","12","Male","true","true","false","false","""event"",""trial"",""time""
""fullscreenenter"",""5"",""15120""
","
","
","""event"",""trial"",""time""
""fullscreenenter"",""5"",""15120""
","
","","","","","","","","","","","","","","","","","","","","","",""
"instructions-quiz","128","574060","0.0-69.0","190","739","12","Male","true","true","false","false","""event"",""trial"",""time""
""fullscreenenter"",""5"",""15120""
","
","
","""event"",""trial"",""time""
""fullscreenenter"",""5"",""15120""
","
","3803.2999999988824","audio/quiz/Q1_Prompt.wav","","1","","","","","","","","","","","","","","","","","",""
"audio-keyboard-response","129","577047","0.0-70.0","190","739","12","Male","true","true","false","false","""event"",""trial"",""time""
""fullscreenenter"",""5"",""15120""
","
","
","""event"",""trial"",""time""
""fullscreenenter"",""5"",""15120""
","
","2976","audio/quiz/Q1_Correct.wav","32","","","","","","","","","","","","","","","","","","",""
"instructions-quiz","130","581132","0.0-71.0","190","739","12","Male","true","true","false","false","""event"",""trial"",""time""
""fullscreenenter"",""5"",""15120""
","
","
","""event"",""trial"",""time""
""fullscreenenter"",""5"",""15120""
","
","4076.60000000149","audio/quiz/Q2_Prompt.wav","","0","","","","","","","","","","","","","","","","","",""
"audio-keyboard-response","131","587795","0.0-72.0","190","739","12","Male","true","true","false","false","""event"",""trial"",""time""
""fullscreenenter"",""5"",""15120""
","
","
","""event"",""trial"",""time""
""fullscreenenter"",""5"",""15120""
","
","6667","audio/quiz/Q2_Correct.wav","32","","","","","","","","","","","","","","","","","","",""
"instructions-quiz","132","590773","0.0-73.0","190","739","12","Male","true","true","false","false","""event"",""trial"",""time""
""fullscreenenter"",""5"",""15120""
","
","
","""event"",""trial"",""time""
""fullscreenenter"",""5"",""15120""
","
","2969.800000000745","audio/quiz/Q3_Prompt.wav","","1","","","","","","","","","","","","","","","","","",""
"audio-keyboard-response","133","592114","0.0-74.0","190","739","12","Male","true","true","false","false","""event"",""trial"",""time""
""fullscreenenter"",""5"",""15120""
","
","
","""event"",""trial"",""time""
""fullscreenenter"",""5"",""15120""
","
","1344","audio/quiz/Q3_Correct.wav","32","","","","","","","","","","","","","","","","","","",""
"d3-instructions","134","596542","0.0-75.0","190","739","12","Male","true","true","false","false","""event"",""trial"",""time""
""fullscreenenter"",""5"",""15120""
","
","
","""event"",""trial"",""time""
""fullscreenenter"",""5"",""15120""
","
","","","","","","","","","","","","","","","","","","","","","",""
"d3-animate-choice","135","600282","0.0-76.0-0.0","190","739","12","Male","true","true","false","false","""event"",""trial"",""time""
""fullscreenenter"",""5"",""15120""
","
","
","""event"",""trial"",""time""
""fullscreenenter"",""5"",""15120""
","
","1734.5","","49","","","3000","1","","","images/earth.jpg","images/rocket2","images/rocket1","null","images/rocket1","","1","real","null","1","","",""
"d3-animate-choice","136","602869","0.0-76.0-1.0","190","739","12","Male","true","true","false","false","""event"",""trial"",""time""
""fullscreenenter"",""5"",""15120""
","
","
","""event"",""trial"",""time""
""fullscreenenter"",""5"",""15120""
","
","579.3999999985099","","49","","","3000","1","","","images/redplanet1.jpg","images/alien2","images/alien1","images/rocket1","images/alien1","images/nothing.png","2","real","true","1","common","0","2022-02-16 01:39:16.147"
"two-step-fixation","137","603874","0.0-76.0-2.0","190","739","12","Male","true","true","false","false","""event"",""trial"",""time""
""fullscreenenter"",""5"",""15120""
","
","
","""event"",""trial"",""time""
""fullscreenenter"",""5"",""15120""
","
","","images/earth.jpg","","","","","","","","","","","","","","fixation","","","","","",""
"d3-animate-choice","138","606163","0.0-76.0-0.1","190","739","12","Male","true","true","false","false","""event"",""trial"",""time""
""fullscreenenter"",""5"",""15120""
","
","
","""event"",""trial"",""time""
""fullscreenenter"",""5"",""15120""
","
","280.90000000037253","","49","","","3000","1","","","images/earth.jpg","images/rocket2","images/rocket1","null","images/rocket1","","1","real","null","1","","",""
"d3-animate-choice","139","608666","0.0-76.0-1.1","190","739","12","Male","true","true","false","false","""event"",""trial"",""time""
""fullscreenenter"",""5"",""15120""
","
","
","""event"",""trial"",""time""
""fullscreenenter"",""5"",""15120""
","
","495.5","","48","","","3000","1","","","images/redplanet1.jpg","images/alien2","images/alien1","images/rocket1","images/alien2","images/t.png","2","real","true","2","common","1","2022-02-16 01:39:21.943"
"two-step-fixation","140","609670","0.0-76.0-2.1","190","739","12","Male","true","true","false","false","""event"",""trial"",""time""
""fullscreenenter"",""5"",""15120""
","
","
","""event"",""trial"",""time""
""fullscreenenter"",""5"",""15120""
","
","","images/earth.jpg","","","","","","","","","","","","","","fixation","","","","","",""
"d3-animate-choice","141","612470","0.0-76.0-0.2","190","739","12","Male","true","true","false","false","""event"",""trial"",""time""
""fullscreenenter"",""5"",""15120""
","
","
","""event"",""trial"",""time""
""fullscreenenter"",""5"",""15120""
","
","794","","48","","","3000","1","","","images/earth.jpg","images/rocket2","images/rocket1","null","images/rocket2","","1","real","null","2","","",""
"d3-animate-choice","142","614885","0.0-76.0-1.2","190","739","12","Male","true","true","false","false","""event"",""trial"",""time""
""fullscreenenter"",""5"",""15120""
","
","
","""event"",""trial"",""time""
""fullscreenenter"",""5"",""15120""
","
","407.5","","49","","","3000","1","","","images/purpleplanet.jpg","images/alien4","images/alien3","images/rocket2","images/alien3","images/t.png","2","real","true","1","common","1","2022-02-16 01:39:28.162"
"two-step-fixation","143","615890","0.0-76.0-2.2","190","739","12","Male","true","true","false","false","""event"",""trial"",""time""
""fullscreenenter"",""5"",""15120""
","
","
","""event"",""trial"",""time""
""fullscreenenter"",""5"",""15120""
","
","","images/earth.jpg","","","","","","","","","","","","","","fixation","","","","","",""
"d3-animate-choice","144","618520","0.0-76.0-0.3","190","739","12","Male","true","true","false","false","""event"",""trial"",""time""
""fullscreenenter"",""5"",""15120""
","
","
","""event"",""trial"",""time""
""fullscreenenter"",""5"",""15120""
","
","624.9000000003725","","48","","","3000","1","","","images/earth.jpg","images/rocket2","images/rocket1","null","images/rocket2","","1","real","null","2","","",""
"d3-animate-choice","145","620782","0.0-76.0-1.3","190","739","12","Male","true","true","false","false","""event"",""trial"",""time""
""fullscreenenter"",""5"",""15120""
","
","
","""event"",""trial"",""time""
""fullscreenenter"",""5"",""15120""
","
","255.19999999925494","","48","","","3000","1","","","images/redplanet1.jpg","images/alien2","images/alien1","images/rocket2","images/alien2","images/nothing.png","2","real","false","2","rare","0","2022-02-16 01:39:34.059"
"two-step-fixation","146","621788","0.0-76.0-2.3","190","739","12","Male","true","true","false","false","""event"",""trial"",""time""
""fullscreenenter"",""5"",""15120""
","
","
","""event"",""trial"",""time""
""fullscreenenter"",""5"",""15120""
","
","","images/earth.jpg","","","","","","","","","","","","","","fixation","","","","","",""
"d3-animate-choice","147","624651","0.0-76.0-0.4","190","739","12","Male","true","true","false","false","""event"",""trial"",""time""
""fullscreenenter"",""5"",""15120""
","
","
","""event"",""trial"",""time""
""fullscreenenter"",""5"",""15120""
","
","857.7000000011176","","49","","","3000","1","","","images/earth.jpg","images/rocket2","images/rocket1","null","images/rocket1","","1","real","null","1","","",""
"d3-animate-choice","148","627386","0.0-76.0-1.4","190","739","12","Male","true","true","false","false","""event"",""trial"",""time""
""fullscreenenter"",""5"",""15120""
","
","
","""event"",""trial"",""time""
""fullscreenenter"",""5"",""15120""
","
","725.8000000007451","","48","","","3000","1","","","images/purpleplanet.jpg","images/alien4","images/alien3","images/rocket1","images/alien4","images/t.png","2","real","false","2","rare","1","2022-02-16 01:39:40.663"
"two-step-fixation","149","628391","0.0-76.0-2.4","190","739","12","Male","true","true","false","false","""event"",""trial"",""time""
""fullscreenenter"",""5"",""15120""
","
","
","""event"",""trial"",""time""
""fullscreenenter"",""5"",""15120""
","
","","images/earth.jpg","","","","","","","","","","","","","","fixation","","","","","",""
"d3-animate-choice","150","630639","0.0-76.0-0.5","190","739","12","Male","true","true","false","false","""event"",""trial"",""time""
""fullscreenenter"",""5"",""15120""
","
","
","""event"",""trial"",""time""
""fullscreenenter"",""5"",""15120""
","
","241.59999999962747","","49","","","3000","1","","","images/earth.jpg","images/rocket2","images/rocket1","null","images/rocket1","","1","real","null","1","","",""
"d3-animate-choice","151","632881","0.0-76.0-1.5","190","739","12","Male","true","true","false","false","""event"",""trial"",""time""
""fullscreenenter"",""5"",""15120""
","
","
","""event"",""trial"",""time""
""fullscreenenter"",""5"",""15120""
","
","234","","48","","","3000","1","","","images/purpleplanet.jpg","images/alien4","images/alien3","images/rocket1","images/alien4","images/t.png","2","real","false","2","rare","1","2022-02-16 01:39:46.158"
"two-step-fixation","152","633886","0.0-76.0-2.5","190","739","12","Male","true","true","false","false","""event"",""trial"",""time""
""fullscreenenter"",""5"",""15120""
","
","
","""event"",""trial"",""time""
""fullscreenenter"",""5"",""15120""
","
","","images/earth.jpg","","","","","","","","","","","","","","fixation","","","","","",""
"d3-animate-choice","153","636296","0.0-76.0-0.6","190","739","12","Male","true","true","false","false","""event"",""trial"",""time""
""fullscreenenter"",""5"",""15120""
","
","
","""event"",""trial"",""time""
""fullscreenenter"",""5"",""15120""
","
","404.09999999962747","","49","","","3000","1","","","images/earth.jpg","images/rocket2","images/rocket1","null","images/rocket1","","1","real","null","1","","",""
"d3-animate-choice","154","638920","0.0-76.0-1.6","190","739","12","Male","true","true","false","false","""event"",""trial"",""time""
""fullscreenenter"",""5"",""15120""
","
","
","""event"",""trial"",""time""
""fullscreenenter"",""5"",""15120""
","
","617.0999999996275","","48","","","3000","1","","","images/redplanet1.jpg","images/alien2","images/alien1","images/rocket1","images/alien2","images/nothing.png","2","real","true","2","common","0","2022-02-16 01:39:52.197"
"two-step-fixation","155","639925","0.0-76.0-2.6","190","739","12","Male","true","true","false","false","""event"",""trial"",""time""
""fullscreenenter"",""5"",""15120""
","
","
","""event"",""trial"",""time""
""fullscreenenter"",""5"",""15120""
","
","","images/earth.jpg","","","","","","","","","","","","","","fixation","","","","","",""
"d3-animate-choice","156","643054","0.0-76.0-0.7","190","739","12","Male","true","true","false","false","""event"",""trial"",""time""
""fullscreenenter"",""5"",""15120""
","
","
","""event"",""trial"",""time""
""fullscreenenter"",""5"",""15120""
","
","1123.9000000003725","","48","","","3000","1","","","images/earth.jpg","images/rocket2","images/rocket1","null","images/rocket2","","1","real","null","2","","",""
"d3-animate-choice","157","645688","0.0-76.0-1.7","190","739","12","Male","true","true","false","false","""event"",""trial"",""time""
""fullscreenenter"",""5"",""15120""
","
","
","""event"",""trial"",""time""
""fullscreenenter"",""5"",""15120""
","
","625.0999999996275","","48","","","3000","1","","","images/purpleplanet.jpg","images/alien4","images/alien3","images/rocket2","images/alien4","images/nothing.png","2","real","true","2","common","0","2022-02-16 01:39:58.965"
"two-step-fixation","158","646692","0.0-76.0-2.7","190","739","12","Male","true","true","false","false","""event"",""trial"",""time""
""fullscreenenter"",""5"",""15120""
","
","
","""event"",""trial"",""time""
""fullscreenenter"",""5"",""15120""
","
","","images/earth.jpg","","","","","","","","","","","","","","fixation","","","","","",""
"d3-animate-choice","159","649116","0.0-76.0-0.8","190","739","12","Male","true","true","false","false","""event"",""trial"",""time""
""fullscreenenter"",""5"",""15120""
","
","
","""event"",""trial"",""time""
""fullscreenenter"",""5"",""15120""
","
","417.5","","49","","","3000","1","","","images/earth.jpg","images/rocket2","images/rocket1","null","images/rocket1","","1","real","null","1","","",""
"d3-animate-choice","160","651829","0.0-76.0-1.8","190","739","12","Male","true","true","false","false","""event"",""trial"",""time""
""fullscreenenter"",""5"",""15120""
","
","
","""event"",""trial"",""time""
""fullscreenenter"",""5"",""15120""
","
","704","","48","","","3000","1","","","images/redplanet1.jpg","images/alien2","images/alien1","images/rocket1","images/alien2","images/t.png","2","real","true","2","common","1","2022-02-16 01:40:05.106"
"two-step-fixation","161","652835","0.0-76.0-2.8","190","739","12","Male","true","true","false","false","""event"",""trial"",""time""
""fullscreenenter"",""5"",""15120""
","
","
","""event"",""trial"",""time""
""fullscreenenter"",""5"",""15120""
","
","","images/earth.jpg","","","","","","","","","","","","","","fixation","","","","","",""
"d3-animate-choice","162","655501","0.0-76.0-0.9","190","739","12","Male","true","true","false","false","""event"",""trial"",""time""
""fullscreenenter"",""5"",""15120""
","
","
","""event"",""trial"",""time""
""fullscreenenter"",""5"",""15120""
","
","658.2000000011176","","49","","","3000","1","","","images/earth.jpg","images/rocket2","images/rocket1","null","images/rocket1","","1","real","null","1","","",""
"d3-animate-choice","163","657896","0.0-76.0-1.9","190","739","12","Male","true","true","false","false","""event"",""trial"",""time""
""fullscreenenter"",""5"",""15120""
","
","
","""event"",""trial"",""time""
""fullscreenenter"",""5"",""15120""
","
","384.59999999962747","","48","","","3000","1","","","images/redplanet1.jpg","images/alien2","images/alien1","images/rocket1","images/alien2","images/t.png","2","real","true","2","common","1","2022-02-16 01:40:11.173"
"two-step-fixation","164","658906","0.0-76.0-2.9","190","739","12","Male","true","true","false","false","""event"",""trial"",""time""
""fullscreenenter"",""5"",""15120""
","
","
","""event"",""trial"",""time""
""fullscreenenter"",""5"",""15120""
","
","","images/earth.jpg","","","","","","","","","","","","","","fixation","","","","","",""
"d3-animate-choice","165","661186","0.0-76.0-0.10","190","739","12","Male","true","true","false","false","""event"",""trial"",""time""
""fullscreenenter"",""5"",""15120""
","
","
","""event"",""trial"",""time""
""fullscreenenter"",""5"",""15120""
","
","273.80000000074506","","49","","","3000","1","","","images/earth.jpg","images/rocket2","images/rocket1","null","images/rocket1","","1","real","null","1","","",""
"d3-animate-choice","166","663454","0.0-76.0-1.10","190","739","12","Male","true","true","false","false","""event"",""trial"",""time""
""fullscreenenter"",""5"",""15120""
","
","
","""event"",""trial"",""time""
""fullscreenenter"",""5"",""15120""
","
","259.3999999985099","","48","","","3000","1","","","images/purpleplanet.jpg","images/alien4","images/alien3","images/rocket1","images/alien4","images/t.png","2","real","false","2","rare","1","2022-02-16 01:40:16.731"
"two-step-fixation","167","664458","0.0-76.0-2.10","190","739","12","Male","true","true","false","false","""event"",""trial"",""time""
""fullscreenenter"",""5"",""15120""
","
","
","""event"",""trial"",""time""
""fullscreenenter"",""5"",""15120""
","
","","images/earth.jpg","","","","","","","","","","","","","","fixation","","","","","",""
"d3-animate-choice","168","666895","0.0-76.0-0.11","190","739","12","Male","true","true","false","false","""event"",""trial"",""time""
""fullscreenenter"",""5"",""15120""
","
","
","""event"",""trial"",""time""
""fullscreenenter"",""5"",""15120""
","
","430.09999999962747","","49","","","3000","1","","","images/earth.jpg","images/rocket2","images/rocket1","null","images/rocket1","","1","real","null","1","","",""
"d3-animate-choice","169","669471","0.0-76.0-1.11","190","739","12","Male","true","true","false","false","""event"",""trial"",""time""
""fullscreenenter"",""5"",""15120""
","
","
","""event"",""trial"",""time""
""fullscreenenter"",""5"",""15120""
","
","569.3999999985099","","48","","","3000","1","","","images/purpleplanet.jpg","images/alien4","images/alien3","images/rocket1","images/alien4","images/t.png","2","real","false","2","rare","1","2022-02-16 01:40:22.748"
"two-step-fixation","170","670476","0.0-76.0-2.11","190","739","12","Male","true","true","false","false","""event"",""trial"",""time""
""fullscreenenter"",""5"",""15120""
","
","
","""event"",""trial"",""time""
""fullscreenenter"",""5"",""15120""
","
","","images/earth.jpg","","","","","","","","","","","","","","fixation","","","","","",""
"d3-animate-choice","171","672796","0.0-76.0-0.12","190","739","12","Male","true","true","false","false","""event"",""trial"",""time""
""fullscreenenter"",""5"",""15120""
","
","
","""event"",""trial"",""time""
""fullscreenenter"",""5"",""15120""
","
","315.30000000074506","","49","","","3000","1","","","images/earth.jpg","images/rocket2","images/rocket1","null","images/rocket1","","1","real","null","1","","",""
"d3-animate-choice","172","675313","0.0-76.0-1.12","190","739","12","Male","true","true","false","false","""event"",""trial"",""time""
""fullscreenenter"",""5"",""15120""
","
","
","""event"",""trial"",""time""
""fullscreenenter"",""5"",""15120""
","
","509.69999999925494","","48","","","3000","1","","","images/redplanet1.jpg","images/alien2","images/alien1","images/rocket1","images/alien2","images/t.png","2","real","true","2","common","1","2022-02-16 01:40:28.590"
"two-step-fixation","173","676317","0.0-76.0-2.12","190","739","12","Male","true","true","false","false","""event"",""trial"",""time""
""fullscreenenter"",""5"",""15120""
","
","
","""event"",""trial"",""time""
""fullscreenenter"",""5"",""15120""
","
","","images/earth.jpg","","","","","","","","","","","","","","fixation","","","","","",""
"d3-animate-choice","174","678663","0.0-76.0-0.13","190","739","12","Male","true","true","false","false","""event"",""trial"",""time""
""fullscreenenter"",""5"",""15120""
","
","
","""event"",""trial"",""time""
""fullscreenenter"",""5"",""15120""
","
","340.2999999988824","","49","","","3000","1","","","images/earth.jpg","images/rocket2","images/rocket1","null","images/rocket1","","1","real","null","1","","",""
"d3-animate-choice","175","681108","0.0-76.0-1.13","190","739","12","Male","true","true","false","false","""event"",""trial"",""time""
""fullscreenenter"",""5"",""15120""
","
","
","""event"",""trial"",""time""
""fullscreenenter"",""5"",""15120""
","
","438.6000000014901","","48","","","3000","1","","","images/purpleplanet.jpg","images/alien4","images/alien3","images/rocket1","images/alien4","images/t.png","2","real","false","2","rare","1","2022-02-16 01:40:34.385"
"two-step-fixation","176","682114","0.0-76.0-2.13","190","739","12","Male","true","true","false","false","""event"",""trial"",""time""
""fullscreenenter"",""5"",""15120""
","
","
","""event"",""trial"",""time""
""fullscreenenter"",""5"",""15120""
","
","","images/earth.jpg","","","","","","","","","","","","","","fixation","","","","","",""
"d3-animate-choice","177","684379","0.0-76.0-0.14","190","739","12","Male","true","true","false","false","""event"",""trial"",""time""
""fullscreenenter"",""5"",""15120""
","
","
","""event"",""trial"",""time""
""fullscreenenter"",""5"",""15120""
","
","256.90000000037253","","49","","","3000","1","","","images/earth.jpg","images/rocket2","images/rocket1","null","images/rocket1","","1","real","null","1","","",""
"d3-animate-choice","178","686817","0.0-76.0-1.14","190","739","12","Male","true","true","false","false","""event"",""trial"",""time""
""fullscreenenter"",""5"",""15120""
","
","
","""event"",""trial"",""time""
""fullscreenenter"",""5"",""15120""
","
","430.69999999925494","","48","","","3000","1","","","images/purpleplanet.jpg","images/alien4","images/alien3","images/rocket1","images/alien4","images/t.png","2","real","false","2","rare","1","2022-02-16 01:40:40.094"
"two-step-fixation","179","687821","0.0-76.0-2.14","190","739","12","Male","true","true","false","false","""event"",""trial"",""time""
""fullscreenenter"",""5"",""15120""
","
","
","""event"",""trial"",""time""
""fullscreenenter"",""5"",""15120""
","
","","images/earth.jpg","","","","","","","","","","","","","","fixation","","","","","",""
"d3-animate-choice","180","689838","0.0-76.0-0.15","190","739","12","Male","true","true","false","false","""event"",""trial"",""time""
""fullscreenenter"",""5"",""15120""
","
","
","""event"",""trial"",""time""
""fullscreenenter"",""5"",""15120""
","
","11.199999999254942","","49","","","3000","1","1885.7999999988824","48","images/earth.jpg","images/rocket2","images/rocket1","null","images/rocket1","","1","real","null","1","","",""
"d3-animate-choice","181","692409","0.0-76.0-1.15","190","739","12","Male","true","true","false","false","""event"",""trial"",""time""
""fullscreenenter"",""5"",""15120""
","
","
","""event"",""trial"",""time""
""fullscreenenter"",""5"",""15120""
","
","563","","48","","","3000","1","","","images/redplanet1.jpg","images/alien2","images/alien1","images/rocket1","images/alien2","images/nothing.png","2","real","true","2","common","0","2022-02-16 01:40:45.686"
"two-step-fixation","182","693417","0.0-76.0-2.15","190","739","12","Male","true","true","false","false","""event"",""trial"",""time""
""fullscreenenter"",""5"",""15120""
","
","
","""event"",""trial"",""time""
""fullscreenenter"",""5"",""15120""
","
","","images/earth.jpg","","","","","","","","","","","","","","fixation","","","","","",""
"d3-animate-choice","183","696008","0.0-76.0-0.16","190","739","12","Male","true","true","false","false","""event"",""trial"",""time""
""fullscreenenter"",""5"",""15120""
","
","
","""event"",""trial"",""time""
""fullscreenenter"",""5"",""15120""
","
","583.5","","49","","","3000","1","2035.699999999255,2499.5","48,48","images/earth.jpg","images/rocket2","images/rocket1","null","images/rocket1","","1","real","null","1","","",""
"d3-animate-choice","184","698281","0.0-76.0-1.16","190","739","12","Male","true","true","false","false","""event"",""trial"",""time""
""fullscreenenter"",""5"",""15120""
","
","
","""event"",""trial"",""time""
""fullscreenenter"",""5"",""15120""
","
","265.5","","48","","","3000","1","","","images/purpleplanet.jpg","images/alien4","images/alien3","images/rocket1","images/alien4","images/nothing.png","2","real","false","2","rare","0","2022-02-16 01:40:51.558"
"two-step-fixation","185","699285","0.0-76.0-2.16","190","739","12","Male","true","true","false","false","""event"",""trial"",""time""
""fullscreenenter"",""5"",""15120""
","
","
","""event"",""trial"",""time""
""fullscreenenter"",""5"",""15120""
","
","","images/earth.jpg","","","","","","","","","","","","","","fixation","","","","","",""
"d3-animate-choice","186","701810","0.0-76.0-0.17","190","739","12","Male","true","true","false","false","""event"",""trial"",""time""
""fullscreenenter"",""5"",""15120""
","
","
","""event"",""trial"",""time""
""fullscreenenter"",""5"",""15120""
","
","517.3999999985099","","49","","","3000","1","","","images/earth.jpg","images/rocket2","images/rocket1","null","images/rocket1","","1","real","null","1","","",""
"d3-animate-choice","187","704083","0.0-76.0-1.17","190","739","12","Male","true","true","false","false","""event"",""trial"",""time""
""fullscreenenter"",""5"",""15120""
","
","
","""event"",""trial"",""time""
""fullscreenenter"",""5"",""15120""
","
","264.09999999962747","","48","","","3000","1","","","images/purpleplanet.jpg","images/alien4","images/alien3","images/rocket1","images/alien4","images/t.png","2","real","false","2","rare","1","2022-02-16 01:40:57.360"
"two-step-fixation","188","705087","0.0-76.0-2.17","190","739","12","Male","true","true","false","false","""event"",""trial"",""time""
""fullscreenenter"",""5"",""15120""
","
","
","""event"",""trial"",""time""
""fullscreenenter"",""5"",""15120""
","
","","images/earth.jpg","","","","","","","","","","","","","","fixation","","","","","",""
"d3-animate-choice","189","707127","0.0-76.0-0.18","190","739","12","Male","true","true","false","false","""event"",""trial"",""time""
""fullscreenenter"",""5"",""15120""
","
","
","""event"",""trial"",""time""
""fullscreenenter"",""5"",""15120""
","
","34","","49","","","3000","1","","","images/earth.jpg","images/rocket2","images/rocket1","null","images/rocket1","","1","real","null","1","","",""
"d3-animate-choice","190","709755","0.0-76.0-1.18","190","739","12","Male","true","true","false","false","""event"",""trial"",""time""
""fullscreenenter"",""5"",""15120""
","
","
","""event"",""trial"",""time""
""fullscreenenter"",""5"",""15120""
","
","618.9000000003725","","48","","","3000","1","","","images/purpleplanet.jpg","images/alien4","images/alien3","images/rocket1","images/alien4","images/t.png","2","real","false","2","rare","1","2022-02-16 01:41:03.033"
"two-step-fixation","191","710760","0.0-76.0-2.18","190","739","12","Male","true","true","false","false","""event"",""trial"",""time""
""fullscreenenter"",""5"",""15120""
","
","
","""event"",""trial"",""time""
""fullscreenenter"",""5"",""15120""
","
","","images/earth.jpg","","","","","","","","","","","","","","fixation","","","","","",""
"d3-animate-choice","192","713098","0.0-76.0-0.19","190","739","12","Male","true","true","false","false","""event"",""trial"",""time""
""fullscreenenter"",""5"",""15120""
","
","
","""event"",""trial"",""time""
""fullscreenenter"",""5"",""15120""
","
","332.40000000037253","","49","","","3000","1","","","images/earth.jpg","images/rocket2","images/rocket1","null","images/rocket1","","1","real","null","1","","",""
"d3-animate-choice","193","715543","0.0-76.0-1.19","190","739","12","Male","true","true","false","false","""event"",""trial"",""time""
""fullscreenenter"",""5"",""15120""
","
","
","""event"",""trial"",""time""
""fullscreenenter"",""5"",""15120""
","
","438","","48","","","3000","1","","","images/redplanet1.jpg","images/alien2","images/alien1","images/rocket1","images/alien2","images/t.png","2","real","true","2","common","1","2022-02-16 01:41:08.820"
"two-step-fixation","194","716547","0.0-76.0-2.19","190","739","12","Male","true","true","false","false","""event"",""trial"",""time""
""fullscreenenter"",""5"",""15120""
","
","
","""event"",""trial"",""time""
""fullscreenenter"",""5"",""15120""
","
","","images/earth.jpg","","","","","","","","","","","","","","fixation","","","","","",""
"d3-animate-choice","195","719080","0.0-76.0-0.20","190","739","12","Male","true","true","false","false","""event"",""trial"",""time""
""fullscreenenter"",""5"",""15120""
","
","
","""event"",""trial"",""time""
""fullscreenenter"",""5"",""15120""
","
","526.4000000003725","","49","","","3000","1","","","images/earth.jpg","images/rocket2","images/rocket1","null","images/rocket1","","1","real","null","1","","",""
"d3-animate-choice","196","721416","0.0-76.0-1.20","190","739","12","Male","true","true","false","false","""event"",""trial"",""time""
""fullscreenenter"",""5"",""15120""
","
","
","""event"",""trial"",""time""
""fullscreenenter"",""5"",""15120""
","
","327.7000000011176","","49","","","3000","1","","","images/redplanet1.jpg","images/alien2","images/alien1","images/rocket1","images/alien1","images/t.png","2","real","true","1","common","1","2022-02-16 01:41:14.694"
"two-step-fixation","197","722422","0.0-76.0-2.20","190","739","12","Male","true","true","false","false","""event"",""trial"",""time""
""fullscreenenter"",""5"",""15120""
","
","
","""event"",""trial"",""time""
""fullscreenenter"",""5"",""15120""
","
","","images/earth.jpg","","","","","","","","","","","","","","fixation","","","","","",""
"d3-animate-choice","198","724736","0.0-76.0-0.21","190","739","12","Male","true","true","false","false","""event"",""trial"",""time""
""fullscreenenter"",""5"",""15120""
","
","
","""event"",""trial"",""time""
""fullscreenenter"",""5"",""15120""
","
","307.09999999962747","","49","","","3000","1","","","images/earth.jpg","images/rocket2","images/rocket1","null","images/rocket1","","1","real","null","1","","",""
"d3-animate-choice","199","727043","0.0-76.0-1.21","190","739","12","Male","true","true","false","false","""event"",""trial"",""time""
""fullscreenenter"",""5"",""15120""
","
","
","""event"",""trial"",""time""
""fullscreenenter"",""5"",""15120""
","
","299.09999999962747","","49","","","3000","1","","","images/redplanet1.jpg","images/alien2","images/alien1","images/rocket1","images/alien1","images/t.png","2","real","true","1","common","1","2022-02-16 01:41:20.320"
"two-step-fixation","200","728049","0.0-76.0-2.21","190","739","12","Male","true","true","false","false","""event"",""trial"",""time""
""fullscreenenter"",""5"",""15120""
","
","
","""event"",""trial"",""time""
""fullscreenenter"",""5"",""15120""
","
","","images/earth.jpg","","","","","","","","","","","","","","fixation","","","","","",""
"d3-animate-choice","201","730321","0.0-76.0-0.22","190","739","12","Male","true","true","false","false","""event"",""trial"",""time""
""fullscreenenter"",""5"",""15120""
","
","
","""event"",""trial"",""time""
""fullscreenenter"",""5"",""15120""
","
","265.80000000074506","","49","","","3000","1","","","images/earth.jpg","images/rocket2","images/rocket1","null","images/rocket1","","1","real","null","1","","",""
"d3-animate-choice","202","732831","0.0-76.0-1.22","190","739","12","Male","true","true","false","false","""event"",""trial"",""time""
""fullscreenenter"",""5"",""15120""
","
","
","""event"",""trial"",""time""
""fullscreenenter"",""5"",""15120""
","
","503.09999999962747","","49","","","3000","1","","","images/redplanet1.jpg","images/alien2","images/alien1","images/rocket1","images/alien1","images/t.png","2","real","true","1","common","1","2022-02-16 01:41:26.108"
"two-step-fixation","203","733836","0.0-76.0-2.22","190","739","12","Male","true","true","false","false","""event"",""trial"",""time""
""fullscreenenter"",""5"",""15120""
","
","
","""event"",""trial"",""time""
""fullscreenenter"",""5"",""15120""
","
","","images/earth.jpg","","","","","","","","","","","","","","fixation","","","","","",""
"d3-animate-choice","204","736103","0.0-76.0-0.23","190","739","12","Male","true","true","false","false","""event"",""trial"",""time""
""fullscreenenter"",""5"",""15120""
","
","
","""event"",""trial"",""time""
""fullscreenenter"",""5"",""15120""
","
","259.90000000037253","","49","","","3000","1","","","images/earth.jpg","images/rocket2","images/rocket1","null","images/rocket1","","1","real","null","1","","",""
"d3-animate-choice","205","738439","0.0-76.0-1.23","190","739","12","Male","true","true","false","false","""event"",""trial"",""time""
""fullscreenenter"",""5"",""15120""
","
","
","""event"",""trial"",""time""
""fullscreenenter"",""5"",""15120""
","
","327","","49","","","3000","1","","","images/redplanet1.jpg","images/alien2","images/alien1","images/rocket1","images/alien1","images/nothing.png","2","real","true","1","common","0","2022-02-16 01:41:31.716"
"two-step-fixation","206","739443","0.0-76.0-2.23","190","739","12","Male","true","true","false","false","""event"",""trial"",""time""
""fullscreenenter"",""5"",""15120""
","
","
","""event"",""trial"",""time""
""fullscreenenter"",""5"",""15120""
","
","","images/earth.jpg","","","","","","","","","","","","","","fixation","","","","","",""
"d3-animate-choice","207","741612","0.0-76.0-0.24","190","739","12","Male","true","true","false","false","""event"",""trial"",""time""
""fullscreenenter"",""5"",""15120""
","
","
","""event"",""trial"",""time""
""fullscreenenter"",""5"",""15120""
","
","163.2000000011176","","49","","","3000","1","","","images/earth.jpg","images/rocket2","images/rocket1","null","images/rocket1","","1","real","null","1","","",""
"d3-animate-choice","208","743856","0.0-76.0-1.24","190","739","12","Male","true","true","false","false","""event"",""trial"",""time""
""fullscreenenter"",""5"",""15120""
","
","
","""event"",""trial"",""time""
""fullscreenenter"",""5"",""15120""
","
","235.80000000074506","","48","","","3000","1","","","images/redplanet1.jpg","images/alien2","images/alien1","images/rocket1","images/alien2","images/t.png","2","real","true","2","common","1","2022-02-16 01:41:37.133"
"two-step-fixation","209","744861","0.0-76.0-2.24","190","739","12","Male","true","true","false","false","""event"",""trial"",""time""
""fullscreenenter"",""5"",""15120""
","
","
","""event"",""trial"",""time""
""fullscreenenter"",""5"",""15120""
","
","","images/earth.jpg","","","","","","","","","","","","","","fixation","","","","","",""
"d3-animate-choice","210","747868","0.0-76.0-0.25","190","739","12","Male","true","true","false","false","""event"",""trial"",""time""
""fullscreenenter"",""5"",""15120""
","
","
","""event"",""trial"",""time""
""fullscreenenter"",""5"",""15120""
","
","1000.5999999996275","","48","","","3000","1","","","images/earth.jpg","images/rocket2","images/rocket1","null","images/rocket2","","1","real","null","2","","",""
"d3-animate-choice","211","750777","0.0-76.0-1.25","190","739","12","Male","true","true","false","false","""event"",""trial"",""time""
""fullscreenenter"",""5"",""15120""
","
","
","""event"",""trial"",""time""
""fullscreenenter"",""5"",""15120""
","
","900.8000000007451","","49","","","3000","1","","","images/purpleplanet.jpg","images/alien4","images/alien3","images/rocket2","images/alien3","images/nothing.png","2","real","true","1","common","0","2022-02-16 01:41:44.055"
"two-step-fixation","212","751782","0.0-76.0-2.25","190","739","12","Male","true","true","false","false","""event"",""trial"",""time""
""fullscreenenter"",""5"",""15120""
","
","
","""event"",""trial"",""time""
""fullscreenenter"",""5"",""15120""
","
","","images/earth.jpg","","","","","","","","","","","","","","fixation","","","","","",""
"d3-animate-choice","213","753894","0.0-76.0-0.26","190","739","12","Male","true","true","false","false","""event"",""trial"",""time""
""fullscreenenter"",""5"",""15120""
","
","
","""event"",""trial"",""time""
""fullscreenenter"",""5"",""15120""
","
","104.59999999962747","","48","","","3000","1","1944.2000000011176","48","images/earth.jpg","images/rocket2","images/rocket1","null","images/rocket2","","1","real","null","2","","",""
"d3-animate-choice","214","756317","0.0-76.0-1.26","190","739","12","Male","true","true","false","false","""event"",""trial"",""time""
""fullscreenenter"",""5"",""15120""
","
","
","""event"",""trial"",""time""
""fullscreenenter"",""5"",""15120""
","
","414.59999999962747","","48","","","3000","1","","","images/redplanet1.jpg","images/alien2","images/alien1","images/rocket2","images/alien2","images/nothing.png","2","real","false","2","rare","0","2022-02-16 01:41:49.594"
"two-step-fixation","215","757321","0.0-76.0-2.26","190","739","12","Male","true","true","false","false","""event"",""trial"",""time""
""fullscreenenter"",""5"",""15120""
","
","
","""event"",""trial"",""time""
""fullscreenenter"",""5"",""15120""
","
","","images/earth.jpg","","","","","","","","","","","","","","fixation","","","","","",""
"d3-animate-choice","216","759905","0.0-76.0-0.27","190","739","12","Male","true","true","false","false","""event"",""trial"",""time""
""fullscreenenter"",""5"",""15120""
","
","
","""event"",""trial"",""time""
""fullscreenenter"",""5"",""15120""
","
","576.4000000003725","","49","","","3000","1","2451.199999999255","49","images/earth.jpg","images/rocket2","images/rocket1","null","images/rocket1","","1","real","null","1","","",""
"d3-animate-choice","217","763085","0.0-76.0-1.27","190","739","12","Male","true","true","false","false","""event"",""trial"",""time""
""fullscreenenter"",""5"",""15120""
","
","
","""event"",""trial"",""time""
""fullscreenenter"",""5"",""15120""
","
","1171.699999999255","","49","","","3000","1","","","images/redplanet1.jpg","images/alien2","images/alien1","images/rocket1","images/alien1","images/t.png","2","real","true","1","common","1","2022-02-16 01:41:56.362"
"two-step-fixation","218","764090","0.0-76.0-2.27","190","739","12","Male","true","true","false","false","""event"",""trial"",""time""
""fullscreenenter"",""5"",""15120""
","
","
","""event"",""trial"",""time""
""fullscreenenter"",""5"",""15120""
","
","","images/earth.jpg","","","","","","","","","","","","","","fixation","","","","","",""
"d3-animate-choice","219","766460","0.0-76.0-0.28","190","739","12","Male","true","true","false","false","""event"",""trial"",""time""
""fullscreenenter"",""5"",""15120""
","
","
","""event"",""trial"",""time""
""fullscreenenter"",""5"",""15120""
","
","362","","49","","","3000","1","","","images/earth.jpg","images/rocket2","images/rocket1","null","images/rocket1","","1","real","null","1","","",""
"d3-animate-choice","220","768908","0.0-76.0-1.28","190","739","12","Male","true","true","false","false","""event"",""trial"",""time""
""fullscreenenter"",""5"",""15120""
","
","
","""event"",""trial"",""time""
""fullscreenenter"",""5"",""15120""
","
","439.69999999925494","","49","","","3000","1","","","images/redplanet1.jpg","images/alien2","images/alien1","images/rocket1","images/alien1","images/t.png","2","real","true","1","common","1","2022-02-16 01:42:02.185"
"two-step-fixation","221","769914","0.0-76.0-2.28","190","739","12","Male","true","true","false","false","""event"",""trial"",""time""
""fullscreenenter"",""5"",""15120""
","
","
","""event"",""trial"",""time""
""fullscreenenter"",""5"",""15120""
","
","","images/earth.jpg","","","","","","","","","","","","","","fixation","","","","","",""
"d3-animate-choice","222","772179","0.0-76.0-0.29","190","739","12","Male","true","true","false","false","""event"",""trial"",""time""
""fullscreenenter"",""5"",""15120""
","
","
","""event"",""trial"",""time""
""fullscreenenter"",""5"",""15120""
","
","255.69999999925494","","49","","","3000","1","","","images/earth.jpg","images/rocket2","images/rocket1","null","images/rocket1","","1","real","null","1","","",""
"d3-animate-choice","223","774665","0.0-76.0-1.29","190","739","12","Male","true","true","false","false","""event"",""trial"",""time""
""fullscreenenter"",""5"",""15120""
","
","
","""event"",""trial"",""time""
""fullscreenenter"",""5"",""15120""
","
","480.3999999985099","","49","","","3000","1","","","images/purpleplanet.jpg","images/alien4","images/alien3","images/rocket1","images/alien3","images/nothing.png","2","real","false","1","rare","0","2022-02-16 01:42:07.942"
"two-step-fixation","224","775670","0.0-76.0-2.29","190","739","12","Male","true","true","false","false","""event"",""trial"",""time""
""fullscreenenter"",""5"",""15120""
","
","
","""event"",""trial"",""time""
""fullscreenenter"",""5"",""15120""
","
","","images/earth.jpg","","","","","","","","","","","","","","fixation","","","","","",""
"d3-animate-choice","225","778075","0.0-76.0-0.30","190","739","12","Male","true","true","false","false","""event"",""trial"",""time""
""fullscreenenter"",""5"",""15120""
","
","
","""event"",""trial"",""time""
""fullscreenenter"",""5"",""15120""
","
","398.7999999988824","","49","","","3000","1","","","images/earth.jpg","images/rocket2","images/rocket1","null","images/rocket1","","1","real","null","1","","",""
"d3-animate-choice","226","780088","0.0-76.0-1.30","190","739","12","Male","true","true","false","false","""event"",""trial"",""time""
""fullscreenenter"",""5"",""15120""
","
","
","""event"",""trial"",""time""
""fullscreenenter"",""5"",""15120""
","
","5.300000000745058","","49","","","3000","1","","","images/redplanet1.jpg","images/alien2","images/alien1","images/rocket1","images/alien1","images/t.png","2","real","true","1","common","1","2022-02-16 01:42:13.365"
"two-step-fixation","227","781092","0.0-76.0-2.30","190","739","12","Male","true","true","false","false","""event"",""trial"",""time""
""fullscreenenter"",""5"",""15120""
","
","
","""event"",""trial"",""time""
""fullscreenenter"",""5"",""15120""
","
","","images/earth.jpg","","","","","","","","","","","","","","fixation","","","","","",""
"d3-animate-choice","228","783716","0.0-76.0-0.31","190","739","12","Male","true","true","false","false","""event"",""trial"",""time""
""fullscreenenter"",""5"",""15120""
","
","
","""event"",""trial"",""time""
""fullscreenenter"",""5"",""15120""
","
","616","","49","","","3000","1","","","images/earth.jpg","images/rocket2","images/rocket1","null","images/rocket1","","1","real","null","1","","",""
"d3-animate-choice","229","786514","0.0-76.0-1.31","190","739","12","Male","true","true","false","false","""event"",""trial"",""time""
""fullscreenenter"",""5"",""15120""
","
","
","""event"",""trial"",""time""
""fullscreenenter"",""5"",""15120""
","
","789.5999999996275","","48","","","3000","1","","","images/redplanet1.jpg","images/alien2","images/alien1","images/rocket1","images/alien2","images/t.png","2","real","true","2","common","1","2022-02-16 01:42:19.791"
"two-step-fixation","230","787519","0.0-76.0-2.31","190","739","12","Male","true","true","false","false","""event"",""trial"",""time""
""fullscreenenter"",""5"",""15120""
","
","
","""event"",""trial"",""time""
""fullscreenenter"",""5"",""15120""
","
","","images/earth.jpg","","","","","","","","","","","","","","fixation","","","","","",""
"d3-animate-choice","231","789555","0.0-76.0-0.32","190","739","12","Male","true","true","false","false","""event"",""trial"",""time""
""fullscreenenter"",""5"",""15120""
","
","
","""event"",""trial"",""time""
""fullscreenenter"",""5"",""15120""
","
","26.59999999962747","","49","","","3000","1","","","images/earth.jpg","images/rocket2","images/rocket1","null","images/rocket1","","1","real","null","1","","",""
"d3-animate-choice","232","792133","0.0-76.0-1.32","190","739","12","Male","true","true","false","false","""event"",""trial"",""time""
""fullscreenenter"",""5"",""15120""
","
","
","""event"",""trial"",""time""
""fullscreenenter"",""5"",""15120""
","
","572.3000000007451","","49","","","3000","1","","","images/redplanet1.jpg","images/alien2","images/alien1","images/rocket1","images/alien1","images/nothing.png","2","real","true","1","common","0","2022-02-16 01:42:25.410"
"two-step-fixation","233","793137","0.0-76.0-2.32","190","739","12","Male","true","true","false","false","""event"",""trial"",""time""
""fullscreenenter"",""5"",""15120""
","
","
","""event"",""trial"",""time""
""fullscreenenter"",""5"",""15120""
","
","","images/earth.jpg","","","","","","","","","","","","","","fixation","","","","","",""
"d3-animate-choice","234","795247","0.0-76.0-0.33","190","739","12","Male","true","true","false","false","""event"",""trial"",""time""
""fullscreenenter"",""5"",""15120""
","
","
","""event"",""trial"",""time""
""fullscreenenter"",""5"",""15120""
","
","102.5","","49","","","3000","1","","","images/earth.jpg","images/rocket2","images/rocket1","null","images/rocket1","","1","real","null","1","","",""
"d3-animate-choice","235","798225","0.0-76.0-1.33","190","739","12","Male","true","true","false","false","""event"",""trial"",""time""
""fullscreenenter"",""5"",""15120""
","
","
","""event"",""trial"",""time""
""fullscreenenter"",""5"",""15120""
","
","969.3000000007451","","49","","","3000","1","","","images/redplanet1.jpg","images/alien2","images/alien1","images/rocket1","images/alien1","images/nothing.png","2","real","true","1","common","0","2022-02-16 01:42:31.502"
"two-step-fixation","236","799230","0.0-76.0-2.33","190","739","12","Male","true","true","false","false","""event"",""trial"",""time""
""fullscreenenter"",""5"",""15120""
","
","
","""event"",""trial"",""time""
""fullscreenenter"",""5"",""15120""
","
","","images/earth.jpg","","","","","","","","","","","","","","fixation","","","","","",""
"d3-animate-choice","237","801257","0.0-76.0-0.34","190","739","12","Male","true","true","false","false","""event"",""trial"",""time""
""fullscreenenter"",""5"",""15120""
","
","
","""event"",""trial"",""time""
""fullscreenenter"",""5"",""15120""
","
","20.40000000037253","","49","","","3000","1","","","images/earth.jpg","images/rocket2","images/rocket1","null","images/rocket1","","1","real","null","1","","",""
"d3-animate-choice","238","803605","0.0-76.0-1.34","190","739","12","Male","true","true","false","false","""event"",""trial"",""time""
""fullscreenenter"",""5"",""15120""
","
","
","""event"",""trial"",""time""
""fullscreenenter"",""5"",""15120""
","
","340.7999999988824","","48","","","3000","1","","","images/redplanet1.jpg","images/alien2","images/alien1","images/rocket1","images/alien2","images/t.png","2","real","true","2","common","1","2022-02-16 01:42:36.882"
"two-step-fixation","239","804612","0.0-76.0-2.34","190","739","12","Male","true","true","false","false","""event"",""trial"",""time""
""fullscreenenter"",""5"",""15120""
","
","
","""event"",""trial"",""time""
""fullscreenenter"",""5"",""15120""
","
","","images/earth.jpg","","","","","","","","","","","","","","fixation","","","","","",""
"d3-animate-choice","240","807132","0.0-76.0-0.35","190","739","12","Male","true","true","false","false","""event"",""trial"",""time""
""fullscreenenter"",""5"",""15120""
","
","
","""event"",""trial"",""time""
""fullscreenenter"",""5"",""15120""
","
","513.7999999988824","","49","","","3000","1","2456.89999999851","48","images/earth.jpg","images/rocket2","images/rocket1","null","images/rocket1","","1","real","null","1","","",""
"d3-animate-choice","241","810059","0.0-76.0-1.35","190","739","12","Male","true","true","false","false","""event"",""trial"",""time""
""fullscreenenter"",""5"",""15120""
","
","
","""event"",""trial"",""time""
""fullscreenenter"",""5"",""15120""
","
","919.4000000003725","","48","","","3000","1","","","images/redplanet1.jpg","images/alien2","images/alien1","images/rocket1","images/alien2","images/nothing.png","2","real","true","2","common","0","2022-02-16 01:42:43.336"
"two-step-fixation","242","811077","0.0-76.0-2.35","190","739","12","Male","true","true","false","false","""event"",""trial"",""time""
""fullscreenenter"",""5"",""15120""
","
","
","""event"",""trial"",""time""
""fullscreenenter"",""5"",""15120""
","
","","images/earth.jpg","","","","","","","","","","","","","","fixation","","","","","",""
"d3-animate-choice","243","813345","0.0-76.0-0.36","190","739","12","Male","true","true","false","false","""event"",""trial"",""time""
""fullscreenenter"",""5"",""15120""
","
","
","""event"",""trial"",""time""
""fullscreenenter"",""5"",""15120""
","
","261.40000000037253","","48","","","3000","1","","","images/earth.jpg","images/rocket2","images/rocket1","null","images/rocket2","","1","real","null","2","","",""
"d3-animate-choice","244","816270","0.0-76.0-1.36","190","739","12","Male","true","true","false","false","""event"",""trial"",""time""
""fullscreenenter"",""5"",""15120""
","
","
","""event"",""trial"",""time""
""fullscreenenter"",""5"",""15120""
","
","915","","49","","","3000","1","","","images/redplanet1.jpg","images/alien2","images/alien1","images/rocket2","images/alien1","images/t.png","2","real","false","1","rare","1","2022-02-16 01:42:49.548"
"two-step-fixation","245","817275","0.0-76.0-2.36","190","739","12","Male","true","true","false","false","""event"",""trial"",""time""
""fullscreenenter"",""5"",""15120""
","
","
","""event"",""trial"",""time""
""fullscreenenter"",""5"",""15120""
","
","","images/earth.jpg","","","","","","","","","","","","","","fixation","","","","","",""
"d3-animate-choice","246","819367","0.0-76.0-0.37","190","739","12","Male","true","true","false","false","""event"",""trial"",""time""
""fullscreenenter"",""5"",""15120""
","
","
","""event"",""trial"",""time""
""fullscreenenter"",""5"",""15120""
","
","86","","48","","","3000","1","","","images/earth.jpg","images/rocket2","images/rocket1","null","images/rocket2","","1","real","null","2","","",""
"d3-animate-choice","247","822222","0.0-76.0-1.37","190","739","12","Male","true","true","false","false","""event"",""trial"",""time""
""fullscreenenter"",""5"",""15120""
","
","
","""event"",""trial"",""time""
""fullscreenenter"",""5"",""15120""
","
