"trial_type","trial_index","time_elapsed","internal_node_id","participant_id","subject_id","age","gender","rocket_sides","red_planet_first_rocket","red_display_order","purple_display_order","interactions","blur_events","focus_events","fullscreenenter_events","fullscreenexit_events","rt","stimulus","key_press","button_pressed","success","duration","valid_pressed","rts","keys","planet_text","right_text","left_text","center_text","chosen_text","reward_text","trial_stage","practice_trial","transition_type","choice","transition","reward","timestamp"
"pavlovia","0","16","0.0-0.0","737","808","11","Male","true","true","false","true","
","
","
","
","
","","","","","","","","","","","","","","","","","","","","","",""
"html-keyboard-response","1","2274","0.0-1.0","737","808","11","Male","true","true","false","true","
","
","
","
","
","2255","Welcome! Press the space bar to begin.","32","","","","","","","","","","","","","","","","","","",""
"audio-keyboard-response","2","5763","0.0-2.0","737","808","11","Male","true","true","false","true","
","
","
","
","
","3489","audio/beep_loop.wav","32","","","","","","","","","","","","","","","","","","",""
"audio-button-response","3","8758","0.0-3.0","737","808","11","Male","true","true","false","true","
","
","
","
","
","NaN","audio/fish.mp3","","1","","","","","","","","","","","","","","","","","",""
"audio-button-response","4","12773","0.0-4.0","737","808","11","Male","true","true","false","true","""event"",""trial"",""time""
""fullscreenenter"",""5"",""17186""
","
","
","""event"",""trial"",""time""
""fullscreenenter"",""5"",""17186""
","
","NaN","audio/tiger.mp3","","4","","","","","","","","","","","","","","","","","",""
"fullscreen","5","17971","0.0-5.0","737","808","11","Male","true","true","false","true","""event"",""trial"",""time""
""fullscreenenter"",""5"",""17186""
","
","
","""event"",""trial"",""time""
""fullscreenenter"",""5"",""17186""
","
","","","","","true","","","","","","","","","","","","","","","","",""
"d3-instructions","6","35709","0.0-6.0","737","808","11","Male","true","true","false","true","""event"",""trial"",""time""
""fullscreenenter"",""5"",""17186""
","
","
","""event"",""trial"",""time""
""fullscreenenter"",""5"",""17186""
","
","","","","","","","","","","","","","","","","","","","","","",""
"d3-instructions","7","47226","0.0-7.0","737","808","11","Male","true","true","false","true","""event"",""trial"",""time""
""fullscreenenter"",""5"",""17186""
","
","
","""event"",""trial"",""time""
""fullscreenenter"",""5"",""17186""
","
","","","","","","","","","","","","","","","","","","","","","",""
"d3-instructions","8","54037","0.0-8.0","737","808","11","Male","true","true","false","true","""event"",""trial"",""time""
""fullscreenenter"",""5"",""17186""
","
","
","""event"",""trial"",""time""
""fullscreenenter"",""5"",""17186""
","
","","","","","","","","","","","","","","","","","","","","","",""
"d3-instructions","9","68537","0.0-9.0","737","808","11","Male","true","true","false","true","""event"",""trial"",""time""
""fullscreenenter"",""5"",""17186""
","
","
","""event"",""trial"",""time""
""fullscreenenter"",""5"",""17186""
","
","","","","","","","","","","","","","","","","","","","","","",""
"d3-instructions","10","92329","0.0-10.0","737","808","11","Male","true","true","false","true","""event"",""trial"",""time""
""fullscreenenter"",""5"",""17186""
","
","
","""event"",""trial"",""time""
""fullscreenenter"",""5"",""17186""
","
","","","","","","","","","","","","","","","","","","","","","",""
"d3-animate-choice","11","99877","0.0-11.0","737","808","11","Male","true","true","false","true","""event"",""trial"",""time""
""fullscreenenter"",""5"",""17186""
","
","
","""event"",""trial"",""time""
""fullscreenenter"",""5"",""17186""
","
","5520","","48","","","3000","1","","","images/tutgreenplanet.jpg","images/tutalien1","images/tutalien2","null","images/tutalien1","","NA","practice","null","","","",""
"d3-animate-choice","12","104241","0.0-12.0","737","808","11","Male","true","true","false","true","""event"",""trial"",""time""
""fullscreenenter"",""5"",""17186""
","
","
","""event"",""trial"",""time""
""fullscreenenter"",""5"",""17186""
","
","2344","","49","","","3000","1","","","images/tutgreenplanet.jpg","images/tutalien1","images/tutalien2","null","images/tutalien2","","NA","practice","null","","","",""
"d3-animate-choice","13","108761","0.0-13.0","737","808","11","Male","true","true","false","true","""event"",""trial"",""time""
""fullscreenenter"",""5"",""17186""
","
","
","""event"",""trial"",""time""
""fullscreenenter"",""5"",""17186""
","
","2503","","48","","","3000","1","","","images/tutgreenplanet.jpg","images/tutalien1","images/tutalien2","null","images/tutalien1","","NA","practice","null","","","",""
"d3-animate-choice","14","112050","0.0-14.0","737","808","11","Male","true","true","false","true","""event"",""trial"",""time""
""fullscreenenter"",""5"",""17186""
","
","
","""event"",""trial"",""time""
""fullscreenenter"",""5"",""17186""
","
","1253","","49","","","3000","1","3207","32","images/tutgreenplanet.jpg","images/tutalien1","images/tutalien2","null","images/tutalien2","","NA","practice","null","","","",""
"d3-instructions","15","121033","0.0-15.0","737","808","11","Male","true","true","false","true","""event"",""trial"",""time""
""fullscreenenter"",""5"",""17186""
","
","
","""event"",""trial"",""time""
""fullscreenenter"",""5"",""17186""
","
","","","","","","","","","","","","","","","","","","","","","",""
"d3-instructions","16","133716","0.0-16.0","737","808","11","Male","true","true","false","true","""event"",""trial"",""time""
""fullscreenenter"",""5"",""17186""
","
","
","""event"",""trial"",""time""
""fullscreenenter"",""5"",""17186""
","
","","","","","","","","","","","","","","","","","","","","","",""
"d3-instructions","17","143026","0.0-17.0","737","808","11","Male","true","true","false","true","""event"",""trial"",""time""
""fullscreenenter"",""5"",""17186""
","
","
","""event"",""trial"",""time""
""fullscreenenter"",""5"",""17186""
","
","","","","","","","","","","","","","","","","","","","","","",""
"d3-instructions","18","157420","0.0-18.0","737","808","11","Male","true","true","false","true","""event"",""trial"",""time""
""fullscreenenter"",""5"",""17186""
","
","
","""event"",""trial"",""time""
""fullscreenenter"",""5"",""17186""
","
","","","","","","","","","","","","","","","","","","","","","",""
"d3-instructions","19","171910","0.0-19.0","737","808","11","Male","true","true","false","true","""event"",""trial"",""time""
""fullscreenenter"",""5"",""17186""
","
","
","""event"",""trial"",""time""
""fullscreenenter"",""5"",""17186""
","
","","","","","","","","","","","","","","","","","","","","","",""
"d3-animate-choice","20","175184","0.0-20.0","737","808","11","Male","true","true","false","true","""event"",""trial"",""time""
""fullscreenenter"",""5"",""17186""
","
","
","""event"",""trial"",""time""
""fullscreenenter"",""5"",""17186""
","
","1250","","49","","","3000","1","1588,1929,2271,2628,2981","49,49,49,49,49","images/tutyellowplanet.jpg","null","images/tutalien3","null","images/tutalien3","images/t.png","NA","practice","null","","","",""
"d3-animate-choice","21","177341","0.0-21.0","737","808","11","Male","true","true","false","true","""event"",""trial"",""time""
""fullscreenenter"",""5"",""17186""
","
","
","""event"",""trial"",""time""
""fullscreenenter"",""5"",""17186""
","
","146","","49","","","3000","1","605,1125,1504,1863","49,49,49,49","images/tutyellowplanet.jpg","null","images/tutalien3","null","images/tutalien3","images/t.png","NA","practice","null","","","",""
"d3-animate-choice","22","179793","0.0-22.0","737","808","11","Male","true","true","false","true","""event"",""trial"",""time""
""fullscreenenter"",""5"",""17186""
","
","
","""event"",""trial"",""time""
""fullscreenenter"",""5"",""17186""
","
","437","","49","","","3000","1","766,1087,1423,1743","49,49,49,49","images/tutyellowplanet.jpg","null","images/tutalien3","null","images/tutalien3","images/t.png","NA","practice","null","","","",""
"d3-animate-choice","23","182215","0.0-23.0","737","808","11","Male","true","true","false","true","""event"",""trial"",""time""
""fullscreenenter"",""5"",""17186""
","
","
","""event"",""trial"",""time""
""fullscreenenter"",""5"",""17186""
","
","414","","49","","","3000","1","719,989,1289,1590,1884","49,49,49,49,49","images/tutyellowplanet.jpg","null","images/tutalien3","null","images/tutalien3","images/nothing.png","NA","practice","null","","","",""
"d3-animate-choice","24","184860","0.0-24.0","737","808","11","Male","true","true","false","true","""event"",""trial"",""time""
""fullscreenenter"",""5"",""17186""
","
","
","""event"",""trial"",""time""
""fullscreenenter"",""5"",""17186""
","
","640","","49","","","3000","1","970,1274,1606,1874,2130,2543","49,49,49,49,49,49","images/tutyellowplanet.jpg","null","images/tutalien3","null","images/tutalien3","images/t.png","NA","practice","null","","","",""
"d3-animate-choice","25","187511","0.0-25.0","737","808","11","Male","true","true","false","true","""event"",""trial"",""time""
""fullscreenenter"",""5"",""17186""
","
","
","""event"",""trial"",""time""
""fullscreenenter"",""5"",""17186""
","
","632","","49","","","3000","1","951,1226,1510,1785,2125,2402","49,49,49,49,49,32","images/tutyellowplanet.jpg","null","images/tutalien3","null","images/tutalien3","images/t.png","NA","practice","null","","","",""
"d3-animate-choice","26","190426","0.0-26.0","737","808","11","Male","true","true","false","true","""event"",""trial"",""time""
""fullscreenenter"",""5"",""17186""
","
","
","""event"",""trial"",""time""
""fullscreenenter"",""5"",""17186""
","
","900","","49","","","3000","1","1172,1437,1747,2062,2322,2617","49,49,49,49,49,49","images/tutyellowplanet.jpg","null","images/tutalien3","null","images/tutalien3","images/t.png","NA","practice","null","","","",""
"d3-animate-choice","27","193111","0.0-27.0","737","808","11","Male","true","true","false","true","""event"",""trial"",""time""
""fullscreenenter"",""5"",""17186""
","
","
","""event"",""trial"",""time""
""fullscreenenter"",""5"",""17186""
","
","674","","49","","","3000","1","1020,1299,1594,1864,2148","49,49,49,49,49","images/tutyellowplanet.jpg","null","images/tutalien3","null","images/tutalien3","images/t.png","NA","practice","null","","","",""
"d3-animate-choice","28","195634","0.0-28.0","737","808","11","Male","true","true","false","true","""event"",""trial"",""time""
""fullscreenenter"",""5"",""17186""
","
","
","""event"",""trial"",""time""
""fullscreenenter"",""5"",""17186""
","
","514","","49","","","3000","1","832,1122,1381,1661,1947","49,49,49,49,49","images/tutyellowplanet.jpg","null","images/tutalien3","null","images/tutalien3","images/t.png","NA","practice","null","","","",""
"d3-animate-choice","29","198125","0.0-29.0","737","808","11","Male","true","true","false","true","""event"",""trial"",""time""
""fullscreenenter"",""5"",""17186""
","
","
","""event"",""trial"",""time""
""fullscreenenter"",""5"",""17186""
","
","478","","49","","","3000","1","867,1161,1471,1762,2282","49,49,49,49,49","images/tutyellowplanet.jpg","null","images/tutalien3","null","images/tutalien3","images/nothing.png","NA","practice","null","","","",""
"d3-instructions","30","206714","0.0-30.0","737","808","11","Male","true","true","false","true","""event"",""trial"",""time""
""fullscreenenter"",""5"",""17186""
","
","
","""event"",""trial"",""time""
""fullscreenenter"",""5"",""17186""
","
","","","","","","","","","","","","","","","","","","","","","",""
"d3-instructions","31","218614","0.0-31.0","737","808","11","Male","true","true","false","true","""event"",""trial"",""time""
""fullscreenenter"",""5"",""17186""
","
","
","""event"",""trial"",""time""
""fullscreenenter"",""5"",""17186""
","
","","","","","","","","","","","","","","","","","","","","","",""
"d3-instructions","32","228325","0.0-32.0","737","808","11","Male","true","true","false","true","""event"",""trial"",""time""
""fullscreenenter"",""5"",""17186""
","
","
","""event"",""trial"",""time""
""fullscreenenter"",""5"",""17186""
","
","","","","","","","","","","","","","","","","","","","","","",""
"d3-instructions","33","239292","0.0-33.0","737","808","11","Male","true","true","false","true","""event"",""trial"",""time""
""fullscreenenter"",""5"",""17186""
","
","
","""event"",""trial"",""time""
""fullscreenenter"",""5"",""17186""
","
","","","","","","","","","","","","","","","","","","","","","",""
"d3-animate-choice","34","243343","0.0-34.0","737","808","11","Male","true","true","false","true","""event"",""trial"",""time""
""fullscreenenter"",""5"",""17186""
","
","
","""event"",""trial"",""time""
""fullscreenenter"",""5"",""17186""
","
","2043","","49","","","3000","1","3033,3992","49,49","images/tutgreenplanet.jpg","images/tutalien1","images/tutalien2","null","images/tutalien2","images/t.png","NA","practice","null","","","",""
"d3-animate-choice","35","246145","0.0-35.0","737","808","11","Male","true","true","false","true","""event"",""trial"",""time""
""fullscreenenter"",""5"",""17186""
","
","
","""event"",""trial"",""time""
""fullscreenenter"",""5"",""17186""
","
","790","","48","","","3000","1","1351","48","images/tutgreenplanet.jpg","images/tutalien1","images/tutalien2","null","images/tutalien1","images/nothing.png","NA","practice","null","","","",""
"d3-animate-choice","36","248713","0.0-36.0","737","808","11","Male","true","true","false","true","""event"",""trial"",""time""
""fullscreenenter"",""5"",""17186""
","
","
","""event"",""trial"",""time""
""fullscreenenter"",""5"",""17186""
","
","552","","49","","","3000","1","988,1434","49,49","images/tutgreenplanet.jpg","images/tutalien1","images/tutalien2","null","images/tutalien2","images/nothing.png","NA","practice","null","","","",""
"d3-animate-choice","37","251427","0.0-37.0","737","808","11","Male","true","true","false","true","""event"",""trial"",""time""
""fullscreenenter"",""5"",""17186""
","
","
","""event"",""trial"",""time""
""fullscreenenter"",""5"",""17186""
","
","709","","48","","","3000","1","1028,1333","48,48","images/tutgreenplanet.jpg","images/tutalien1","images/tutalien2","null","images/tutalien1","images/nothing.png","NA","practice","null","","","",""
"d3-animate-choice","38","253948","0.0-38.0","737","808","11","Male","true","true","false","true","""event"",""trial"",""time""
""fullscreenenter"",""5"",""17186""
","
","
","""event"",""trial"",""time""
""fullscreenenter"",""5"",""17186""
","
","507","","49","","","3000","1","848,1277,2386","49,49,32","images/tutgreenplanet.jpg","images/tutalien1","images/tutalien2","null","images/tutalien2","images/t.png","NA","practice","null","","","",""
"d3-animate-choice","39","257267","0.0-39.0","737","808","11","Male","true","true","false","true","""event"",""trial"",""time""
""fullscreenenter"",""5"",""17186""
","
","
","""event"",""trial"",""time""
""fullscreenenter"",""5"",""17186""
","
","1310","","49","","","3000","1","1615,1951,2249","49,49,49","images/tutgreenplanet.jpg","images/tutalien1","images/tutalien2","null","images/tutalien2","images/t.png","NA","practice","null","","","",""
"d3-animate-choice","40","259793","0.0-40.0","737","808","11","Male","true","true","false","true","""event"",""trial"",""time""
""fullscreenenter"",""5"",""17186""
","
","
","""event"",""trial"",""time""
""fullscreenenter"",""5"",""17186""
","
","515","","49","","","3000","1","829,1114","49,49","images/tutgreenplanet.jpg","images/tutalien1","images/tutalien2","null","images/tutalien2","images/t.png","NA","practice","null","","","",""
"d3-animate-choice","41","262423","0.0-41.0","737","808","11","Male","true","true","false","true","""event"",""trial"",""time""
""fullscreenenter"",""5"",""17186""
","
","
","""event"",""trial"",""time""
""fullscreenenter"",""5"",""17186""
","
","589","","49","","","3000","1","901,1199","49,49","images/tutgreenplanet.jpg","images/tutalien1","images/tutalien2","null","images/tutalien2","images/t.png","NA","practice","null","","","",""
"d3-animate-choice","42","264878","0.0-42.0","737","808","11","Male","true","true","false","true","""event"",""trial"",""time""
""fullscreenenter"",""5"",""17186""
","
","
","""event"",""trial"",""time""
""fullscreenenter"",""5"",""17186""
","
","438","","49","","","3000","1","729,1004","49,49","images/tutgreenplanet.jpg","images/tutalien1","images/tutalien2","null","images/tutalien2","images/t.png","NA","practice","null","","","",""
"d3-animate-choice","43","267268","0.0-43.0","737","808","11","Male","true","true","false","true","""event"",""trial"",""time""
""fullscreenenter"",""5"",""17186""
","
","
","""event"",""trial"",""time""
""fullscreenenter"",""5"",""17186""
","
","383","","48","","","3000","1","688","48","images/tutgreenplanet.jpg","images/tutalien1","images/tutalien2","null","images/tutalien1","images/t.png","NA","practice","null","","","",""
"d3-instructions","44","281194","0.0-44.0","737","808","11","Male","true","true","false","true","""event"",""trial"",""time""
""fullscreenenter"",""5"",""17186""
","
","
","""event"",""trial"",""time""
""fullscreenenter"",""5"",""17186""
","
","","","","","","","","","","","","","","","","","","","","","",""
"d3-instructions","45","289004","0.0-45.0","737","808","11","Male","true","true","false","true","""event"",""trial"",""time""
""fullscreenenter"",""5"",""17186""
","
","
","""event"",""trial"",""time""
""fullscreenenter"",""5"",""17186""
","
","","","","","","","","","","","","","","","","","","","","","",""
"d3-instructions","46","296271","0.0-46.0","737","808","11","Male","true","true","false","true","""event"",""trial"",""time""
""fullscreenenter"",""5"",""17186""
","
","
","""event"",""trial"",""time""
""fullscreenenter"",""5"",""17186""
","
","","","","","","","","","","","","","","","","","","","","","",""
"d3-instructions","47","316539","0.0-47.0","737","808","11","Male","true","true","false","true","""event"",""trial"",""time""
""fullscreenenter"",""5"",""17186""
","
","
","""event"",""trial"",""time""
""fullscreenenter"",""5"",""17186""
","
","","","","","","","","","","","","","","","","","","","","","",""
"d3-instructions","48","325150","0.0-48.0","737","808","11","Male","true","true","false","true","""event"",""trial"",""time""
""fullscreenenter"",""5"",""17186""
","
","
","""event"",""trial"",""time""
""fullscreenenter"",""5"",""17186""
","
","","","","","","","","","","","","","","","","","","","","","",""
"d3-instructions","49","337715","0.0-49.0","737","808","11","Male","true","true","false","true","""event"",""trial"",""time""
""fullscreenenter"",""5"",""17186""
","
","
","""event"",""trial"",""time""
""fullscreenenter"",""5"",""17186""
","
","","","","","","","","","","","","","","","","","","","","","",""
"d3-instructions","50","349363","0.0-50.0","737","808","11","Male","true","true","false","true","""event"",""trial"",""time""
""fullscreenenter"",""5"",""17186""
","
","
","""event"",""trial"",""time""
""fullscreenenter"",""5"",""17186""
","
","","","","","","","","","","","","","","","","","","","","","",""
"d3-instructions","51","354018","0.0-51.0","737","808","11","Male","true","true","false","true","""event"",""trial"",""time""
""fullscreenenter"",""5"",""17186""
","
","
","""event"",""trial"",""time""
""fullscreenenter"",""5"",""17186""
","
","","","","","","","","","","","","","","","","","","","","","",""
"d3-instructions","52","357551","0.0-52.0","737","808","11","Male","true","true","false","true","""event"",""trial"",""time""
""fullscreenenter"",""5"",""17186""
","
","
","""event"",""trial"",""time""
""fullscreenenter"",""5"",""17186""
","
","","","","","","","","","","","","","","","","","","","","","",""
"d3-instructions","53","370861","0.0-53.0","737","808","11","Male","true","true","false","true","""event"",""trial"",""time""
""fullscreenenter"",""5"",""17186""
","
","
","""event"",""trial"",""time""
""fullscreenenter"",""5"",""17186""
","
","","","","","","","","","","","","","","","","","","","","","",""
"d3-instructions","54","384365","0.0-54.0","737","808","11","Male","true","true","false","true","""event"",""trial"",""time""
""fullscreenenter"",""5"",""17186""
","
","
","""event"",""trial"",""time""
""fullscreenenter"",""5"",""17186""
","
","","","","","","","","","","","","","","","","","","","","","",""
"d3-instructions","55","395299","0.0-55.0","737","808","11","Male","true","true","false","true","""event"",""trial"",""time""
""fullscreenenter"",""5"",""17186""
","
","
","""event"",""trial"",""time""
""fullscreenenter"",""5"",""17186""
","
","","","","","","","","","","","","","","","","","","","","","",""
"d3-instructions","56","405864","0.0-56.0","737","808","11","Male","true","true","false","true","""event"",""trial"",""time""
""fullscreenenter"",""5"",""17186""
","
","
","""event"",""trial"",""time""
""fullscreenenter"",""5"",""17186""
","
","","","","","","","","","","","","","","","","","","","","","",""
"d3-instructions","57","416174","0.0-57.0","737","808","11","Male","true","true","false","true","""event"",""trial"",""time""
""fullscreenenter"",""5"",""17186""
","
","
","""event"",""trial"",""time""
""fullscreenenter"",""5"",""17186""
","
","","","","","","","","","","","","","","","","","","","","","",""
"d3-instructions","58","428390","0.0-58.0","737","808","11","Male","true","true","false","true","""event"",""trial"",""time""
""fullscreenenter"",""5"",""17186""
","
","
","""event"",""trial"",""time""
""fullscreenenter"",""5"",""17186""
","
","","","","","","","","","","","","","","","","","","","","","",""
"d3-instructions","59","437455","0.0-59.0","737","808","11","Male","true","true","false","true","""event"",""trial"",""time""
""fullscreenenter"",""5"",""17186""
","
","
","""event"",""trial"",""time""
""fullscreenenter"",""5"",""17186""
","
","","","","","","","","","","","","","","","","","","","","","",""
"d3-instructions","60","449721","0.0-60.0","737","808","11","Male","true","true","false","true","""event"",""trial"",""time""
""fullscreenenter"",""5"",""17186""
","
","
","""event"",""trial"",""time""
""fullscreenenter"",""5"",""17186""
","
","","","","","","","","","","","","","","","","","","","","","",""
"d3-animate-choice","61","453654","0.0-61.0-0.0","737","808","11","Male","true","true","false","true","""event"",""trial"",""time""
""fullscreenenter"",""5"",""17186""
","
","
","""event"",""trial"",""time""
""fullscreenenter"",""5"",""17186""
","
","1905","","49","","","3000","1","2161,2417,2668,2893,3138,3435,3801","48,49,48,49,48,49,49","images/earth.jpg","images/tutrocket1","images/tutrocket2","null","images/tutrocket2","","1","practice","null","1","","",""
"d3-animate-choice","62","455900","0.0-61.0-1.0","737","808","11","Male","true","true","false","true","""event"",""trial"",""time""
""fullscreenenter"",""5"",""17186""
","
","
","""event"",""trial"",""time""
""fullscreenenter"",""5"",""17186""
","
","218","","49","","","3000","1","522,857,1246,1481,1756,1992","49,49,49,49,49,49","images/tutgreenplanet.jpg","images/tutalien2","images/tutalien1","images/tutrocket2","images/tutalien1","images/nothing.png","2","practice","false","1","rare","0","2022-02-20 03:10:02.748"
"two-step-fixation","63","456919","0.0-61.0-2.0","737","808","11","Male","true","true","false","true","""event"",""trial"",""time""
""fullscreenenter"",""5"",""17186""
","
","
","""event"",""trial"",""time""
""fullscreenenter"",""5"",""17186""
","
","","images/earth.jpg","","","","","","","","","","","","","","fixation","","","","","",""
"d3-animate-choice","64","458946","0.0-61.0-0.1","737","808","11","Male","true","true","false","true","""event"",""trial"",""time""
""fullscreenenter"",""5"",""17186""
","
","
","""event"",""trial"",""time""
""fullscreenenter"",""5"",""17186""
","
","16","","48","","","3000","1","270,488,683,888,1103,1299,1499,1703","48,48,48,48,48,48,48,48","images/earth.jpg","images/tutrocket1","images/tutrocket2","null","images/tutrocket1","","1","practice","null","2","","",""
"d3-animate-choice","65","461420","0.0-61.0-1.1","737","808","11","Male","true","true","false","true","""event"",""trial"",""time""
""fullscreenenter"",""5"",""17186""
","
","
","""event"",""trial"",""time""
""fullscreenenter"",""5"",""17186""
","
","463","","49","","","3000","1","748,992,1226,1492,1702,1926,2167","49,49,49,49,49,49,49","images/tutyellowplanet.jpg","images/tutalien4","images/tutalien3","images/tutrocket1","images/tutalien3","images/nothing.png","2","practice","false","1","rare","0","2022-02-20 03:10:08.265"
"two-step-fixation","66","462430","0.0-61.0-2.1","737","808","11","Male","true","true","false","true","""event"",""trial"",""time""
""fullscreenenter"",""5"",""17186""
","
","
","""event"",""trial"",""time""
""fullscreenenter"",""5"",""17186""
","
","","images/earth.jpg","","","","","","","","","","","","","","fixation","","","","","",""
"d3-animate-choice","67","464452","0.0-61.0-0.2","737","808","11","Male","true","true","false","true","""event"",""trial"",""time""
""fullscreenenter"",""5"",""17186""
","
","
","""event"",""trial"",""time""
""fullscreenenter"",""5"",""17186""
","
","11","","49","","","3000","1","423,664,885,1221","49,49,49,49","images/earth.jpg","images/tutrocket1","images/tutrocket2","null","images/tutrocket2","","1","practice","null","1","","",""
"d3-animate-choice","68","466944","0.0-61.0-1.2","737","808","11","Male","true","true","false","true","""event"",""trial"",""time""
""fullscreenenter"",""5"",""17186""
","
","
","""event"",""trial"",""time""
""fullscreenenter"",""5"",""17186""
","
","476","","48","","","3000","1","1205,1496,1731,1971,2210","48,48,48,48,48","images/tutyellowplanet.jpg","images/tutalien4","images/tutalien3","images/tutrocket2","images/tutalien4","images/t.png","2","practice","true","2","common","1","2022-02-20 03:10:13.789"
"two-step-fixation","69","467955","0.0-61.0-2.2","737","808","11","Male","true","true","false","true","""event"",""trial"",""time""
""fullscreenenter"",""5"",""17186""
","
","
","""event"",""trial"",""time""
""fullscreenenter"",""5"",""17186""
","
","","images/earth.jpg","","","","","","","","","","","","","","fixation","","","","","",""
"d3-animate-choice","70","470116","0.0-61.0-0.3","737","808","11","Male","true","true","false","true","""event"",""trial"",""time""
""fullscreenenter"",""5"",""17186""
","
","
","""event"",""trial"",""time""
""fullscreenenter"",""5"",""17186""
","
","158","","49","","","3000","1","438,678,923,1218,1493","49,49,49,49,49","images/earth.jpg","images/tutrocket1","images/tutrocket2","null","images/tutrocket2","","1","practice","null","1","","",""
"d3-animate-choice","71","472607","0.0-61.0-1.3","737","808","11","Male","true","true","false","true","""event"",""trial"",""time""
""fullscreenenter"",""5"",""17186""
","
","
","""event"",""trial"",""time""
""fullscreenenter"",""5"",""17186""
","
","486","","48","","","3000","1","797,1061,1286,1527,1746,1971","48,48,48,48,48,48","images/tutyellowplanet.jpg","images/tutalien4","images/tutalien3","images/tutrocket2","images/tutalien4","images/nothing.png","2","practice","true","2","common","0","2022-02-20 03:10:19.452"
"two-step-fixation","72","473620","0.0-61.0-2.3","737","808","11","Male","true","true","false","true","""event"",""trial"",""time""
""fullscreenenter"",""5"",""17186""
","
","
","""event"",""trial"",""time""
""fullscreenenter"",""5"",""17186""
","
","","images/earth.jpg","","","","","","","","","","","","","","fixation","","","","","",""
"d3-animate-choice","73","475818","0.0-61.0-0.4","737","808","11","Male","true","true","false","true","""event"",""trial"",""time""
""fullscreenenter"",""5"",""17186""
","
","
","""event"",""trial"",""time""
""fullscreenenter"",""5"",""17186""
","
","188","","49","","","3000","1","530,805,1053,1322","49,49,49,49","images/earth.jpg","images/tutrocket1","images/tutrocket2","null","images/tutrocket2","","1","practice","null","1","","",""
"d3-animate-choice","74","479232","0.0-61.0-1.4","737","808","11","Male","true","true","false","true","""event"",""trial"",""time""
""fullscreenenter"",""5"",""17186""
","
","
","""event"",""trial"",""time""
""fullscreenenter"",""5"",""17186""
","
","1396","","49","","","3000","1","1666,1875,2086,2333,2546","49,49,49,49,49","images/tutyellowplanet.jpg","images/tutalien4","images/tutalien3","images/tutrocket2","images/tutalien3","images/nothing.png","2","practice","true","1","common","0","2022-02-20 03:10:26.077"
"two-step-fixation","75","480249","0.0-61.0-2.4","737","808","11","Male","true","true","false","true","""event"",""trial"",""time""
""fullscreenenter"",""5"",""17186""
","
","
","""event"",""trial"",""time""
""fullscreenenter"",""5"",""17186""
","
","","images/earth.jpg","","","","","","","","","","","","","","fixation","","","","","",""
"d3-animate-choice","76","482651","0.0-61.0-0.5","737","808","11","Male","true","true","false","true","""event"",""trial"",""time""
""fullscreenenter"",""5"",""17186""
","
","
","""event"",""trial"",""time""
""fullscreenenter"",""5"",""17186""
","
","387","","48","","","3000","1","749,999,1168,1474,1729","48,48,48,48,48","images/earth.jpg","images/tutrocket1","images/tutrocket2","null","images/tutrocket1","","1","practice","null","2","","",""
"d3-animate-choice","77","485221","0.0-61.0-1.5","737","808","11","Male","true","true","false","true","""event"",""trial"",""time""
""fullscreenenter"",""5"",""17186""
","
","
","""event"",""trial"",""time""
""fullscreenenter"",""5"",""17186""
","
","551","","49","","","3000","1","891,1187,1492,1855","49,49,49,49","images/tutyellowplanet.jpg","images/tutalien4","images/tutalien3","images/tutrocket1","images/tutalien3","images/t.png","2","practice","false","1","rare","1","2022-02-20 03:10:32.066"
"two-step-fixation","78","486238","0.0-61.0-2.5","737","808","11","Male","true","true","false","true","""event"",""trial"",""time""
""fullscreenenter"",""5"",""17186""
","
","
","""event"",""trial"",""time""
""fullscreenenter"",""5"",""17186""
","
","","images/earth.jpg","","","","","","","","","","","","","","fixation","","","","","",""
"d3-animate-choice","79","488588","0.0-61.0-0.6","737","808","11","Male","true","true","false","true","""event"",""trial"",""time""
""fullscreenenter"",""5"",""17186""
","
","
","""event"",""trial"",""time""
""fullscreenenter"",""5"",""17186""
","
","341","","48","","","3000","1","746,1138","48,48","images/earth.jpg","images/tutrocket1","images/tutrocket2","null","images/tutrocket1","","1","practice","null","2","","",""
"d3-animate-choice","80","490981","0.0-61.0-1.6","737","808","11","Male","true","true","false","true","""event"",""trial"",""time""
""fullscreenenter"",""5"",""17186""
","
","
","""event"",""trial"",""time""
""fullscreenenter"",""5"",""17186""
","
","381","","49","","","3000","1","858,1155,1420,1681,2008","49,49,49,49,49","images/tutyellowplanet.jpg","images/tutalien4","images/tutalien3","images/tutrocket1","images/tutalien3","images/nothing.png","2","practice","false","1","rare","0","2022-02-20 03:10:37.826"
"two-step-fixation","81","491988","0.0-61.0-2.6","737","808","11","Male","true","true","false","true","""event"",""trial"",""time""
""fullscreenenter"",""5"",""17186""
","
","
","""event"",""trial"",""time""
""fullscreenenter"",""5"",""17186""
","
","","images/earth.jpg","","","","","","","","","","","","","","fixation","","","","","",""
"d3-animate-choice","82","494412","0.0-61.0-0.7","737","808","11","Male","true","true","false","true","""event"",""trial"",""time""
""fullscreenenter"",""5"",""17186""
","
","
","""event"",""trial"",""time""
""fullscreenenter"",""5"",""17186""
","
","416","","49","","","3000","1","797,1188,1615","49,49,49","images/earth.jpg","images/tutrocket1","images/tutrocket2","null","images/tutrocket2","","1","practice","null","1","","",""
"d3-animate-choice","83","497072","0.0-61.0-1.7","737","808","11","Male","true","true","false","true","""event"",""trial"",""time""
""fullscreenenter"",""5"",""17186""
","
","
","""event"",""trial"",""time""
""fullscreenenter"",""5"",""17186""
","
","648","","48","","","3000","1","1318,1638,1892,2147","48,48,48,48","images/tutgreenplanet.jpg","images/tutalien2","images/tutalien1","images/tutrocket2","images/tutalien2","images/nothing.png","2","practice","false","2","rare","0","2022-02-20 03:10:43.917"
"two-step-fixation","84","498082","0.0-61.0-2.7","737","808","11","Male","true","true","false","true","""event"",""trial"",""time""
""fullscreenenter"",""5"",""17186""
","
","
","""event"",""trial"",""time""
""fullscreenenter"",""5"",""17186""
","
","","images/earth.jpg","","","","","","","","","","","","","","fixation","","","","","",""
"d3-animate-choice","85","500525","0.0-61.0-0.8","737","808","11","Male","true","true","false","true","""event"",""trial"",""time""
""fullscreenenter"",""5"",""17186""
","
","
","""event"",""trial"",""time""
""fullscreenenter"",""5"",""17186""
","
","436","","49","","","3000","1","875,1181,1387","49,49,49","images/earth.jpg","images/tutrocket1","images/tutrocket2","null","images/tutrocket2","","1","practice","null","1","","",""
"d3-animate-choice","86","503042","0.0-61.0-1.8","737","808","11","Male","true","true","false","true","""event"",""trial"",""time""
""fullscreenenter"",""5"",""17186""
","
","
","""event"",""trial"",""time""
""fullscreenenter"",""5"",""17186""
","
","498","","48","","","3000","1","925,1210,1490,1828,2092","48,48,48,48,48","images/tutyellowplanet.jpg","images/tutalien4","images/tutalien3","images/tutrocket2","images/tutalien4","images/nothing.png","2","practice","true","2","common","0","2022-02-20 03:10:49.887"
"two-step-fixation","87","504045","0.0-61.0-2.8","737","808","11","Male","true","true","false","true","""event"",""trial"",""time""
""fullscreenenter"",""5"",""17186""
","
","
","""event"",""trial"",""time""
""fullscreenenter"",""5"",""17186""
","
","","images/earth.jpg","","","","","","","","","","","","","","fixation","","","","","",""
"d3-animate-choice","88","506481","0.0-61.0-0.9","737","808","11","Male","true","true","false","true","""event"",""trial"",""time""
""fullscreenenter"",""5"",""17186""
","
","
","""event"",""trial"",""time""
""fullscreenenter"",""5"",""17186""
","
","417","","49","","","3000","1","1379,1668","49,49","images/earth.jpg","images/tutrocket1","images/tutrocket2","null","images/tutrocket2","","1","practice","null","1","","",""
"d3-animate-choice","89","508970","0.0-61.0-1.9","737","808","11","Male","true","true","false","true","""event"",""trial"",""time""
""fullscreenenter"",""5"",""17186""
","
","
","""event"",""trial"",""time""
""fullscreenenter"",""5"",""17186""
","
","470","","48","","","3000","1","","","images/tutgreenplanet.jpg","images/tutalien2","images/tutalien1","images/tutrocket2","images/tutalien2","images/t.png","2","practice","false","2","rare","1","2022-02-20 03:10:55.815"
"two-step-fixation","90","509984","0.0-61.0-2.9","737","808","11","Male","true","true","false","true","""event"",""trial"",""time""
""fullscreenenter"",""5"",""17186""
","
","
","""event"",""trial"",""time""
""fullscreenenter"",""5"",""17186""
","
","","images/earth.jpg","","","","","","","","","","","","","","fixation","","","","","",""
"d3-animate-choice","91","512318","0.0-61.0-0.10","737","808","11","Male","true","true","false","true","""event"",""trial"",""time""
""fullscreenenter"",""5"",""17186""
","
","
","""event"",""trial"",""time""
""fullscreenenter"",""5"",""17186""
","
","320","","49","","","3000","1","","","images/earth.jpg","images/tutrocket1","images/tutrocket2","null","images/tutrocket2","","1","practice","null","1","","",""
"d3-animate-choice","92","514864","0.0-61.0-1.10","737","808","11","Male","true","true","false","true","""event"",""trial"",""time""
""fullscreenenter"",""5"",""17186""
","
","
","""event"",""trial"",""time""
""fullscreenenter"",""5"",""17186""
","
","530","","48","","","3000","1","1156,1455,1679,1901","48,48,48,48","images/tutyellowplanet.jpg","images/tutalien4","images/tutalien3","images/tutrocket2","images/tutalien4","images/t.png","2","practice","true","2","common","1","2022-02-20 03:11:01.710"
"two-step-fixation","93","515869","0.0-61.0-2.10","737","808","11","Male","true","true","false","true","""event"",""trial"",""time""
""fullscreenenter"",""5"",""17186""
","
","
","""event"",""trial"",""time""
""fullscreenenter"",""5"",""17186""
","
","","images/earth.jpg","","","","","","","","","","","","","","fixation","","","","","",""
"d3-animate-choice","94","518308","0.0-61.0-0.11","737","808","11","Male","true","true","false","true","""event"",""trial"",""time""
""fullscreenenter"",""5"",""17186""
","
","
","""event"",""trial"",""time""
""fullscreenenter"",""5"",""17186""
","
","422","","48","","","3000","1","712,952,1188","48,48,48","images/earth.jpg","images/tutrocket1","images/tutrocket2","null","images/tutrocket1","","1","practice","null","2","","",""
"d3-animate-choice","95","520972","0.0-61.0-1.11","737","808","11","Male","true","true","false","true","""event"",""trial"",""time""
""fullscreenenter"",""5"",""17186""
","
","
","""event"",""trial"",""time""
""fullscreenenter"",""5"",""17186""
","
","644","","49","","","3000","1","1025,1450,1706,1930","49,49,49,49","images/tutgreenplanet.jpg","images/tutalien2","images/tutalien1","images/tutrocket1","images/tutalien1","images/nothing.png","2","practice","true","1","common","0","2022-02-20 03:11:07.817"
"two-step-fixation","96","521979","0.0-61.0-2.11","737","808","11","Male","true","true","false","true","""event"",""trial"",""time""
""fullscreenenter"",""5"",""17186""
","
","
","""event"",""trial"",""time""
""fullscreenenter"",""5"",""17186""
","
","","images/earth.jpg","","","","","","","","","","","","","","fixation","","","","","",""
"d3-animate-choice","97","524572","0.0-61.0-0.12","737","808","11","Male","true","true","false","true","""event"",""trial"",""time""
""fullscreenenter"",""5"",""17186""
","
","
","""event"",""trial"",""time""
""fullscreenenter"",""5"",""17186""
","
","584","","48","","","3000","1","951,1236,1497","48,48,48","images/earth.jpg","images/tutrocket1","images/tutrocket2","null","images/tutrocket1","","1","practice","null","2","","",""
"d3-animate-choice","98","527714","0.0-61.0-1.12","737","808","11","Male","true","true","false","true","""event"",""trial"",""time""
""fullscreenenter"",""5"",""17186""
","
","
","""event"",""trial"",""time""
""fullscreenenter"",""5"",""17186""
","
","1133","","48","","","3000","1","1365,1619,1869,2094,2354","48,48,48,48,48","images/tutyellowplanet.jpg","images/tutalien4","images/tutalien3","images/tutrocket1","images/tutalien4","images/nothing.png","2","practice","false","2","rare","0","2022-02-20 03:11:14.559"
"two-step-fixation","99","528728","0.0-61.0-2.12","737","808","11","Male","true","true","false","true","""event"",""trial"",""time""
""fullscreenenter"",""5"",""17186""
","
","
","""event"",""trial"",""time""
""fullscreenenter"",""5"",""17186""
","
","","images/earth.jpg","","","","","","","","","","","","","","fixation","","","","","",""
"d3-animate-choice","100","531052","0.0-61.0-0.13","737","808","11","Male","true","true","false","true","""event"",""trial"",""time""
""fullscreenenter"",""5"",""17186""
","
","
","""event"",""trial"",""time""
""fullscreenenter"",""5"",""17186""
","
","308","","48","","","3000","1","624,865","48,48","images/earth.jpg","images/tutrocket1","images/tutrocket2","null","images/tutrocket1","","1","practice","null","2","","",""
"d3-animate-choice","101","533789","0.0-61.0-1.13","737","808","11","Male","true","true","false","true","""event"",""trial"",""time""
""fullscreenenter"",""5"",""17186""
","
","
","""event"",""trial"",""time""
""fullscreenenter"",""5"",""17186""
","
","723","","49","","","3000","1","1033,1377,1628","49,49,49","images/tutgreenplanet.jpg","images/tutalien2","images/tutalien1","images/tutrocket1","images/tutalien1","images/nothing.png","2","practice","true","1","common","0","2022-02-20 03:11:20.634"
"two-step-fixation","102","534799","0.0-61.0-2.13","737","808","11","Male","true","true","false","true","""event"",""trial"",""time""
""fullscreenenter"",""5"",""17186""
","
","
","""event"",""trial"",""time""
""fullscreenenter"",""5"",""17186""
","
","","images/earth.jpg","","","","","","","","","","","","","","fixation","","","","","",""
"d3-animate-choice","103","537072","0.0-61.0-0.14","737","808","11","Male","true","true","false","true","""event"",""trial"",""time""
""fullscreenenter"",""5"",""17186""
","
","
","""event"",""trial"",""time""
""fullscreenenter"",""5"",""17186""
","
","254","","48","","","3000","1","757,1031,1272,1561,1821","48,48,48,48,48","images/earth.jpg","images/tutrocket1","images/tutrocket2","null","images/tutrocket1","","1","practice","null","2","","",""
"d3-animate-choice","104","539801","0.0-61.0-1.14","737","808","11","Male","true","true","false","true","""event"",""trial"",""time""
""fullscreenenter"",""5"",""17186""
","
","
","""event"",""trial"",""time""
""fullscreenenter"",""5"",""17186""
","
","717","","48","","","3000","1","1052,1341,1549,1825,2121","48,48,48,48,48","images/tutgreenplanet.jpg","images/tutalien2","images/tutalien1","images/tutrocket1","images/tutalien2","images/nothing.png","2","practice","true","2","common","0","2022-02-20 03:11:26.646"
"two-step-fixation","105","540817","0.0-61.0-2.14","737","808","11","Male","true","true","false","true","""event"",""trial"",""time""
""fullscreenenter"",""5"",""17186""
","
","
","""event"",""trial"",""time""
""fullscreenenter"",""5"",""17186""
","
","","images/earth.jpg","","","","","","","","","","","","","","fixation","","","","","",""
"d3-animate-choice","106","543297","0.0-61.0-0.15","737","808","11","Male","true","true","false","true","""event"",""trial"",""time""
""fullscreenenter"",""5"",""17186""
","
","
","""event"",""trial"",""time""
""fullscreenenter"",""5"",""17186""
","
","473","","48","","","3000","1","817,1104,1338,1587","48,48,48,48","images/earth.jpg","images/tutrocket1","images/tutrocket2","null","images/tutrocket1","","1","practice","null","2","","",""
"d3-animate-choice","107","545814","0.0-61.0-1.15","737","808","11","Male","true","true","false","true","""event"",""trial"",""time""
""fullscreenenter"",""5"",""17186""
","
","
","""event"",""trial"",""time""
""fullscreenenter"",""5"",""17186""
","
","500","","49","","","3000","1","930,1340,1620,1880","49,49,49,49","images/tutgreenplanet.jpg","images/tutalien2","images/tutalien1","images/tutrocket1","images/tutalien1","images/t.png","2","practice","true","1","common","1","2022-02-20 03:11:32.660"
"two-step-fixation","108","546820","0.0-61.0-2.15","737","808","11","Male","true","true","false","true","""event"",""trial"",""time""
""fullscreenenter"",""5"",""17186""
","
","
","""event"",""trial"",""time""
""fullscreenenter"",""5"",""17186""
","
","","images/earth.jpg","","","","","","","","","","","","","","fixation","","","","","",""
"d3-animate-choice","109","549183","0.0-61.0-0.16","737","808","11","Male","true","true","false","true","""event"",""trial"",""time""
""fullscreenenter"",""5"",""17186""
","
","
","""event"",""trial"",""time""
""fullscreenenter"",""5"",""17186""
","
","349","","49","","","3000","1","687,952,1202,1494","49,49,49,49","images/earth.jpg","images/tutrocket1","images/tutrocket2","null","images/tutrocket2","","1","practice","null","1","","",""
"d3-animate-choice","110","551658","0.0-61.0-1.16","737","808","11","Male","true","true","false","true","""event"",""trial"",""time""
""fullscreenenter"",""5"",""17186""
","
","
","""event"",""trial"",""time""
""fullscreenenter"",""5"",""17186""
","
","468","","49","","","3000","1","787,1068,1349,1601,1834","49,49,49,49,49","images/tutgreenplanet.jpg","images/tutalien2","images/tutalien1","images/tutrocket2","images/tutalien1","images/t.png","2","practice","false","1","rare","1","2022-02-20 03:11:38.503"
"two-step-fixation","111","552668","0.0-61.0-2.16","737","808","11","Male","true","true","false","true","""event"",""trial"",""time""
""fullscreenenter"",""5"",""17186""
","
","
","""event"",""trial"",""time""
""fullscreenenter"",""5"",""17186""
","
","","images/earth.jpg","","","","","","","","","","","","","","fixation","","","","","",""
"d3-animate-choice","112","555228","0.0-61.0-0.17","737","808","11","Male","true","true","false","true","""event"",""trial"",""time""
""fullscreenenter"",""5"",""17186""
","
","
","""event"",""trial"",""time""
""fullscreenenter"",""5"",""17186""
","
","552","","49","","","3000","1","931,1177,1384,1615","49,49,49,49","images/earth.jpg","images/tutrocket1","images/tutrocket2","null","images/tutrocket2","","1","practice","null","1","","",""
"d3-animate-choice","113","558184","0.0-61.0-1.17","737","808","11","Male","true","true","false","true","""event"",""trial"",""time""
""fullscreenenter"",""5"",""17186""
","
","
","""event"",""trial"",""time""
""fullscreenenter"",""5"",""17186""
","
","948","","48","","","3000","1","1326,1617,1855,2081,2304","48,48,48,48,48","images/tutyellowplanet.jpg","images/tutalien4","images/tutalien3","images/tutrocket2","images/tutalien4","images/nothing.png","2","practice","true","2","common","0","2022-02-20 03:11:45.029"
"two-step-fixation","114","559185","0.0-61.0-2.17","737","808","11","Male","true","true","false","true","""event"",""trial"",""time""
""fullscreenenter"",""5"",""17186""
","
","
","""event"",""trial"",""time""
""fullscreenenter"",""5"",""17186""
","
","","images/earth.jpg","","","","","","","","","","","","","","fixation","","","","","",""
"d3-animate-choice","115","561487","0.0-61.0-0.18","737","808","11","Male","true","true","false","true","""event"",""trial"",""time""
""fullscreenenter"",""5"",""17186""
","
","
","""event"",""trial"",""time""
""fullscreenenter"",""5"",""17186""
","
","289","","48","","","3000","1","610,841,1070","48,48,48","images/earth.jpg","images/tutrocket1","images/tutrocket2","null","images/tutrocket1","","1","practice","null","2","","",""
"d3-animate-choice","116","564479","0.0-61.0-1.18","737","808","11","Male","true","true","false","true","""event"",""trial"",""time""
""fullscreenenter"",""5"",""17186""
","
","
","""event"",""trial"",""time""
""fullscreenenter"",""5"",""17186""
","
","983","","49","","","3000","1","1332,1614,1849,2079,2364","49,49,49,49,49","images/tutgreenplanet.jpg","images/tutalien2","images/tutalien1","images/tutrocket1","images/tutalien1","images/t.png","2","practice","true","1","common","1","2022-02-20 03:11:51.325"
"two-step-fixation","117","565487","0.0-61.0-2.18","737","808","11","Male","true","true","false","true","""event"",""trial"",""time""
""fullscreenenter"",""5"",""17186""
","
","
","""event"",""trial"",""time""
""fullscreenenter"",""5"",""17186""
","
","","images/earth.jpg","","","","","","","","","","","","","","fixation","","","","","",""
"d3-animate-choice","118","567987","0.0-61.0-0.19","737","808","11","Male","true","true","false","true","""event"",""trial"",""time""
""fullscreenenter"",""5"",""17186""
","
","
","""event"",""trial"",""time""
""fullscreenenter"",""5"",""17186""
","
","494","","48","","","3000","1","832,1083,1327","48,48,48","images/earth.jpg","images/tutrocket1","images/tutrocket2","null","images/tutrocket1","","1","practice","null","2","","",""
"d3-animate-choice","119","570438","0.0-61.0-1.19","737","808","11","Male","true","true","false","true","""event"",""trial"",""time""
""fullscreenenter"",""5"",""17186""
","
","
","""event"",""trial"",""time""
""fullscreenenter"",""5"",""17186""
","
","439","","49","","","3000","1","802,1113,1402,1637","49,49,49,49","images/tutgreenplanet.jpg","images/tutalien2","images/tutalien1","images/tutrocket1","images/tutalien1","images/nothing.png","2","practice","true","1","common","0","2022-02-20 03:11:57.283"
"two-step-fixation","120","571442","0.0-61.0-2.19","737","808","11","Male","true","true","false","true","""event"",""trial"",""time""
""fullscreenenter"",""5"",""17186""
","
","
","""event"",""trial"",""time""
""fullscreenenter"",""5"",""17186""
","
","","images/earth.jpg","","","","","","","","","","","","","","fixation","","","","","",""
"d3-instructions","121","578392","0.0-62.0","737","808","11","Male","true","true","false","true","""event"",""trial"",""time""
""fullscreenenter"",""5"",""17186""
","
","
","""event"",""trial"",""time""
""fullscreenenter"",""5"",""17186""
","
","","","","","","","","","","","","","","","","","","","","","",""
"audio-keyboard-response","122","582859","0.0-63.0","737","808","11","Male","true","true","false","true","""event"",""trial"",""time""
""fullscreenenter"",""5"",""17186""
","
","
","""event"",""trial"",""time""
""fullscreenenter"",""5"",""17186""
","
","4470","audio/instructions/treasure_feedback.wav","32","","","","","","","","","","","","","","","","","","",""
"d3-instructions","123","605711","0.0-64.0","737","808","11","Male","true","true","false","true","""event"",""trial"",""time""
""fullscreenenter"",""5"",""17186""
","
","
","""event"",""trial"",""time""
""fullscreenenter"",""5"",""17186""
","
","","","","","","","","","","","","","","","","","","","","","",""
"d3-instructions","124","621778","0.0-65.0","737","808","11","Male","true","true","false","true","""event"",""trial"",""time""
""fullscreenenter"",""5"",""17186""
","
","
","""event"",""trial"",""time""
""fullscreenenter"",""5"",""17186""
","
","","","","","","","","","","","","","","","","","","","","","",""
"d3-instructions","125","646866","0.0-66.0","737","808","11","Male","true","true","false","true","""event"",""trial"",""time""
""fullscreenenter"",""5"",""17186""
","
","
","""event"",""trial"",""time""
""fullscreenenter"",""5"",""17186""
","
","","","","","","","","","","","","","","","","","","","","","",""
"d3-instructions","126","663852","0.0-67.0","737","808","11","Male","true","true","false","true","""event"",""trial"",""time""
""fullscreenenter"",""5"",""17186""
","
","
","""event"",""trial"",""time""
""fullscreenenter"",""5"",""17186""
","
","","","","","","","","","","","","","","","","","","","","","",""
"d3-instructions","127","672046","0.0-68.0","737","808","11","Male","true","true","false","true","""event"",""trial"",""time""
""fullscreenenter"",""5"",""17186""
","
","
","""event"",""trial"",""time""
""fullscreenenter"",""5"",""17186""
","
","","","","","","","","","","","","","","","","","","","","","",""
"instructions-quiz","128","677111","0.0-69.0","737","808","11","Male","true","true","false","true","""event"",""trial"",""time""
""fullscreenenter"",""5"",""17186""
","
","
","""event"",""trial"",""time""
""fullscreenenter"",""5"",""17186""
","
","5056","audio/quiz/Q1_Prompt.wav","","1","","","","","","","","","","","","","","","","","",""
"audio-keyboard-response","129","685779","0.0-70.0","737","808","11","Male","true","true","false","true","""event"",""trial"",""time""
""fullscreenenter"",""5"",""17186""
","
","
","""event"",""trial"",""time""
""fullscreenenter"",""5"",""17186""
","
","8678","audio/quiz/Q1_Correct.wav","32","","","","","","","","","","","","","","","","","","",""
"instructions-quiz","130","695603","0.0-71.0","737","808","11","Male","true","true","false","true","""event"",""trial"",""time""
""fullscreenenter"",""5"",""17186""
","
","
","""event"",""trial"",""time""
""fullscreenenter"",""5"",""17186""
","
","9821","audio/quiz/Q2_Prompt.wav","","1","","","","","","","","","","","","","","","","","",""
"audio-keyboard-response","131","709284","0.0-72.0","737","808","11","Male","true","true","false","true","""event"",""trial"",""time""
""fullscreenenter"",""5"",""17186""
","
","
","""event"",""trial"",""time""
""fullscreenenter"",""5"",""17186""
","
","13682","audio/quiz/Q2_Incorrect.wav","32","","","","","","","","","","","","","","","","","","",""
"instructions-quiz","132","714016","0.0-73.0","737","808","11","Male","true","true","false","true","""event"",""trial"",""time""
""fullscreenenter"",""5"",""17186""
","
","
","""event"",""trial"",""time""
""fullscreenenter"",""5"",""17186""
","
","4730","audio/quiz/Q3_Prompt.wav","","1","","","","","","","","","","","","","","","","","",""
"audio-keyboard-response","133","719468","0.0-74.0","737","808","11","Male","true","true","false","true","""event"",""trial"",""time""
""fullscreenenter"",""5"",""17186""
","
","
","""event"",""trial"",""time""
""fullscreenenter"",""5"",""17186""
","
","5448","audio/quiz/Q3_Correct.wav","32","","","","","","","","","","","","","","","","","","",""
"d3-instructions","134","734469","0.0-75.0","737","808","11","Male","true","true","false","true","""event"",""trial"",""time""
""fullscreenenter"",""5"",""17186""
","
","
","""event"",""trial"",""time""
""fullscreenenter"",""5"",""17186""
","
","","","","","","","","","","","","","","","","","","","","","",""
"d3-animate-choice","135","737629","0.0-76.0-0.0","737","808","11","Male","true","true","false","true","""event"",""trial"",""time""
""fullscreenenter"",""5"",""17186""
","
","
","""event"",""trial"",""time""
""fullscreenenter"",""5"",""17186""
","
","1141","","49","","","3000","1","1627,1917,2272,2559","49,49,49,49","images/earth.jpg","images/rocket2","images/rocket1","null","images/rocket1","","1","real","null","1","","",""
"d3-animate-choice","136","740737","0.0-76.0-1.0","737","808","11","Male","true","true","false","true","""event"",""trial"",""time""
""fullscreenenter"",""5"",""17186""
","
","
","""event"",""trial"",""time""
""fullscreenenter"",""5"",""17186""
","
","105","","32","","","3000","1","1100,1440,1755,2005,2461,2867","49,49,49,49,49,49","images/redplanet1.jpg","images/alien2","images/alien1","images/rocket1","images/alien1","images/t.png","2","real","true","","common","1","2022-02-20 03:14:47.582"
"two-step-fixation","137","741742","0.0-76.0-2.0","737","808","11","Male","true","true","false","true","""event"",""trial"",""time""
""fullscreenenter"",""5"",""17186""
","
","
","""event"",""trial"",""time""
""fullscreenenter"",""5"",""17186""
","
","","images/earth.jpg","","","","","","","","","","","","","","fixation","","","","","",""
"d3-animate-choice","138","743926","0.0-76.0-0.1","737","808","11","Male","true","true","false","true","""event"",""trial"",""time""
""fullscreenenter"",""5"",""17186""
","
","
","""event"",""trial"",""time""
""fullscreenenter"",""5"",""17186""
","
","175","","49","","","3000","1","466,695,935,1181,1411,1661,1931","49,49,49,49,49,49,49","images/earth.jpg","images/rocket2","images/rocket1","null","images/rocket1","","1","real","null","1","","",""
"d3-animate-choice","139","746754","0.0-76.0-1.1","737","808","11","Male","true","true","false","true","""event"",""trial"",""time""
""fullscreenenter"",""5"",""17186""
","
","
","""event"",""trial"",""time""
""fullscreenenter"",""5"",""17186""
","
","810","","48","","","3000","1","1376,1697,1993,2252","48,48,48,48","images/purpleplanet.jpg","images/alien4","images/alien3","images/rocket1","images/alien4","images/nothing.png","2","real","false","2","rare","0","2022-02-20 03:14:53.599"
"two-step-fixation","140","747771","0.0-76.0-2.1","737","808","11","Male","true","true","false","true","""event"",""trial"",""time""
""fullscreenenter"",""5"",""17186""
","
","
","""event"",""trial"",""time""
""fullscreenenter"",""5"",""17186""
","
","","images/earth.jpg","","","","","","","","","","","","","","fixation","","","","","",""
"d3-animate-choice","141","750126","0.0-76.0-0.2","737","808","11","Male","true","true","false","true","""event"",""trial"",""time""
""fullscreenenter"",""5"",""17186""
","
","
","""event"",""trial"",""time""
""fullscreenenter"",""5"",""17186""
","
","349","","49","","","3000","1","745,1045,1371,1686","49,49,49,49","images/earth.jpg","images/rocket2","images/rocket1","null","images/rocket1","","1","real","null","1","","",""
"d3-animate-choice","142","753264","0.0-76.0-1.2","737","808","11","Male","true","true","false","true","""event"",""trial"",""time""
""fullscreenenter"",""5"",""17186""
","
","
","""event"",""trial"",""time""
""fullscreenenter"",""5"",""17186""
","
","1127","","48","","","3000","1","1676,1972,2288,2591","48,48,48,48","images/redplanet1.jpg","images/alien2","images/alien1","images/rocket1","images/alien2","images/nothing.png","2","real","true","2","common","0","2022-02-20 03:15:00.109"
"two-step-fixation","143","754269","0.0-76.0-2.2","737","808","11","Male","true","true","false","true","""event"",""trial"",""time""
""fullscreenenter"",""5"",""17186""
","
","
","""event"",""trial"",""time""
""fullscreenenter"",""5"",""17186""
","
","","images/earth.jpg","","","","","","","","","","","","","","fixation","","","","","",""
"d3-animate-choice","144","756746","0.0-76.0-0.3","737","808","11","Male","true","true","false","true","""event"",""trial"",""time""
""fullscreenenter"",""5"",""17186""
","
","
","""event"",""trial"",""time""
""fullscreenenter"",""5"",""17186""
","
","466","","48","","","3000","1","906,1208,1478","48,48,48","images/earth.jpg","images/rocket2","images/rocket1","null","images/rocket2","","1","real","null","2","","",""
"d3-animate-choice","145","759373","0.0-76.0-1.3","737","808","11","Male","true","true","false","true","""event"",""trial"",""time""
""fullscreenenter"",""5"",""17186""
","
","
","""event"",""trial"",""time""
""fullscreenenter"",""5"",""17186""
","
","623","","48","","","3000","1","1038,1305,1540,1780","48,48,48,48","images/purpleplanet.jpg","images/alien4","images/alien3","images/rocket2","images/alien4","images/t.png","2","real","true","2","common","1","2022-02-20 03:15:06.218"
"two-step-fixation","146","760388","0.0-76.0-2.3","737","808","11","Male","true","true","false","true","""event"",""trial"",""time""
""fullscreenenter"",""5"",""17186""
","
","
","""event"",""trial"",""time""
""fullscreenenter"",""5"",""17186""
","
","","images/earth.jpg","","","","","","","","","","","","","","fixation","","","","","",""
"d3-animate-choice","147","762803","0.0-76.0-0.4","737","808","11","Male","true","true","false","true","""event"",""trial"",""time""
""fullscreenenter"",""5"",""17186""
","
","
","""event"",""trial"",""time""
""fullscreenenter"",""5"",""17186""
","
","411","","48","","","3000","1","769,1045,1312","48,48,48","images/earth.jpg","images/rocket2","images/rocket1","null","images/rocket2","","1","real","null","2","","",""
"d3-animate-choice","148","766071","0.0-76.0-1.4","737","808","11","Male","true","true","false","true","""event"",""trial"",""time""
""fullscreenenter"",""5"",""17186""
","
","
","""event"",""trial"",""time""
""fullscreenenter"",""5"",""17186""
","
","1258","","49","","","3000","1","1614,1885,2135,2379,2593","49,49,49,49,49","images/redplanet1.jpg","images/alien2","images/alien1","images/rocket2","images/alien1","images/nothing.png","2","real","false","1","rare","0","2022-02-20 03:15:12.916"
"two-step-fixation","149","767088","0.0-76.0-2.4","737","808","11","Male","true","true","false","true","""event"",""trial"",""time""
""fullscreenenter"",""5"",""17186""
","
","
","""event"",""trial"",""time""
""fullscreenenter"",""5"",""17186""
","
","","images/earth.jpg","","","","","","","","","","","","","","fixation","","","","","",""
"d3-animate-choice","150","769514","0.0-76.0-0.5","737","808","11","Male","true","true","false","true","""event"",""trial"",""time""
""fullscreenenter"",""5"",""17186""
","
","
","""event"",""trial"",""time""
""fullscreenenter"",""5"",""17186""
","
","409","","48","","","3000","1","799,1050,1331,1642","48,48,48,48","images/earth.jpg","images/rocket2","images/rocket1","null","images/rocket2","","1","real","null","2","","",""
"d3-animate-choice","151","772182","0.0-76.0-1.5","737","808","11","Male","true","true","false","true","""event"",""trial"",""time""
""fullscreenenter"",""5"",""17186""
","
","
","""event"",""trial"",""time""
""fullscreenenter"",""5"",""17186""
","
","658","","48","","","3000","1","1013,1294,1532,1773,2079","48,48,48,48,48","images/purpleplanet.jpg","images/alien4","images/alien3","images/rocket2","images/alien4","images/nothing.png","2","real","true","2","common","0","2022-02-20 03:15:19.027"
"two-step-fixation","152","773192","0.0-76.0-2.5","737","808","11","Male","true","true","false","true","""event"",""trial"",""time""
""fullscreenenter"",""5"",""17186""
","
","
","""event"",""trial"",""time""
""fullscreenenter"",""5"",""17186""
","
","","images/earth.jpg","","","","","","","","","","","","","","fixation","","","","","",""
"d3-animate-choice","153","775599","0.0-76.0-0.6","737","808","11","Male","true","true","false","true","""event"",""trial"",""time""
""fullscreenenter"",""5"",""17186""
","
","
","""event"",""trial"",""time""
""fullscreenenter"",""5"",""17186""
","
","393","","48","","","3000","1","809,1109","48,48","images/earth.jpg","images/rocket2","images/rocket1","null","images/rocket2","","1","real","null","2","","",""
"d3-animate-choice","154","778111","0.0-76.0-1.6","737","808","11","Male","true","true","false","true","""event"",""trial"",""time""
""fullscreenenter"",""5"",""17186""
","
","
","""event"",""trial"",""time""
""fullscreenenter"",""5"",""17186""
","
","499","","48","","","3000","1","869,1139,1394,1595","48,48,48,48","images/purpleplanet.jpg","images/alien4","images/alien3","images/rocket2","images/alien4","images/t.png","2","real","true","2","common","1","2022-02-20 03:15:24.956"
"two-step-fixation","155","779124","0.0-76.0-2.6","737","808","11","Male","true","true","false","true","""event"",""trial"",""time""
""fullscreenenter"",""5"",""17186""
","
","
","""event"",""trial"",""time""
""fullscreenenter"",""5"",""17186""
","
","","images/earth.jpg","","","","","","","","","","","","","","fixation","","","","","",""
"d3-animate-choice","156","781689","0.0-76.0-0.7","737","808","11","Male","true","true","false","true","""event"",""trial"",""time""
""fullscreenenter"",""5"",""17186""
","
","
","""event"",""trial"",""time""
""fullscreenenter"",""5"",""17186""
","
","557","","49","","","3000","1","928,1249,1553","49,49,49","images/earth.jpg","images/rocket2","images/rocket1","null","images/rocket1","","1","real","null","1","","",""
"d3-animate-choice","157","784315","0.0-76.0-1.7","737","808","11","Male","true","true","false","true","""event"",""trial"",""time""
""fullscreenenter"",""5"",""17186""
","
","
","""event"",""trial"",""time""
""fullscreenenter"",""5"",""17186""
","
","618","","48","","","3000","1","1024,1323,1570","48,48,48","images/redplanet1.jpg","images/alien2","images/alien1","images/rocket1","images/alien2","images/t.png","2","real","true","2","common","1","2022-02-20 03:15:31.160"
"two-step-fixation","158","785322","0.0-76.0-2.7","737","808","11","Male","true","true","false","true","""event"",""trial"",""time""
""fullscreenenter"",""5"",""17186""
","
","
","""event"",""trial"",""time""
""fullscreenenter"",""5"",""17186""
","
","","images/earth.jpg","","","","","","","","","","","","","","fixation","","","","","",""
"d3-animate-choice","159","787770","0.0-76.0-0.8","737","808","11","Male","true","true","false","true","""event"",""trial"",""time""
""fullscreenenter"",""5"",""17186""
","
","
","""event"",""trial"",""time""
""fullscreenenter"",""5"",""17186""
","
","435","","48","","","3000","1","752,1011","48,48","images/earth.jpg","images/rocket2","images/rocket1","null","images/rocket2","","1","real","null","2","","",""
"d3-animate-choice","160","790469","0.0-76.0-1.8","737","808","11","Male","true","true","false","true","""event"",""trial"",""time""
""fullscreenenter"",""5"",""17186""
","
","
","""event"",""trial"",""time""
""fullscreenenter"",""5"",""17186""
","
","695","","49","","","3000","1","1040,1326,1639","49,49,49","images/purpleplanet.jpg","images/alien4","images/alien3","images/rocket2","images/alien3","images/nothing.png","2","real","true","1","common","0","2022-02-20 03:15:37.314"
"two-step-fixation","161","791478","0.0-76.0-2.8","737","808","11","Male","true","true","false","true","""event"",""trial"",""time""
""fullscreenenter"",""5"",""17186""
","
","
","""event"",""trial"",""time""
""fullscreenenter"",""5"",""17186""
","
","","images/earth.jpg","","","","","","","","","","","","","","fixation","","","","","",""
"d3-animate-choice","162","793818","0.0-76.0-0.9","737","808","11","Male","true","true","false","true","""event"",""trial"",""time""
""fullscreenenter"",""5"",""17186""
","
","
","""event"",""trial"",""time""
""fullscreenenter"",""5"",""17186""
","
","333","","48","","","3000","1","707,976,1265","48,48,48","images/earth.jpg","images/rocket2","images/rocket1","null","images/rocket2","","1","real","null","2","","",""
"d3-animate-choice","163","796351","0.0-76.0-1.9","737","808","11","Male","true","true","false","true","""event"",""trial"",""time""
""fullscreenenter"",""5"",""17186""
","
","
","""event"",""trial"",""time""
""fullscreenenter"",""5"",""17186""
","
","525","","48","","","3000","1","980,1229","48,48","images/purpleplanet.jpg","images/alien4","images/alien3","images/rocket2","images/alien4","images/t.png","2","real","true","2","common","1","2022-02-20 03:15:43.196"
"two-step-fixation","164","797364","0.0-76.0-2.9","737","808","11","Male","true","true","false","true","""event"",""trial"",""time""
""fullscreenenter"",""5"",""17186""
","
","
","""event"",""trial"",""time""
""fullscreenenter"",""5"",""17186""
","
","","images/earth.jpg","","","","","","","","","","","","","","fixation","","","","","",""
"d3-animate-choice","165","799790","0.0-76.0-0.10","737","808","11","Male","true","true","false","true","""event"",""trial"",""time""
""fullscreenenter"",""5"",""17186""
","
","
","""event"",""trial"",""time""
""fullscreenenter"",""5"",""17186""
","
","420","","48","","","3000","1","795,1089,1355","48,48,48","images/earth.jpg","images/rocket2","images/rocket1","null","images/rocket2","","1","real","null","2","","",""
"d3-animate-choice","166","802324","0.0-76.0-1.10","737","808","11","Male","true","true","false","true","""event"",""trial"",""time""
""fullscreenenter"",""5"",""17186""
","
","
","""event"",""trial"",""time""
""fullscreenenter"",""5"",""17186""
","
","522","","48","","","3000","1","877,1185,1464","48,48,48","images/purpleplanet.jpg","images/alien4","images/alien3","images/rocket2","images/alien4","images/nothing.png","2","real","true","2","common","0","2022-02-20 03:15:49.170"
"two-step-fixation","167","803328","0.0-76.0-2.10","737","808","11","Male","true","true","false","true","""event"",""trial"",""time""
""fullscreenenter"",""5"",""17186""
","
","
","""event"",""trial"",""time""
""fullscreenenter"",""5"",""17186""
","
","","images/earth.jpg","","","","","","","","","","","","","","fixation","","","","","",""
"d3-animate-choice","168","805712","0.0-76.0-0.11","737","808","11","Male","true","true","false","true","""event"",""trial"",""time""
""fullscreenenter"",""5"",""17186""
","
","
","""event"",""trial"",""time""
""fullscreenenter"",""5"",""17186""
","
","378","","49","","","3000","1","714,1004,1313","49,49,49","images/earth.jpg","images/rocket2","images/rocket1","null","images/rocket1","","1","real","null","1","","",""
"d3-animate-choice","169","808292","0.0-76.0-1.11","737","808","11","Male","true","true","false","true","""event"",""trial"",""time""
""fullscreenenter"",""5"",""17186""
","
","
","""event"",""trial"",""time""
""fullscreenenter"",""5"",""17186""
","
","574","","49","","","3000","1","1028,1332,1614,1861","49,49,49,49","images/redplanet1.jpg","images/alien2","images/alien1","images/rocket1","images/alien1","images/nothing.png","2","real","true","1","common","0","2022-02-20 03:15:55.137"
"two-step-fixation","170","809294","0.0-76.0-2.11","737","808","11","Male","true","true","false","true","""event"",""trial"",""time""
""fullscreenenter"",""5"",""17186""
","
","
","""event"",""trial"",""time""
""fullscreenenter"",""5"",""17186""
","
","","images/earth.jpg","","","","","","","","","","","","","","fixation","","","","","",""
"d3-animate-choice","171","811636","0.0-76.0-0.12","737","808","11","Male","true","true","false","true","""event"",""trial"",""time""
""fullscreenenter"",""5"",""17186""
","
","
","""event"",""trial"",""time""
""fullscreenenter"",""5"",""17186""
","
","327","","48","","","3000","1","698,983,1269","48,48,48","images/earth.jpg","images/rocket2","images/rocket1","null","images/rocket2","","1","real","null","2","","",""
"d3-animate-choice","172","814154","0.0-76.0-1.12","737","808","11","Male","true","true","false","true","""event"",""trial"",""time""
""fullscreenenter"",""5"",""17186""
","
","
","""event"",""trial"",""time""
""fullscreenenter"",""5"",""17186""
","
","504","","48","","","3000","1","865,1144,1393","48,48,48","images/purpleplanet.jpg","images/alien4","images/alien3","images/rocket2","images/alien4","images/t.png","2","real","true","2","common","1","2022-02-20 03:16:00.999"
"two-step-fixation","173","815170","0.0-76.0-2.12","737","808","11","Male","true","true","false","true","""event"",""trial"",""time""
""fullscreenenter"",""5"",""17186""
","
","
","""event"",""trial"",""time""
""fullscreenenter"",""5"",""17186""
","
","","images/earth.jpg","","","","","","","","","","","","","","fixation","","","","","",""
"d3-animate-choice","174","817543","0.0-76.0-0.13","737","808","11","Male","true","true","false","true","""event"",""trial"",""time""
""fullscreenenter"",""5"",""17186""
","
","
","""event"",""trial"",""time""
""fullscreenenter"",""5"",""17186""
","
","356","","48","","","3000","1","702,971","48,48","images/earth.jpg","images/rocket2","images/rocket1","null","images/rocket2","","1","real","null","2","","",""
"d3-animate-choice","175","819876","0.0-76.0-1.13","737","808","11","Male","true","true","false","true","""event"",""trial"",""time""
""fullscreenenter"",""5"",""17186""
","
","
","""event"",""trial"",""time""
""fullscreenenter"",""5"",""17186""
","
","320","","48","","","3000","1","706,974,1235","48,48,48","images/purpleplanet.jpg","images/alien4","images/alien3","images/rocket2","images/alien4","images/t.png","2","real","true","2","common","1","2022-02-20 03:16:06.721"
"two-step-fixation","176","820888","0.0-76.0-2.13","737","808","11","Male","true","true","false","true","""event"",""trial"",""time""
""fullscreenenter"",""5"",""17186""
","
","
","""event"",""trial"",""time""
""fullscreenenter"",""5"",""17186""
","
","","images/earth.jpg","","","","","","","","","","","","","","fixation","","","","","",""
"d3-animate-choice","177","823645","0.0-76.0-0.14","737","808","11","Male","true","true","false","true","""event"",""trial"",""time""
""fullscreenenter"",""5"",""17186""
","
","
","""event"",""trial"",""time""
""fullscreenenter"",""5"",""17186""
","
","747","","48","","","3000","1","1136,1428","48,48","images/earth.jpg","images/rocket2","images/rocket1","null","images/rocket2","","1","real","null","2","","",""
"d3-animate-choice","178","826442","0.0-76.0-1.14","737","808","11","Male","true","true","false","true","""event"",""trial"",""time""
""fullscreenenter"",""5"",""17186""
","
","
","""event"",""trial"",""time""
""fullscreenenter"",""5"",""17186""
","
","787","","48","","","3000","1","1219,1606,1875,2150","48,48,48,48","images/purpleplanet.jpg","images/alien4","images/alien3","images/rocket2","images/alien4","images/t.png","2","real","true","2","common","1","2022-02-20 03:16:13.287"
"two-step-fixation","179","827460","0.0-76.0-2.14","737","808","11","Male","true","true","false","true","""event"",""trial"",""time""
""fullscreenenter"",""5"",""17186""
","
","
","""event"",""trial"",""time""
""fullscreenenter"",""5"",""17186""
","
","","images/earth.jpg","","","","","","","","","","","","","","fixation","","","","","",""
"d3-animate-choice","180","829818","0.0-76.0-0.15","737","808","11","Male","true","true","false","true","""event"",""trial"",""time""
""fullscreenenter"",""5"",""17186""
","
","
","""event"",""trial"",""time""
""fullscreenenter"",""5"",""17186""
","
","354","","48","","","3000","1","707,949,1229","48,48,48","images/earth.jpg","images/rocket2","images/rocket1","null","images/rocket2","","1","real","null","2","","",""
"d3-animate-choice","181","832433","0.0-76.0-1.15","737","808","11","Male","true","true","false","true","""event"",""trial"",""time""
""fullscreenenter"",""5"",""17186""
","
","
","""event"",""trial"",""time""
""fullscreenenter"",""5"",""17186""
","
","598","","48","","","3000","1","938,1267,1549","48,48,48","images/purpleplanet.jpg","images/alien4","images/alien3","images/rocket2","images/alien4","images/nothing.png","2","real","true","2","common","0","2022-02-20 03:16:19.279"
"two-step-fixation","182","833437","0.0-76.0-2.15","737","808","11","Male","true","true","false","true","""event"",""trial"",""time""
""fullscreenenter"",""5"",""17186""
","
","
","""event"",""trial"",""time""
""fullscreenenter"",""5"",""17186""
","
","","images/earth.jpg","","","","","","","","","","","","","","fixation","","","","","",""
"d3-animate-choice","183","836025","0.0-76.0-0.16","737","808","11","Male","true","true","false","true","""event"",""trial"",""time""
""fullscreenenter"",""5"",""17186""
","
","
","""event"",""trial"",""time""
""fullscreenenter"",""5"",""17186""
","
","579","","48","","","3000","1","971,1266,1536","48,48,48","images/earth.jpg","images/rocket2","images/rocket1","null","images/rocket2","","1","real","null","2","","",""
"d3-animate-choice","184","838724","0.0-76.0-1.16","737","808","11","Male","true","true","false","true","""event"",""trial"",""time""
""fullscreenenter"",""5"",""17186""
","
","
","""event"",""trial"",""time""
""fullscreenenter"",""5"",""17186""
","
","687","","49","","","3000","1","1124,1415,1665,1894","49,49,49,49","images/redplanet1.jpg","images/alien2","images/alien1","images/rocket2","images/alien1","images/t.png","2","real","false","1","rare","1","2022-02-20 03:16:25.569"
"two-step-fixation","185","839733","0.0-76.0-2.16","737","808","11","Male","true","true","false","true","""event"",""trial"",""time""
""fullscreenenter"",""5"",""17186""
","
","
","""event"",""trial"",""time""
""fullscreenenter"",""5"",""17186""
","
","","images/earth.jpg","","","","","","","","","","","","","","fixation","","","","","",""
"d3-animate-choice","186","842114","0.0-76.0-0.17","737","808","11","Male","true","true","false","true","""event"",""trial"",""time""
""fullscreenenter"",""5"",""17186""
","
","
","""event"",""trial"",""time""
""fullscreenenter"",""5"",""17186""
","
","357","","49","","","3000","1","702,972","49,49","images/earth.jpg","images/rocket2","images/rocket1","null","images/rocket1","","1","real","null","1","","",""
"d3-animate-choice","187","844966","0.0-76.0-1.17","737","808","11","Male","true","true","false","true","""event"",""trial"",""time""
""fullscreenenter"",""5"",""17186""
","
","
","""event"",""trial"",""time""
""fullscreenenter"",""5"",""17186""
","
","846","","49","","","3000","1","1157,1467,1729","49,49,49","images/redplanet1.jpg","images/alien2","images/alien1","images/rocket1","images/alien1","images/t.png","2","real","true","1","common","1","2022-02-20 03:16:31.811"
"two-step-fixation","188","845983","0.0-76.0-2.17","737","808","11","Male","true","true","false","true","""event"",""trial"",""time""
""fullscreenenter"",""5"",""17186""
","
","
","""event"",""trial"",""time""
""fullscreenenter"",""5"",""17186""
","
","","images/earth.jpg","","","","","","","","","","","","","","fixation","","","","","",""
"d3-animate-choice","189","848413","0.0-76.0-0.18","737","808","11","Male","true","true","false","true","""event"",""trial"",""time""
""fullscreenenter"",""5"",""17186""
","
","
","""event"",""trial"",""time""
""fullscreenenter"",""5"",""17186""
","
","411","","49","","","3000","1","771,1010,1556","49,49,49","images/earth.jpg","images/rocket2","images/rocket1","null","images/rocket1","","1","real","null","1","","",""
"d3-animate-choice","190","851294","0.0-76.0-1.18","737","808","11","Male","true","true","false","true","""event"",""trial"",""time""
""fullscreenenter"",""5"",""17186""
","
","
","""event"",""trial"",""time""
""fullscreenenter"",""5"",""17186""
","
","866","","49","","","3000","1","1247,1551,1842","49,49,49","images/redplanet1.jpg","images/alien2","images/alien1","images/rocket1","images/alien1","images/nothing.png","2","real","true","1","common","0","2022-02-20 03:16:38.139"
"two-step-fixation","191","852304","0.0-76.0-2.18","737","808","11","Male","true","true","false","true","""event"",""trial"",""time""
""fullscreenenter"",""5"",""17186""
","
","
","""event"",""trial"",""time""
""fullscreenenter"",""5"",""17186""
","
","","images/earth.jpg","","","","","","","","","","","","","","fixation","","","","","",""
"d3-animate-choice","192","854700","0.0-76.0-0.19","737","808","11","Male","true","true","false","true","""event"",""trial"",""time""
""fullscreenenter"",""5"",""17186""
","
","
","""event"",""trial"",""time""
""fullscreenenter"",""5"",""17186""
","
","387","","49","","","3000","1","753,1044","49,49","images/earth.jpg","images/rocket2","images/rocket1","null","images/rocket1","","1","real","null","1","","",""
"d3-animate-choice","193","857282","0.0-76.0-1.19","737","808","11","Male","true","true","false","true","""event"",""trial"",""time""
""fullscreenenter"",""5"",""17186""
","
","
","""event"",""trial"",""time""
""fullscreenenter"",""5"",""17186""
","
","565","","48","","","3000","1","1064,1340,1629","48,48,48","images/redplanet1.jpg","images/alien2","images/alien1","images/rocket1","images/alien2","images/t.png","2","real","true","2","common","1","2022-02-20 03:16:44.127"
"two-step-fixation","194","858292","0.0-76.0-2.19","737","808","11","Male","true","true","false","true","""event"",""trial"",""time""
""fullscreenenter"",""5"",""17186""
","
","
","""event"",""trial"",""time""
""fullscreenenter"",""5"",""17186""
","
","","images/earth.jpg","","","","","","","","","","","","","","fixation","","","","","",""
"d3-animate-choice","195","860882","0.0-76.0-0.20","737","808","11","Male","true","true","false","true","""event"",""trial"",""time""
""fullscreenenter"",""5"",""17186""
","
","
","""event"",""trial"",""time""
""fullscreenenter"",""5"",""17186""
","
","572","","49","","","3000","1","932,1202,1604","49,49,49","images/earth.jpg","images/rocket2","images/rocket1","null","images/rocket1","","1","real","null","1","","",""
"d3-animate-choice","196","863502","0.0-76.0-1.20","737","808","11","Male","true","true","false","true","""event"",""trial"",""time""
""fullscreenenter"",""5"",""17186""
","
","
","""event"",""trial"",""time""
""fullscreenenter"",""5"",""17186""
","
","607","","49","","","3000","1","978,1267,1531,1786","49,49,49,49","images/redplanet1.jpg","images/alien2","images/alien1","images/rocket1","images/alien1","images/t.png","2","real","true","1","common","1","2022-02-20 03:16:50.348"
"two-step-fixation","197","864507","0.0-76.0-2.20","737","808","11","Male","true","true","false","true","""event"",""trial"",""time""
""fullscreenenter"",""5"",""17186""
","
","
","""event"",""trial"",""time""
""fullscreenenter"",""5"",""17186""
","
","","images/earth.jpg","","","","","","","","","","","","","","fixation","","","","","",""
"d3-animate-choice","198","867044","0.0-76.0-0.21","737","808","11","Male","true","true","false","true","""event"",""trial"",""time""
""fullscreenenter"",""5"",""17186""
","
","
","""event"",""trial"",""time""
""fullscreenenter"",""5"",""17186""
","
","520","","48","","","3000","1","910,1170,1448,1687","48,48,48,48","images/earth.jpg","images/rocket2","images/rocket1","null","images/rocket2","","1","real","null","2","","",""
"d3-animate-choice","199","869785","0.0-76.0-1.21","737","808","11","Male","true","true","false","true","""event"",""trial"",""time""
""fullscreenenter"",""5"",""17186""
","
","
","""event"",""trial"",""time""
""fullscreenenter"",""5"",""17186""
","
","733","","49","","","3000","1","1159,1454,1705,1954","49,49,49,49","images/purpleplanet.jpg","images/alien4","images/alien3","images/rocket2","images/alien3","images/t.png","2","real","true","1","common","1","2022-02-20 03:16:56.630"
"two-step-fixation","200","870797","0.0-76.0-2.21","737","808","11","Male","true","true","false","true","""event"",""trial"",""time""
""fullscreenenter"",""5"",""17186""
","
","
","""event"",""trial"",""time""
""fullscreenenter"",""5"",""17186""
","
","","images/earth.jpg","","","","","","","","","","","","","","fixation","","","","","",""
"d3-animate-choice","201","873262","0.0-76.0-0.22","737","808","11","Male","true","true","false","true","""event"",""trial"",""time""
""fullscreenenter"",""5"",""17186""
","
","
","""event"",""trial"",""time""
""fullscreenenter"",""5"",""17186""
","
","456","","48","","","3000","1","816,1059,1314,1565","48,48,48,48","images/earth.jpg","images/rocket2","images/rocket1","null","images/rocket2","","1","real","null","2","","",""
"d3-animate-choice","202","875861","0.0-76.0-1.22","737","808","11","Male","true","true","false","true","""event"",""trial"",""time""
""fullscreenenter"",""5"",""17186""
","
","
","""event"",""trial"",""time""
""fullscreenenter"",""5"",""17186""
","
","593","","49","","","3000","1","972,1283,1543,1793","49,49,49,49","images/purpleplanet.jpg","images/alien4","images/alien3","images/rocket2","images/alien3","images/nothing.png","2","real","true","1","common","0","2022-02-20 03:17:02.706"
"two-step-fixation","203","876873","0.0-76.0-2.22","737","808","11","Male","true","true","false","true","""event"",""trial"",""time""
""fullscreenenter"",""5"",""17186""
","
","
","""event"",""trial"",""time""
""fullscreenenter"",""5"",""17186""
","
","","images/earth.jpg","","","","","","","","","","","","","","fixation","","","","","",""
"d3-animate-choice","204","879262","0.0-76.0-0.23","737","808","11","Male","true","true","false","true","""event"",""trial"",""time""
""fullscreenenter"",""5"",""17186""
","
","
","""event"",""trial"",""time""
""fullscreenenter"",""5"",""17186""
","
","374","","49","","","3000","1","675,939,1183","49,49,49","images/earth.jpg","images/rocket2","images/rocket1","null","images/rocket1","","1","real","null","1","","",""
"d3-animate-choice","205","881779","0.0-76.0-1.23","737","808","11","Male","true","true","false","true","""event"",""trial"",""time""
""fullscreenenter"",""5"",""17186""
","
","
","""event"",""trial"",""time""
""fullscreenenter"",""5"",""17186""
","
","502","","48","","","3000","1","1002,1257,1527","48,48,48","images/purpleplanet.jpg","images/alien4","images/alien3","images/rocket1","images/alien4","images/nothing.png","2","real","false","2","rare","0","2022-02-20 03:17:08.624"
"two-step-fixation","206","882793","0.0-76.0-2.23","737","808","11","Male","true","true","false","true","""event"",""trial"",""time""
""fullscreenenter"",""5"",""17186""
","
","
","""event"",""trial"",""time""
""fullscreenenter"",""5"",""17186""
","
","","images/earth.jpg","","","","","","","","","","","","","","fixation","","","","","",""
"d3-animate-choice","207","885175","0.0-76.0-0.24","737","808","11","Male","true","true","false","true","""event"",""trial"",""time""
""fullscreenenter"",""5"",""17186""
","
","
","""event"",""trial"",""time""
""fullscreenenter"",""5"",""17186""
","
","377","","48","","","3000","1","763,1044,1324","48,48,48","images/earth.jpg","images/rocket2","images/rocket1","null","images/rocket2","","1","real","null","2","","",""
"d3-animate-choice","208","887712","0.0-76.0-1.24","737","808","11","Male","true","true","false","true","""event"",""trial"",""time""
""fullscreenenter"",""5"",""17186""
","
","
","""event"",""trial"",""time""
""fullscreenenter"",""5"",""17186""
","
","528","","49","","","3000","1","931,1232,1508,1751","49,49,49,49","images/purpleplanet.jpg","images/alien4","images/alien3","images/rocket2","images/alien3","images/nothing.png","2","real","true","1","common","0","2022-02-20 03:17:14.557"
"two-step-fixation","209","888724","0.0-76.0-2.24","737","808","11","Male","true","true","false","true","""event"",""trial"",""time""
""fullscreenenter"",""5"",""17186""
","
","
","""event"",""trial"",""time""
""fullscreenenter"",""5"",""17186""
","
","","images/earth.jpg","","","","","","","","","","","","","","fixation","","","","","",""
"d3-animate-choice","210","891086","0.0-76.0-0.25","737","808","11","Male","true","true","false","true","""event"",""trial"",""time""
""fullscreenenter"",""5"",""17186""
","
","
","""event"",""trial"",""time""
""fullscreenenter"",""5"",""17186""
","
","349","","48","","","3000","1","716,964,1210,1455,1735","48,48,48,48,48","images/earth.jpg","images/rocket2","images/rocket1","null","images/rocket2","","1","real","null","2","","",""
"d3-animate-choice","211","893805","0.0-76.0-1.25","737","808","11","Male","true","true","false","true","""event"",""trial"",""time""
""fullscreenenter"",""5"",""17186""
","
","
","""event"",""trial"",""time""
""fullscreenenter"",""5"",""17186""
","
","705","","49","","","3000","1","1141,1441,1717,1952","49,49,49,49","images/purpleplanet.jpg","images/alien4","images/alien3","images/rocket2","images/alien3","images/nothing.png","2","real","true","1","common","0","2022-02-20 03:17:20.650"
"two-step-fixation","212","894820","0.0-76.0-2.25","737","808","11","Male","true","true","false","true","""event"",""trial"",""time""
""fullscreenenter"",""5"",""17186""
","
","
","""event"",""trial"",""time""
""fullscreenenter"",""5"",""17186""
","
","","images/earth.jpg","","","","","","","","","","","","","","fixation","","","","","",""
"d3-animate-choice","213","897210","0.0-76.0-0.26","737","808","11","Male","true","true","false","true","""event"",""trial"",""time""
""fullscreenenter"",""5"",""17186""
","
","
","""event"",""trial"",""time""
""fullscreenenter"",""5"",""17186""
","
","372","","48","","","3000","1","670,911,1162,1387","48,48,48,48","images/earth.jpg","images/rocket2","images/rocket1","null","images/rocket2","","1","real","null","2","","",""
"d3-animate-choice","214","899959","0.0-76.0-1.26","737","808","11","Male","true","true","false","true","""event"",""trial"",""time""
""fullscreenenter"",""5"",""17186""
","
","
","""event"",""trial"",""time""
""fullscreenenter"",""5"",""17186""
","
","734","","48","","","3000","1","1178,1458,1729","48,48,48","images/purpleplanet.jpg","images/alien4","images/alien3","images/rocket2","images/alien4","images/t.png","2","real","true","2","common","1","2022-02-20 03:17:26.804"
"two-step-fixation","215","900975","0.0-76.0-2.26","737","808","11","Male","true","true","false","true","""event"",""trial"",""time""
""fullscreenenter"",""5"",""17186""
","
","
","""event"",""trial"",""time""
""fullscreenenter"",""5"",""17186""
","
","","images/earth.jpg","","","","","","","","","","","","","","fixation","","","","","",""
"d3-animate-choice","216","903399","0.0-76.0-0.27","737","808","11","Male","true","true","false","true","""event"",""trial"",""time""
""fullscreenenter"",""5"",""17186""
","
","
","""event"",""trial"",""time""
""fullscreenenter"",""5"",""17186""
","
","407","","48","","","3000","1","763,1040,1291","48,48,48","images/earth.jpg","images/rocket2","images/rocket1","null","images/rocket2","","1","real","null","2","","",""
"d3-animate-choice","217","906188","0.0-76.0-1.27","737","808","11","Male","true","true","false","true","""event"",""trial"",""time""
""fullscreenenter"",""5"",""17186""
","
","
","""event"",""trial"",""time""
""fullscreenenter"",""5"",""17186""
","
","776","","48","","","3000","1","1187,1436,1692,1945","48,48,48,48","images/redplanet1.jpg","images/alien2","images/alien1","images/rocket2","images/alien2","images/t.png","2","real","false","2","rare","1","2022-02-20 03:17:33.033"
"two-step-fixation","218","907194","0.0-76.0-2.27","737","808","11","Male","true","true","false","true","""event"",""trial"",""time""
""fullscreenenter"",""5"",""17186""
","
","
","""event"",""trial"",""time""
""fullscreenenter"",""5"",""17186""
","
","","images/earth.jpg","","","","","","","","","","","","","","fixation","","","","","",""
"d3-animate-choice","219","909529","0.0-76.0-0.28","737","808","11","Male","true","true","false","true","""event"",""trial"",""time""
""fullscreenenter"",""5"",""17186""
","
","
","""event"",""trial"",""time""
""fullscreenenter"",""5"",""17186""
","
","324","","48","","","3000","1","644,909,1139","48,48,48","images/earth.jpg","images/rocket2","images/rocket1","null","images/rocket2","","1","real","null","2","","",""
"d3-animate-choice","220","911998","0.0-76.0-1.28","737","808","11","Male","true","true","false","true","""event"",""trial"",""time""
""fullscreenenter"",""5"",""17186""
","
","
","""event"",""trial"",""time""
""fullscreenenter"",""5"",""17186""
","
","453","","48","","","3000","1","819,1080,1316,1554","48,48,48,48","images/purpleplanet.jpg","images/alien4","images/alien3","images/rocket2","images/alien4","images/t.png","2","real","true","2","common","1","2022-02-20 03:17:38.844"
"two-step-fixation","221","913012","0.0-76.0-2.28","737","808","11","Male","true","true","false","true","""event"",""trial"",""time""
""fullscreenenter"",""5"",""17186""
","
","
","""event"",""trial"",""time""
""fullscreenenter"",""5"",""17186""
","
","","images/earth.jpg","","","","","","","","","","","","","","fixation","","","","","",""
"d3-animate-choice","222","915856","0.0-76.0-0.29","737","808","11","Male","true","true","false","true","""event"",""trial"",""time""
""fullscreenenter"",""5"",""17186""
","
","
","""event"",""trial"",""time""
""fullscreenenter"",""5"",""17186""
","
","832","","48","","","3000","1","1147,1407,1641,1861","48,48,48,48","images/earth.jpg","images/rocket2","images/rocket1","null","images/rocket2","","1","real","null","2","","",""
"d3-animate-choice","223","918552","0.0-76.0-1.29","737","808","11","Male","true","true","false","true","""event"",""trial"",""time""
""fullscreenenter"",""5"",""17186""
","
","
","""event"",""trial"",""time""
""fullscreenenter"",""5"",""17186""
","
","680","","48","","","3000","1","1051,1340,1550,1776","48,48,48,48","images/redplanet1.jpg","images/alien2","images/alien1","images/rocket2","images/alien2","images/t.png","2","real","false","2","rare","1","2022-02-20 03:17:45.397"
"two-step-fixation","224","919562","0.0-76.0-2.29","737","808","11","Male","true","true","false","true","""event"",""trial"",""time""
""fullscreenenter"",""5"",""17186""
","
","
","""event"",""trial"",""time""
""fullscreenenter"",""5"",""17186""
","
","","images/earth.jpg","","","","","","","","","","","","","","fixation","","","","","",""
"d3-animate-choice","225","921958","0.0-76.0-0.30","737","808","11","Male","true","true","false","true","""event"",""trial"",""time""
""fullscreenenter"",""5"",""17186""
","
","
","""event"",""trial"",""time""
""fullscreenenter"",""5"",""17186""
","
","391","","49","","","3000","1","746,1012,1270","49,49,49","images/earth.jpg","images/rocket2","images/rocket1","null","images/rocket1","","1","real","null","1","","",""
"d3-animate-choice","226","924428","0.0-76.0-1.30","737","808","11","Male","true","true","false","true","""event"",""trial"",""time""
""fullscreenenter"",""5"",""17186""
","
","
","""event"",""trial"",""time""
""fullscreenenter"",""5"",""17186""
","
","458","","48","","","3000","1","848,1127,1363,1602","48,48,48,48","images/redplanet1.jpg","images/alien2","images/alien1","images/rocket1","images/alien2","images/nothing.png","2","real","true","2","common","0","2022-02-20 03:17:51.273"
"two-step-fixation","227","925432","0.0-76.0-2.30","737","808","11","Male","true","true","false","true","""event"",""trial"",""time""
""fullscreenenter"",""5"",""17186""
","
","
","""event"",""trial"",""time""
""fullscreenenter"",""5"",""17186""
","
","","images/earth.jpg","","","","","","","","","","","","","","fixation","","","","","",""
"d3-animate-choice","228","927852","0.0-76.0-0.31","737","808","11","Male","true","true","false","true","""event"",""trial"",""time""
""fullscreenenter"",""5"",""17186""
","
","
","""event"",""trial"",""time""
""fullscreenenter"",""5"",""17186""
","
","404","","48","","","3000","1","738,994,1258","48,48,48","images/earth.jpg","images/rocket2","images/rocket1","null","images/rocket2","","1","real","null","2","","",""
"d3-animate-choice","229","930602","0.0-76.0-1.31","737","808","11","Male","true","true","false","true","""event"",""trial"",""time""
""fullscreenenter"",""5"",""17186""
","
","
","""event"",""trial"",""time""
""fullscreenenter"",""5"",""17186""
","
","743","","48","","","3000","1","1257,1516,1741","48,48,48","images/purpleplanet.jpg","images/alien4","images/alien3","images/rocket2","images/alien4","images/t.png","2","real","true","2","common","1","2022-02-20 03:17:57.447"
"two-step-fixation","230","931612","0.0-76.0-2.31","737","808","11","Male","true","true","false","true","""event"",""trial"",""time""
""fullscreenenter"",""5"",""17186""
","
","
","""event"",""trial"",""time""
""fullscreenenter"",""5"",""17186""
","
","","images/earth.jpg","","","","","","","","","","","","","","fixation","","","","","",""
"d3-animate-choice","231","934048","0.0-76.0-0.32","737","808","11","Male","true","true","false","true","""event"",""trial"",""time""
""fullscreenenter"",""5"",""17186""
","
","
","""event"",""trial"",""time""
""fullscreenenter"",""5"",""17186""
","
","424","","48","","","3000","1","847,1044,1329,1590,1820","48,48,48,48,48","images/earth.jpg","images/rocket2","images/rocket1","null","images/rocket2","","1","real","null","2","","",""
"d3-animate-choice","232","937656","0.0-76.0-1.32","737","808","11","Male","true","true","false","true","""event"",""trial"",""time""
""fullscreenenter"",""5"",""17186""
","
","
","""event"",""trial"",""time""
""fullscreenenter"",""5"",""17186""
","
","1601","","49","","","3000","1","1996,2291,2610,2856","49,49,49,49","images/purpleplanet.jpg","images/alien4","images/alien3","images/rocket2","images/alien3","images/nothing.png","2","real","true","1","common","0","2022-02-20 03:18:04.501"
"two-step-fixation","233","938661","0.0-76.0-2.32","737","808","11","Male","true","true","false","true","""event"",""trial"",""time""
""fullscreenenter"",""5"",""17186""
","
","
","""event"",""trial"",""time""
""fullscreenenter"",""5"",""17186""
","
","","images/earth.jpg","","","","","","","","","","","","","","fixation","","","","","",""
"d3-animate-choice","234","941181","0.0-76.0-0.33","737","808","11","Male","true","true","false","true","""event"",""trial"",""time""
""fullscreenenter"",""5"",""17186""
","
","
","""event"",""trial"",""time""
""fullscreenenter"",""5"",""17186""
","
","505","","48","","","3000","1","911,1179,1427","48,48,48","images/earth.jpg","images/rocket2","images/rocket1","null","images/rocket2","","1","real","null","2","","",""
"d3-animate-choice","235","943760","0.0-76.0-1.33","737","808","11","Male","true","true","false","true","""event"",""trial"",""time""
""fullscreenenter"",""5"",""17186""
","
","
","""event"",""trial"",""time""
""fullscreenenter"",""5"",""17186""
","
","574","","48","","","3000","1","949,1236,1538,1802","48,48,48,48","images/purpleplanet.jpg","images/alien4","images/alien3","images/rocket2","images/alien4","images/t.png","2","real","true","2","common","1","2022-02-20 03:18:10.605"
"two-step-fixation","236","944773","0.0-76.0-2.33","737","808","11","Male","true","true","false","true","""event"",""trial"",""time""
""fullscreenenter"",""5"",""17186""
","
","
","""event"",""trial"",""time""
""fullscreenenter"",""5"",""17186""
","
","","images/earth.jpg","","","","","","","","","","","","","","fixation","","","","","",""
"d3-animate-choice","237","947299","0.0-76.0-0.34","737","808","11","Male","true","true","false","true","""event"",""trial"",""time""
""fullscreenenter"",""5"",""17186""
","
","
","""event"",""trial"",""time""
""fullscreenenter"",""5"",""17186""
","
","515","","48","","","3000","1","993,1254,1489","48,48,48","images/earth.jpg","images/rocket2","images/rocket1","null","images/rocket2","","1","real","null","2","","",""
"d3-animate-choice","238","950172","0.0-76.0-1.34","737","808","11","Male","true","true","false","true","""event"",""trial"",""time""
""fullscreenenter"",""5"",""17186""
","
","
","""event"",""trial"",""time""
""fullscreenenter"",""5"",""17186""
","
","869","","48","","","3000","1","1383,1632,1868","48,48,48","images/purpleplanet.jpg","images/alien4","images/alien3","images/rocket2","images/alien4","images/nothing.png","2","real","true","2","common","0","2022-02-20 03:18:17.017"
"two-step-fixation","239","951189","0.0-76.0-2.34","737","808","11","Male","true","true","false","true","""event"",""trial"",""time""
""fullscreenenter"",""5"",""17186""
","
","
","""event"",""trial"",""time""
""fullscreenenter"",""5"",""17186""
","
","","images/earth.jpg","","","","","","","","","","","","","","fixation","","","","","",""
"d3-animate-choice","240","953528","0.0-76.0-0.35","737","808","11","Male","true","true","false","true","""event"",""trial"",""time""
""fullscreenenter"",""5"",""17186""
","
","
","""event"",""trial"",""time""
""fullscreenenter"",""5"",""17186""
","
","324","","48","","","3000","1","634,901,1145","48,48,48","images/earth.jpg","images/rocket2","images/rocket1","null","images/rocket2","","1","real","null","2","","",""
"d3-animate-choice","241","956409","0.0-76.0-1.35","737","808","11","Male","true","true","false","true","""event"",""trial"",""time""
""fullscreenenter"",""5"",""17186""
","
","
","""event"",""trial"",""time""
""fullscreenenter"",""5"",""17186""
","
","862","","48","","","3000","1","1272,1552,1813,2080","48,48,48,48","images/redplanet1.jpg","images/alien2","images/alien1","images/rocket2","images/alien2","images/nothing.png","2","real","false","2","rare","0","2022-02-20 03:18:23.254"
"two-step-fixation","242","957413","0.0-76.0-2.35","737","808","11","Male","true","true","false","true","""event"",""trial"",""time""
""fullscreenenter"",""5"",""17186""
","
","
","""event"",""trial"",""time""
""fullscreenenter"",""5"",""17186""
","
","","images/earth.jpg","","","","","","","","","","","","","","fixation","","","","","",""
"d3-animate-choice","243","959802","0.0-76.0-0.36","737","808","11","Male","true","true","false","true","""event"",""trial"",""time""
""fullscreenenter"",""5"",""17186""
","
","
","""event"",""trial"",""time""
""fullscreenenter"",""5"",""17186""
","
","381","","48","","","3000","1","667,917,1153","48,48,48","images/earth.jpg","images/rocket2","images/rocket1","null","images/rocket2","","1","real","null","2","","",""
