"trial_type","trial_index","time_elapsed","internal_node_id","participant_id","subject_id","age","gender","rocket_sides","red_planet_first_rocket","red_display_order","purple_display_order","interactions","blur_events","focus_events","fullscreenenter_events","fullscreenexit_events","rt","stimulus","key_press","button_pressed","success","duration","valid_pressed","rts","keys","planet_text","right_text","left_text","center_text","chosen_text","reward_text","trial_stage","practice_trial","transition_type","choice","transition","reward","timestamp"
"pavlovia","0","12","0.0-0.0","3151","5229","24","Female","true","true","true","true","
","
","
","
","
","","","","","","","","","","","","","","","","","","","","","",""
"html-keyboard-response","1","2911","0.0-1.0","3151","5229","24","Female","true","true","true","true","
","
","
","
","
","2897","Welcome! Press the space bar to begin.","32","","","","","","","","","","","","","","","","","","",""
"audio-keyboard-response","2","13012","0.0-2.0","3151","5229","24","Female","true","true","true","true","
","
","
","
","
","9472","audio/beep_loop.wav","181","","","","","","","","","","","","","","","","","","",""
"audio-button-response","3","16915","0.0-3.0","3151","5229","24","Female","true","true","true","true","
","
","
","
","
","NaN","audio/fish.mp3","","1","","","","","","","","","","","","","","","","","",""
"audio-button-response","4","19784","0.0-4.0","3151","5229","24","Female","true","true","true","true","""event"",""trial"",""time""
""fullscreenenter"",""5"",""26560""
","
","
","""event"",""trial"",""time""
""fullscreenenter"",""5"",""26560""
","
","NaN","audio/tiger.mp3","","4","","","","","","","","","","","","","","","","","",""
"fullscreen","5","27281","0.0-5.0","3151","5229","24","Female","true","true","true","true","""event"",""trial"",""time""
""fullscreenenter"",""5"",""26560""
","
","
","""event"",""trial"",""time""
""fullscreenenter"",""5"",""26560""
","
","","","","","true","","","","","","","","","","","","","","","","",""
"d3-instructions","6","40424","0.0-6.0","3151","5229","24","Female","true","true","true","true","""event"",""trial"",""time""
""fullscreenenter"",""5"",""26560""
","
","
","""event"",""trial"",""time""
""fullscreenenter"",""5"",""26560""
","
","","","","","","","","","","","","","","","","","","","","","",""
"d3-instructions","7","49862","0.0-7.0","3151","5229","24","Female","true","true","true","true","""event"",""trial"",""time""
""fullscreenenter"",""5"",""26560""
","
","
","""event"",""trial"",""time""
""fullscreenenter"",""5"",""26560""
","
","","","","","","","","","","","","","","","","","","","","","",""
"d3-instructions","8","56111","0.0-8.0","3151","5229","24","Female","true","true","true","true","""event"",""trial"",""time""
""fullscreenenter"",""5"",""26560""
","
","
","""event"",""trial"",""time""
""fullscreenenter"",""5"",""26560""
","
","","","","","","","","","","","","","","","","","","","","","",""
"d3-instructions","9","66714","0.0-9.0","3151","5229","24","Female","true","true","true","true","""event"",""trial"",""time""
""fullscreenenter"",""5"",""26560""
","
","
","""event"",""trial"",""time""
""fullscreenenter"",""5"",""26560""
","
","","","","","","","","","","","","","","","","","","","","","",""
"d3-instructions","10","87226","0.0-10.0","3151","5229","24","Female","true","true","true","true","""event"",""trial"",""time""
""fullscreenenter"",""5"",""26560""
","
","
","""event"",""trial"",""time""
""fullscreenenter"",""5"",""26560""
","
","","","","","","","","","","","","","","","","","","","","","",""
"d3-animate-choice","11","90709","0.0-11.0","3151","5229","24","Female","true","true","true","true","""event"",""trial"",""time""
""fullscreenenter"",""5"",""26560""
","
","
","""event"",""trial"",""time""
""fullscreenenter"",""5"",""26560""
","
","1471","","49","","","3000","1","2221,2733,3321","48,48,48","images/tutgreenplanet.jpg","images/tutalien1","images/tutalien2","null","images/tutalien2","","NA","practice","null","","","",""
"d3-animate-choice","12","93121","0.0-12.0","3151","5229","24","Female","true","true","true","true","""event"",""trial"",""time""
""fullscreenenter"",""5"",""26560""
","
","
","""event"",""trial"",""time""
""fullscreenenter"",""5"",""26560""
","
","401","","48","","","3000","1","","","images/tutgreenplanet.jpg","images/tutalien1","images/tutalien2","null","images/tutalien1","","NA","practice","null","","","",""
"d3-animate-choice","13","95591","0.0-13.0","3151","5229","24","Female","true","true","true","true","""event"",""trial"",""time""
""fullscreenenter"",""5"",""26560""
","
","
","""event"",""trial"",""time""
""fullscreenenter"",""5"",""26560""
","
","453","","48","","","3000","1","","","images/tutgreenplanet.jpg","images/tutalien1","images/tutalien2","null","images/tutalien1","","NA","practice","null","","","",""
"d3-animate-choice","14","98418","0.0-14.0","3151","5229","24","Female","true","true","true","true","""event"",""trial"",""time""
""fullscreenenter"",""5"",""26560""
","
","
","""event"",""trial"",""time""
""fullscreenenter"",""5"",""26560""
","
","822","","49","","","3000","1","","","images/tutgreenplanet.jpg","images/tutalien1","images/tutalien2","null","images/tutalien2","","NA","practice","null","","","",""
"d3-instructions","15","105101","0.0-15.0","3151","5229","24","Female","true","true","true","true","""event"",""trial"",""time""
""fullscreenenter"",""5"",""26560""
","
","
","""event"",""trial"",""time""
""fullscreenenter"",""5"",""26560""
","
","","","","","","","","","","","","","","","","","","","","","",""
"d3-instructions","16","111564","0.0-16.0","3151","5229","24","Female","true","true","true","true","""event"",""trial"",""time""
""fullscreenenter"",""5"",""26560""
","
","
","""event"",""trial"",""time""
""fullscreenenter"",""5"",""26560""
","
","","","","","","","","","","","","","","","","","","","","","",""
"d3-instructions","17","121679","0.0-17.0","3151","5229","24","Female","true","true","true","true","""event"",""trial"",""time""
""fullscreenenter"",""5"",""26560""
","
","
","""event"",""trial"",""time""
""fullscreenenter"",""5"",""26560""
","
","","","","","","","","","","","","","","","","","","","","","",""
"d3-instructions","18","135766","0.0-18.0","3151","5229","24","Female","true","true","true","true","""event"",""trial"",""time""
""fullscreenenter"",""5"",""26560""
","
","
","""event"",""trial"",""time""
""fullscreenenter"",""5"",""26560""
","
","","","","","","","","","","","","","","","","","","","","","",""
"d3-instructions","19","150067","0.0-19.0","3151","5229","24","Female","true","true","true","true","""event"",""trial"",""time""
""fullscreenenter"",""5"",""26560""
","
","
","""event"",""trial"",""time""
""fullscreenenter"",""5"",""26560""
","
","","","","","","","","","","","","","","","","","","","","","",""
"d3-animate-choice","20","152725","0.0-20.0","3151","5229","24","Female","true","true","true","true","""event"",""trial"",""time""
""fullscreenenter"",""5"",""26560""
","
","
","""event"",""trial"",""time""
""fullscreenenter"",""5"",""26560""
","
","644","","49","","","3000","1","2407","49","images/tutyellowplanet.jpg","null","images/tutalien3","null","images/tutalien3","images/nothing.png","NA","practice","null","","","",""
"d3-animate-choice","21","155505","0.0-21.0","3151","5229","24","Female","true","true","true","true","""event"",""trial"",""time""
""fullscreenenter"",""5"",""26560""
","
","
","""event"",""trial"",""time""
""fullscreenenter"",""5"",""26560""
","
","774","","49","","","3000","1","","","images/tutyellowplanet.jpg","null","images/tutalien3","null","images/tutalien3","images/t.png","NA","practice","null","","","",""
"d3-animate-choice","22","157962","0.0-22.0","3151","5229","24","Female","true","true","true","true","""event"",""trial"",""time""
""fullscreenenter"",""5"",""26560""
","
","
","""event"",""trial"",""time""
""fullscreenenter"",""5"",""26560""
","
","445","","49","","","3000","1","","","images/tutyellowplanet.jpg","null","images/tutalien3","null","images/tutalien3","images/t.png","NA","practice","null","","","",""
"d3-animate-choice","23","160320","0.0-23.0","3151","5229","24","Female","true","true","true","true","""event"",""trial"",""time""
""fullscreenenter"",""5"",""26560""
","
","
","""event"",""trial"",""time""
""fullscreenenter"",""5"",""26560""
","
","352","","49","","","3000","1","","","images/tutyellowplanet.jpg","null","images/tutalien3","null","images/tutalien3","images/t.png","NA","practice","null","","","",""
"d3-animate-choice","24","162853","0.0-24.0","3151","5229","24","Female","true","true","true","true","""event"",""trial"",""time""
""fullscreenenter"",""5"",""26560""
","
","
","""event"",""trial"",""time""
""fullscreenenter"",""5"",""26560""
","
","519","","49","","","3000","1","2432","49","images/tutyellowplanet.jpg","null","images/tutalien3","null","images/tutalien3","images/nothing.png","NA","practice","null","","","",""
"d3-animate-choice","25","165355","0.0-25.0","3151","5229","24","Female","true","true","true","true","""event"",""trial"",""time""
""fullscreenenter"",""5"",""26560""
","
","
","""event"",""trial"",""time""
""fullscreenenter"",""5"",""26560""
","
","498","","49","","","3000","1","","","images/tutyellowplanet.jpg","null","images/tutalien3","null","images/tutalien3","images/t.png","NA","practice","null","","","",""
"d3-animate-choice","26","167934","0.0-26.0","3151","5229","24","Female","true","true","true","true","""event"",""trial"",""time""
""fullscreenenter"",""5"",""26560""
","
","
","""event"",""trial"",""time""
""fullscreenenter"",""5"",""26560""
","
","559","","49","","","3000","1","2046","49","images/tutyellowplanet.jpg","null","images/tutalien3","null","images/tutalien3","images/t.png","NA","practice","null","","","",""
"d3-animate-choice","27","170272","0.0-27.0","3151","5229","24","Female","true","true","true","true","""event"",""trial"",""time""
""fullscreenenter"",""5"",""26560""
","
","
","""event"",""trial"",""time""
""fullscreenenter"",""5"",""26560""
","
","331","","49","","","3000","1","","","images/tutyellowplanet.jpg","null","images/tutalien3","null","images/tutalien3","images/nothing.png","NA","practice","null","","","",""
"d3-animate-choice","28","172856","0.0-28.0","3151","5229","24","Female","true","true","true","true","""event"",""trial"",""time""
""fullscreenenter"",""5"",""26560""
","
","
","""event"",""trial"",""time""
""fullscreenenter"",""5"",""26560""
","
","577","","49","","","3000","1","","","images/tutyellowplanet.jpg","null","images/tutalien3","null","images/tutalien3","images/t.png","NA","practice","null","","","",""
"d3-animate-choice","29","175644","0.0-29.0","3151","5229","24","Female","true","true","true","true","""event"",""trial"",""time""
""fullscreenenter"",""5"",""26560""
","
","
","""event"",""trial"",""time""
""fullscreenenter"",""5"",""26560""
","
","768","","49","","","3000","1","","","images/tutyellowplanet.jpg","null","images/tutalien3","null","images/tutalien3","images/t.png","NA","practice","null","","","",""
"d3-instructions","30","185217","0.0-30.0","3151","5229","24","Female","true","true","true","true","""event"",""trial"",""time""
""fullscreenenter"",""5"",""26560""
","
","
","""event"",""trial"",""time""
""fullscreenenter"",""5"",""26560""
","
","","","","","","","","","","","","","","","","","","","","","",""
"d3-instructions","31","195505","0.0-31.0","3151","5229","24","Female","true","true","true","true","""event"",""trial"",""time""
""fullscreenenter"",""5"",""26560""
","
","
","""event"",""trial"",""time""
""fullscreenenter"",""5"",""26560""
","
","","","","","","","","","","","","","","","","","","","","","",""
"d3-instructions","32","203244","0.0-32.0","3151","5229","24","Female","true","true","true","true","""event"",""trial"",""time""
""fullscreenenter"",""5"",""26560""
","
","
","""event"",""trial"",""time""
""fullscreenenter"",""5"",""26560""
","
","","","","","","","","","","","","","","","","","","","","","",""
"d3-instructions","33","214694","0.0-33.0","3151","5229","24","Female","true","true","true","true","""event"",""trial"",""time""
""fullscreenenter"",""5"",""26560""
","
","
","""event"",""trial"",""time""
""fullscreenenter"",""5"",""26560""
","
","","","","","","","","","","","","","","","","","","","","","",""
"d3-animate-choice","34","218195","0.0-34.0","3151","5229","24","Female","true","true","true","true","""event"",""trial"",""time""
""fullscreenenter"",""5"",""26560""
","
","
","""event"",""trial"",""time""
""fullscreenenter"",""5"",""26560""
","
","1497","","48","","","3000","1","","","images/tutgreenplanet.jpg","images/tutalien1","images/tutalien2","null","images/tutalien1","images/t.png","NA","practice","null","","","",""
"d3-animate-choice","35","220809","0.0-35.0","3151","5229","24","Female","true","true","true","true","""event"",""trial"",""time""
""fullscreenenter"",""5"",""26560""
","
","
","""event"",""trial"",""time""
""fullscreenenter"",""5"",""26560""
","
","609","","48","","","3000","1","","","images/tutgreenplanet.jpg","images/tutalien1","images/tutalien2","null","images/tutalien1","images/t.png","NA","practice","null","","","",""
"d3-animate-choice","36","223272","0.0-36.0","3151","5229","24","Female","true","true","true","true","""event"",""trial"",""time""
""fullscreenenter"",""5"",""26560""
","
","
","""event"",""trial"",""time""
""fullscreenenter"",""5"",""26560""
","
","457","","48","","","3000","1","","","images/tutgreenplanet.jpg","images/tutalien1","images/tutalien2","null","images/tutalien1","images/nothing.png","NA","practice","null","","","",""
"d3-animate-choice","37","225631","0.0-37.0","3151","5229","24","Female","true","true","true","true","""event"",""trial"",""time""
""fullscreenenter"",""5"",""26560""
","
","
","""event"",""trial"",""time""
""fullscreenenter"",""5"",""26560""
","
","357","","49","","","3000","1","","","images/tutgreenplanet.jpg","images/tutalien1","images/tutalien2","null","images/tutalien2","images/t.png","NA","practice","null","","","",""
"d3-animate-choice","38","228047","0.0-38.0","3151","5229","24","Female","true","true","true","true","""event"",""trial"",""time""
""fullscreenenter"",""5"",""26560""
","
","
","""event"",""trial"",""time""
""fullscreenenter"",""5"",""26560""
","
","409","","49","","","3000","1","","","images/tutgreenplanet.jpg","images/tutalien1","images/tutalien2","null","images/tutalien2","images/t.png","NA","practice","null","","","",""
"d3-animate-choice","39","230561","0.0-39.0","3151","5229","24","Female","true","true","true","true","""event"",""trial"",""time""
""fullscreenenter"",""5"",""26560""
","
","
","""event"",""trial"",""time""
""fullscreenenter"",""5"",""26560""
","
","507","","49","","","3000","1","","","images/tutgreenplanet.jpg","images/tutalien1","images/tutalien2","null","images/tutalien2","images/t.png","NA","practice","null","","","",""
"d3-animate-choice","40","233032","0.0-40.0","3151","5229","24","Female","true","true","true","true","""event"",""trial"",""time""
""fullscreenenter"",""5"",""26560""
","
","
","""event"",""trial"",""time""
""fullscreenenter"",""5"",""26560""
","
","458","","49","","","3000","1","","","images/tutgreenplanet.jpg","images/tutalien1","images/tutalien2","null","images/tutalien2","images/t.png","NA","practice","null","","","",""
"d3-animate-choice","41","235350","0.0-41.0","3151","5229","24","Female","true","true","true","true","""event"",""trial"",""time""
""fullscreenenter"",""5"",""26560""
","
","
","""event"",""trial"",""time""
""fullscreenenter"",""5"",""26560""
","
","309","","48","","","3000","1","","","images/tutgreenplanet.jpg","images/tutalien1","images/tutalien2","null","images/tutalien1","images/t.png","NA","practice","null","","","",""
"d3-animate-choice","42","237796","0.0-42.0","3151","5229","24","Female","true","true","true","true","""event"",""trial"",""time""
""fullscreenenter"",""5"",""26560""
","
","
","""event"",""trial"",""time""
""fullscreenenter"",""5"",""26560""
","
","442","","48","","","3000","1","","","images/tutgreenplanet.jpg","images/tutalien1","images/tutalien2","null","images/tutalien1","images/nothing.png","NA","practice","null","","","",""
"d3-animate-choice","43","240223","0.0-43.0","3151","5229","24","Female","true","true","true","true","""event"",""trial"",""time""
""fullscreenenter"",""5"",""26560""
","
","
","""event"",""trial"",""time""
""fullscreenenter"",""5"",""26560""
","
","421","","48","","","3000","1","","","images/tutgreenplanet.jpg","images/tutalien1","images/tutalien2","null","images/tutalien1","images/t.png","NA","practice","null","","","",""
"d3-instructions","44","257295","0.0-44.0","3151","5229","24","Female","true","true","true","true","""event"",""trial"",""time""
""fullscreenenter"",""5"",""26560""
","
","
","""event"",""trial"",""time""
""fullscreenenter"",""5"",""26560""
","
","","","","","","","","","","","","","","","","","","","","","",""
"d3-instructions","45","271821","0.0-45.0","3151","5229","24","Female","true","true","true","true","""event"",""trial"",""time""
""fullscreenenter"",""5"",""26560""
","
","
","""event"",""trial"",""time""
""fullscreenenter"",""5"",""26560""
","
","","","","","","","","","","","","","","","","","","","","","",""
"d3-instructions","46","306147","0.0-46.0","3151","5229","24","Female","true","true","true","true","""event"",""trial"",""time""
""fullscreenenter"",""5"",""26560""
","
","
","""event"",""trial"",""time""
""fullscreenenter"",""5"",""26560""
","
","","","","","","","","","","","","","","","","","","","","","",""
"d3-instructions","47","407353","0.0-47.0","3151","5229","24","Female","true","true","true","true","""event"",""trial"",""time""
""fullscreenenter"",""5"",""26560""
","
","
","""event"",""trial"",""time""
""fullscreenenter"",""5"",""26560""
","
","","","","","","","","","","","","","","","","","","","","","",""
"d3-instructions","48","417802","0.0-48.0","3151","5229","24","Female","true","true","true","true","""event"",""trial"",""time""
""fullscreenenter"",""5"",""26560""
","
","
","""event"",""trial"",""time""
""fullscreenenter"",""5"",""26560""
","
","","","","","","","","","","","","","","","","","","","","","",""
"d3-instructions","49","438928","0.0-49.0","3151","5229","24","Female","true","true","true","true","""event"",""trial"",""time""
""fullscreenenter"",""5"",""26560""
","
","
","""event"",""trial"",""time""
""fullscreenenter"",""5"",""26560""
","
","","","","","","","","","","","","","","","","","","","","","",""
"d3-instructions","50","450430","0.0-50.0","3151","5229","24","Female","true","true","true","true","""event"",""trial"",""time""
""fullscreenenter"",""5"",""26560""
","
","
","""event"",""trial"",""time""
""fullscreenenter"",""5"",""26560""
","
","","","","","","","","","","","","","","","","","","","","","",""
"d3-instructions","51","455330","0.0-51.0","3151","5229","24","Female","true","true","true","true","""event"",""trial"",""time""
""fullscreenenter"",""5"",""26560""
","
","
","""event"",""trial"",""time""
""fullscreenenter"",""5"",""26560""
","
","","","","","","","","","","","","","","","","","","","","","",""
"d3-instructions","52","458292","0.0-52.0","3151","5229","24","Female","true","true","true","true","""event"",""trial"",""time""
""fullscreenenter"",""5"",""26560""
","
","
","""event"",""trial"",""time""
""fullscreenenter"",""5"",""26560""
","
","","","","","","","","","","","","","","","","","","","","","",""
"d3-instructions","53","470904","0.0-53.0","3151","5229","24","Female","true","true","true","true","""event"",""trial"",""time""
""fullscreenenter"",""5"",""26560""
","
","
","""event"",""trial"",""time""
""fullscreenenter"",""5"",""26560""
","
","","","","","","","","","","","","","","","","","","","","","",""
"d3-instructions","54","500946","0.0-54.0","3151","5229","24","Female","true","true","true","true","""event"",""trial"",""time""
""fullscreenenter"",""5"",""26560""
","
","
","""event"",""trial"",""time""
""fullscreenenter"",""5"",""26560""
","
","","","","","","","","","","","","","","","","","","","","","",""
"d3-instructions","55","513820","0.0-55.0","3151","5229","24","Female","true","true","true","true","""event"",""trial"",""time""
""fullscreenenter"",""5"",""26560""
","
","
","""event"",""trial"",""time""
""fullscreenenter"",""5"",""26560""
","
","","","","","","","","","","","","","","","","","","","","","",""
"d3-instructions","56","536747","0.0-56.0","3151","5229","24","Female","true","true","true","true","""event"",""trial"",""time""
""fullscreenenter"",""5"",""26560""
","
","
","""event"",""trial"",""time""
""fullscreenenter"",""5"",""26560""
","
","","","","","","","","","","","","","","","","","","","","","",""
"d3-instructions","57","547721","0.0-57.0","3151","5229","24","Female","true","true","true","true","""event"",""trial"",""time""
""fullscreenenter"",""5"",""26560""
","
","
","""event"",""trial"",""time""
""fullscreenenter"",""5"",""26560""
","
","","","","","","","","","","","","","","","","","","","","","",""
"d3-instructions","58","560948","0.0-58.0","3151","5229","24","Female","true","true","true","true","""event"",""trial"",""time""
""fullscreenenter"",""5"",""26560""
","
","
","""event"",""trial"",""time""
""fullscreenenter"",""5"",""26560""
","
","","","","","","","","","","","","","","","","","","","","","",""
"d3-instructions","59","587610","0.0-59.0","3151","5229","24","Female","true","true","true","true","""event"",""trial"",""time""
""fullscreenenter"",""5"",""26560""
","
","
","""event"",""trial"",""time""
""fullscreenenter"",""5"",""26560""
","
","","","","","","","","","","","","","","","","","","","","","",""
"d3-instructions","60","594762","0.0-60.0","3151","5229","24","Female","true","true","true","true","""event"",""trial"",""time""
""fullscreenenter"",""5"",""26560""
","
","
","""event"",""trial"",""time""
""fullscreenenter"",""5"",""26560""
","
","","","","","","","","","","","","","","","","","","","","","",""
"d3-animate-choice","61","597833","0.0-61.0-0.0","3151","5229","24","Female","true","true","true","true","""event"",""trial"",""time""
""fullscreenenter"",""5"",""26560""
","
","
","""event"",""trial"",""time""
""fullscreenenter"",""5"",""26560""
","
","1055","","49","","","3000","1","","","images/earth.jpg","images/tutrocket2","images/tutrocket1","null","images/tutrocket1","","1","practice","null","1","","",""
"d3-animate-choice","62","601495","0.0-61.0-1.0","3151","5229","24","Female","true","true","true","true","""event"",""trial"",""time""
""fullscreenenter"",""5"",""26560""
","
","
","""event"",""trial"",""time""
""fullscreenenter"",""5"",""26560""
","
","1645","","49","","","3000","1","","","images/tutgreenplanet.jpg","images/tutalien2","images/tutalien1","images/tutrocket1","images/tutalien1","images/t.png","2","practice","true","1","common","1","2022-12-13 01:53:10.716"
"two-step-fixation","63","602509","0.0-61.0-2.0","3151","5229","24","Female","true","true","true","true","""event"",""trial"",""time""
""fullscreenenter"",""5"",""26560""
","
","
","""event"",""trial"",""time""
""fullscreenenter"",""5"",""26560""
","
","","images/earth.jpg","","","","","","","","","","","","","","fixation","","","","","",""
"d3-animate-choice","64","605883","0.0-61.0-0.1","3151","5229","24","Female","true","true","true","true","""event"",""trial"",""time""
""fullscreenenter"",""5"",""26560""
","
","
","""event"",""trial"",""time""
""fullscreenenter"",""5"",""26560""
","
","1361","","49","","","3000","1","","","images/earth.jpg","images/tutrocket2","images/tutrocket1","null","images/tutrocket1","","1","practice","null","1","","",""
"d3-animate-choice","65","609813","0.0-61.0-1.1","3151","5229","24","Female","true","true","true","true","""event"",""trial"",""time""
""fullscreenenter"",""5"",""26560""
","
","
","""event"",""trial"",""time""
""fullscreenenter"",""5"",""26560""
","
","1923","","48","","","3000","1","","","images/tutyellowplanet.jpg","images/tutalien4","images/tutalien3","images/tutrocket1","images/tutalien4","images/nothing.png","2","practice","false","2","rare","0","2022-12-13 01:53:19.034"
"two-step-fixation","66","610819","0.0-61.0-2.1","3151","5229","24","Female","true","true","true","true","""event"",""trial"",""time""
""fullscreenenter"",""5"",""26560""
","
","
","""event"",""trial"",""time""
""fullscreenenter"",""5"",""26560""
","
","","images/earth.jpg","","","","","","","","","","","","","","fixation","","","","","",""
"d3-animate-choice","67","613328","0.0-61.0-0.2","3151","5229","24","Female","true","true","true","true","""event"",""trial"",""time""
""fullscreenenter"",""5"",""26560""
","
","
","""event"",""trial"",""time""
""fullscreenenter"",""5"",""26560""
","
","503","","49","","","3000","1","","","images/earth.jpg","images/tutrocket2","images/tutrocket1","null","images/tutrocket1","","1","practice","null","1","","",""
"d3-animate-choice","68","616058","0.0-61.0-1.2","3151","5229","24","Female","true","true","true","true","""event"",""trial"",""time""
""fullscreenenter"",""5"",""26560""
","
","
","""event"",""trial"",""time""
""fullscreenenter"",""5"",""26560""
","
","715","","49","","","3000","1","","","images/tutgreenplanet.jpg","images/tutalien2","images/tutalien1","images/tutrocket1","images/tutalien1","images/nothing.png","2","practice","true","1","common","0","2022-12-13 01:53:25.280"
"two-step-fixation","69","617068","0.0-61.0-2.2","3151","5229","24","Female","true","true","true","true","""event"",""trial"",""time""
""fullscreenenter"",""5"",""26560""
","
","
","""event"",""trial"",""time""
""fullscreenenter"",""5"",""26560""
","
","","images/earth.jpg","","","","","","","","","","","","","","fixation","","","","","",""
"d3-animate-choice","70","619445","0.0-61.0-0.3","3151","5229","24","Female","true","true","true","true","""event"",""trial"",""time""
""fullscreenenter"",""5"",""26560""
","
","
","""event"",""trial"",""time""
""fullscreenenter"",""5"",""26560""
","
","366","","49","","","3000","1","","","images/earth.jpg","images/tutrocket2","images/tutrocket1","null","images/tutrocket1","","1","practice","null","1","","",""
"d3-animate-choice","71","622715","0.0-61.0-1.3","3151","5229","24","Female","true","true","true","true","""event"",""trial"",""time""
""fullscreenenter"",""5"",""26560""
","
","
","""event"",""trial"",""time""
""fullscreenenter"",""5"",""26560""
","
","1250","","49","","","3000","1","","","images/tutgreenplanet.jpg","images/tutalien2","images/tutalien1","images/tutrocket1","images/tutalien1","images/t.png","2","practice","true","1","common","1","2022-12-13 01:53:31.936"
"two-step-fixation","72","623718","0.0-61.0-2.3","3151","5229","24","Female","true","true","true","true","""event"",""trial"",""time""
""fullscreenenter"",""5"",""26560""
","
","
","""event"",""trial"",""time""
""fullscreenenter"",""5"",""26560""
","
","","images/earth.jpg","","","","","","","","","","","","","","fixation","","","","","",""
"d3-animate-choice","73","626185","0.0-61.0-0.4","3151","5229","24","Female","true","true","true","true","""event"",""trial"",""time""
""fullscreenenter"",""5"",""26560""
","
","
","""event"",""trial"",""time""
""fullscreenenter"",""5"",""26560""
","
","453","","49","","","3000","1","","","images/earth.jpg","images/tutrocket2","images/tutrocket1","null","images/tutrocket1","","1","practice","null","1","","",""
"d3-animate-choice","74","628836","0.0-61.0-1.4","3151","5229","24","Female","true","true","true","true","""event"",""trial"",""time""
""fullscreenenter"",""5"",""26560""
","
","
","""event"",""trial"",""time""
""fullscreenenter"",""5"",""26560""
","
","636","","49","","","3000","1","","","images/tutgreenplanet.jpg","images/tutalien2","images/tutalien1","images/tutrocket1","images/tutalien1","images/t.png","2","practice","true","1","common","1","2022-12-13 01:53:38.057"
"two-step-fixation","75","629853","0.0-61.0-2.4","3151","5229","24","Female","true","true","true","true","""event"",""trial"",""time""
""fullscreenenter"",""5"",""26560""
","
","
","""event"",""trial"",""time""
""fullscreenenter"",""5"",""26560""
","
","","images/earth.jpg","","","","","","","","","","","","","","fixation","","","","","",""
"d3-animate-choice","76","632363","0.0-61.0-0.5","3151","5229","24","Female","true","true","true","true","""event"",""trial"",""time""
""fullscreenenter"",""5"",""26560""
","
","
","""event"",""trial"",""time""
""fullscreenenter"",""5"",""26560""
","
","506","","49","","","3000","1","","","images/earth.jpg","images/tutrocket2","images/tutrocket1","null","images/tutrocket1","","1","practice","null","1","","",""
"d3-animate-choice","77","634797","0.0-61.0-1.5","3151","5229","24","Female","true","true","true","true","""event"",""trial"",""time""
""fullscreenenter"",""5"",""26560""
","
","
","""event"",""trial"",""time""
""fullscreenenter"",""5"",""26560""
","
","419","","48","","","3000","1","","","images/tutgreenplanet.jpg","images/tutalien2","images/tutalien1","images/tutrocket1","images/tutalien2","images/nothing.png","2","practice","true","2","common","0","2022-12-13 01:53:44.019"
"two-step-fixation","78","635801","0.0-61.0-2.5","3151","5229","24","Female","true","true","true","true","""event"",""trial"",""time""
""fullscreenenter"",""5"",""26560""
","
","
","""event"",""trial"",""time""
""fullscreenenter"",""5"",""26560""
","
","","images/earth.jpg","","","","","","","","","","","","","","fixation","","","","","",""
"d3-animate-choice","79","638759","0.0-61.0-0.6","3151","5229","24","Female","true","true","true","true","""event"",""trial"",""time""
""fullscreenenter"",""5"",""26560""
","
","
","""event"",""trial"",""time""
""fullscreenenter"",""5"",""26560""
","
","948","","49","","","3000","1","","","images/earth.jpg","images/tutrocket2","images/tutrocket1","null","images/tutrocket1","","1","practice","null","1","","",""
"d3-animate-choice","80","641439","0.0-61.0-1.6","3151","5229","24","Female","true","true","true","true","""event"",""trial"",""time""
""fullscreenenter"",""5"",""26560""
","
","
","""event"",""trial"",""time""
""fullscreenenter"",""5"",""26560""
","
","675","","49","","","3000","1","","","images/tutgreenplanet.jpg","images/tutalien2","images/tutalien1","images/tutrocket1","images/tutalien1","images/nothing.png","2","practice","true","1","common","0","2022-12-13 01:53:50.660"
"two-step-fixation","81","642453","0.0-61.0-2.6","3151","5229","24","Female","true","true","true","true","""event"",""trial"",""time""
""fullscreenenter"",""5"",""26560""
","
","
","""event"",""trial"",""time""
""fullscreenenter"",""5"",""26560""
","
","","images/earth.jpg","","","","","","","","","","","","","","fixation","","","","","",""
"d3-animate-choice","82","644851","0.0-61.0-0.7","3151","5229","24","Female","true","true","true","true","""event"",""trial"",""time""
""fullscreenenter"",""5"",""26560""
","
","
","""event"",""trial"",""time""
""fullscreenenter"",""5"",""26560""
","
","380","","49","","","3000","1","","","images/earth.jpg","images/tutrocket2","images/tutrocket1","null","images/tutrocket1","","1","practice","null","1","","",""
"d3-animate-choice","83","647252","0.0-61.0-1.7","3151","5229","24","Female","true","true","true","true","""event"",""trial"",""time""
""fullscreenenter"",""5"",""26560""
","
","
","""event"",""trial"",""time""
""fullscreenenter"",""5"",""26560""
","
","384","","48","","","3000","1","","","images/tutgreenplanet.jpg","images/tutalien2","images/tutalien1","images/tutrocket1","images/tutalien2","images/nothing.png","2","practice","true","2","common","0","2022-12-13 01:53:56.473"
"two-step-fixation","84","648257","0.0-61.0-2.7","3151","5229","24","Female","true","true","true","true","""event"",""trial"",""time""
""fullscreenenter"",""5"",""26560""
","
","
","""event"",""trial"",""time""
""fullscreenenter"",""5"",""26560""
","
","","images/earth.jpg","","","","","","","","","","","","","","fixation","","","","","",""
"d3-animate-choice","85","650643","0.0-61.0-0.8","3151","5229","24","Female","true","true","true","true","""event"",""trial"",""time""
""fullscreenenter"",""5"",""26560""
","
","
","""event"",""trial"",""time""
""fullscreenenter"",""5"",""26560""
","
","377","","49","","","3000","1","","","images/earth.jpg","images/tutrocket2","images/tutrocket1","null","images/tutrocket1","","1","practice","null","1","","",""
"d3-animate-choice","86","653303","0.0-61.0-1.8","3151","5229","24","Female","true","true","true","true","""event"",""trial"",""time""
""fullscreenenter"",""5"",""26560""
","
","
","""event"",""trial"",""time""
""fullscreenenter"",""5"",""26560""
","
","640","","49","","","3000","1","","","images/tutyellowplanet.jpg","images/tutalien4","images/tutalien3","images/tutrocket1","images/tutalien3","images/t.png","2","practice","false","1","rare","1","2022-12-13 01:54:02.524"
"two-step-fixation","87","654308","0.0-61.0-2.8","3151","5229","24","Female","true","true","true","true","""event"",""trial"",""time""
""fullscreenenter"",""5"",""26560""
","
","
","""event"",""trial"",""time""
""fullscreenenter"",""5"",""26560""
","
","","images/earth.jpg","","","","","","","","","","","","","","fixation","","","","","",""
"d3-animate-choice","88","656697","0.0-61.0-0.9","3151","5229","24","Female","true","true","true","true","""event"",""trial"",""time""
""fullscreenenter"",""5"",""26560""
","
","
","""event"",""trial"",""time""
""fullscreenenter"",""5"",""26560""
","
","376","","48","","","3000","1","","","images/earth.jpg","images/tutrocket2","images/tutrocket1","null","images/tutrocket2","","1","practice","null","2","","",""
"d3-animate-choice","89","659617","0.0-61.0-1.9","3151","5229","24","Female","true","true","true","true","""event"",""trial"",""time""
""fullscreenenter"",""5"",""26560""
","
","
","""event"",""trial"",""time""
""fullscreenenter"",""5"",""26560""
","
","912","","49","","","3000","1","","","images/tutgreenplanet.jpg","images/tutalien2","images/tutalien1","images/tutrocket2","images/tutalien1","images/nothing.png","2","practice","false","1","rare","0","2022-12-13 01:54:08.838"
"two-step-fixation","90","660627","0.0-61.0-2.9","3151","5229","24","Female","true","true","true","true","""event"",""trial"",""time""
""fullscreenenter"",""5"",""26560""
","
","
","""event"",""trial"",""time""
""fullscreenenter"",""5"",""26560""
","
","","images/earth.jpg","","","","","","","","","","","","","","fixation","","","","","",""
"d3-animate-choice","91","663044","0.0-61.0-0.10","3151","5229","24","Female","true","true","true","true","""event"",""trial"",""time""
""fullscreenenter"",""5"",""26560""
","
","
","""event"",""trial"",""time""
""fullscreenenter"",""5"",""26560""
","
","407","","48","","","3000","1","","","images/earth.jpg","images/tutrocket2","images/tutrocket1","null","images/tutrocket2","","1","practice","null","2","","",""
"d3-animate-choice","92","666005","0.0-61.0-1.10","3151","5229","24","Female","true","true","true","true","""event"",""trial"",""time""
""fullscreenenter"",""5"",""26560""
","
","
","""event"",""trial"",""time""
""fullscreenenter"",""5"",""26560""
","
","950","","49","","","3000","1","","","images/tutyellowplanet.jpg","images/tutalien4","images/tutalien3","images/tutrocket2","images/tutalien3","images/nothing.png","2","practice","true","1","common","0","2022-12-13 01:54:15.227"
"two-step-fixation","93","667009","0.0-61.0-2.10","3151","5229","24","Female","true","true","true","true","""event"",""trial"",""time""
""fullscreenenter"",""5"",""26560""
","
","
","""event"",""trial"",""time""
""fullscreenenter"",""5"",""26560""
","
","","images/earth.jpg","","","","","","","","","","","","","","fixation","","","","","",""
"d3-animate-choice","94","669059","0.0-61.0-0.11","3151","5229","24","Female","true","true","true","true","""event"",""trial"",""time""
""fullscreenenter"",""5"",""26560""
","
","
","""event"",""trial"",""time""
""fullscreenenter"",""5"",""26560""
","
","38","","48","","","3000","1","","","images/earth.jpg","images/tutrocket2","images/tutrocket1","null","images/tutrocket2","","1","practice","null","2","","",""
"d3-animate-choice","95","671677","0.0-61.0-1.11","3151","5229","24","Female","true","true","true","true","""event"",""trial"",""time""
""fullscreenenter"",""5"",""26560""
","
","
","""event"",""trial"",""time""
""fullscreenenter"",""5"",""26560""
","
","616","","48","","","3000","1","","","images/tutyellowplanet.jpg","images/tutalien4","images/tutalien3","images/tutrocket2","images/tutalien4","images/t.png","2","practice","true","2","common","1","2022-12-13 01:54:20.899"
"two-step-fixation","96","672685","0.0-61.0-2.11","3151","5229","24","Female","true","true","true","true","""event"",""trial"",""time""
""fullscreenenter"",""5"",""26560""
","
","
","""event"",""trial"",""time""
""fullscreenenter"",""5"",""26560""
","
","","images/earth.jpg","","","","","","","","","","","","","","fixation","","","","","",""
"d3-animate-choice","97","675739","0.0-61.0-0.12","3151","5229","24","Female","true","true","true","true","""event"",""trial"",""time""
""fullscreenenter"",""5"",""26560""
","
","
","""event"",""trial"",""time""
""fullscreenenter"",""5"",""26560""
","
","1038","","48","","","3000","1","","","images/earth.jpg","images/tutrocket2","images/tutrocket1","null","images/tutrocket2","","1","practice","null","2","","",""
"d3-animate-choice","98","678703","0.0-61.0-1.12","3151","5229","24","Female","true","true","true","true","""event"",""trial"",""time""
""fullscreenenter"",""5"",""26560""
","
","
","""event"",""trial"",""time""
""fullscreenenter"",""5"",""26560""
","
","958","","49","","","3000","1","","","images/tutgreenplanet.jpg","images/tutalien2","images/tutalien1","images/tutrocket2","images/tutalien1","images/nothing.png","2","practice","false","1","rare","0","2022-12-13 01:54:27.924"
"two-step-fixation","99","679711","0.0-61.0-2.12","3151","5229","24","Female","true","true","true","true","""event"",""trial"",""time""
""fullscreenenter"",""5"",""26560""
","
","
","""event"",""trial"",""time""
""fullscreenenter"",""5"",""26560""
","
","","images/earth.jpg","","","","","","","","","","","","","","fixation","","","","","",""
"d3-animate-choice","100","682044","0.0-61.0-0.13","3151","5229","24","Female","true","true","true","true","""event"",""trial"",""time""
""fullscreenenter"",""5"",""26560""
","
","
","""event"",""trial"",""time""
""fullscreenenter"",""5"",""26560""
","
","325","","48","","","3000","1","","","images/earth.jpg","images/tutrocket2","images/tutrocket1","null","images/tutrocket2","","1","practice","null","2","","",""
"d3-animate-choice","101","685090","0.0-61.0-1.13","3151","5229","24","Female","true","true","true","true","""event"",""trial"",""time""
""fullscreenenter"",""5"",""26560""
","
","
","""event"",""trial"",""time""
""fullscreenenter"",""5"",""26560""
","
","1028","","49","","","3000","1","","","images/tutyellowplanet.jpg","images/tutalien4","images/tutalien3","images/tutrocket2","images/tutalien3","images/nothing.png","2","practice","true","1","common","0","2022-12-13 01:54:34.311"
"two-step-fixation","102","686104","0.0-61.0-2.13","3151","5229","24","Female","true","true","true","true","""event"",""trial"",""time""
""fullscreenenter"",""5"",""26560""
","
","
","""event"",""trial"",""time""
""fullscreenenter"",""5"",""26560""
","
","","images/earth.jpg","","","","","","","","","","","","","","fixation","","","","","",""
"d3-animate-choice","103","688259","0.0-61.0-0.14","3151","5229","24","Female","true","true","true","true","""event"",""trial"",""time""
""fullscreenenter"",""5"",""26560""
","
","
","""event"",""trial"",""time""
""fullscreenenter"",""5"",""26560""
","
","145","","48","","","3000","1","","","images/earth.jpg","images/tutrocket2","images/tutrocket1","null","images/tutrocket2","","1","practice","null","2","","",""
"d3-animate-choice","104","691571","0.0-61.0-1.14","3151","5229","24","Female","true","true","true","true","""event"",""trial"",""time""
""fullscreenenter"",""5"",""26560""
","
","
","""event"",""trial"",""time""
""fullscreenenter"",""5"",""26560""
","
","1301","","48","","","3000","1","","","images/tutgreenplanet.jpg","images/tutalien2","images/tutalien1","images/tutrocket2","images/tutalien2","images/nothing.png","2","practice","false","2","rare","0","2022-12-13 01:54:40.792"
"two-step-fixation","105","692588","0.0-61.0-2.14","3151","5229","24","Female","true","true","true","true","""event"",""trial"",""time""
""fullscreenenter"",""5"",""26560""
","
","
","""event"",""trial"",""time""
""fullscreenenter"",""5"",""26560""
","
","","images/earth.jpg","","","","","","","","","","","","","","fixation","","","","","",""
"d3-animate-choice","106","694962","0.0-61.0-0.15","3151","5229","24","Female","true","true","true","true","""event"",""trial"",""time""
""fullscreenenter"",""5"",""26560""
","
","
","""event"",""trial"",""time""
""fullscreenenter"",""5"",""26560""
","
","359","","49","","","3000","1","","","images/earth.jpg","images/tutrocket2","images/tutrocket1","null","images/tutrocket1","","1","practice","null","1","","",""
"d3-animate-choice","107","697588","0.0-61.0-1.15","3151","5229","24","Female","true","true","true","true","""event"",""trial"",""time""
""fullscreenenter"",""5"",""26560""
","
","
","""event"",""trial"",""time""
""fullscreenenter"",""5"",""26560""
","
","609","","49","","","3000","1","","","images/tutyellowplanet.jpg","images/tutalien4","images/tutalien3","images/tutrocket1","images/tutalien3","images/t.png","2","practice","false","1","rare","1","2022-12-13 01:54:46.809"
"two-step-fixation","108","698595","0.0-61.0-2.15","3151","5229","24","Female","true","true","true","true","""event"",""trial"",""time""
""fullscreenenter"",""5"",""26560""
","
","
","""event"",""trial"",""time""
""fullscreenenter"",""5"",""26560""
","
","","images/earth.jpg","","","","","","","","","","","","","","fixation","","","","","",""
"d3-animate-choice","109","700946","0.0-61.0-0.16","3151","5229","24","Female","true","true","true","true","""event"",""trial"",""time""
""fullscreenenter"",""5"",""26560""
","
","
","""event"",""trial"",""time""
""fullscreenenter"",""5"",""26560""
","
","340","","49","","","3000","1","","","images/earth.jpg","images/tutrocket2","images/tutrocket1","null","images/tutrocket1","","1","practice","null","1","","",""
"d3-animate-choice","110","703846","0.0-61.0-1.16","3151","5229","24","Female","true","true","true","true","""event"",""trial"",""time""
""fullscreenenter"",""5"",""26560""
","
","
","""event"",""trial"",""time""
""fullscreenenter"",""5"",""26560""
","
","889","","49","","","3000","1","","","images/tutgreenplanet.jpg","images/tutalien2","images/tutalien1","images/tutrocket1","images/tutalien1","images/nothing.png","2","practice","true","1","common","0","2022-12-13 01:54:53.068"
"two-step-fixation","111","704849","0.0-61.0-2.16","3151","5229","24","Female","true","true","true","true","""event"",""trial"",""time""
""fullscreenenter"",""5"",""26560""
","
","
","""event"",""trial"",""time""
""fullscreenenter"",""5"",""26560""
","
","","images/earth.jpg","","","","","","","","","","","","","","fixation","","","","","",""
"d3-animate-choice","112","707317","0.0-61.0-0.17","3151","5229","24","Female","true","true","true","true","""event"",""trial"",""time""
""fullscreenenter"",""5"",""26560""
","
","
","""event"",""trial"",""time""
""fullscreenenter"",""5"",""26560""
","
","462","","49","","","3000","1","","","images/earth.jpg","images/tutrocket2","images/tutrocket1","null","images/tutrocket1","","1","practice","null","1","","",""
"d3-animate-choice","113","710729","0.0-61.0-1.17","3151","5229","24","Female","true","true","true","true","""event"",""trial"",""time""
""fullscreenenter"",""5"",""26560""
","
","
","""event"",""trial"",""time""
""fullscreenenter"",""5"",""26560""
","
","1394","","48","","","3000","1","","","images/tutyellowplanet.jpg","images/tutalien4","images/tutalien3","images/tutrocket1","images/tutalien4","images/nothing.png","2","practice","false","2","rare","0","2022-12-13 01:54:59.950"
"two-step-fixation","114","711745","0.0-61.0-2.17","3151","5229","24","Female","true","true","true","true","""event"",""trial"",""time""
""fullscreenenter"",""5"",""26560""
","
","
","""event"",""trial"",""time""
""fullscreenenter"",""5"",""26560""
","
","","images/earth.jpg","","","","","","","","","","","","","","fixation","","","","","",""
"d3-animate-choice","115","714366","0.0-61.0-0.18","3151","5229","24","Female","true","true","true","true","""event"",""trial"",""time""
""fullscreenenter"",""5"",""26560""
","
","
","""event"",""trial"",""time""
""fullscreenenter"",""5"",""26560""
","
","602","","49","","","3000","1","","","images/earth.jpg","images/tutrocket2","images/tutrocket1","null","images/tutrocket1","","1","practice","null","1","","",""
"d3-animate-choice","116","717393","0.0-61.0-1.18","3151","5229","24","Female","true","true","true","true","""event"",""trial"",""time""
""fullscreenenter"",""5"",""26560""
","
","
","""event"",""trial"",""time""
""fullscreenenter"",""5"",""26560""
","
","1009","","49","","","3000","1","","","images/tutgreenplanet.jpg","images/tutalien2","images/tutalien1","images/tutrocket1","images/tutalien1","images/nothing.png","2","practice","true","1","common","0","2022-12-13 01:55:06.614"
"two-step-fixation","117","718403","0.0-61.0-2.18","3151","5229","24","Female","true","true","true","true","""event"",""trial"",""time""
""fullscreenenter"",""5"",""26560""
","
","
","""event"",""trial"",""time""
""fullscreenenter"",""5"",""26560""
","
","","images/earth.jpg","","","","","","","","","","","","","","fixation","","","","","",""
"d3-animate-choice","118","720979","0.0-61.0-0.19","3151","5229","24","Female","true","true","true","true","""event"",""trial"",""time""
""fullscreenenter"",""5"",""26560""
","
","
","""event"",""trial"",""time""
""fullscreenenter"",""5"",""26560""
","
","570","","49","","","3000","1","2531","48","images/earth.jpg","images/tutrocket2","images/tutrocket1","null","images/tutrocket1","","1","practice","null","1","","",""
"d3-animate-choice","119","724891","0.0-61.0-1.19","3151","5229","24","Female","true","true","true","true","""event"",""trial"",""time""
""fullscreenenter"",""5"",""26560""
","
","
","""event"",""trial"",""time""
""fullscreenenter"",""5"",""26560""
","
","1894","","48","","","3000","1","","","images/tutgreenplanet.jpg","images/tutalien2","images/tutalien1","images/tutrocket1","images/tutalien2","images/nothing.png","2","practice","true","2","common","0","2022-12-13 01:55:14.112"
"two-step-fixation","120","725896","0.0-61.0-2.19","3151","5229","24","Female","true","true","true","true","""event"",""trial"",""time""
""fullscreenenter"",""5"",""26560""
","
","
","""event"",""trial"",""time""
""fullscreenenter"",""5"",""26560""
","
","","images/earth.jpg","","","","","","","","","","","","","","fixation","","","","","",""
"d3-instructions","121","731565","0.0-62.0","3151","5229","24","Female","true","true","true","true","""event"",""trial"",""time""
""fullscreenenter"",""5"",""26560""
","
","
","""event"",""trial"",""time""
""fullscreenenter"",""5"",""26560""
","
","","","","","","","","","","","","","","","","","","","","","",""
"audio-keyboard-response","122","752391","0.0-63.0","3151","5229","24","Female","true","true","true","true","""event"",""trial"",""time""
""fullscreenenter"",""5"",""26560""
","
","
","""event"",""trial"",""time""
""fullscreenenter"",""5"",""26560""
","
","20829","audio/instructions/treasure_feedback.wav","32","","","","","","","","","","","","","","","","","","",""
"d3-instructions","123","777343","0.0-64.0","3151","5229","24","Female","true","true","true","true","""event"",""trial"",""time""
""fullscreenenter"",""5"",""26560""
","
","
","""event"",""trial"",""time""
""fullscreenenter"",""5"",""26560""
","
","","","","","","","","","","","","","","","","","","","","","",""
"d3-instructions","124","793479","0.0-65.0","3151","5229","24","Female","true","true","true","true","""event"",""trial"",""time""
""fullscreenenter"",""5"",""26560""
","
","
","""event"",""trial"",""time""
""fullscreenenter"",""5"",""26560""
","
","","","","","","","","","","","","","","","","","","","","","",""
"d3-instructions","125","820844","0.0-66.0","3151","5229","24","Female","true","true","true","true","""event"",""trial"",""time""
""fullscreenenter"",""5"",""26560""
","
","
","""event"",""trial"",""time""
""fullscreenenter"",""5"",""26560""
","
","","","","","","","","","","","","","","","","","","","","","",""
"d3-instructions","126","849958","0.0-67.0","3151","5229","24","Female","true","true","true","true","""event"",""trial"",""time""
""fullscreenenter"",""5"",""26560""
","
","
","""event"",""trial"",""time""
""fullscreenenter"",""5"",""26560""
","
","","","","","","","","","","","","","","","","","","","","","",""
"d3-instructions","127","858909","0.0-68.0","3151","5229","24","Female","true","true","true","true","""event"",""trial"",""time""
""fullscreenenter"",""5"",""26560""
","
","
","""event"",""trial"",""time""
""fullscreenenter"",""5"",""26560""
","
","","","","","","","","","","","","","","","","","","","","","",""
"instructions-quiz","128","864266","0.0-69.0","3151","5229","24","Female","true","true","true","true","""event"",""trial"",""time""
""fullscreenenter"",""5"",""26560""
","
","
","""event"",""trial"",""time""
""fullscreenenter"",""5"",""26560""
","
","5356","audio/quiz/Q1_Prompt.wav","","1","","","","","","","","","","","","","","","","","",""
"audio-keyboard-response","129","873445","0.0-70.0","3151","5229","24","Female","true","true","true","true","""event"",""trial"",""time""
""fullscreenenter"",""5"",""26560""
","
","
","""event"",""trial"",""time""
""fullscreenenter"",""5"",""26560""
","
","null","audio/quiz/Q1_Correct.wav","null","","","","","","","","","","","","","","","","","","",""
"instructions-quiz","130","882700","0.0-71.0","3151","5229","24","Female","true","true","true","true","""event"",""trial"",""time""
""fullscreenenter"",""5"",""26560""
","
","
","""event"",""trial"",""time""
""fullscreenenter"",""5"",""26560""
","
","9255","audio/quiz/Q2_Prompt.wav","","0","","","","","","","","","","","","","","","","","",""
"audio-keyboard-response","131","895575","0.0-72.0","3151","5229","24","Female","true","true","true","true","""event"",""trial"",""time""
""fullscreenenter"",""5"",""26560""
","
","
","""event"",""trial"",""time""
""fullscreenenter"",""5"",""26560""
","
","null","audio/quiz/Q2_Correct.wav","null","","","","","","","","","","","","","","","","","","",""
"instructions-quiz","132","901262","0.0-73.0","3151","5229","24","Female","true","true","true","true","""event"",""trial"",""time""
""fullscreenenter"",""5"",""26560""
","
","
","""event"",""trial"",""time""
""fullscreenenter"",""5"",""26560""
","
","5687","audio/quiz/Q3_Prompt.wav","","1","","","","","","","","","","","","","","","","","",""
"audio-keyboard-response","133","907075","0.0-74.0","3151","5229","24","Female","true","true","true","true","""event"",""trial"",""time""
""fullscreenenter"",""5"",""26560""
","
","
","""event"",""trial"",""time""
""fullscreenenter"",""5"",""26560""
","
","null","audio/quiz/Q3_Correct.wav","null","","","","","","","","","","","","","","","","","","",""
"d3-instructions","134","930424","0.0-75.0","3151","5229","24","Female","true","true","true","true","""event"",""trial"",""time""
""fullscreenenter"",""5"",""26560""
","
","
","""event"",""trial"",""time""
""fullscreenenter"",""5"",""26560""
","
","","","","","","","","","","","","","","","","","","","","","",""
"d3-animate-choice","135","933813","0.0-76.0-0.0","3151","5229","24","Female","true","true","true","true","""event"",""trial"",""time""
""fullscreenenter"",""5"",""26560""
","
","
","""event"",""trial"",""time""
""fullscreenenter"",""5"",""26560""
","
","1385","","49","","","3000","1","","","images/earth.jpg","images/rocket2","images/rocket1","null","images/rocket1","","1","real","null","1","","",""
"d3-animate-choice","136","937179","0.0-76.0-1.0","3151","5229","24","Female","true","true","true","true","""event"",""trial"",""time""
""fullscreenenter"",""5"",""26560""
","
","
","""event"",""trial"",""time""
""fullscreenenter"",""5"",""26560""
","
","1357","","48","","","3000","1","","","images/redplanet1.jpg","images/alien2","images/alien1","images/rocket1","images/alien2","images/t.png","2","real","true","2","common","1","2022-12-13 01:58:46.400"
"two-step-fixation","137","938185","0.0-76.0-2.0","3151","5229","24","Female","true","true","true","true","""event"",""trial"",""time""
""fullscreenenter"",""5"",""26560""
","
","
","""event"",""trial"",""time""
""fullscreenenter"",""5"",""26560""
","
","","images/earth.jpg","","","","","","","","","","","","","","fixation","","","","","",""
"d3-animate-choice","138","940841","0.0-76.0-0.1","3151","5229","24","Female","true","true","true","true","""event"",""trial"",""time""
""fullscreenenter"",""5"",""26560""
","
","
","""event"",""trial"",""time""
""fullscreenenter"",""5"",""26560""
","
","650","","49","","","3000","1","","","images/earth.jpg","images/rocket2","images/rocket1","null","images/rocket1","","1","real","null","1","","",""
"d3-animate-choice","139","943682","0.0-76.0-1.1","3151","5229","24","Female","true","true","true","true","""event"",""trial"",""time""
""fullscreenenter"",""5"",""26560""
","
","
","""event"",""trial"",""time""
""fullscreenenter"",""5"",""26560""
","
","829","","48","","","3000","1","","","images/redplanet1.jpg","images/alien2","images/alien1","images/rocket1","images/alien2","images/t.png","2","real","true","2","common","1","2022-12-13 01:58:52.903"
"two-step-fixation","140","944698","0.0-76.0-2.1","3151","5229","24","Female","true","true","true","true","""event"",""trial"",""time""
""fullscreenenter"",""5"",""26560""
","
","
","""event"",""trial"",""time""
""fullscreenenter"",""5"",""26560""
","
","","images/earth.jpg","","","","","","","","","","","","","","fixation","","","","","",""
"d3-animate-choice","141","947164","0.0-76.0-0.2","3151","5229","24","Female","true","true","true","true","""event"",""trial"",""time""
""fullscreenenter"",""5"",""26560""
","
","
","""event"",""trial"",""time""
""fullscreenenter"",""5"",""26560""
","
","461","","49","","","3000","1","","","images/earth.jpg","images/rocket2","images/rocket1","null","images/rocket1","","1","real","null","1","","",""
"d3-animate-choice","142","949734","0.0-76.0-1.2","3151","5229","24","Female","true","true","true","true","""event"",""trial"",""time""
""fullscreenenter"",""5"",""26560""
","
","
","""event"",""trial"",""time""
""fullscreenenter"",""5"",""26560""
","
","558","","48","","","3000","1","","","images/redplanet1.jpg","images/alien2","images/alien1","images/rocket1","images/alien2","images/t.png","2","real","true","2","common","1","2022-12-13 01:58:58.955"
"two-step-fixation","143","950738","0.0-76.0-2.2","3151","5229","24","Female","true","true","true","true","""event"",""trial"",""time""
""fullscreenenter"",""5"",""26560""
","
","
","""event"",""trial"",""time""
""fullscreenenter"",""5"",""26560""
","
","","images/earth.jpg","","","","","","","","","","","","","","fixation","","","","","",""
"d3-animate-choice","144","953108","0.0-76.0-0.3","3151","5229","24","Female","true","true","true","true","""event"",""trial"",""time""
""fullscreenenter"",""5"",""26560""
","
","
","""event"",""trial"",""time""
""fullscreenenter"",""5"",""26560""
","
","359","","49","","","3000","1","","","images/earth.jpg","images/rocket2","images/rocket1","null","images/rocket1","","1","real","null","1","","",""
"d3-animate-choice","145","955620","0.0-76.0-1.3","3151","5229","24","Female","true","true","true","true","""event"",""trial"",""time""
""fullscreenenter"",""5"",""26560""
","
","
","""event"",""trial"",""time""
""fullscreenenter"",""5"",""26560""
","
","501","","48","","","3000","1","","","images/purpleplanet.jpg","images/alien4","images/alien3","images/rocket1","images/alien4","images/t.png","2","real","false","2","rare","1","2022-12-13 01:59:04.841"
"two-step-fixation","146","956631","0.0-76.0-2.3","3151","5229","24","Female","true","true","true","true","""event"",""trial"",""time""
""fullscreenenter"",""5"",""26560""
","
","
","""event"",""trial"",""time""
""fullscreenenter"",""5"",""26560""
","
","","images/earth.jpg","","","","","","","","","","","","","","fixation","","","","","",""
"d3-animate-choice","147","959119","0.0-76.0-0.4","3151","5229","24","Female","true","true","true","true","""event"",""trial"",""time""
""fullscreenenter"",""5"",""26560""
","
","
","""event"",""trial"",""time""
""fullscreenenter"",""5"",""26560""
","
","478","","49","","","3000","1","","","images/earth.jpg","images/rocket2","images/rocket1","null","images/rocket1","","1","real","null","1","","",""
"d3-animate-choice","148","961909","0.0-76.0-1.4","3151","5229","24","Female","true","true","true","true","""event"",""trial"",""time""
""fullscreenenter"",""5"",""26560""
","
","
","""event"",""trial"",""time""
""fullscreenenter"",""5"",""26560""
","
","778","","48","","","3000","1","","","images/redplanet1.jpg","images/alien2","images/alien1","images/rocket1","images/alien2","images/t.png","2","real","true","2","common","1","2022-12-13 01:59:11.130"
"two-step-fixation","149","962926","0.0-76.0-2.4","3151","5229","24","Female","true","true","true","true","""event"",""trial"",""time""
""fullscreenenter"",""5"",""26560""
","
","
","""event"",""trial"",""time""
""fullscreenenter"",""5"",""26560""
","
","","images/earth.jpg","","","","","","","","","","","","","","fixation","","","","","",""
"d3-animate-choice","150","965725","0.0-76.0-0.5","3151","5229","24","Female","true","true","true","true","""event"",""trial"",""time""
""fullscreenenter"",""5"",""26560""
","
","
","""event"",""trial"",""time""
""fullscreenenter"",""5"",""26560""
","
","782","","49","","","3000","1","","","images/earth.jpg","images/rocket2","images/rocket1","null","images/rocket1","","1","real","null","1","","",""
"d3-animate-choice","151","968558","0.0-76.0-1.5","3151","5229","24","Female","true","true","true","true","""event"",""trial"",""time""
""fullscreenenter"",""5"",""26560""
","
","
","""event"",""trial"",""time""
""fullscreenenter"",""5"",""26560""
","
","821","","49","","","3000","1","","","images/redplanet1.jpg","images/alien2","images/alien1","images/rocket1","images/alien1","images/t.png","2","real","true","1","common","1","2022-12-13 01:59:17.780"
"two-step-fixation","152","969573","0.0-76.0-2.5","3151","5229","24","Female","true","true","true","true","""event"",""trial"",""time""
""fullscreenenter"",""5"",""26560""
","
","
","""event"",""trial"",""time""
""fullscreenenter"",""5"",""26560""
","
","","images/earth.jpg","","","","","","","","","","","","","","fixation","","","","","",""
"d3-animate-choice","153","972017","0.0-76.0-0.6","3151","5229","24","Female","true","true","true","true","""event"",""trial"",""time""
""fullscreenenter"",""5"",""26560""
","
","
","""event"",""trial"",""time""
""fullscreenenter"",""5"",""26560""
","
","436","","49","","","3000","1","","","images/earth.jpg","images/rocket2","images/rocket1","null","images/rocket1","","1","real","null","1","","",""
"d3-animate-choice","154","975155","0.0-76.0-1.6","3151","5229","24","Female","true","true","true","true","""event"",""trial"",""time""
""fullscreenenter"",""5"",""26560""
","
","
","""event"",""trial"",""time""
""fullscreenenter"",""5"",""26560""
","
","1129","","48","","","3000","1","","","images/purpleplanet.jpg","images/alien4","images/alien3","images/rocket1","images/alien4","images/nothing.png","2","real","false","2","rare","0","2022-12-13 01:59:24.377"
"two-step-fixation","155","976163","0.0-76.0-2.6","3151","5229","24","Female","true","true","true","true","""event"",""trial"",""time""
""fullscreenenter"",""5"",""26560""
","
","
","""event"",""trial"",""time""
""fullscreenenter"",""5"",""26560""
","
","","images/earth.jpg","","","","","","","","","","","","","","fixation","","","","","",""
"d3-animate-choice","156","978616","0.0-76.0-0.7","3151","5229","24","Female","true","true","true","true","""event"",""trial"",""time""
""fullscreenenter"",""5"",""26560""
","
","
","""event"",""trial"",""time""
""fullscreenenter"",""5"",""26560""
","
","446","","49","","","3000","1","","","images/earth.jpg","images/rocket2","images/rocket1","null","images/rocket1","","1","real","null","1","","",""
"d3-animate-choice","157","981367","0.0-76.0-1.7","3151","5229","24","Female","true","true","true","true","""event"",""trial"",""time""
""fullscreenenter"",""5"",""26560""
","
","
","""event"",""trial"",""time""
""fullscreenenter"",""5"",""26560""
","
","743","","49","","","3000","1","","","images/redplanet1.jpg","images/alien2","images/alien1","images/rocket1","images/alien1","images/nothing.png","2","real","true","1","common","0","2022-12-13 01:59:30.589"
"two-step-fixation","158","982376","0.0-76.0-2.7","3151","5229","24","Female","true","true","true","true","""event"",""trial"",""time""
""fullscreenenter"",""5"",""26560""
","
","
","""event"",""trial"",""time""
""fullscreenenter"",""5"",""26560""
","
","","images/earth.jpg","","","","","","","","","","","","","","fixation","","","","","",""
"d3-animate-choice","159","984882","0.0-76.0-0.8","3151","5229","24","Female","true","true","true","true","""event"",""trial"",""time""
""fullscreenenter"",""5"",""26560""
","
","
","""event"",""trial"",""time""
""fullscreenenter"",""5"",""26560""
","
","493","","49","","","3000","1","","","images/earth.jpg","images/rocket2","images/rocket1","null","images/rocket1","","1","real","null","1","","",""
"d3-animate-choice","160","987640","0.0-76.0-1.8","3151","5229","24","Female","true","true","true","true","""event"",""trial"",""time""
""fullscreenenter"",""5"",""26560""
","
","
","""event"",""trial"",""time""
""fullscreenenter"",""5"",""26560""
","
","750","","48","","","3000","1","","","images/redplanet1.jpg","images/alien2","images/alien1","images/rocket1","images/alien2","images/nothing.png","2","real","true","2","common","0","2022-12-13 01:59:36.861"
"two-step-fixation","161","988658","0.0-76.0-2.8","3151","5229","24","Female","true","true","true","true","""event"",""trial"",""time""
""fullscreenenter"",""5"",""26560""
","
","
","""event"",""trial"",""time""
""fullscreenenter"",""5"",""26560""
","
","","images/earth.jpg","","","","","","","","","","","","","","fixation","","","","","",""
"d3-animate-choice","162","991627","0.0-76.0-0.9","3151","5229","24","Female","true","true","true","true","""event"",""trial"",""time""
""fullscreenenter"",""5"",""26560""
","
","
","""event"",""trial"",""time""
""fullscreenenter"",""5"",""26560""
","
","951","","48","","","3000","1","","","images/earth.jpg","images/rocket2","images/rocket1","null","images/rocket2","","1","real","null","2","","",""
"d3-animate-choice","163","994557","0.0-76.0-1.9","3151","5229","24","Female","true","true","true","true","""event"",""trial"",""time""
""fullscreenenter"",""5"",""26560""
","
","
","""event"",""trial"",""time""
""fullscreenenter"",""5"",""26560""
","
","918","","48","","","3000","1","","","images/purpleplanet.jpg","images/alien4","images/alien3","images/rocket2","images/alien4","images/t.png","2","real","true","2","common","1","2022-12-13 01:59:43.778"
"two-step-fixation","164","995562","0.0-76.0-2.9","3151","5229","24","Female","true","true","true","true","""event"",""trial"",""time""
""fullscreenenter"",""5"",""26560""
","
","
","""event"",""trial"",""time""
""fullscreenenter"",""5"",""26560""
","
","","images/earth.jpg","","","","","","","","","","","","","","fixation","","","","","",""
"d3-animate-choice","165","998781","0.0-76.0-0.10","3151","5229","24","Female","true","true","true","true","""event"",""trial"",""time""
""fullscreenenter"",""5"",""26560""
","
","
","""event"",""trial"",""time""
""fullscreenenter"",""5"",""26560""
","
","1207","","48","","","3000","1","","","images/earth.jpg","images/rocket2","images/rocket1","null","images/rocket2","","1","real","null","2","","",""
"d3-animate-choice","166","1001466","0.0-76.0-1.10","3151","5229","24","Female","true","true","true","true","""event"",""trial"",""time""
""fullscreenenter"",""5"",""26560""
","
","
","""event"",""trial"",""time""
""fullscreenenter"",""5"",""26560""
","
","678","","48","","","3000","1","","","images/purpleplanet.jpg","images/alien4","images/alien3","images/rocket2","images/alien4","images/t.png","2","real","true","2","common","1","2022-12-13 01:59:50.687"
"two-step-fixation","167","1002469","0.0-76.0-2.10","3151","5229","24","Female","true","true","true","true","""event"",""trial"",""time""
""fullscreenenter"",""5"",""26560""
","
","
","""event"",""trial"",""time""
""fullscreenenter"",""5"",""26560""
","
","","images/earth.jpg","","","","","","","","","","","","","","fixation","","","","","",""
"d3-animate-choice","168","1005079","0.0-76.0-0.11","3151","5229","24","Female","true","true","true","true","""event"",""trial"",""time""
""fullscreenenter"",""5"",""26560""
","
","
","""event"",""trial"",""time""
""fullscreenenter"",""5"",""26560""
","
","604","","48","","","3000","1","","","images/earth.jpg","images/rocket2","images/rocket1","null","images/rocket2","","1","real","null","2","","",""
"d3-animate-choice","169","1007846","0.0-76.0-1.11","3151","5229","24","Female","true","true","true","true","""event"",""trial"",""time""
""fullscreenenter"",""5"",""26560""
","
","
","""event"",""trial"",""time""
""fullscreenenter"",""5"",""26560""
","
","756","","49","","","3000","1","","","images/purpleplanet.jpg","images/alien4","images/alien3","images/rocket2","images/alien3","images/t.png","2","real","true","1","common","1","2022-12-13 01:59:57.068"
"two-step-fixation","170","1008854","0.0-76.0-2.11","3151","5229","24","Female","true","true","true","true","""event"",""trial"",""time""
""fullscreenenter"",""5"",""26560""
","
","
","""event"",""trial"",""time""
""fullscreenenter"",""5"",""26560""
","
","","images/earth.jpg","","","","","","","","","","","","","","fixation","","","","","",""
"d3-animate-choice","171","1011304","0.0-76.0-0.12","3151","5229","24","Female","true","true","true","true","""event"",""trial"",""time""
""fullscreenenter"",""5"",""26560""
","
","
","""event"",""trial"",""time""
""fullscreenenter"",""5"",""26560""
","
","431","","49","","","3000","1","","","images/earth.jpg","images/rocket2","images/rocket1","null","images/rocket1","","1","real","null","1","","",""
"d3-animate-choice","172","1013992","0.0-76.0-1.12","3151","5229","24","Female","true","true","true","true","""event"",""trial"",""time""
""fullscreenenter"",""5"",""26560""
","
","
","""event"",""trial"",""time""
""fullscreenenter"",""5"",""26560""
","
","683","","48","","","3000","1","","","images/purpleplanet.jpg","images/alien4","images/alien3","images/rocket1","images/alien4","images/t.png","2","real","false","2","rare","1","2022-12-13 02:00:03.214"
"two-step-fixation","173","1015007","0.0-76.0-2.12","3151","5229","24","Female","true","true","true","true","""event"",""trial"",""time""
""fullscreenenter"",""5"",""26560""
","
","
","""event"",""trial"",""time""
""fullscreenenter"",""5"",""26560""
","
","","images/earth.jpg","","","","","","","","","","","","","","fixation","","","","","",""
"d3-animate-choice","174","1017522","0.0-76.0-0.13","3151","5229","24","Female","true","true","true","true","""event"",""trial"",""time""
""fullscreenenter"",""5"",""26560""
","
","
","""event"",""trial"",""time""
""fullscreenenter"",""5"",""26560""
","
","506","","49","","","3000","1","","","images/earth.jpg","images/rocket2","images/rocket1","null","images/rocket1","","1","real","null","1","","",""
"d3-animate-choice","175","1020503","0.0-76.0-1.13","3151","5229","24","Female","true","true","true","true","""event"",""trial"",""time""
""fullscreenenter"",""5"",""26560""
","
","
","""event"",""trial"",""time""
""fullscreenenter"",""5"",""26560""
","
","976","","48","","","3000","1","","","images/redplanet1.jpg","images/alien2","images/alien1","images/rocket1","images/alien2","images/t.png","2","real","true","2","common","1","2022-12-13 02:00:09.725"
"two-step-fixation","176","1021508","0.0-76.0-2.13","3151","5229","24","Female","true","true","true","true","""event"",""trial"",""time""
""fullscreenenter"",""5"",""26560""
","
","
","""event"",""trial"",""time""
""fullscreenenter"",""5"",""26560""
","
","","images/earth.jpg","","","","","","","","","","","","","","fixation","","","","","",""
"d3-animate-choice","177","1023893","0.0-76.0-0.14","3151","5229","24","Female","true","true","true","true","""event"",""trial"",""time""
""fullscreenenter"",""5"",""26560""
","
","
","""event"",""trial"",""time""
""fullscreenenter"",""5"",""26560""
","
","366","","49","","","3000","1","","","images/earth.jpg","images/rocket2","images/rocket1","null","images/rocket1","","1","real","null","1","","",""
"d3-animate-choice","178","1026426","0.0-76.0-1.14","3151","5229","24","Female","true","true","true","true","""event"",""trial"",""time""
""fullscreenenter"",""5"",""26560""
","
","
","""event"",""trial"",""time""
""fullscreenenter"",""5"",""26560""
","
","517","","49","","","3000","1","","","images/redplanet1.jpg","images/alien2","images/alien1","images/rocket1","images/alien1","images/nothing.png","2","real","true","1","common","0","2022-12-13 02:00:15.648"
"two-step-fixation","179","1027434","0.0-76.0-2.14","3151","5229","24","Female","true","true","true","true","""event"",""trial"",""time""
""fullscreenenter"",""5"",""26560""
","
","
","""event"",""trial"",""time""
""fullscreenenter"",""5"",""26560""
","
","","images/earth.jpg","","","","","","","","","","","","","","fixation","","","","","",""
"d3-animate-choice","180","1029952","0.0-76.0-0.15","3151","5229","24","Female","true","true","true","true","""event"",""trial"",""time""
""fullscreenenter"",""5"",""26560""
","
","
","""event"",""trial"",""time""
""fullscreenenter"",""5"",""26560""
","
","515","","48","","","3000","1","","","images/earth.jpg","images/rocket2","images/rocket1","null","images/rocket2","","1","real","null","2","","",""
"d3-animate-choice","181","1032558","0.0-76.0-1.15","3151","5229","24","Female","true","true","true","true","""event"",""trial"",""time""
""fullscreenenter"",""5"",""26560""
","
","
","""event"",""trial"",""time""
""fullscreenenter"",""5"",""26560""
","
","596","","48","","","3000","1","","","images/purpleplanet.jpg","images/alien4","images/alien3","images/rocket2","images/alien4","images/nothing.png","2","real","true","2","common","0","2022-12-13 02:00:21.779"
"two-step-fixation","182","1033575","0.0-76.0-2.15","3151","5229","24","Female","true","true","true","true","""event"",""trial"",""time""
""fullscreenenter"",""5"",""26560""
","
","
","""event"",""trial"",""time""
""fullscreenenter"",""5"",""26560""
","
","","images/earth.jpg","","","","","","","","","","","","","","fixation","","","","","",""
"d3-animate-choice","183","1035932","0.0-76.0-0.16","3151","5229","24","Female","true","true","true","true","""event"",""trial"",""time""
""fullscreenenter"",""5"",""26560""
","
","
","""event"",""trial"",""time""
""fullscreenenter"",""5"",""26560""
","
","349","","49","","","3000","1","","","images/earth.jpg","images/rocket2","images/rocket1","null","images/rocket1","","1","real","null","1","","",""
"d3-animate-choice","184","1038271","0.0-76.0-1.16","3151","5229","24","Female","true","true","true","true","""event"",""trial"",""time""
""fullscreenenter"",""5"",""26560""
","
","
","""event"",""trial"",""time""
""fullscreenenter"",""5"",""26560""
","
","329","","48","","","3000","1","","","images/purpleplanet.jpg","images/alien4","images/alien3","images/rocket1","images/alien4","images/t.png","2","real","false","2","rare","1","2022-12-13 02:00:27.492"
"two-step-fixation","185","1039279","0.0-76.0-2.16","3151","5229","24","Female","true","true","true","true","""event"",""trial"",""time""
""fullscreenenter"",""5"",""26560""
","
","
","""event"",""trial"",""time""
""fullscreenenter"",""5"",""26560""
","
","","images/earth.jpg","","","","","","","","","","","","","","fixation","","","","","",""
"d3-animate-choice","186","1041728","0.0-76.0-0.17","3151","5229","24","Female","true","true","true","true","""event"",""trial"",""time""
""fullscreenenter"",""5"",""26560""
","
","
","""event"",""trial"",""time""
""fullscreenenter"",""5"",""26560""
","
","433","","49","","","3000","1","","","images/earth.jpg","images/rocket2","images/rocket1","null","images/rocket1","","1","real","null","1","","",""
"d3-animate-choice","187","1044091","0.0-76.0-1.17","3151","5229","24","Female","true","true","true","true","""event"",""trial"",""time""
""fullscreenenter"",""5"",""26560""
","
","
","""event"",""trial"",""time""
""fullscreenenter"",""5"",""26560""
","
","358","","49","","","3000","1","","","images/redplanet1.jpg","images/alien2","images/alien1","images/rocket1","images/alien1","images/t.png","2","real","true","1","common","1","2022-12-13 02:00:33.312"
"two-step-fixation","188","1045096","0.0-76.0-2.17","3151","5229","24","Female","true","true","true","true","""event"",""trial"",""time""
""fullscreenenter"",""5"",""26560""
","
","
","""event"",""trial"",""time""
""fullscreenenter"",""5"",""26560""
","
","","images/earth.jpg","","","","","","","","","","","","","","fixation","","","","","",""
"d3-animate-choice","189","1047442","0.0-76.0-0.18","3151","5229","24","Female","true","true","true","true","""event"",""trial"",""time""
""fullscreenenter"",""5"",""26560""
","
","
","""event"",""trial"",""time""
""fullscreenenter"",""5"",""26560""
","
","341","","49","","","3000","1","","","images/earth.jpg","images/rocket2","images/rocket1","null","images/rocket1","","1","real","null","1","","",""
"d3-animate-choice","190","1050011","0.0-76.0-1.18","3151","5229","24","Female","true","true","true","true","""event"",""trial"",""time""
""fullscreenenter"",""5"",""26560""
","
","
","""event"",""trial"",""time""
""fullscreenenter"",""5"",""26560""
","
","556","","49","","","3000","1","","","images/purpleplanet.jpg","images/alien4","images/alien3","images/rocket1","images/alien3","images/nothing.png","2","real","false","1","rare","0","2022-12-13 02:00:39.232"
"two-step-fixation","191","1051019","0.0-76.0-2.18","3151","5229","24","Female","true","true","true","true","""event"",""trial"",""time""
""fullscreenenter"",""5"",""26560""
","
","
","""event"",""trial"",""time""
""fullscreenenter"",""5"",""26560""
","
","","images/earth.jpg","","","","","","","","","","","","","","fixation","","","","","",""
"d3-animate-choice","192","1053393","0.0-76.0-0.19","3151","5229","24","Female","true","true","true","true","""event"",""trial"",""time""
""fullscreenenter"",""5"",""26560""
","
","
","""event"",""trial"",""time""
""fullscreenenter"",""5"",""26560""
","
","368","","48","","","3000","1","","","images/earth.jpg","images/rocket2","images/rocket1","null","images/rocket2","","1","real","null","2","","",""
"d3-animate-choice","193","1056042","0.0-76.0-1.19","3151","5229","24","Female","true","true","true","true","""event"",""trial"",""time""
""fullscreenenter"",""5"",""26560""
","
","
","""event"",""trial"",""time""
""fullscreenenter"",""5"",""26560""
","
","633","","49","","","3000","1","","","images/purpleplanet.jpg","images/alien4","images/alien3","images/rocket2","images/alien3","images/nothing.png","2","real","true","1","common","0","2022-12-13 02:00:45.263"
"two-step-fixation","194","1057051","0.0-76.0-2.19","3151","5229","24","Female","true","true","true","true","""event"",""trial"",""time""
""fullscreenenter"",""5"",""26560""
","
","
","""event"",""trial"",""time""
""fullscreenenter"",""5"",""26560""
","
","","images/earth.jpg","","","","","","","","","","","","","","fixation","","","","","",""
"d3-animate-choice","195","1059319","0.0-76.0-0.20","3151","5229","24","Female","true","true","true","true","""event"",""trial"",""time""
""fullscreenenter"",""5"",""26560""
","
","
","""event"",""trial"",""time""
""fullscreenenter"",""5"",""26560""
","
","261","","48","","","3000","1","","","images/earth.jpg","images/rocket2","images/rocket1","null","images/rocket2","","1","real","null","2","","",""
"d3-animate-choice","196","1061704","0.0-76.0-1.20","3151","5229","24","Female","true","true","true","true","""event"",""trial"",""time""
""fullscreenenter"",""5"",""26560""
","
","
","""event"",""trial"",""time""
""fullscreenenter"",""5"",""26560""
","
","381","","48","","","3000","1","","","images/redplanet1.jpg","images/alien2","images/alien1","images/rocket2","images/alien2","images/t.png","2","real","false","2","rare","1","2022-12-13 02:00:50.926"
"two-step-fixation","197","1062721","0.0-76.0-2.20","3151","5229","24","Female","true","true","true","true","""event"",""trial"",""time""
""fullscreenenter"",""5"",""26560""
","
","
","""event"",""trial"",""time""
""fullscreenenter"",""5"",""26560""
","
","","images/earth.jpg","","","","","","","","","","","","","","fixation","","","","","",""
"d3-animate-choice","198","1065096","0.0-76.0-0.21","3151","5229","24","Female","true","true","true","true","""event"",""trial"",""time""
""fullscreenenter"",""5"",""26560""
","
","
","""event"",""trial"",""time""
""fullscreenenter"",""5"",""26560""
","
","367","","48","","","3000","1","","","images/earth.jpg","images/rocket2","images/rocket1","null","images/rocket2","","1","real","null","2","","",""
"d3-animate-choice","199","1067784","0.0-76.0-1.21","3151","5229","24","Female","true","true","true","true","""event"",""trial"",""time""
""fullscreenenter"",""5"",""26560""
","
","
","""event"",""trial"",""time""
""fullscreenenter"",""5"",""26560""
","
","680","","48","","","3000","1","","","images/purpleplanet.jpg","images/alien4","images/alien3","images/rocket2","images/alien4","images/nothing.png","2","real","true","2","common","0","2022-12-13 02:00:57.005"
"two-step-fixation","200","1068790","0.0-76.0-2.21","3151","5229","24","Female","true","true","true","true","""event"",""trial"",""time""
""fullscreenenter"",""5"",""26560""
","
","
","""event"",""trial"",""time""
""fullscreenenter"",""5"",""26560""
","
","","images/earth.jpg","","","","","","","","","","","","","","fixation","","","","","",""
"d3-animate-choice","201","1071277","0.0-76.0-0.22","3151","5229","24","Female","true","true","true","true","""event"",""trial"",""time""
""fullscreenenter"",""5"",""26560""
","
","
","""event"",""trial"",""time""
""fullscreenenter"",""5"",""26560""
","
","473","","49","","","3000","1","","","images/earth.jpg","images/rocket2","images/rocket1","null","images/rocket1","","1","real","null","1","","",""
"d3-animate-choice","202","1074335","0.0-76.0-1.22","3151","5229","24","Female","true","true","true","true","""event"",""trial"",""time""
""fullscreenenter"",""5"",""26560""
","
","
","""event"",""trial"",""time""
""fullscreenenter"",""5"",""26560""
","
","1046","","49","","","3000","1","","","images/purpleplanet.jpg","images/alien4","images/alien3","images/rocket1","images/alien3","images/t.png","2","real","false","1","rare","1","2022-12-13 02:01:03.556"
"two-step-fixation","203","1075342","0.0-76.0-2.22","3151","5229","24","Female","true","true","true","true","""event"",""trial"",""time""
""fullscreenenter"",""5"",""26560""
","
","
","""event"",""trial"",""time""
""fullscreenenter"",""5"",""26560""
","
","","images/earth.jpg","","","","","","","","","","","","","","fixation","","","","","",""
"d3-animate-choice","204","1079059","0.0-76.0-0.23","3151","5229","24","Female","true","true","true","true","""event"",""trial"",""time""
""fullscreenenter"",""5"",""26560""
","
","
","""event"",""trial"",""time""
""fullscreenenter"",""5"",""26560""
","
","1707","","48","","","3000","1","","","images/earth.jpg","images/rocket2","images/rocket1","null","images/rocket2","","1","real","null","2","","",""
"d3-animate-choice","205","1081698","0.0-76.0-1.23","3151","5229","24","Female","true","true","true","true","""event"",""trial"",""time""
""fullscreenenter"",""5"",""26560""
","
","
","""event"",""trial"",""time""
""fullscreenenter"",""5"",""26560""
","
","628","","49","","","3000","1","","","images/purpleplanet.jpg","images/alien4","images/alien3","images/rocket2","images/alien3","images/nothing.png","2","real","true","1","common","0","2022-12-13 02:01:10.919"
"two-step-fixation","206","1082716","0.0-76.0-2.23","3151","5229","24","Female","true","true","true","true","""event"",""trial"",""time""
""fullscreenenter"",""5"",""26560""
","
","
","""event"",""trial"",""time""
""fullscreenenter"",""5"",""26560""
","
","","images/earth.jpg","","","","","","","","","","","","","","fixation","","","","","",""
"d3-animate-choice","207","1085576","0.0-76.0-0.24","3151","5229","24","Female","true","true","true","true","""event"",""trial"",""time""
""fullscreenenter"",""5"",""26560""
","
","
","""event"",""trial"",""time""
""fullscreenenter"",""5"",""26560""
","
","848","","48","","","3000","1","","","images/earth.jpg","images/rocket2","images/rocket1","null","images/rocket2","","1","real","null","2","","",""
"d3-animate-choice","208","1088250","0.0-76.0-1.24","3151","5229","24","Female","true","true","true","true","""event"",""trial"",""time""
""fullscreenenter"",""5"",""26560""
","
","
","""event"",""trial"",""time""
""fullscreenenter"",""5"",""26560""
","
","662","","48","","","3000","1","","","images/purpleplanet.jpg","images/alien4","images/alien3","images/rocket2","images/alien4","images/t.png","2","real","true","2","common","1","2022-12-13 02:01:17.472"
"two-step-fixation","209","1089263","0.0-76.0-2.24","3151","5229","24","Female","true","true","true","true","""event"",""trial"",""time""
""fullscreenenter"",""5"",""26560""
","
","
","""event"",""trial"",""time""
""fullscreenenter"",""5"",""26560""
","
","","images/earth.jpg","","","","","","","","","","","","","","fixation","","","","","",""
"d3-animate-choice","210","1091492","0.0-76.0-0.25","3151","5229","24","Female","true","true","true","true","""event"",""trial"",""time""
""fullscreenenter"",""5"",""26560""
","
","
","""event"",""trial"",""time""
""fullscreenenter"",""5"",""26560""
","
","224","","48","","","3000","1","","","images/earth.jpg","images/rocket2","images/rocket1","null","images/rocket2","","1","real","null","2","","",""
"d3-animate-choice","211","1094269","0.0-76.0-1.25","3151","5229","24","Female","true","true","true","true","""event"",""trial"",""time""
""fullscreenenter"",""5"",""26560""
","
","
","""event"",""trial"",""time""
""fullscreenenter"",""5"",""26560""
","
","772","","49","","","3000","1","","","images/purpleplanet.jpg","images/alien4","images/alien3","images/rocket2","images/alien3","images/nothing.png","2","real","true","1","common","0","2022-12-13 02:01:23.491"
"two-step-fixation","212","1095275","0.0-76.0-2.25","3151","5229","24","Female","true","true","true","true","""event"",""trial"",""time""
""fullscreenenter"",""5"",""26560""
","
","
","""event"",""trial"",""time""
""fullscreenenter"",""5"",""26560""
","
","","images/earth.jpg","","","","","","","","","","","","","","fixation","","","","","",""
"d3-animate-choice","213","1098062","0.0-76.0-0.26","3151","5229","24","Female","true","true","true","true","""event"",""trial"",""time""
""fullscreenenter"",""5"",""26560""
","
","
","""event"",""trial"",""time""
""fullscreenenter"",""5"",""26560""
","
","776","","48","","","3000","1","1601","49","images/earth.jpg","images/rocket2","images/rocket1","null","images/rocket2","","1","real","null","2","","",""
"d3-animate-choice","214","1102081","0.0-76.0-1.26","3151","5229","24","Female","true","true","true","true","""event"",""trial"",""time""
""fullscreenenter"",""5"",""26560""
","
","
","""event"",""trial"",""time""
""fullscreenenter"",""5"",""26560""
","
","2700","","48","","","3000","1","","","images/redplanet1.jpg","images/alien2","images/alien1","images/rocket2","images/alien2","","2","real","false","2","rare","0","2022-12-13 02:01:31.302"
"two-step-fixation","215","1103088","0.0-76.0-2.26","3151","5229","24","Female","true","true","true","true","""event"",""trial"",""time""
""fullscreenenter"",""5"",""26560""
","
","
","""event"",""trial"",""time""
""fullscreenenter"",""5"",""26560""
","
","","images/earth.jpg","","","","","","","","","","","","","","fixation","","","","","",""
"d3-animate-choice","216","1106244","0.0-76.0-0.27","3151","5229","24","Female","true","true","true","true","""event"",""trial"",""time""
""fullscreenenter"",""5"",""26560""
","
","
","""event"",""trial"",""time""
""fullscreenenter"",""5"",""26560""
","
","1137","","49","","","3000","1","","","images/earth.jpg","images/rocket2","images/rocket1","null","images/rocket1","","1","real","null","1","","",""
"d3-animate-choice","217","1108926","0.0-76.0-1.27","3151","5229","24","Female","true","true","true","true","""event"",""trial"",""time""
""fullscreenenter"",""5"",""26560""
","
","
","""event"",""trial"",""time""
""fullscreenenter"",""5"",""26560""
","
","667","","49","","","3000","1","","","images/purpleplanet.jpg","images/alien4","images/alien3","images/rocket1","images/alien3","images/nothing.png","2","real","false","1","rare","0","2022-12-13 02:01:38.147"
"two-step-fixation","218","1109942","0.0-76.0-2.27","3151","5229","24","Female","true","true","true","true","""event"",""trial"",""time""
""fullscreenenter"",""5"",""26560""
","
","
","""event"",""trial"",""time""
""fullscreenenter"",""5"",""26560""
","
","","images/earth.jpg","","","","","","","","","","","","","","fixation","","","","","",""
"d3-animate-choice","219","1112283","0.0-76.0-0.28","3151","5229","24","Female","true","true","true","true","""event"",""trial"",""time""
""fullscreenenter"",""5"",""26560""
","
","
","""event"",""trial"",""time""
""fullscreenenter"",""5"",""26560""
","
","332","","48","","","3000","1","","","images/earth.jpg","images/rocket2","images/rocket1","null","images/rocket2","","1","real","null","2","","",""
"d3-animate-choice","220","1114768","0.0-76.0-1.28","3151","5229","24","Female","true","true","true","true","""event"",""trial"",""time""
""fullscreenenter"",""5"",""26560""
","
","
","""event"",""trial"",""time""
""fullscreenenter"",""5"",""26560""
","
","481","","49","","","3000","1","","","images/purpleplanet.jpg","images/alien4","images/alien3","images/rocket2","images/alien3","images/nothing.png","2","real","true","1","common","0","2022-12-13 02:01:43.989"
"two-step-fixation","221","1115783","0.0-76.0-2.28","3151","5229","24","Female","true","true","true","true","""event"",""trial"",""time""
""fullscreenenter"",""5"",""26560""
","
","
","""event"",""trial"",""time""
""fullscreenenter"",""5"",""26560""
","
","","images/earth.jpg","","","","","","","","","","","","","","fixation","","","","","",""
"d3-animate-choice","222","1118077","0.0-76.0-0.29","3151","5229","24","Female","true","true","true","true","""event"",""trial"",""time""
""fullscreenenter"",""5"",""26560""
","
","
","""event"",""trial"",""time""
""fullscreenenter"",""5"",""26560""
","
","278","","48","","","3000","1","","","images/earth.jpg","images/rocket2","images/rocket1","null","images/rocket2","","1","real","null","2","","",""
"d3-animate-choice","223","1120436","0.0-76.0-1.29","3151","5229","24","Female","true","true","true","true","""event"",""trial"",""time""
""fullscreenenter"",""5"",""26560""
","
","
","""event"",""trial"",""time""
""fullscreenenter"",""5"",""26560""
","
","347","","48","","","3000","1","","","images/purpleplanet.jpg","images/alien4","images/alien3","images/rocket2","images/alien4","images/t.png","2","real","true","2","common","1","2022-12-13 02:01:49.657"
"two-step-fixation","224","1121443","0.0-76.0-2.29","3151","5229","24","Female","true","true","true","true","""event"",""trial"",""time""
""fullscreenenter"",""5"",""26560""
","
","
","""event"",""trial"",""time""
""fullscreenenter"",""5"",""26560""
","
","","images/earth.jpg","","","","","","","","","","","","","","fixation","","","","","",""
"d3-animate-choice","225","1124360","0.0-76.0-0.30","3151","5229","24","Female","true","true","true","true","""event"",""trial"",""time""
""fullscreenenter"",""5"",""26560""
","
","
","""event"",""trial"",""time""
""fullscreenenter"",""5"",""26560""
","
","910","","48","","","3000","1","","","images/earth.jpg","images/rocket2","images/rocket1","null","images/rocket2","","1","real","null","2","","",""
"d3-animate-choice","226","1127069","0.0-76.0-1.30","3151","5229","24","Female","true","true","true","true","""event"",""trial"",""time""
""fullscreenenter"",""5"",""26560""
","
","
","""event"",""trial"",""time""
""fullscreenenter"",""5"",""26560""
","
","701","","48","","","3000","1","","","images/purpleplanet.jpg","images/alien4","images/alien3","images/rocket2","images/alien4","images/t.png","2","real","true","2","common","1","2022-12-13 02:01:56.290"
"two-step-fixation","227","1128085","0.0-76.0-2.30","3151","5229","24","Female","true","true","true","true","""event"",""trial"",""time""
""fullscreenenter"",""5"",""26560""
","
","
","""event"",""trial"",""time""
""fullscreenenter"",""5"",""26560""
","
","","images/earth.jpg","","","","","","","","","","","","","","fixation","","","","","",""
"d3-animate-choice","228","1130716","0.0-76.0-0.31","3151","5229","24","Female","true","true","true","true","""event"",""trial"",""time""
""fullscreenenter"",""5"",""26560""
","
","
","""event"",""trial"",""time""
""fullscreenenter"",""5"",""26560""
","
","617","","48","","","3000","1","","","images/earth.jpg","images/rocket2","images/rocket1","null","images/rocket2","","1","real","null","2","","",""
"d3-animate-choice","229","1133357","0.0-76.0-1.31","3151","5229","24","Female","true","true","true","true","""event"",""trial"",""time""
""fullscreenenter"",""5"",""26560""
","
","
","""event"",""trial"",""time""
""fullscreenenter"",""5"",""26560""
","
","635","","48","","","3000","1","","","images/purpleplanet.jpg","images/alien4","images/alien3","images/rocket2","images/alien4","images/t.png","2","real","true","2","common","1","2022-12-13 02:02:02.578"
"two-step-fixation","230","1134368","0.0-76.0-2.31","3151","5229","24","Female","true","true","true","true","""event"",""trial"",""time""
""fullscreenenter"",""5"",""26560""
","
","
","""event"",""trial"",""time""
""fullscreenenter"",""5"",""26560""
","
","","images/earth.jpg","","","","","","","","","","","","","","fixation","","","","","",""
"d3-animate-choice","231","1136807","0.0-76.0-0.32","3151","5229","24","Female","true","true","true","true","""event"",""trial"",""time""
""fullscreenenter"",""5"",""26560""
","
","
","""event"",""trial"",""time""
""fullscreenenter"",""5"",""26560""
","
","420","","49","","","3000","1","","","images/earth.jpg","images/rocket2","images/rocket1","null","images/rocket1","","1","real","null","1","","",""
"d3-animate-choice","232","1139640","0.0-76.0-1.32","3151","5229","24","Female","true","true","true","true","""event"",""trial"",""time""
""fullscreenenter"",""5"",""26560""
","
","
","""event"",""trial"",""time""
""fullscreenenter"",""5"",""26560""
","
","819","","48","","","3000","1","","","images/purpleplanet.jpg","images/alien4","images/alien3","images/rocket1","images/alien4","images/t.png","2","real","false","2","rare","1","2022-12-13 02:02:08.861"
"two-step-fixation","233","1140657","0.0-76.0-2.32","3151","5229","24","Female","true","true","true","true","""event"",""trial"",""time""
""fullscreenenter"",""5"",""26560""
","
","
","""event"",""trial"",""time""
""fullscreenenter"",""5"",""26560""
","
","","images/earth.jpg","","","","","","","","","","","","","","fixation","","","","","",""
"d3-animate-choice","234","1143024","0.0-76.0-0.33","3151","5229","24","Female","true","true","true","true","""event"",""trial"",""time""
""fullscreenenter"",""5"",""26560""
","
","
","""event"",""trial"",""time""
""fullscreenenter"",""5"",""26560""
","
","358","","49","","","3000","1","","","images/earth.jpg","images/rocket2","images/rocket1","null","images/rocket1","","1","real","null","1","","",""
"d3-animate-choice","235","1146069","0.0-76.0-1.33","3151","5229","24","Female","true","true","true","true","""event"",""trial"",""time""
""fullscreenenter"",""5"",""26560""
","
","
","""event"",""trial"",""time""
""fullscreenenter"",""5"",""26560""
","
","1027","","49","","","3000","1","","","images/redplanet1.jpg","images/alien2","images/alien1","images/rocket1","images/alien1","images/t.png","2","real","true","1","common","1","2022-12-13 02:02:15.291"
"two-step-fixation","236","1147082","0.0-76.0-2.33","3151","5229","24","Female","true","true","true","true","""event"",""trial"",""time""
""fullscreenenter"",""5"",""26560""
","
","
","""event"",""trial"",""time""
""fullscreenenter"",""5"",""26560""
","
","","images/earth.jpg","","","","","","","","","","","","","","fixation","","","","","",""
"d3-animate-choice","237","1149989","0.0-76.0-0.34","3151","5229","24","Female","true","true","true","true","""event"",""trial"",""time""
""fullscreenenter"",""5"",""26560""
","
","
","""event"",""trial"",""time""
""fullscreenenter"",""5"",""26560""
","
","895","","49","","","3000","1","","","images/earth.jpg","images/rocket2","images/rocket1","null","images/rocket1","","1","real","null","1","","",""
"d3-animate-choice","238","1152752","0.0-76.0-1.34","3151","5229","24","Female","true","true","true","true","""event"",""trial"",""time""
""fullscreenenter"",""5"",""26560""
","
","
","""event"",""trial"",""time""
""fullscreenenter"",""5"",""26560""
","
","750","","48","","","3000","1","","","images/purpleplanet.jpg","images/alien4","images/alien3","images/rocket1","images/alien4","images/t.png","2","real","false","2","rare","1","2022-12-13 02:02:21.974"
"two-step-fixation","239","1153770","0.0-76.0-2.34","3151","5229","24","Female","true","true","true","true","""event"",""trial"",""time""
""fullscreenenter"",""5"",""26560""
","
","
","""event"",""trial"",""time""
""fullscreenenter"",""5"",""26560""
","
","","images/earth.jpg","","","","","","","","","","","","","","fixation","","","","","",""
"d3-animate-choice","240","1156196","0.0-76.0-0.35","3151","5229","24","Female","true","true","true","true","""event"",""trial"",""time""
""fullscreenenter"",""5"",""26560""
","
","
","""event"",""trial"",""time""
""fullscreenenter"",""5"",""26560""
","
","405","","49","","","3000","1","","","images/earth.jpg","images/rocket2","images/rocket1","null","images/rocket1","","1","real","null","1","","",""
"d3-animate-choice","241","1159051","0.0-76.0-1.35","3151","5229","24","Female","true","true","true","true","""event"",""trial"",""time""
""fullscreenenter"",""5"",""26560""
","
","
","""event"",""trial"",""time""
""fullscreenenter"",""5"",""26560""
","
","843","","49","","","3000","1","","","images/redplanet1.jpg","images/alien2","images/alien1","images/rocket1","images/alien1","images/t.png","2","real","true","1","common","1","2022-12-13 02:02:28.272"
"two-step-fixation","242","1160057","0.0-76.0-2.35","3151","5229","24","Female","true","true","true","true","""event"",""trial"",""time""
""fullscreenenter"",""5"",""26560""
","
","
","""event"",""trial"",""time""
""fullscreenenter"",""5"",""26560""
","
","","images/earth.jpg","","","","","","","","","","","","","","fixation","","","","","",""
"d3-animate-choice","243","1162416","0.0-76.0-0.36","3151","5229","24","Female","true","true","true","true","""event"",""trial"",""time""
""fullscreenenter"",""5"",""26560""
","
","
","""event"",""trial"",""time""
""fullscreenenter"",""5"",""26560""
","
","347","","48","","","3000","1","","","images/earth.jpg","images/rocket2","images/rocket1","null","images/rocket2","","1","real","null","2","","",""
"d3-animate-choice","244","1165472","0.0-76.0-1.36","3151","5229","24","Female","true","true","true","true","""event"",""trial"",""time""
""fullscreenenter"",""5"",""26560""
","
","
","""event"",""trial"",""time""
""fullscreenenter"",""5"",""26560""
","
","1048","","49","","","3000","1","","","images/purpleplanet.jpg","images/alien4","images/alien3","images/rocket2","images/alien3","images/nothing.png","2","real","true","1","common","0","2022-12-13 02:02:34.694"
"two-step-fixation","245","1166481","0.0-76.0-2.36","3151","5229","24","Female","true","true","true","true","""event"",""trial"",""time""
""fullscreenenter"",""5"",""26560""
","
","
","""event"",""trial"",""time""
""fullscreenenter"",""5"",""26560""
","
","","images/earth.jpg","","","","","","","","","","","","","","fixation","","","","","",""
"d3-animate-choice","246","1169073","0.0-76.0-0.37","3151","5229","24","Female","true","true","true","true","""event"",""trial"",""time""
""fullscreenenter"",""5"",""26560""
","
","
","""event"",""trial"",""time""
""fullscreenenter"",""5"",""26560""
","
","584","","48","","","3000","1","","","images/earth.jpg","images/rocket2","images/rocket1","null","images/rocket2","","1","real","null","2","","",""
"d3-animate-choice","247","1171806","0.0-76.0-1.37","3151","5229","24","Female","true","true","true","true","""event"",""trial"",""time""
""fullscreenenter"",""5"",""26560""
","
","
","""event"",""trial"",""time""
""fullscreenenter"",""5"",""26560""
","
","717","","48","","","3000","1","","","images/purpleplanet.jpg","images/alien4","images/alien3","images/rocket2","images/alien4","images/t.png","2","real","true","2","common","1","2022-12-13 02:02:41.027"
"two-step-fixation","248","1172816","0.0-76.0-2.37","3151","5229","24","Female","true","true","true","true","""event"",""trial"",""time""
""fullscreenenter"",""5"",""26560""
","
","
","""event"",""trial"",""time""
""fullscreenenter"",""5"",""26560""
","
","","images/earth.jpg","","","","","","","","","","","","","","fixation","","","","","",""
"d3-animate-choice","249","1175309","0.0-76.0-0.38","3151","5229","24","Female","true","true","true","true","""event"",""trial"",""time""
""fullscreenenter"",""5"",""26560""
","
","
","""event"",""trial"",""time""
""fullscreenenter"",""5"",""26560""
","
","487","","48","","","3000","1","","","images/earth.jpg","images/rocket2","images/rocket1","null","images/rocket2","","1","real","null","2","","",""
"d3-animate-choice","250","1178006","0.0-76.0-1.38","3151","5229","24","Female","true","true","true","true","""event"",""trial"",""time""
""fullscreenenter"",""5"",""26560""
","
","
","""event"",""trial"",""time""
""fullscreenenter"",""5"",""26560""
","
