"trial_type","trial_index","time_elapsed","internal_node_id","participant_id","subject_id","age","gender","rocket_sides","red_planet_first_rocket","red_display_order","purple_display_order","interactions","blur_events","focus_events","fullscreenenter_events","fullscreenexit_events","rt","stimulus","key_press","button_pressed","success","duration","valid_pressed","rts","keys","planet_text","right_text","left_text","center_text","chosen_text","reward_text","trial_stage","practice_trial","transition_type","choice","transition","reward","timestamp"
"pavlovia","0","4","0.0-0.0","1338","3567","12","Male","true","true","false","true","
","
","
","
","
","","","","","","","","","","","","","","","","","","","","","",""
"html-keyboard-response","1","3199","0.0-1.0","1338","3567","12","Male","true","true","false","true","
","
","
","
","
","3194.5","Welcome! Press the space bar to begin.","32","","","","","","","","","","","","","","","","","","",""
"audio-keyboard-response","2","7248","0.0-2.0","1338","3567","12","Male","true","true","false","true","
","
","
","
","
","4011","audio/beep_loop.wav","32","","","","","","","","","","","","","","","","","","",""
"audio-button-response","3","14943","0.0-3.0","1338","3567","12","Male","true","true","false","true","
","
","
","
","
","NaN","audio/fish.mp3","","1","","","","","","","","","","","","","","","","","",""
"audio-button-response","4","19983","0.0-4.0","1338","3567","12","Male","true","true","false","true","""event"",""trial"",""time""
""fullscreenenter"",""5"",""23740""
","
","
","""event"",""trial"",""time""
""fullscreenenter"",""5"",""23740""
","
","NaN","audio/tiger.mp3","","4","","","","","","","","","","","","","","","","","",""
"fullscreen","5","24731","0.0-5.0","1338","3567","12","Male","true","true","false","true","""event"",""trial"",""time""
""fullscreenenter"",""5"",""23740""
","
","
","""event"",""trial"",""time""
""fullscreenenter"",""5"",""23740""
","
","","","","","true","","","","","","","","","","","","","","","","",""
"d3-instructions","6","36039","0.0-6.0","1338","3567","12","Male","true","true","false","true","""event"",""trial"",""time""
""fullscreenenter"",""5"",""23740""
","
","
","""event"",""trial"",""time""
""fullscreenenter"",""5"",""23740""
","
","","","","","","","","","","","","","","","","","","","","","",""
"d3-instructions","7","44327","0.0-7.0","1338","3567","12","Male","true","true","false","true","""event"",""trial"",""time""
""fullscreenenter"",""5"",""23740""
","
","
","""event"",""trial"",""time""
""fullscreenenter"",""5"",""23740""
","
","","","","","","","","","","","","","","","","","","","","","",""
"d3-instructions","8","49055","0.0-8.0","1338","3567","12","Male","true","true","false","true","""event"",""trial"",""time""
""fullscreenenter"",""5"",""23740""
","
","
","""event"",""trial"",""time""
""fullscreenenter"",""5"",""23740""
","
","","","","","","","","","","","","","","","","","","","","","",""
"d3-instructions","9","50455","0.0-9.0","1338","3567","12","Male","true","true","false","true","""event"",""trial"",""time""
""fullscreenenter"",""5"",""23740""
","
","
","""event"",""trial"",""time""
""fullscreenenter"",""5"",""23740""
","
","","","","","","","","","","","","","","","","","","","","","",""
"d3-instructions","10","51239","0.0-10.0","1338","3567","12","Male","true","true","false","true","""event"",""trial"",""time""
""fullscreenenter"",""5"",""23740""
","
","
","""event"",""trial"",""time""
""fullscreenenter"",""5"",""23740""
","
","","","","","","","","","","","","","","","","","","","","","",""
"d3-animate-choice","11","59333","0.0-11.0","1338","3567","12","Male","true","true","false","true","""event"",""trial"",""time""
""fullscreenenter"",""5"",""23740""
","
","
","""event"",""trial"",""time""
""fullscreenenter"",""5"",""23740""
","
","6078.300000011921","","49","","","3000","1","","","images/tutgreenplanet.jpg","images/tutalien1","images/tutalien2","null","images/tutalien2","","NA","practice","null","","","",""
"d3-animate-choice","12","64257","0.0-12.0","1338","3567","12","Male","true","true","false","true","""event"",""trial"",""time""
""fullscreenenter"",""5"",""23740""
","
","
","""event"",""trial"",""time""
""fullscreenenter"",""5"",""23740""
","
","2904.699999988079","","48","","","3000","1","","","images/tutgreenplanet.jpg","images/tutalien1","images/tutalien2","null","images/tutalien1","","NA","practice","null","","","",""
"d3-animate-choice","13","68310","0.0-13.0","1338","3567","12","Male","true","true","false","true","""event"",""trial"",""time""
""fullscreenenter"",""5"",""23740""
","
","
","""event"",""trial"",""time""
""fullscreenenter"",""5"",""23740""
","
","2044.699999988079","","48","","","3000","1","2196.5,2260.599999964237,2444.599999964237,2476.599999964237,2676.899999976158,2684.399999976158,2860.599999964237,2900.899999976158,3068.899999976158,3108.699999988079,3276.5,3324.5,3476.899999976158,3516.599999964237,3684.899999976158,3748.5,3876.699999988079,3988.599999964237","49,48,49,48,48,49,48,49,48,49,48,49,48,49,48,49,48,49","images/tutgreenplanet.jpg","images/tutalien1","images/tutalien2","null","images/tutalien1","","NA","practice","null","","","",""
"d3-animate-choice","14","70350","0.0-14.0","1338","3567","12","Male","true","true","false","true","""event"",""trial"",""time""
""fullscreenenter"",""5"",""23740""
","
","
","""event"",""trial"",""time""
""fullscreenenter"",""5"",""23740""
","
","23.19999998807907","","48","","","3000","1","159.19999998807907,215.0999999642372,383.0999999642372,399,567.1999999880791,599.1999999880791,767.2999999523163,847.1999999880791,903.2999999523163,1103.2999999523163,1143.5,1327.2999999523163,1383,1559.199999988079,1607.199999988079,1831.0999999642372","49,48,49,48,48,49,48,49,48,49,48,48,49,48,49,49","images/tutgreenplanet.jpg","images/tutalien1","images/tutalien2","null","images/tutalien1","","NA","practice","null","","","",""
"d3-instructions","15","76503","0.0-15.0","1338","3567","12","Male","true","true","false","true","""event"",""trial"",""time""
""fullscreenenter"",""5"",""23740""
","
","
","""event"",""trial"",""time""
""fullscreenenter"",""5"",""23740""
","
","","","","","","","","","","","","","","","","","","","","","",""
"d3-instructions","16","79871","0.0-16.0","1338","3567","12","Male","true","true","false","true","""event"",""trial"",""time""
""fullscreenenter"",""5"",""23740""
","
","
","""event"",""trial"",""time""
""fullscreenenter"",""5"",""23740""
","
","","","","","","","","","","","","","","","","","","","","","",""
"d3-instructions","17","85287","0.0-17.0","1338","3567","12","Male","true","true","false","true","""event"",""trial"",""time""
""fullscreenenter"",""5"",""23740""
","
","
","""event"",""trial"",""time""
""fullscreenenter"",""5"",""23740""
","
","","","","","","","","","","","","","","","","","","","","","",""
"d3-instructions","18","87167","0.0-18.0","1338","3567","12","Male","true","true","false","true","""event"",""trial"",""time""
""fullscreenenter"",""5"",""23740""
","
","
","""event"",""trial"",""time""
""fullscreenenter"",""5"",""23740""
","
","","","","","","","","","","","","","","","","","","","","","",""
"d3-instructions","19","88095","0.0-19.0","1338","3567","12","Male","true","true","false","true","""event"",""trial"",""time""
""fullscreenenter"",""5"",""23740""
","
","
","""event"",""trial"",""time""
""fullscreenenter"",""5"",""23740""
","
","","","","","","","","","","","","","","","","","","","","","",""
"d3-animate-choice","20","91962","0.0-20.0","1338","3567","12","Male","true","true","false","true","""event"",""trial"",""time""
""fullscreenenter"",""5"",""23740""
","
","
","""event"",""trial"",""time""
""fullscreenenter"",""5"",""23740""
","
","1854.800000011921","","49","","","3000","1","","","images/tutyellowplanet.jpg","null","images/tutalien3","null","images/tutalien3","images/t.png","NA","practice","null","","","",""
"d3-animate-choice","21","94746","0.0-21.0","1338","3567","12","Male","true","true","false","true","""event"",""trial"",""time""
""fullscreenenter"",""5"",""23740""
","
","
","""event"",""trial"",""time""
""fullscreenenter"",""5"",""23740""
","
","763.9000000357628","","49","","","3000","1","2755.800000011921","49","images/tutyellowplanet.jpg","null","images/tutalien3","null","images/tutalien3","images/nothing.png","NA","practice","null","","","",""
"d3-animate-choice","22","97417","0.0-22.0","1338","3567","12","Male","true","true","false","true","""event"",""trial"",""time""
""fullscreenenter"",""5"",""23740""
","
","
","""event"",""trial"",""time""
""fullscreenenter"",""5"",""23740""
","
","659.8000000119209","","49","","","3000","1","2284","49","images/tutyellowplanet.jpg","null","images/tutalien3","null","images/tutalien3","images/t.png","NA","practice","null","","","",""
"d3-animate-choice","23","99701","0.0-23.0","1338","3567","12","Male","true","true","false","true","""event"",""trial"",""time""
""fullscreenenter"",""5"",""23740""
","
","
","""event"",""trial"",""time""
""fullscreenenter"",""5"",""23740""
","
","276.39999997615814","","49","","","3000","1","1836.199999988079","49","images/tutyellowplanet.jpg","null","images/tutalien3","null","images/tutalien3","images/t.png","NA","practice","null","","","",""
"d3-animate-choice","24","101935","0.0-24.0","1338","3567","12","Male","true","true","false","true","""event"",""trial"",""time""
""fullscreenenter"",""5"",""23740""
","
","
","""event"",""trial"",""time""
""fullscreenenter"",""5"",""23740""
","
","224","","49","","","3000","1","544.0999999642372,864.1999999880791,1127.8999999761581,1376.5,1648.0999999642372,1928,2232.099999964237","49,49,49,49,49,49,49","images/tutyellowplanet.jpg","null","images/tutalien3","null","images/tutalien3","images/t.png","NA","practice","null","","","",""
"d3-animate-choice","25","104154","0.0-25.0","1338","3567","12","Male","true","true","false","true","""event"",""trial"",""time""
""fullscreenenter"",""5"",""23740""
","
","
","""event"",""trial"",""time""
""fullscreenenter"",""5"",""23740""
","
","206.4000000357628","","49","","","3000","1","438.60000002384186,646.6000000238419,838.6999999880791,1038.5,1630.699999988079,1863.199999988079,2102.900000035763","49,49,49,49,49,49,49","images/tutyellowplanet.jpg","null","images/tutalien3","null","images/tutalien3","images/t.png","NA","practice","null","","","",""
"d3-animate-choice","26","106784","0.0-26.0","1338","3567","12","Male","true","true","false","true","""event"",""trial"",""time""
""fullscreenenter"",""5"",""23740""
","
","
","""event"",""trial"",""time""
""fullscreenenter"",""5"",""23740""
","
","627.8000000119209","","49","","","3000","1","","","images/tutyellowplanet.jpg","null","images/tutalien3","null","images/tutalien3","images/nothing.png","NA","practice","null","","","",""
"d3-animate-choice","27","109818","0.0-27.0","1338","3567","12","Male","true","true","false","true","""event"",""trial"",""time""
""fullscreenenter"",""5"",""23740""
","
","
","""event"",""trial"",""time""
""fullscreenenter"",""5"",""23740""
","
","1014.1999999880791","","49","","","3000","1","2294.099999964237,2614.099999964237,2893.899999976158","49,49,49","images/tutyellowplanet.jpg","null","images/tutalien3","null","images/tutalien3","images/t.png","NA","practice","null","","","",""
"d3-animate-choice","28","111893","0.0-28.0","1338","3567","12","Male","true","true","false","true","""event"",""trial"",""time""
""fullscreenenter"",""5"",""23740""
","
","
","""event"",""trial"",""time""
""fullscreenenter"",""5"",""23740""
","
","67.70000004768372","","49","","","3000","1","283.30000001192093,515.4000000357628,739.7000000476837,963.5,1187.4000000357628,1403.4000000357628,1635.300000011921,1859.4000000357628","49,49,49,49,49,49,49,49","images/tutyellowplanet.jpg","null","images/tutalien3","null","images/tutalien3","images/t.png","NA","practice","null","","","",""
"d3-animate-choice","29","113905","0.0-29.0","1338","3567","12","Male","true","true","false","true","""event"",""trial"",""time""
""fullscreenenter"",""5"",""23740""
","
","
","""event"",""trial"",""time""
""fullscreenenter"",""5"",""23740""
","
","0.19999998807907104","","49","","","3000","1","216.39999997615814,440.19999998807907,712.5999999642372,936.2999999523163,1200.199999988079,1440.3999999761581,1680.2999999523163,1928.2999999523163","49,49,49,49,49,49,49,49","images/tutyellowplanet.jpg","null","images/tutalien3","null","images/tutalien3","images/t.png","NA","practice","null","","","",""
"d3-instructions","30","120863","0.0-30.0","1338","3567","12","Male","true","true","false","true","""event"",""trial"",""time""
""fullscreenenter"",""5"",""23740""
","
","
","""event"",""trial"",""time""
""fullscreenenter"",""5"",""23740""
","
","","","","","","","","","","","","","","","","","","","","","",""
"d3-instructions","31","122135","0.0-31.0","1338","3567","12","Male","true","true","false","true","""event"",""trial"",""time""
""fullscreenenter"",""5"",""23740""
","
","
","""event"",""trial"",""time""
""fullscreenenter"",""5"",""23740""
","
","","","","","","","","","","","","","","","","","","","","","",""
"d3-instructions","32","123007","0.0-32.0","1338","3567","12","Male","true","true","false","true","""event"",""trial"",""time""
""fullscreenenter"",""5"",""23740""
","
","
","""event"",""trial"",""time""
""fullscreenenter"",""5"",""23740""
","
","","","","","","","","","","","","","","","","","","","","","",""
"d3-instructions","33","123743","0.0-33.0","1338","3567","12","Male","true","true","false","true","""event"",""trial"",""time""
""fullscreenenter"",""5"",""23740""
","
","
","""event"",""trial"",""time""
""fullscreenenter"",""5"",""23740""
","
","","","","","","","","","","","","","","","","","","","","","",""
"d3-animate-choice","34","127607","0.0-34.0","1338","3567","12","Male","true","true","false","true","""event"",""trial"",""time""
""fullscreenenter"",""5"",""23740""
","
","
","""event"",""trial"",""time""
""fullscreenenter"",""5"",""23740""
","
","1854.3999999761581","","49","","","3000","1","2086.5,2214.600000023842,2318.300000011921,2502.199999988079,2518.199999988079,2718.5,2750.199999988079,2918.300000011921,2998.199999988079,3158.399999976158,3262.600000023842,3366.5,3486.399999976158,3582.600000023842,3718.199999988079,3822.300000011921","48,49,48,49,48,48,49,48,49,48,49,48,49,48,49,48","images/tutgreenplanet.jpg","images/tutalien1","images/tutalien2","null","images/tutalien2","images/t.png","NA","practice","null","","","",""
"d3-animate-choice","35","129725","0.0-35.0","1338","3567","12","Male","true","true","false","true","""event"",""trial"",""time""
""fullscreenenter"",""5"",""23740""
","
","
","""event"",""trial"",""time""
""fullscreenenter"",""5"",""23740""
","
","102.80000001192093","","49","","","3000","1","167.0999999642372,342.80000001192093,382.39999997615814,558.5,590.8000000119209,774.5,790.6999999880791,974.5999999642372,998.8999999761581,1198.5,1270.3999999761581,1407.199999988079,1518.5,1606.8999999761581,1742.699999988079,1822.3999999761581,1982.699999988079,2054.599999964237","48,49,48,49,48,49,48,48,49,48,49,48,49,48,49,48,49,48","images/tutgreenplanet.jpg","images/tutalien1","images/tutalien2","null","images/tutalien2","images/nothing.png","NA","practice","null","","","",""
"d3-animate-choice","36","132871","0.0-36.0","1338","3567","12","Male","true","true","false","true","""event"",""trial"",""time""
""fullscreenenter"",""5"",""23740""
","
","
","""event"",""trial"",""time""
""fullscreenenter"",""5"",""23740""
","
","1136.699999988079","","49","","","3000","1","","","images/tutgreenplanet.jpg","images/tutalien1","images/tutalien2","null","images/tutalien2","images/t.png","NA","practice","null","","","",""
"d3-animate-choice","37","136005","0.0-37.0","1338","3567","12","Male","true","true","false","true","""event"",""trial"",""time""
""fullscreenenter"",""5"",""23740""
","
","
","""event"",""trial"",""time""
""fullscreenenter"",""5"",""23740""
","
","1126.7999999523163","","49","","","3000","1","","","images/tutgreenplanet.jpg","images/tutalien1","images/tutalien2","null","images/tutalien2","images/t.png","NA","practice","null","","","",""
"d3-animate-choice","38","145620","0.0-38.0","1338","3567","12","Male","true","true","false","true","""event"",""trial"",""time""
""fullscreenenter"",""5"",""23740""
","
","
","""event"",""trial"",""time""
""fullscreenenter"",""5"",""23740""
","
","7601.299999952316","","49","","","3000","1","","","images/tutgreenplanet.jpg","images/tutalien1","images/tutalien2","null","images/tutalien2","images/t.png","NA","practice","null","","","",""
"d3-animate-choice","39","150141","0.0-39.0","1338","3567","12","Male","true","true","false","true","""event"",""trial"",""time""
""fullscreenenter"",""5"",""23740""
","
","
","""event"",""trial"",""time""
""fullscreenenter"",""5"",""23740""
","
","2514.600000023842","","48","","","3000","1","4042.600000023842","49","images/tutgreenplanet.jpg","images/tutalien1","images/tutalien2","null","images/tutalien1","images/nothing.png","NA","practice","null","","","",""
"d3-animate-choice","40","152673","0.0-40.0","1338","3567","12","Male","true","true","false","true","""event"",""trial"",""time""
""fullscreenenter"",""5"",""23740""
","
","
","""event"",""trial"",""time""
""fullscreenenter"",""5"",""23740""
","
","512.5","","48","","","3000","1","1184.5,1720.5,2432.800000011921","49,49,49","images/tutgreenplanet.jpg","images/tutalien1","images/tutalien2","null","images/tutalien1","images/nothing.png","NA","practice","null","","","",""
"d3-animate-choice","41","155205","0.0-41.0","1338","3567","12","Male","true","true","false","true","""event"",""trial"",""time""
""fullscreenenter"",""5"",""23740""
","
","
","""event"",""trial"",""time""
""fullscreenenter"",""5"",""23740""
","
","525.2000000476837","","49","","","3000","1","2453.100000023842","49","images/tutgreenplanet.jpg","images/tutalien1","images/tutalien2","null","images/tutalien2","images/t.png","NA","practice","null","","","",""
"d3-animate-choice","42","158021","0.0-42.0","1338","3567","12","Male","true","true","false","true","""event"",""trial"",""time""
""fullscreenenter"",""5"",""23740""
","
","
","""event"",""trial"",""time""
""fullscreenenter"",""5"",""23740""
","
","808.8000000119209","","49","","","3000","1","","","images/tutgreenplanet.jpg","images/tutalien1","images/tutalien2","null","images/tutalien2","images/t.png","NA","practice","null","","","",""
"d3-animate-choice","43","160739","0.0-43.0","1338","3567","12","Male","true","true","false","true","""event"",""trial"",""time""
""fullscreenenter"",""5"",""23740""
","
","
","""event"",""trial"",""time""
""fullscreenenter"",""5"",""23740""
","
","713.1999999880791","","49","","","3000","1","2625.199999988079","49","images/tutgreenplanet.jpg","images/tutalien1","images/tutalien2","null","images/tutalien2","images/t.png","NA","practice","null","","","",""
"d3-instructions","44","163383","0.0-44.0","1338","3567","12","Male","true","true","false","true","""event"",""trial"",""time""
""fullscreenenter"",""5"",""23740""
","
","
","""event"",""trial"",""time""
""fullscreenenter"",""5"",""23740""
","
","","","","","","","","","","","","","","","","","","","","","",""
"d3-instructions","45","165416","0.0-45.0","1338","3567","12","Male","true","true","false","true","""event"",""trial"",""time""
""fullscreenenter"",""5"",""23740""
","
","
","""event"",""trial"",""time""
""fullscreenenter"",""5"",""23740""
","
","","","","","","","","","","","","","","","","","","","","","",""
"d3-instructions","46","166479","0.0-46.0","1338","3567","12","Male","true","true","false","true","""event"",""trial"",""time""
""fullscreenenter"",""5"",""23740""
","
","
","""event"",""trial"",""time""
""fullscreenenter"",""5"",""23740""
","
","","","","","","","","","","","","","","","","","","","","","",""
"d3-instructions","47","167551","0.0-47.0","1338","3567","12","Male","true","true","false","true","""event"",""trial"",""time""
""fullscreenenter"",""5"",""23740""
","
","
","""event"",""trial"",""time""
""fullscreenenter"",""5"",""23740""
","
","","","","","","","","","","","","","","","","","","","","","",""
"d3-instructions","48","168847","0.0-48.0","1338","3567","12","Male","true","true","false","true","""event"",""trial"",""time""
""fullscreenenter"",""5"",""23740""
","
","
","""event"",""trial"",""time""
""fullscreenenter"",""5"",""23740""
","
","","","","","","","","","","","","","","","","","","","","","",""
"d3-instructions","49","170095","0.0-49.0","1338","3567","12","Male","true","true","false","true","""event"",""trial"",""time""
""fullscreenenter"",""5"",""23740""
","
","
","""event"",""trial"",""time""
""fullscreenenter"",""5"",""23740""
","
","","","","","","","","","","","","","","","","","","","","","",""
"d3-instructions","50","171327","0.0-50.0","1338","3567","12","Male","true","true","false","true","""event"",""trial"",""time""
""fullscreenenter"",""5"",""23740""
","
","
","""event"",""trial"",""time""
""fullscreenenter"",""5"",""23740""
","
","","","","","","","","","","","","","","","","","","","","","",""
"d3-instructions","51","172471","0.0-51.0","1338","3567","12","Male","true","true","false","true","""event"",""trial"",""time""
""fullscreenenter"",""5"",""23740""
","
","
","""event"",""trial"",""time""
""fullscreenenter"",""5"",""23740""
","
","","","","","","","","","","","","","","","","","","","","","",""
"d3-instructions","52","173559","0.0-52.0","1338","3567","12","Male","true","true","false","true","""event"",""trial"",""time""
""fullscreenenter"",""5"",""23740""
","
","
","""event"",""trial"",""time""
""fullscreenenter"",""5"",""23740""
","
","","","","","","","","","","","","","","","","","","","","","",""
"d3-instructions","53","174751","0.0-53.0","1338","3567","12","Male","true","true","false","true","""event"",""trial"",""time""
""fullscreenenter"",""5"",""23740""
","
","
","""event"",""trial"",""time""
""fullscreenenter"",""5"",""23740""
","
","","","","","","","","","","","","","","","","","","","","","",""
"d3-instructions","54","175504","0.0-54.0","1338","3567","12","Male","true","true","false","true","""event"",""trial"",""time""
""fullscreenenter"",""5"",""23740""
","
","
","""event"",""trial"",""time""
""fullscreenenter"",""5"",""23740""
","
","","","","","","","","","","","","","","","","","","","","","",""
"d3-instructions","55","176127","0.0-55.0","1338","3567","12","Male","true","true","false","true","""event"",""trial"",""time""
""fullscreenenter"",""5"",""23740""
","
","
","""event"",""trial"",""time""
""fullscreenenter"",""5"",""23740""
","
","","","","","","","","","","","","","","","","","","","","","",""
"d3-instructions","56","176535","0.0-56.0","1338","3567","12","Male","true","true","false","true","""event"",""trial"",""time""
""fullscreenenter"",""5"",""23740""
","
","
","""event"",""trial"",""time""
""fullscreenenter"",""5"",""23740""
","
","","","","","","","","","","","","","","","","","","","","","",""
"d3-instructions","57","176903","0.0-57.0","1338","3567","12","Male","true","true","false","true","""event"",""trial"",""time""
""fullscreenenter"",""5"",""23740""
","
","
","""event"",""trial"",""time""
""fullscreenenter"",""5"",""23740""
","
","","","","","","","","","","","","","","","","","","","","","",""
"d3-instructions","58","178815","0.0-58.0","1338","3567","12","Male","true","true","false","true","""event"",""trial"",""time""
""fullscreenenter"",""5"",""23740""
","
","
","""event"",""trial"",""time""
""fullscreenenter"",""5"",""23740""
","
","","","","","","","","","","","","","","","","","","","","","",""
"d3-instructions","59","180279","0.0-59.0","1338","3567","12","Male","true","true","false","true","""event"",""trial"",""time""
""fullscreenenter"",""5"",""23740""
","
","
","""event"",""trial"",""time""
""fullscreenenter"",""5"",""23740""
","
","","","","","","","","","","","","","","","","","","","","","",""
"d3-instructions","60","184055","0.0-60.0","1338","3567","12","Male","true","true","false","true","""event"",""trial"",""time""
""fullscreenenter"",""5"",""23740""
","
","
","""event"",""trial"",""time""
""fullscreenenter"",""5"",""23740""
","
","","","","","","","","","","","","","","","","","","","","","",""
"d3-animate-choice","61","187805","0.0-61.0-0.0","1338","3567","12","Male","true","true","false","true","""event"",""trial"",""time""
""fullscreenenter"",""5"",""23740""
","
","
","""event"",""trial"",""time""
""fullscreenenter"",""5"",""23740""
","
","1742.199999988079","","49","","","3000","1","","","images/earth.jpg","images/tutrocket2","images/tutrocket1","null","images/tutrocket1","","1","practice","null","1","","",""
"d3-animate-choice","62","190884","0.0-61.0-1.0","1338","3567","12","Male","true","true","false","true","""event"",""trial"",""time""
""fullscreenenter"",""5"",""23740""
","
","
","""event"",""trial"",""time""
""fullscreenenter"",""5"",""23740""
","
","1071.3999999761581","","49","","","3000","1","","","images/tutgreenplanet.jpg","images/tutalien2","images/tutalien1","images/tutrocket1","images/tutalien1","images/nothing.png","2","practice","true","1","common","0","2022-11-03 02:08:34.408"
"two-step-fixation","63","191893","0.0-61.0-2.0","1338","3567","12","Male","true","true","false","true","""event"",""trial"",""time""
""fullscreenenter"",""5"",""23740""
","
","
","""event"",""trial"",""time""
""fullscreenenter"",""5"",""23740""
","
","","images/earth.jpg","","","","","","","","","","","","","","fixation","","","","","",""
"d3-animate-choice","64","194622","0.0-61.0-0.1","1338","3567","12","Male","true","true","false","true","""event"",""trial"",""time""
""fullscreenenter"",""5"",""23740""
","
","
","""event"",""trial"",""time""
""fullscreenenter"",""5"",""23740""
","
","720.8999999761581","","49","","","3000","1","","","images/earth.jpg","images/tutrocket2","images/tutrocket1","null","images/tutrocket1","","1","practice","null","1","","",""
"d3-animate-choice","65","197148","0.0-61.0-1.1","1338","3567","12","Male","true","true","false","true","""event"",""trial"",""time""
""fullscreenenter"",""5"",""23740""
","
","
","""event"",""trial"",""time""
""fullscreenenter"",""5"",""23740""
","
","519.6000000238419","","49","","","3000","1","","","images/tutgreenplanet.jpg","images/tutalien2","images/tutalien1","images/tutrocket1","images/tutalien1","images/nothing.png","2","practice","true","1","common","0","2022-11-03 02:08:40.671"
"two-step-fixation","66","198157","0.0-61.0-2.1","1338","3567","12","Male","true","true","false","true","""event"",""trial"",""time""
""fullscreenenter"",""5"",""23740""
","
","
","""event"",""trial"",""time""
""fullscreenenter"",""5"",""23740""
","
","","images/earth.jpg","","","","","","","","","","","","","","fixation","","","","","",""
"d3-animate-choice","67","200712","0.0-61.0-0.2","1338","3567","12","Male","true","true","false","true","""event"",""trial"",""time""
""fullscreenenter"",""5"",""23740""
","
","
","""event"",""trial"",""time""
""fullscreenenter"",""5"",""23740""
","
","552.3999999761581","","49","","","3000","1","","","images/earth.jpg","images/tutrocket2","images/tutrocket1","null","images/tutrocket1","","1","practice","null","1","","",""
"d3-animate-choice","68","203406","0.0-61.0-1.2","1338","3567","12","Male","true","true","false","true","""event"",""trial"",""time""
""fullscreenenter"",""5"",""23740""
","
","
","""event"",""trial"",""time""
""fullscreenenter"",""5"",""23740""
","
","685.1999999880791","","48","","","3000","1","","","images/tutgreenplanet.jpg","images/tutalien2","images/tutalien1","images/tutrocket1","images/tutalien2","images/nothing.png","2","practice","true","2","common","0","2022-11-03 02:08:46.929"
"two-step-fixation","69","204414","0.0-61.0-2.2","1338","3567","12","Male","true","true","false","true","""event"",""trial"",""time""
""fullscreenenter"",""5"",""23740""
","
","
","""event"",""trial"",""time""
""fullscreenenter"",""5"",""23740""
","
","","images/earth.jpg","","","","","","","","","","","","","","fixation","","","","","",""
"d3-animate-choice","70","207069","0.0-61.0-0.3","1338","3567","12","Male","true","true","false","true","""event"",""trial"",""time""
""fullscreenenter"",""5"",""23740""
","
","
","""event"",""trial"",""time""
""fullscreenenter"",""5"",""23740""
","
","647.1000000238419","","49","","","3000","1","703.3999999761581","18","images/earth.jpg","images/tutrocket2","images/tutrocket1","null","images/tutrocket1","","1","practice","null","1","","",""
"d3-animate-choice","71","209285","0.0-61.0-1.3","1338","3567","12","Male","true","true","false","true","""event"",""trial"",""time""
""fullscreenenter"",""5"",""23740""
","
","
","""event"",""trial"",""time""
""fullscreenenter"",""5"",""23740""
","
","208.30000001192093","","48","","","3000","1","","","images/tutgreenplanet.jpg","images/tutalien2","images/tutalien1","images/tutrocket1","images/tutalien2","images/nothing.png","2","practice","true","2","common","0","2022-11-03 02:08:52.808"
"two-step-fixation","72","210292","0.0-61.0-2.3","1338","3567","12","Male","true","true","false","true","""event"",""trial"",""time""
""fullscreenenter"",""5"",""23740""
","
","
","""event"",""trial"",""time""
""fullscreenenter"",""5"",""23740""
","
","","images/earth.jpg","","","","","","","","","","","","","","fixation","","","","","",""
"d3-animate-choice","73","212638","0.0-61.0-0.4","1338","3567","12","Male","true","true","false","true","""event"",""trial"",""time""
""fullscreenenter"",""5"",""23740""
","
","
","""event"",""trial"",""time""
""fullscreenenter"",""5"",""23740""
","
","337","","48","","","3000","1","","","images/earth.jpg","images/tutrocket2","images/tutrocket1","null","images/tutrocket2","","1","practice","null","2","","",""
"d3-animate-choice","74","215237","0.0-61.0-1.4","1338","3567","12","Male","true","true","false","true","""event"",""trial"",""time""
""fullscreenenter"",""5"",""23740""
","
","
","""event"",""trial"",""time""
""fullscreenenter"",""5"",""23740""
","
","591.5999999642372","","48","","","3000","1","","","images/tutyellowplanet.jpg","images/tutalien4","images/tutalien3","images/tutrocket2","images/tutalien4","images/nothing.png","2","practice","true","2","common","0","2022-11-03 02:08:58.760"
"two-step-fixation","75","216245","0.0-61.0-2.4","1338","3567","12","Male","true","true","false","true","""event"",""trial"",""time""
""fullscreenenter"",""5"",""23740""
","
","
","""event"",""trial"",""time""
""fullscreenenter"",""5"",""23740""
","
","","images/earth.jpg","","","","","","","","","","","","","","fixation","","","","","",""
"d3-animate-choice","76","218725","0.0-61.0-0.5","1338","3567","12","Male","true","true","false","true","""event"",""trial"",""time""
""fullscreenenter"",""5"",""23740""
","
","
","""event"",""trial"",""time""
""fullscreenenter"",""5"",""23740""
","
","472.30000001192093","","48","","","3000","1","552.4000000357628","49","images/earth.jpg","images/tutrocket2","images/tutrocket1","null","images/tutrocket2","","1","practice","null","2","","",""
"d3-animate-choice","77","221097","0.0-61.0-1.5","1338","3567","12","Male","true","true","false","true","""event"",""trial"",""time""
""fullscreenenter"",""5"",""23740""
","
","
","""event"",""trial"",""time""
""fullscreenenter"",""5"",""23740""
","
","368.5","","48","","","3000","1","432.5","49","images/tutgreenplanet.jpg","images/tutalien2","images/tutalien1","images/tutrocket2","images/tutalien2","images/t.png","2","practice","false","2","rare","1","2022-11-03 02:09:04.620"
"two-step-fixation","78","222101","0.0-61.0-2.5","1338","3567","12","Male","true","true","false","true","""event"",""trial"",""time""
""fullscreenenter"",""5"",""23740""
","
","
","""event"",""trial"",""time""
""fullscreenenter"",""5"",""23740""
","
","","images/earth.jpg","","","","","","","","","","","","","","fixation","","","","","",""
"d3-animate-choice","79","225341","0.0-61.0-0.6","1338","3567","12","Male","true","true","false","true","""event"",""trial"",""time""
""fullscreenenter"",""5"",""23740""
","
","
","""event"",""trial"",""time""
""fullscreenenter"",""5"",""23740""
","
","1232.6000000238419","","48","","","3000","1","1264.699999988079,2768.600000023842,2824.5","49,49,48","images/earth.jpg","images/tutrocket2","images/tutrocket1","null","images/tutrocket2","","1","practice","null","2","","",""
"d3-animate-choice","80","227860","0.0-61.0-1.6","1338","3567","12","Male","true","true","false","true","""event"",""trial"",""time""
""fullscreenenter"",""5"",""23740""
","
","
","""event"",""trial"",""time""
""fullscreenenter"",""5"",""23740""
","
","511.7999999523163","","49","","","3000","1","1304.0999999642372,1351.8999999761581","48,49","images/tutyellowplanet.jpg","images/tutalien4","images/tutalien3","images/tutrocket2","images/tutalien3","images/nothing.png","2","practice","true","1","common","0","2022-11-03 02:09:11.383"
"two-step-fixation","81","228868","0.0-61.0-2.6","1338","3567","12","Male","true","true","false","true","""event"",""trial"",""time""
""fullscreenenter"",""5"",""23740""
","
","
","""event"",""trial"",""time""
""fullscreenenter"",""5"",""23740""
","
","","images/earth.jpg","","","","","","","","","","","","","","fixation","","","","","",""
"d3-animate-choice","82","231197","0.0-61.0-0.7","1338","3567","12","Male","true","true","false","true","""event"",""trial"",""time""
""fullscreenenter"",""5"",""23740""
","
","
","""event"",""trial"",""time""
""fullscreenenter"",""5"",""23740""
","
","321.5","","49","","","3000","1","361.2000000476837,1641.300000011921,1817.2000000476837","48,49,48","images/earth.jpg","images/tutrocket2","images/tutrocket1","null","images/tutrocket1","","1","practice","null","1","","",""
"d3-animate-choice","83","233804","0.0-61.0-1.7","1338","3567","12","Male","true","true","false","true","""event"",""trial"",""time""
""fullscreenenter"",""5"",""23740""
","
","
","""event"",""trial"",""time""
""fullscreenenter"",""5"",""23740""
","
","600","","49","","","3000","1","632.3999999761581,1792.300000011921,1824.0999999642372","48,49,48","images/tutgreenplanet.jpg","images/tutalien2","images/tutalien1","images/tutrocket1","images/tutalien1","images/nothing.png","2","practice","true","1","common","0","2022-11-03 02:09:17.327"
"two-step-fixation","84","234813","0.0-61.0-2.7","1338","3567","12","Male","true","true","false","true","""event"",""trial"",""time""
""fullscreenenter"",""5"",""23740""
","
","
","""event"",""trial"",""time""
""fullscreenenter"",""5"",""23740""
","
","","images/earth.jpg","","","","","","","","","","","","","","fixation","","","","","",""
"d3-animate-choice","85","237372","0.0-61.0-0.8","1338","3567","12","Male","true","true","false","true","""event"",""trial"",""time""
""fullscreenenter"",""5"",""23740""
","
","
","""event"",""trial"",""time""
""fullscreenenter"",""5"",""23740""
","
","552.2000000476837","","48","","","3000","1","","","images/earth.jpg","images/tutrocket2","images/tutrocket1","null","images/tutrocket2","","1","practice","null","2","","",""
"d3-animate-choice","86","240565","0.0-61.0-1.8","1338","3567","12","Male","true","true","false","true","""event"",""trial"",""time""
""fullscreenenter"",""5"",""23740""
","
","
","""event"",""trial"",""time""
""fullscreenenter"",""5"",""23740""
","
","1185","","49","","","3000","1","2456.600000023842","35","images/tutyellowplanet.jpg","images/tutalien4","images/tutalien3","images/tutrocket2","images/tutalien3","images/t.png","2","practice","true","1","common","1","2022-11-03 02:09:24.089"
"two-step-fixation","87","241573","0.0-61.0-2.8","1338","3567","12","Male","true","true","false","true","""event"",""trial"",""time""
""fullscreenenter"",""5"",""23740""
","
","
","""event"",""trial"",""time""
""fullscreenenter"",""5"",""23740""
","
","","images/earth.jpg","","","","","","","","","","","","","","fixation","","","","","",""
"d3-animate-choice","88","245446","0.0-61.0-0.9","1338","3567","12","Male","true","true","false","true","""event"",""trial"",""time""
""fullscreenenter"",""5"",""23740""
","
","
","""event"",""trial"",""time""
""fullscreenenter"",""5"",""23740""
","
","0","","35","","","3000","1","567.2999999523163,1151.5,1695.3999999761581,1863.5,2831.5,2991.199999988079,3823.5","35,35,35,49,49,50,50","images/earth.jpg","images/tutrocket2","images/tutrocket1","null","images/tutrocket1","","1","practice","null","","","",""
"d3-animate-choice","89","249076","0.0-61.0-1.9","1338","3567","12","Male","true","true","false","true","""event"",""trial"",""time""
""fullscreenenter"",""5"",""23740""
","
","
","""event"",""trial"",""time""
""fullscreenenter"",""5"",""23740""
","
","559.3999999761581","","50","","","3000","1","1623.2999999523163,1823.699999988079,3087.5,3327.399999976158","49,50,49,50","images/tutyellowplanet.jpg","images/tutalien4","images/tutalien3","images/tutrocket1","images/tutalien3","images/t.png","2","practice","false","","rare","1","2022-11-03 02:09:32.599"
"two-step-fixation","90","250082","0.0-61.0-2.9","1338","3567","12","Male","true","true","false","true","""event"",""trial"",""time""
""fullscreenenter"",""5"",""23740""
","
","
","""event"",""trial"",""time""
""fullscreenenter"",""5"",""23740""
","
","","images/earth.jpg","","","","","","","","","","","","","","fixation","","","","","",""
"d3-animate-choice","91","254092","0.0-61.0-0.10","1338","3567","12","Male","true","true","false","true","""event"",""trial"",""time""
""fullscreenenter"",""5"",""23740""
","
","
","""event"",""trial"",""time""
""fullscreenenter"",""5"",""23740""
","
","2099.199999988079","","49","","","3000","1","2139.100000023842,3707.100000023842,3763.199999988079","48,49,48","images/earth.jpg","images/tutrocket2","images/tutrocket1","null","images/tutrocket1","","1","practice","null","1","","",""
"d3-animate-choice","92","257116","0.0-61.0-1.10","1338","3567","12","Male","true","true","false","true","""event"",""trial"",""time""
""fullscreenenter"",""5"",""23740""
","
","
","""event"",""trial"",""time""
""fullscreenenter"",""5"",""23740""
","
","1017","","49","","","3000","1","1032.7999999523163,2353.199999988079,2360.899999976158","48,49,48","images/tutgreenplanet.jpg","images/tutalien2","images/tutalien1","images/tutrocket1","images/tutalien1","images/nothing.png","2","practice","true","1","common","0","2022-11-03 02:09:40.639"
"two-step-fixation","93","258124","0.0-61.0-2.10","1338","3567","12","Male","true","true","false","true","""event"",""trial"",""time""
""fullscreenenter"",""5"",""23740""
","
","
","""event"",""trial"",""time""
""fullscreenenter"",""5"",""23740""
","
","","images/earth.jpg","","","","","","","","","","","","","","fixation","","","","","",""
"d3-animate-choice","94","261356","0.0-61.0-0.11","1338","3567","12","Male","true","true","false","true","""event"",""trial"",""time""
""fullscreenenter"",""5"",""23740""
","
","
","""event"",""trial"",""time""
""fullscreenenter"",""5"",""23740""
","
","1225","","49","","","3000","1","2161,2633.100000023842","48,49","images/earth.jpg","images/tutrocket2","images/tutrocket1","null","images/tutrocket1","","1","practice","null","1","","",""
"d3-animate-choice","95","263438","0.0-61.0-1.11","1338","3567","12","Male","true","true","false","true","""event"",""trial"",""time""
""fullscreenenter"",""5"",""23740""
","
","
","""event"",""trial"",""time""
""fullscreenenter"",""5"",""23740""
","
","73.30000001192093","","48","","","3000","1","401.10000002384186,753.1999999880791,1169.1000000238419,1545.1000000238419,1801.1000000238419","48,49,48,49,48","images/tutyellowplanet.jpg","images/tutalien4","images/tutalien3","images/tutrocket1","images/tutalien4","images/t.png","2","practice","false","2","rare","1","2022-11-03 02:09:46.961"
"two-step-fixation","96","264445","0.0-61.0-2.11","1338","3567","12","Male","true","true","false","true","""event"",""trial"",""time""
""fullscreenenter"",""5"",""23740""
","
","
","""event"",""trial"",""time""
""fullscreenenter"",""5"",""23740""
","
","","images/earth.jpg","","","","","","","","","","","","","","fixation","","","","","",""
"d3-animate-choice","97","266621","0.0-61.0-0.12","1338","3567","12","Male","true","true","false","true","""event"",""trial"",""time""
""fullscreenenter"",""5"",""23740""
","
","
","""event"",""trial"",""time""
""fullscreenenter"",""5"",""23740""
","
","168.5","","49","","","3000","1","544.6999999880791,1024.7999999523163,1392.5,1560.5,1896.5999999642372,2096.7999999523163","48,49,48,49,48,49","images/earth.jpg","images/tutrocket2","images/tutrocket1","null","images/tutrocket1","","1","practice","null","1","","",""
"d3-animate-choice","98","268957","0.0-61.0-1.12","1338","3567","12","Male","true","true","false","true","""event"",""trial"",""time""
""fullscreenenter"",""5"",""23740""
","
","
","""event"",""trial"",""time""
""fullscreenenter"",""5"",""23740""
","
","327.9000000357628","","48","","","3000","1","487.80000001192093,912.4000000357628,1112.1000000238419,1496.4000000357628,1735.9000000357628,2111.600000023842","49,48,49,48,49,48","images/tutgreenplanet.jpg","images/tutalien2","images/tutalien1","images/tutrocket1","images/tutalien2","images/nothing.png","2","practice","true","2","common","0","2022-11-03 02:09:52.480"
"two-step-fixation","99","269965","0.0-61.0-2.12","1338","3567","12","Male","true","true","false","true","""event"",""trial"",""time""
""fullscreenenter"",""5"",""23740""
","
","
","""event"",""trial"",""time""
""fullscreenenter"",""5"",""23740""
","
","","images/earth.jpg","","","","","","","","","","","","","","fixation","","","","","",""
"d3-animate-choice","100","272005","0.0-61.0-0.13","1338","3567","12","Male","true","true","false","true","""event"",""trial"",""time""
""fullscreenenter"",""5"",""23740""
","
","
","""event"",""trial"",""time""
""fullscreenenter"",""5"",""23740""
","
","32.700000047683716","","48","","","3000","1","328.60000002384186,664.6000000238419,912.8000000119209,1241.1000000238419,1488.6000000238419,1896.800000011921,2032.800000011921","49,48,49,48,49,48,49","images/earth.jpg","images/tutrocket2","images/tutrocket1","null","images/tutrocket2","","1","practice","null","2","","",""
"d3-animate-choice","101","274492","0.0-61.0-1.13","1338","3567","12","Male","true","true","false","true","""event"",""trial"",""time""
""fullscreenenter"",""5"",""23740""
","
","
","""event"",""trial"",""time""
""fullscreenenter"",""5"",""23740""
","
","481","","48","","","3000","1","888.6999999880791,1136.8999999761581,1417,1720.5999999642372,2024.800000011921,2288.699999988079","49,48,49,48,49,48","images/tutgreenplanet.jpg","images/tutalien2","images/tutalien1","images/tutrocket2","images/tutalien2","images/nothing.png","2","practice","false","2","rare","0","2022-11-03 02:09:58.016"
"two-step-fixation","102","275501","0.0-61.0-2.13","1338","3567","12","Male","true","true","false","true","""event"",""trial"",""time""
""fullscreenenter"",""5"",""23740""
","
","
","""event"",""trial"",""time""
""fullscreenenter"",""5"",""23740""
","
","","images/earth.jpg","","","","","","","","","","","","","","fixation","","","","","",""
"d3-animate-choice","103","277517","0.0-61.0-0.14","1338","3567","12","Male","true","true","false","true","""event"",""trial"",""time""
""fullscreenenter"",""5"",""23740""
","
","
","""event"",""trial"",""time""
""fullscreenenter"",""5"",""23740""
","
","8.5","","48","","","3000","1","312.5,568.6999999880791,880.4000000357628,1176.6000000238419,1760.4000000357628","49,48,49,48,49","images/earth.jpg","images/tutrocket2","images/tutrocket1","null","images/tutrocket2","","1","practice","null","2","","",""
"d3-animate-choice","104","279669","0.0-61.0-1.14","1338","3567","12","Male","true","true","false","true","""event"",""trial"",""time""
""fullscreenenter"",""5"",""23740""
","
","
","""event"",""trial"",""time""
""fullscreenenter"",""5"",""23740""
","
","145.0999999642372","","48","","","3000","1","856.8000000119209,864.5999999642372","48,49","images/tutyellowplanet.jpg","images/tutalien4","images/tutalien3","images/tutrocket2","images/tutalien4","images/nothing.png","2","practice","true","2","common","0","2022-11-03 02:10:03.192"
"two-step-fixation","105","280678","0.0-61.0-2.14","1338","3567","12","Male","true","true","false","true","""event"",""trial"",""time""
""fullscreenenter"",""5"",""23740""
","
","
","""event"",""trial"",""time""
""fullscreenenter"",""5"",""23740""
","
","","images/earth.jpg","","","","","","","","","","","","","","fixation","","","","","",""
"d3-animate-choice","106","283869","0.0-61.0-0.15","1338","3567","12","Male","true","true","false","true","""event"",""trial"",""time""
""fullscreenenter"",""5"",""23740""
","
","
","""event"",""trial"",""time""
""fullscreenenter"",""5"",""23740""
","
","1183.9000000357628","","48","","","3000","1","2631.7000000476837","49","images/earth.jpg","images/tutrocket2","images/tutrocket1","null","images/tutrocket2","","1","practice","null","2","","",""
"d3-animate-choice","107","285942","0.0-61.0-1.15","1338","3567","12","Male","true","true","false","true","""event"",""trial"",""time""
""fullscreenenter"",""5"",""23740""
","
","
","""event"",""trial"",""time""
""fullscreenenter"",""5"",""23740""
","
","64.90000003576279","","49","","","3000","1","120.90000003576279,689.1999999880791,880.9000000357628,1369.1000000238419,1432.699999988079,1953.199999988079,2040.800000011921","48,48,49,48,49,49,48","images/tutgreenplanet.jpg","images/tutalien2","images/tutalien1","images/tutrocket2","images/tutalien1","images/nothing.png","2","practice","false","1","rare","0","2022-11-03 02:10:09.465"
"two-step-fixation","108","286950","0.0-61.0-2.15","1338","3567","12","Male","true","true","false","true","""event"",""trial"",""time""
""fullscreenenter"",""5"",""23740""
","
","
","""event"",""trial"",""time""
""fullscreenenter"",""5"",""23740""
","
","","images/earth.jpg","","","","","","","","","","","","","","fixation","","","","","",""
"d3-animate-choice","109","289093","0.0-61.0-0.16","1338","3567","12","Male","true","true","false","true","""event"",""trial"",""time""
""fullscreenenter"",""5"",""23740""
","
","
","""event"",""trial"",""time""
""fullscreenenter"",""5"",""23740""
","
","135.9000000357628","","49","","","3000","1","169.30000001192093,767.9000000357628,775.8000000119209,1384.1000000238419,1399.800000011921,1967.9000000357628","48,48,49,49,48,48","images/earth.jpg","images/tutrocket2","images/tutrocket1","null","images/tutrocket1","","1","practice","null","1","","",""
"d3-animate-choice","110","291580","0.0-61.0-1.16","1338","3567","12","Male","true","true","false","true","""event"",""trial"",""time""
""fullscreenenter"",""5"",""23740""
","
","
","""event"",""trial"",""time""
""fullscreenenter"",""5"",""23740""
","
","480.80000001192093","","48","","","3000","1","600.6000000238419,1656.699999988079,2344.899999976158","49,49,48","images/tutgreenplanet.jpg","images/tutalien2","images/tutalien1","images/tutrocket1","images/tutalien2","images/t.png","2","practice","true","2","common","1","2022-11-03 02:10:15.104"
"two-step-fixation","111","292589","0.0-61.0-2.16","1338","3567","12","Male","true","true","false","true","""event"",""trial"",""time""
""fullscreenenter"",""5"",""23740""
","
","
","""event"",""trial"",""time""
""fullscreenenter"",""5"",""23740""
","
","","images/earth.jpg","","","","","","","","","","","","","","fixation","","","","","",""
"d3-animate-choice","112","294718","0.0-61.0-0.17","1338","3567","12","Male","true","true","false","true","""event"",""trial"",""time""
""fullscreenenter"",""5"",""23740""
","
","
","""event"",""trial"",""time""
""fullscreenenter"",""5"",""23740""
","
","120.89999997615814","","48","","","3000","1","721,1352.8999999761581,1673.0999999642372,2064.899999976158","48,49,48,49","images/earth.jpg","images/tutrocket2","images/tutrocket1","null","images/tutrocket2","","1","practice","null","2","","",""
"d3-animate-choice","113","297101","0.0-61.0-1.17","1338","3567","12","Male","true","true","false","true","""event"",""trial"",""time""
""fullscreenenter"",""5"",""23740""
","
","
","""event"",""trial"",""time""
""fullscreenenter"",""5"",""23740""
","
","375.89999997615814","","48","","","3000","1","1135.699999988079,1431.699999988079","48,48","images/tutyellowplanet.jpg","images/tutalien4","images/tutalien3","images/tutrocket2","images/tutalien4","images/t.png","2","practice","true","2","common","1","2022-11-03 02:10:20.624"
"two-step-fixation","114","298108","0.0-61.0-2.17","1338","3567","12","Male","true","true","false","true","""event"",""trial"",""time""
""fullscreenenter"",""5"",""23740""
","
","
","""event"",""trial"",""time""
""fullscreenenter"",""5"",""23740""
","
","","images/earth.jpg","","","","","","","","","","","","","","fixation","","","","","",""
"d3-animate-choice","115","300453","0.0-61.0-0.18","1338","3567","12","Male","true","true","false","true","""event"",""trial"",""time""
""fullscreenenter"",""5"",""23740""
","
","
","""event"",""trial"",""time""
""fullscreenenter"",""5"",""23740""
","
","337.10000002384186","","48","","","3000","1","385.19999998807907,1057.199999988079,1697.199999988079,1745","49,49,49,48","images/earth.jpg","images/tutrocket2","images/tutrocket1","null","images/tutrocket2","","1","practice","null","2","","",""
"d3-animate-choice","116","302645","0.0-61.0-1.18","1338","3567","12","Male","true","true","false","true","""event"",""trial"",""time""
""fullscreenenter"",""5"",""23740""
","
","
","""event"",""trial"",""time""
""fullscreenenter"",""5"",""23740""
","
","184.69999998807907","","49","","","3000","1","960.8999999761581,1128.8999999761581,1576.8999999761581","48,49,49","images/tutyellowplanet.jpg","images/tutalien4","images/tutalien3","images/tutrocket2","images/tutalien3","images/nothing.png","2","practice","true","1","common","0","2022-11-03 02:10:26.168"
"two-step-fixation","117","303653","0.0-61.0-2.18","1338","3567","12","Male","true","true","false","true","""event"",""trial"",""time""
""fullscreenenter"",""5"",""23740""
","
","
","""event"",""trial"",""time""
""fullscreenenter"",""5"",""23740""
","
","","images/earth.jpg","","","","","","","","","","","","","","fixation","","","","","",""
"d3-animate-choice","118","305964","0.0-61.0-0.19","1338","3567","12","Male","true","true","false","true","""event"",""trial"",""time""
""fullscreenenter"",""5"",""23740""
","
","
","""event"",""trial"",""time""
""fullscreenenter"",""5"",""23740""
","
","304.19999998807907","","49","","","3000","1","888.3000000119209,1168,1824,2128.199999988079","48,49,49,48","images/earth.jpg","images/tutrocket2","images/tutrocket1","null","images/tutrocket1","","1","practice","null","1","","",""
"d3-animate-choice","119","308293","0.0-61.0-1.19","1338","3567","12","Male","true","true","false","true","""event"",""trial"",""time""
""fullscreenenter"",""5"",""23740""
","
","
","""event"",""trial"",""time""
""fullscreenenter"",""5"",""23740""
","
","321.30000001192093","","49","","","3000","1","521.3000000119209,849.4000000357628,1329.5,1617.1000000238419,1985.4000000357628,2225.400000035763","48,49,48,49,48,49","images/tutgreenplanet.jpg","images/tutalien2","images/tutalien1","images/tutrocket1","images/tutalien1","images/t.png","2","practice","true","1","common","1","2022-11-03 02:10:31.816"
"two-step-fixation","120","309301","0.0-61.0-2.19","1338","3567","12","Male","true","true","false","true","""event"",""trial"",""time""
""fullscreenenter"",""5"",""23740""
","
","
","""event"",""trial"",""time""
""fullscreenenter"",""5"",""23740""
","
","","images/earth.jpg","","","","","","","","","","","","","","fixation","","","","","",""
"d3-instructions","121","314217","0.0-62.0","1338","3567","12","Male","true","true","false","true","""event"",""trial"",""time""
""fullscreenenter"",""5"",""23740""
","
","
","""event"",""trial"",""time""
""fullscreenenter"",""5"",""23740""
","
","","","","","","","","","","","","","","","","","","","","","",""
"audio-keyboard-response","122","316551","0.0-63.0","1338","3567","12","Male","true","true","false","true","""event"",""trial"",""time""
""fullscreenenter"",""5"",""23740""
","
","
","""event"",""trial"",""time""
""fullscreenenter"",""5"",""23740""
","
","2331","audio/instructions/treasure_feedback.wav","32","","","","","","","","","","","","","","","","","","",""
"d3-instructions","123","318992","0.0-64.0","1338","3567","12","Male","true","true","false","true","""event"",""trial"",""time""
""fullscreenenter"",""5"",""23740""
","
","
","""event"",""trial"",""time""
""fullscreenenter"",""5"",""23740""
","
","","","","","","","","","","","","","","","","","","","","","",""
"d3-instructions","124","321208","0.0-65.0","1338","3567","12","Male","true","true","false","true","""event"",""trial"",""time""
""fullscreenenter"",""5"",""23740""
","
","
","""event"",""trial"",""time""
""fullscreenenter"",""5"",""23740""
","
","","","","","","","","","","","","","","","","","","","","","",""
"d3-instructions","125","322720","0.0-66.0","1338","3567","12","Male","true","true","false","true","""event"",""trial"",""time""
""fullscreenenter"",""5"",""23740""
","
","
","""event"",""trial"",""time""
""fullscreenenter"",""5"",""23740""
","
","","","","","","","","","","","","","","","","","","","","","",""
"d3-instructions","126","324000","0.0-67.0","1338","3567","12","Male","true","true","false","true","""event"",""trial"",""time""
""fullscreenenter"",""5"",""23740""
","
","
","""event"",""trial"",""time""
""fullscreenenter"",""5"",""23740""
","
","","","","","","","","","","","","","","","","","","","","","",""
"d3-instructions","127","325648","0.0-68.0","1338","3567","12","Male","true","true","false","true","""event"",""trial"",""time""
""fullscreenenter"",""5"",""23740""
","
","
","""event"",""trial"",""time""
""fullscreenenter"",""5"",""23740""
","
","","","","","","","","","","","","","","","","","","","","","",""
"instructions-quiz","128","330784","0.0-69.0","1338","3567","12","Male","true","true","false","true","""event"",""trial"",""time""
""fullscreenenter"",""5"",""23740""
","
","
","""event"",""trial"",""time""
""fullscreenenter"",""5"",""23740""
","
","5134.400000035763","audio/quiz/Q1_Prompt.wav","","1","","","","","","","","","","","","","","","","","",""
"audio-keyboard-response","129","339948","0.0-70.0","1338","3567","12","Male","true","true","false","true","""event"",""trial"",""time""
""fullscreenenter"",""5"",""23740""
","
","
","""event"",""trial"",""time""
""fullscreenenter"",""5"",""23740""
","
","null","audio/quiz/Q1_Correct.wav","null","","","","","","","","","","","","","","","","","","",""
"instructions-quiz","130","347679","0.0-71.0","1338","3567","12","Male","true","true","false","true","""event"",""trial"",""time""
""fullscreenenter"",""5"",""23740""
","
","
","""event"",""trial"",""time""
""fullscreenenter"",""5"",""23740""
","
","7730.899999976158","audio/quiz/Q2_Prompt.wav","","1","","","","","","","","","","","","","","","","","",""
"audio-keyboard-response","131","361758","0.0-72.0","1338","3567","12","Male","true","true","false","true","""event"",""trial"",""time""
""fullscreenenter"",""5"",""23740""
","
","
","""event"",""trial"",""time""
""fullscreenenter"",""5"",""23740""
","
","null","audio/quiz/Q2_Incorrect.wav","null","","","","","","","","","","","","","","","","","","",""
"instructions-quiz","132","365288","0.0-73.0","1338","3567","12","Male","true","true","false","true","""event"",""trial"",""time""
""fullscreenenter"",""5"",""23740""
","
","
","""event"",""trial"",""time""
""fullscreenenter"",""5"",""23740""
","
","3528.699999988079","audio/quiz/Q3_Prompt.wav","","1","","","","","","","","","","","","","","","","","",""
"audio-keyboard-response","133","371087","0.0-74.0","1338","3567","12","Male","true","true","false","true","""event"",""trial"",""time""
""fullscreenenter"",""5"",""23740""
","
","
","""event"",""trial"",""time""
""fullscreenenter"",""5"",""23740""
","
","null","audio/quiz/Q3_Correct.wav","null","","","","","","","","","","","","","","","","","","",""
"d3-instructions","134","374424","0.0-75.0","1338","3567","12","Male","true","true","false","true","""event"",""trial"",""time""
""fullscreenenter"",""5"",""23740""
","
","
","""event"",""trial"",""time""
""fullscreenenter"",""5"",""23740""
","
","","","","","","","","","","","","","","","","","","","","","",""
"d3-animate-choice","135","378413","0.0-76.0-0.0","1338","3567","12","Male","true","true","false","true","""event"",""trial"",""time""
""fullscreenenter"",""5"",""23740""
","
","
","""event"",""trial"",""time""
""fullscreenenter"",""5"",""23740""
","
","1981.9000000357628","","49","","","3000","1","","","images/earth.jpg","images/rocket2","images/rocket1","null","images/rocket1","","1","real","null","1","","",""
"d3-animate-choice","136","380533","0.0-76.0-1.0","1338","3567","12","Male","true","true","false","true","""event"",""trial"",""time""
""fullscreenenter"",""5"",""23740""
","
","
","""event"",""trial"",""time""
""fullscreenenter"",""5"",""23740""
","
","112.90000003576279","","49","","","3000","1","585,888.9000000357628,1176.9000000357628,1416.7000000476837,1793","49,49,49,49,49","images/redplanet1.jpg","images/alien2","images/alien1","images/rocket1","images/alien1","images/t.png","2","real","true","1","common","1","2022-11-03 02:11:44.056"
"two-step-fixation","137","381542","0.0-76.0-2.0","1338","3567","12","Male","true","true","false","true","""event"",""trial"",""time""
""fullscreenenter"",""5"",""23740""
","
","
","""event"",""trial"",""time""
""fullscreenenter"",""5"",""23740""
","
","","images/earth.jpg","","","","","","","","","","","","","","fixation","","","","","",""
"d3-animate-choice","138","383973","0.0-76.0-0.1","1338","3567","12","Male","true","true","false","true","""event"",""trial"",""time""
""fullscreenenter"",""5"",""23740""
","
","
","""event"",""trial"",""time""
""fullscreenenter"",""5"",""23740""
","
","424.60000002384186","","49","","","3000","1","904.3999999761581,1408.300000011921,1816.199999988079,2240.300000011921","49,49,49,49","images/earth.jpg","images/rocket2","images/rocket1","null","images/rocket1","","1","real","null","1","","",""
"d3-animate-choice","139","386359","0.0-76.0-1.1","1338","3567","12","Male","true","true","false","true","""event"",""trial"",""time""
""fullscreenenter"",""5"",""23740""
","
","
","""event"",""trial"",""time""
""fullscreenenter"",""5"",""23740""
","
","376.60000002384186","","49","","","3000","1","888.4000000357628,1400.6000000238419,1856.9000000357628,2352.800000011921","49,49,49,49","images/redplanet1.jpg","images/alien2","images/alien1","images/rocket1","images/alien1","images/t.png","2","real","true","1","common","1","2022-11-03 02:11:49.882"
"two-step-fixation","140","387366","0.0-76.0-2.1","1338","3567","12","Male","true","true","false","true","""event"",""trial"",""time""
""fullscreenenter"",""5"",""23740""
","
","
","""event"",""trial"",""time""
""fullscreenenter"",""5"",""23740""
","
","","images/earth.jpg","","","","","","","","","","","","","","fixation","","","","","",""
"d3-animate-choice","141","389725","0.0-76.0-0.2","1338","3567","12","Male","true","true","false","true","""event"",""trial"",""time""
""fullscreenenter"",""5"",""23740""
","
","
","""event"",""trial"",""time""
""fullscreenenter"",""5"",""23740""
","
","352.60000002384186","","49","","","3000","1","848.1999999880791,1368.5,1784.5,2272.399999976158","49,49,49,49","images/earth.jpg","images/rocket2","images/rocket1","null","images/rocket1","","1","real","null","1","","",""
"d3-animate-choice","142","392125","0.0-76.0-1.2","1338","3567","12","Male","true","true","false","true","""event"",""trial"",""time""
""fullscreenenter"",""5"",""23740""
","
","
","""event"",""trial"",""time""
""fullscreenenter"",""5"",""23740""
","
","393.5","","49","","","3000","1","873.6000000238419,1361.3999999761581,1817.199999988079,2297.300000011921","49,49,49,49","images/redplanet1.jpg","images/alien2","images/alien1","images/rocket1","images/alien1","images/nothing.png","2","real","true","1","common","0","2022-11-03 02:11:55.648"
"two-step-fixation","143","393133","0.0-76.0-2.2","1338","3567","12","Male","true","true","false","true","""event"",""trial"",""time""
""fullscreenenter"",""5"",""23740""
","
","
","""event"",""trial"",""time""
""fullscreenenter"",""5"",""23740""
","
","","images/earth.jpg","","","","","","","","","","","","","","fixation","","","","","",""
"d3-animate-choice","144","395460","0.0-76.0-0.3","1338","3567","12","Male","true","true","false","true","""event"",""trial"",""time""
""fullscreenenter"",""5"",""23740""
","
","
","""event"",""trial"",""time""
""fullscreenenter"",""5"",""23740""
","
","321.19999998807907","","49","","","3000","1","769.6999999880791,1217.3999999761581,1705.2999999523163,2169.2999999523163","49,49,49,49","images/earth.jpg","images/rocket2","images/rocket1","null","images/rocket1","","1","real","null","1","","",""
"d3-animate-choice","145","397854","0.0-76.0-1.3","1338","3567","12","Male","true","true","false","true","""event"",""trial"",""time""
""fullscreenenter"",""5"",""23740""
","
","
","""event"",""trial"",""time""
""fullscreenenter"",""5"",""23740""
","
","386.10000002384186","","49","","","3000","1","482.10000002384186,834,1321.800000011921,1897.8999999761581,2258","49,49,49,49,49","images/redplanet1.jpg","images/alien2","images/alien1","images/rocket1","images/alien1","images/nothing.png","2","real","true","1","common","0","2022-11-03 02:12:01.377"
"two-step-fixation","146","398860","0.0-76.0-2.3","1338","3567","12","Male","true","true","false","true","""event"",""trial"",""time""
""fullscreenenter"",""5"",""23740""
","
","
","""event"",""trial"",""time""
""fullscreenenter"",""5"",""23740""
","
","","images/earth.jpg","","","","","","","","","","","","","","fixation","","","","","",""
"d3-animate-choice","147","402878","0.0-76.0-0.4","1338","3567","12","Male","true","true","false","true","""event"",""trial"",""time""
""fullscreenenter"",""5"",""23740""
","
","
","""event"",""trial"",""time""
""fullscreenenter"",""5"",""23740""
","
","2513.600000023842","","49","","","3000","1","3521.600000023842,3897.399999976158","49,49","images/earth.jpg","images/rocket2","images/rocket1","null","images/rocket1","","1","real","null","1","","",""
"d3-animate-choice","148","405334","0.0-76.0-1.4","1338","3567","12","Male","true","true","false","true","""event"",""trial"",""time""
""fullscreenenter"",""5"",""23740""
","
","
","""event"",""trial"",""time""
""fullscreenenter"",""5"",""23740""
","
","447.69999998807907","","49","","","3000","1","687.6000000238419,1775.699999988079,2207.900000035763","49,49,49","images/purpleplanet.jpg","images/alien4","images/alien3","images/rocket1","images/alien3","images/nothing.png","2","real","false","1","rare","0","2022-11-03 02:12:08.857"
"two-step-fixation","149","406342","0.0-76.0-2.4","1338","3567","12","Male","true","true","false","true","""event"",""trial"",""time""
""fullscreenenter"",""5"",""23740""
","
","
","""event"",""trial"",""time""
""fullscreenenter"",""5"",""23740""
","
","","images/earth.jpg","","","","","","","","","","","","","","fixation","","","","","",""
"d3-animate-choice","150","408558","0.0-76.0-0.5","1338","3567","12","Male","true","true","false","true","""event"",""trial"",""time""
""fullscreenenter"",""5"",""23740""
","
","
","""event"",""trial"",""time""
""fullscreenenter"",""5"",""23740""
","
","208.39999997615814","","49","","","3000","1","384.39999997615814,1160.5,1336.5","49,49,49","images/earth.jpg","images/rocket2","images/rocket1","null","images/rocket1","","1","real","null","1","","",""
"d3-animate-choice","151","410789","0.0-76.0-1.5","1338","3567","12","Male","true","true","false","true","""event"",""trial"",""time""
""fullscreenenter"",""5"",""23740""
","
","
","""event"",""trial"",""time""
""fullscreenenter"",""5"",""23740""
","
","224.5","","49","","","3000","1","952.3000000119209,1672.3999999761581","49,49","images/purpleplanet.jpg","images/alien4","images/alien3","images/rocket1","images/alien3","images/t.png","2","real","false","1","rare","1","2022-11-03 02:12:14.312"
"two-step-fixation","152","411795","0.0-76.0-2.5","1338","3567","12","Male","true","true","false","true","""event"",""trial"",""time""
""fullscreenenter"",""5"",""23740""
","
","
","""event"",""trial"",""time""
""fullscreenenter"",""5"",""23740""
","
","","images/earth.jpg","","","","","","","","","","","","","","fixation","","","","","",""
"d3-animate-choice","153","414161","0.0-76.0-0.6","1338","3567","12","Male","true","true","false","true","""event"",""trial"",""time""
""fullscreenenter"",""5"",""23740""
","
","
","""event"",""trial"",""time""
""fullscreenenter"",""5"",""23740""
","
","363.39999997615814","","49","","","3000","1","1059.199999988079,1619.2999999523163","49,49","images/earth.jpg","images/rocket2","images/rocket1","null","images/rocket1","","1","real","null","1","","",""
"d3-animate-choice","154","416421","0.0-76.0-1.6","1338","3567","12","Male","true","true","false","true","""event"",""trial"",""time""
""fullscreenenter"",""5"",""23740""
","
","
","""event"",""trial"",""time""
""fullscreenenter"",""5"",""23740""
","
","251.5999999642372","","49","","","3000","1","","","images/redplanet1.jpg","images/alien2","images/alien1","images/rocket1","images/alien1","images/t.png","2","real","true","1","common","1","2022-11-03 02:12:19.944"
"two-step-fixation","155","417430","0.0-76.0-2.6","1338","3567","12","Male","true","true","false","true","""event"",""trial"",""time""
""fullscreenenter"",""5"",""23740""
","
","
","""event"",""trial"",""time""
""fullscreenenter"",""5"",""23740""
","
","","images/earth.jpg","","","","","","","","","","","","","","fixation","","","","","",""
"d3-animate-choice","156","419629","0.0-76.0-0.7","1338","3567","12","Male","true","true","false","true","""event"",""trial"",""time""
""fullscreenenter"",""5"",""23740""
","
","
","""event"",""trial"",""time""
""fullscreenenter"",""5"",""23740""
","
","192.39999997615814","","49","","","3000","1","","","images/earth.jpg","images/rocket2","images/rocket1","null","images/rocket1","","1","real","null","1","","",""
"d3-animate-choice","157","422162","0.0-76.0-1.7","1338","3567","12","Male","true","true","false","true","""event"",""trial"",""time""
""fullscreenenter"",""5"",""23740""
","
","
","""event"",""trial"",""time""
""fullscreenenter"",""5"",""23740""
","
","529.3000000119209","","49","","","3000","1","","","images/purpleplanet.jpg","images/alien4","images/alien3","images/rocket1","images/alien3","images/t.png","2","real","false","1","rare","1","2022-11-03 02:12:25.685"
"two-step-fixation","158","423167","0.0-76.0-2.7","1338","3567","12","Male","true","true","false","true","""event"",""trial"",""time""
""fullscreenenter"",""5"",""23740""
","
","
","""event"",""trial"",""time""
""fullscreenenter"",""5"",""23740""
","
","","images/earth.jpg","","","","","","","","","","","","","","fixation","","","","","",""
"d3-animate-choice","159","425637","0.0-76.0-0.8","1338","3567","12","Male","true","true","false","true","""event"",""trial"",""time""
""fullscreenenter"",""5"",""23740""
","
","
","""event"",""trial"",""time""
""fullscreenenter"",""5"",""23740""
","
","463.5","","49","","","3000","1","2335.7000000476837","49","images/earth.jpg","images/rocket2","images/rocket1","null","images/rocket1","","1","real","null","1","","",""
"d3-animate-choice","160","428912","0.0-76.0-1.8","1338","3567","12","Male","true","true","false","true","""event"",""trial"",""time""
""fullscreenenter"",""5"",""23740""
","
","
","""event"",""trial"",""time""
""fullscreenenter"",""5"",""23740""
","
","1273.199999988079","","49","","","3000","1","3128.800000011921","49","images/redplanet1.jpg","images/alien2","images/alien1","images/rocket1","images/alien1","images/t.png","2","real","true","1","common","1","2022-11-03 02:12:32.435"
"two-step-fixation","161","429917","0.0-76.0-2.8","1338","3567","12","Male","true","true","false","true","""event"",""trial"",""time""
""fullscreenenter"",""5"",""23740""
","
","
","""event"",""trial"",""time""
""fullscreenenter"",""5"",""23740""
","
","","images/earth.jpg","","","","","","","","","","","","","","fixation","","","","","",""
"d3-animate-choice","162","433029","0.0-76.0-0.9","1338","3567","12","Male","true","true","false","true","""event"",""trial"",""time""
""fullscreenenter"",""5"",""23740""
","
","
","""event"",""trial"",""time""
""fullscreenenter"",""5"",""23740""
","
","1105.300000011921","","49","","","3000","1","","","images/earth.jpg","images/rocket2","images/rocket1","null","images/rocket1","","1","real","null","1","","",""
"d3-animate-choice","163","437037","0.0-76.0-1.9","1338","3567","12","Male","true","true","false","true","""event"",""trial"",""time""
""fullscreenenter"",""5"",""23740""
","
","
","""event"",""trial"",""time""
""fullscreenenter"",""5"",""23740""
","
","2033.5","","49","","","3000","1","","","images/purpleplanet.jpg","images/alien4","images/alien3","images/rocket1","images/alien3","images/nothing.png","2","real","false","1","rare","0","2022-11-03 02:12:40.560"
"two-step-fixation","164","438045","0.0-76.0-2.9","1338","3567","12","Male","true","true","false","true","""event"",""trial"",""time""
""fullscreenenter"",""5"",""23740""
","
","
","""event"",""trial"",""time""
""fullscreenenter"",""5"",""23740""
","
","","images/earth.jpg","","","","","","","","","","","","","","fixation","","","","","",""
"d3-animate-choice","165","440277","0.0-76.0-0.10","1338","3567","12","Male","true","true","false","true","""event"",""trial"",""time""
""fullscreenenter"",""5"",""23740""
","
","
","""event"",""trial"",""time""
""fullscreenenter"",""5"",""23740""
","
","225.39999997615814","","49","","","3000","1","","","images/earth.jpg","images/rocket2","images/rocket1","null","images/rocket1","","1","real","null","1","","",""
"d3-animate-choice","166","442926","0.0-76.0-1.10","1338","3567","12","Male","true","true","false","true","""event"",""trial"",""time""
""fullscreenenter"",""5"",""23740""
","
","
","""event"",""trial"",""time""
""fullscreenenter"",""5"",""23740""
","
","641.8000000119209","","49","","","3000","1","1481.5","49","images/redplanet1.jpg","images/alien2","images/alien1","images/rocket1","images/alien1","images/t.png","2","real","true","1","common","1","2022-11-03 02:12:46.449"
"two-step-fixation","167","443930","0.0-76.0-2.10","1338","3567","12","Male","true","true","false","true","""event"",""trial"",""time""
""fullscreenenter"",""5"",""23740""
","
","
","""event"",""trial"",""time""
""fullscreenenter"",""5"",""23740""
","
","","images/earth.jpg","","","","","","","","","","","","","","fixation","","","","","",""
"d3-animate-choice","168","446549","0.0-76.0-0.11","1338","3567","12","Male","true","true","false","true","""event"",""trial"",""time""
""fullscreenenter"",""5"",""23740""
","
","
","""event"",""trial"",""time""
""fullscreenenter"",""5"",""23740""
","
","612.0999999642372","","49","","","3000","1","","","images/earth.jpg","images/rocket2","images/rocket1","null","images/rocket1","","1","real","null","1","","",""
"d3-animate-choice","169","448566","0.0-76.0-1.11","1338","3567","12","Male","true","true","false","true","""event"",""trial"",""time""
""fullscreenenter"",""5"",""23740""
","
","
","""event"",""trial"",""time""
""fullscreenenter"",""5"",""23740""
","
","9.400000035762787","","49","","","3000","1","601.1999999880791,1161.199999988079,1921.6000000238419","49,49,49","images/redplanet1.jpg","images/alien2","images/alien1","images/rocket1","images/alien1","images/nothing.png","2","real","true","1","common","0","2022-11-03 02:12:52.089"
"two-step-fixation","170","449573","0.0-76.0-2.11","1338","3567","12","Male","true","true","false","true","""event"",""trial"",""time""
""fullscreenenter"",""5"",""23740""
","
","
","""event"",""trial"",""time""
""fullscreenenter"",""5"",""23740""
","
","","images/earth.jpg","","","","","","","","","","","","","","fixation","","","","","",""
"d3-animate-choice","171","451613","0.0-76.0-0.12","1338","3567","12","Male","true","true","false","true","""event"",""trial"",""time""
""fullscreenenter"",""5"",""23740""
","
","
","""event"",""trial"",""time""
""fullscreenenter"",""5"",""23740""
","
","33","","49","","","3000","1","681.0999999642372,1233,1792.8999999761581","49,49,49","images/earth.jpg","images/rocket2","images/rocket1","null","images/rocket1","","1","real","null","1","","",""
"d3-animate-choice","172","453914","0.0-76.0-1.12","1338","3567","12","Male","true","true","false","true","""event"",""trial"",""time""
""fullscreenenter"",""5"",""23740""
","
","
","""event"",""trial"",""time""
""fullscreenenter"",""5"",""23740""
","
","297.2999999523163","","49","","","3000","1","737.1999999880791,2017.5999999642372","49,49","images/redplanet1.jpg","images/alien2","images/alien1","images/rocket1","images/alien1","images/nothing.png","2","real","true","1","common","0","2022-11-03 02:12:57.437"
"two-step-fixation","173","454917","0.0-76.0-2.12","1338","3567","12","Male","true","true","false","true","""event"",""trial"",""time""
""fullscreenenter"",""5"",""23740""
","
","
","""event"",""trial"",""time""
""fullscreenenter"",""5"",""23740""
","
","","images/earth.jpg","","","","","","","","","","","","","","fixation","","","","","",""
"d3-animate-choice","174","457366","0.0-76.0-0.13","1338","3567","12","Male","true","true","false","true","""event"",""trial"",""time""
""fullscreenenter"",""5"",""23740""
","
","
","""event"",""trial"",""time""
""fullscreenenter"",""5"",""23740""
","
","441.39999997615814","","49","","","3000","1","1065.3999999761581,1633.3999999761581,2233.300000011921","49,49,49","images/earth.jpg","images/rocket2","images/rocket1","null","images/rocket1","","1","real","null","1","","",""
"d3-animate-choice","175","459677","0.0-76.0-1.13","1338","3567","12","Male","true","true","false","true","""event"",""trial"",""time""
""fullscreenenter"",""5"",""23740""
","
","
","""event"",""trial"",""time""
""fullscreenenter"",""5"",""23740""
","
","304.39999997615814","","49","","","3000","1","848.2999999523163,1400.699999988079,1952.199999988079","49,49,49","images/purpleplanet.jpg","images/alien4","images/alien3","images/rocket1","images/alien3","images/nothing.png","2","real","false","1","rare","0","2022-11-03 02:13:03.200"
"two-step-fixation","176","460691","0.0-76.0-2.13","1338","3567","12","Male","true","true","false","true","""event"",""trial"",""time""
""fullscreenenter"",""5"",""23740""
","
","
","""event"",""trial"",""time""
""fullscreenenter"",""5"",""23740""
","
","","images/earth.jpg","","","","","","","","","","","","","","fixation","","","","","",""
"d3-animate-choice","177","463077","0.0-76.0-0.14","1338","3567","12","Male","true","true","false","true","""event"",""trial"",""time""
""fullscreenenter"",""5"",""23740""
","
","
","""event"",""trial"",""time""
""fullscreenenter"",""5"",""23740""
","
","379.60000002384186","","49","","","3000","1","931.8000000119209,1523.6000000238419","49,49","images/earth.jpg","images/rocket2","images/rocket1","null","images/rocket1","","1","real","null","1","","",""
"d3-animate-choice","178","465549","0.0-76.0-1.14","1338","3567","12","Male","true","true","false","true","""event"",""trial"",""time""
""fullscreenenter"",""5"",""23740""
","
","
","""event"",""trial"",""time""
""fullscreenenter"",""5"",""23740""
","
","465","","49","","","3000","1","1113.2000000476837,1505.1000000238419,2001.2000000476837","49,49,49","images/redplanet1.jpg","images/alien2","images/alien1","images/rocket1","images/alien1","images/t.png","2","real","true","1","common","1","2022-11-03 02:13:09.072"
"two-step-fixation","179","466557","0.0-76.0-2.14","1338","3567","12","Male","true","true","false","true","""event"",""trial"",""time""
""fullscreenenter"",""5"",""23740""
","
","
","""event"",""trial"",""time""
""fullscreenenter"",""5"",""23740""
","
","","images/earth.jpg","","","","","","","","","","","","","","fixation","","","","","",""
"d3-animate-choice","180","469082","0.0-76.0-0.15","1338","3567","12","Male","true","true","false","true","""event"",""trial"",""time""
""fullscreenenter"",""5"",""23740""
","
","
","""event"",""trial"",""time""
""fullscreenenter"",""5"",""23740""
","
","520.8000000119209","","49","","","3000","1","1080.9000000357628,1240.800000011921,1824.800000011921,1848.800000011921","48,49,49,48","images/earth.jpg","images/rocket2","images/rocket1","null","images/rocket1","","1","real","null","1","","",""
"d3-animate-choice","181","471445","0.0-76.0-1.15","1338","3567","12","Male","true","true","false","true","""event"",""trial"",""time""
""fullscreenenter"",""5"",""23740""
","
","
","""event"",""trial"",""time""
""fullscreenenter"",""5"",""23740""
","
","356.5","","48","","","3000","1","380.19999998807907,876.4000000357628,1580.4000000357628,2172.100000023842","49,48,48,49","images/redplanet1.jpg","images/alien2","images/alien1","images/rocket1","images/alien2","images/t.png","2","real","true","2","common","1","2022-11-03 02:13:14.968"
"two-step-fixation","182","472449","0.0-76.0-2.15","1338","3567","12","Male","true","true","false","true","""event"",""trial"",""time""
""fullscreenenter"",""5"",""23740""
","
","
","""event"",""trial"",""time""
""fullscreenenter"",""5"",""23740""
","
","","images/earth.jpg","","","","","","","","","","","","","","fixation","","","","","",""
"d3-animate-choice","183","474958","0.0-76.0-0.16","1338","3567","12","Male","true","true","false","true","""event"",""trial"",""time""
""fullscreenenter"",""5"",""23740""
","
","
","""event"",""trial"",""time""
""fullscreenenter"",""5"",""23740""
","
","501.39999997615814","","49","","","3000","1","645.2999999523163,1061.5999999642372,1149.5,1653.3999999761581,1701.5,2189.399999976158,2205.399999976158","48,49,48,49,48,48,49","images/earth.jpg","images/rocket2","images/rocket1","null","images/rocket1","","1","real","null","1","","",""
"d3-animate-choice","184","476981","0.0-76.0-1.16","1338","3567","12","Male","true","true","false","true","""event"",""trial"",""time""
""fullscreenenter"",""5"",""23740""
","
","
","""event"",""trial"",""time""
""fullscreenenter"",""5"",""23740""
","
","16.599999964237213","","49","","","3000","1","96.59999996423721,424.30000001192093,648.8000000119209,864.5,1072.699999988079,1128.800000011921,1248.5,1480.5,1816.8999999761581,1992.800000011921","48,49,48,49,48,49,49,48,49,48","images/redplanet1.jpg","images/alien2","images/alien1","images/rocket1","images/alien1","images/t.png","2","real","true","1","common","1","2022-11-03 02:13:20.504"
"two-step-fixation","185","477989","0.0-76.0-2.16","1338","3567","12","Male","true","true","false","true","""event"",""trial"",""time""
""fullscreenenter"",""5"",""23740""
","
","
","""event"",""trial"",""time""
""fullscreenenter"",""5"",""23740""
","
","","images/earth.jpg","","","","","","","","","","","","","","fixation","","","","","",""
"d3-animate-choice","186","480022","0.0-76.0-0.17","1338","3567","12","Male","true","true","false","true","""event"",""trial"",""time""
""fullscreenenter"",""5"",""23740""
","
","
","""event"",""trial"",""time""
""fullscreenenter"",""5"",""23740""
","
","24.899999976158142","","49","","","3000","1","281.7999999523163,456.69999998807907,697.0999999642372,856.6999999880791,1144.8999999761581,1240.699999988079,1584.7999999523163,1992.7999999523163","48,49,48,49,48,49,48,49","images/earth.jpg","images/rocket2","images/rocket1","null","images/rocket1","","1","real","null","1","","",""
"d3-animate-choice","187","482300","0.0-76.0-1.17","1338","3567","12","Male","true","true","false","true","""event"",""trial"",""time""
""fullscreenenter"",""5"",""23740""
","
","
","""event"",""trial"",""time""
""fullscreenenter"",""5"",""23740""
","
","272.10000002384186","","49","","","3000","1","280,728.1000000238419,1144,1744,2152","48,48,48,48,48","images/purpleplanet.jpg","images/alien4","images/alien3","images/rocket1","images/alien3","images/nothing.png","2","real","false","1","rare","0","2022-11-03 02:13:25.823"
"two-step-fixation","188","483309","0.0-76.0-2.17","1338","3567","12","Male","true","true","false","true","""event"",""trial"",""time""
""fullscreenenter"",""5"",""23740""
","
","
","""event"",""trial"",""time""
""fullscreenenter"",""5"",""23740""
","
","","images/earth.jpg","","","","","","","","","","","","","","fixation","","","","","",""
"d3-animate-choice","189","485494","0.0-76.0-0.18","1338","3567","12","Male","true","true","false","true","""event"",""trial"",""time""
""fullscreenenter"",""5"",""23740""
","
","
","""event"",""trial"",""time""
""fullscreenenter"",""5"",""23740""
","
","177","","49","","","3000","1","","","images/earth.jpg","images/rocket2","images/rocket1","null","images/rocket1","","1","real","null","1","","",""
"d3-animate-choice","190","487867","0.0-76.0-1.18","1338","3567","12","Male","true","true","false","true","""event"",""trial"",""time""
""fullscreenenter"",""5"",""23740""
","
","
","""event"",""trial"",""time""
""fullscreenenter"",""5"",""23740""
","
","368.2000000476837","","49","","","3000","1","2296.100000023842","49","images/redplanet1.jpg","images/alien2","images/alien1","images/rocket1","images/alien1","images/t.png","2","real","true","1","common","1","2022-11-03 02:13:31.390"
"two-step-fixation","191","488869","0.0-76.0-2.18","1338","3567","12","Male","true","true","false","true","""event"",""trial"",""time""
""fullscreenenter"",""5"",""23740""
","
","
","""event"",""trial"",""time""
""fullscreenenter"",""5"",""23740""
","
","","images/earth.jpg","","","","","","","","","","","","","","fixation","","","","","",""
"d3-animate-choice","192","491284","0.0-76.0-0.19","1338","3567","12","Male","true","true","false","true","""event"",""trial"",""time""
""fullscreenenter"",""5"",""23740""
","
","
","""event"",""trial"",""time""
""fullscreenenter"",""5"",""23740""
","
","409.39999997615814","","49","","","3000","1","","","images/earth.jpg","images/rocket2","images/rocket1","null","images/rocket1","","1","real","null","1","","",""
"d3-animate-choice","193","493309","0.0-76.0-1.19","1338","3567","12","Male","true","true","false","true","""event"",""trial"",""time""
""fullscreenenter"",""5"",""23740""
","
","
","""event"",""trial"",""time""
""fullscreenenter"",""5"",""23740""
","
","19.399999976158142","","49","","","3000","1","","","images/redplanet1.jpg","images/alien2","images/alien1","images/rocket1","images/alien1","images/t.png","2","real","true","1","common","1","2022-11-03 02:13:36.832"
"two-step-fixation","194","494317","0.0-76.0-2.19","1338","3567","12","Male","true","true","false","true","""event"",""trial"",""time""
""fullscreenenter"",""5"",""23740""
","
","
","""event"",""trial"",""time""
""fullscreenenter"",""5"",""23740""
","
","","images/earth.jpg","","","","","","","","","","","","","","fixation","","","","","",""
"d3-animate-choice","195","496684","0.0-76.0-0.20","1338","3567","12","Male","true","true","false","true","""event"",""trial"",""time""
""fullscreenenter"",""5"",""23740""
","
","
","""event"",""trial"",""time""
""fullscreenenter"",""5"",""23740""
","
","361","","49","","","3000","1","","","images/earth.jpg","images/rocket2","images/rocket1","null","images/rocket1","","1","real","null","1","","",""
"d3-animate-choice","196","499717","0.0-76.0-1.20","1338","3567","12","Male","true","true","false","true","""event"",""trial"",""time""
""fullscreenenter"",""5"",""23740""
","
","
","""event"",""trial"",""time""
""fullscreenenter"",""5"",""23740""
","
","1026.199999988079","","49","","","3000","1","2074.300000011921","49","images/redplanet1.jpg","images/alien2","images/alien1","images/rocket1","images/alien1","images/t.png","2","real","true","1","common","1","2022-11-03 02:13:43.240"
"two-step-fixation","197","500725","0.0-76.0-2.20","1338","3567","12","Male","true","true","false","true","""event"",""trial"",""time""
""fullscreenenter"",""5"",""23740""
","
","
","""event"",""trial"",""time""
""fullscreenenter"",""5"",""23740""
","
","","images/earth.jpg","","","","","","","","","","","","","","fixation","","","","","",""
"d3-animate-choice","198","503268","0.0-76.0-0.21","1338","3567","12","Male","true","true","false","true","""event"",""trial"",""time""
""fullscreenenter"",""5"",""23740""
","
","
","""event"",""trial"",""time""
""fullscreenenter"",""5"",""23740""
","
","537.6000000238419","","49","","","3000","1","1289.699999988079","49","images/earth.jpg","images/rocket2","images/rocket1","null","images/rocket1","","1","real","null","1","","",""
"d3-animate-choice","199","505725","0.0-76.0-1.21","1338","3567","12","Male","true","true","false","true","""event"",""trial"",""time""
""fullscreenenter"",""5"",""23740""
","
","
","""event"",""trial"",""time""
""fullscreenenter"",""5"",""23740""
","
","450.5","","49","","","3000","1","","","images/purpleplanet.jpg","images/alien4","images/alien3","images/rocket1","images/alien3","images/t.png","2","real","false","1","rare","1","2022-11-03 02:13:49.248"
"two-step-fixation","200","506733","0.0-76.0-2.21","1338","3567","12","Male","true","true","false","true","""event"",""trial"",""time""
""fullscreenenter"",""5"",""23740""
","
","
","""event"",""trial"",""time""
""fullscreenenter"",""5"",""23740""
","
","","images/earth.jpg","","","","","","","","","","","","","","fixation","","","","","",""
"d3-animate-choice","201","509526","0.0-76.0-0.22","1338","3567","12","Male","true","true","false","true","""event"",""trial"",""time""
""fullscreenenter"",""5"",""23740""
","
","
","""event"",""trial"",""time""
""fullscreenenter"",""5"",""23740""
","
","785.0999999642372","","49","","","3000","1","","","images/earth.jpg","images/rocket2","images/rocket1","null","images/rocket1","","1","real","null","1","","",""
"d3-animate-choice","202","512093","0.0-76.0-1.22","1338","3567","12","Male","true","true","false","true","""event"",""trial"",""time""
""fullscreenenter"",""5"",""23740""
","
","
","""event"",""trial"",""time""
""fullscreenenter"",""5"",""23740""
","
","560.6999999880791","","49","","","3000","1","","","images/redplanet1.jpg","images/alien2","images/alien1","images/rocket1","images/alien1","images/t.png","2","real","true","1","common","1","2022-11-03 02:13:55.616"
"two-step-fixation","203","513101","0.0-76.0-2.22","1338","3567","12","Male","true","true","false","true","""event"",""trial"",""time""
""fullscreenenter"",""5"",""23740""
","
","
","""event"",""trial"",""time""
""fullscreenenter"",""5"",""23740""
","
","","images/earth.jpg","","","","","","","","","","","","","","fixation","","","","","",""
"d3-animate-choice","204","516252","0.0-76.0-0.23","1338","3567","12","Male","true","true","false","true","""event"",""trial"",""time""
""fullscreenenter"",""5"",""23740""
","
","
","""event"",""trial"",""time""
""fullscreenenter"",""5"",""23740""
","
","1145.0999999642372","","49","","","3000","1","","","images/earth.jpg","images/rocket2","images/rocket1","null","images/rocket1","","1","real","null","1","","",""
"d3-animate-choice","205","520269","0.0-76.0-1.23","1338","3567","12","Male","true","true","false","true","""event"",""trial"",""time""
""fullscreenenter"",""5"",""23740""
","
","
","""event"",""trial"",""time""
""fullscreenenter"",""5"",""23740""
","
","2018.2000000476837","","49","","","3000","1","3274.100000023842","49","images/purpleplanet.jpg","images/alien4","images/alien3","images/rocket1","images/alien3","images/nothing.png","2","real","false","1","rare","0","2022-11-03 02:14:03.792"
"two-step-fixation","206","521277","0.0-76.0-2.23","1338","3567","12","Male","true","true","false","true","""event"",""trial"",""time""
""fullscreenenter"",""5"",""23740""
","
","
","""event"",""trial"",""time""
""fullscreenenter"",""5"",""23740""
","
","","images/earth.jpg","","","","","","","","","","","","","","fixation","","","","","",""
"d3-animate-choice","207","523909","0.0-76.0-0.24","1338","3567","12","Male","true","true","false","true","""event"",""trial"",""time""
""fullscreenenter"",""5"",""23740""
","
","
","""event"",""trial"",""time""
""fullscreenenter"",""5"",""23740""
","
","625.3000000119209","","49","","","3000","1","1641.199999988079,2265.300000011921","49,49","images/earth.jpg","images/rocket2","images/rocket1","null","images/rocket1","","1","real","null","1","","",""
"d3-animate-choice","208","526182","0.0-76.0-1.24","1338","3567","12","Male","true","true","false","true","""event"",""trial"",""time""
""fullscreenenter"",""5"",""23740""
","
","
","""event"",""trial"",""time""
""fullscreenenter"",""5"",""23740""
","
","265.5","","49","","","3000","1","578.5,1609.3999999761581","49,49","images/purpleplanet.jpg","images/alien4","images/alien3","images/rocket1","images/alien3","images/nothing.png","2","real","false","1","rare","0","2022-11-03 02:14:09.705"
"two-step-fixation","209","527186","0.0-76.0-2.24","1338","3567","12","Male","true","true","false","true","""event"",""trial"",""time""
""fullscreenenter"",""5"",""23740""
","
","
","""event"",""trial"",""time""
""fullscreenenter"",""5"",""23740""
","
","","images/earth.jpg","","","","","","","","","","","","","","fixation","","","","","",""
"d3-animate-choice","210","530181","0.0-76.0-0.25","1338","3567","12","Male","true","true","false","true","""event"",""trial"",""time""
""fullscreenenter"",""5"",""23740""
","
","
","""event"",""trial"",""time""
""fullscreenenter"",""5"",""23740""
","
","988.3999999761581","","49","","","3000","1","2052.300000011921","49","images/earth.jpg","images/rocket2","images/rocket1","null","images/rocket1","","1","real","null","1","","",""
"d3-animate-choice","211","532187","0.0-76.0-1.25","1338","3567","12","Male","true","true","false","true","""event"",""trial"",""time""
""fullscreenenter"",""5"",""23740""
","
","
","""event"",""trial"",""time""
""fullscreenenter"",""5"",""23740""
","
","0.10000002384185791","","49","","","3000","1","1935.9000000357628","49","images/redplanet1.jpg","images/alien2","images/alien1","images/rocket1","images/alien1","images/nothing.png","2","real","true","1","common","0","2022-11-03 02:14:15.710"
"two-step-fixation","212","533189","0.0-76.0-2.25","1338","3567","12","Male","true","true","false","true","""event"",""trial"",""time""
""fullscreenenter"",""5"",""23740""
","
","
","""event"",""trial"",""time""
""fullscreenenter"",""5"",""23740""
","
","","images/earth.jpg","","","","","","","","","","","","","","fixation","","","","","",""
"d3-animate-choice","213","535750","0.0-76.0-0.26","1338","3567","12","Male","true","true","false","true","""event"",""trial"",""time""
""fullscreenenter"",""5"",""23740""
","
","
","""event"",""trial"",""time""
""fullscreenenter"",""5"",""23740""
","
","553.2000000476837","","49","","","3000","1","1089.2000000476837,1601.2000000476837,2193.100000023842","49,49,49","images/earth.jpg","images/rocket2","images/rocket1","null","images/rocket1","","1","real","null","1","","",""
"d3-animate-choice","214","538094","0.0-76.0-1.26","1338","3567","12","Male","true","true","false","true","""event"",""trial"",""time""
""fullscreenenter"",""5"",""23740""
","
","
","""event"",""trial"",""time""
""fullscreenenter"",""5"",""23740""
","
","336.39999997615814","","49","","","3000","1","1200.6000000238419","49","images/purpleplanet.jpg","images/alien4","images/alien3","images/rocket1","images/alien3","images/nothing.png","2","real","false","1","rare","0","2022-11-03 02:14:21.617"
"two-step-fixation","215","539102","0.0-76.0-2.26","1338","3567","12","Male","true","true","false","true","""event"",""trial"",""time""
""fullscreenenter"",""5"",""23740""
","
","
","""event"",""trial"",""time""
""fullscreenenter"",""5"",""23740""
","
","","images/earth.jpg","","","","","","","","","","","","","","fixation","","","","","",""
"d3-animate-choice","216","541321","0.0-76.0-0.27","1338","3567","12","Male","true","true","false","true","""event"",""trial"",""time""
""fullscreenenter"",""5"",""23740""
","
","
","""event"",""trial"",""time""
""fullscreenenter"",""5"",""23740""
","
","216.80000001192093","","49","","","3000","1","720.8000000119209,1328.7000000476837,1600.7000000476837,1992.7000000476837","49,49,49,49","images/earth.jpg","images/rocket2","images/rocket1","null","images/rocket1","","1","real","null","1","","",""
"d3-animate-choice","217","544086","0.0-76.0-1.27","1338","3567","12","Male","true","true","false","true","""event"",""trial"",""time""
""fullscreenenter"",""5"",""23740""
","
","
","""event"",""trial"",""time""
""fullscreenenter"",""5"",""23740""
","
","757.5","","49","","","3000","1","2549.5","49","images/purpleplanet.jpg","images/alien4","images/alien3","images/rocket1","images/alien3","images/t.png","2","real","false","1","rare","1","2022-11-03 02:14:27.609"
"two-step-fixation","218","545088","0.0-76.0-2.27","1338","3567","12","Male","true","true","false","true","""event"",""trial"",""time""
""fullscreenenter"",""5"",""23740""
","
","
","""event"",""trial"",""time""
""fullscreenenter"",""5"",""23740""
","
","","images/earth.jpg","","","","","","","","","","","","","","fixation","","","","","",""
"d3-animate-choice","219","547381","0.0-76.0-0.28","1338","3567","12","Male","true","true","false","true","""event"",""trial"",""time""
""fullscreenenter"",""5"",""23740""
","
","
","""event"",""trial"",""time""
""fullscreenenter"",""5"",""23740""
","
","286.2000000476837","","49","","","3000","1","1678.2000000476837","49","images/earth.jpg","images/rocket2","images/rocket1","null","images/rocket1","","1","real","null","1","","",""
"d3-animate-choice","220","549749","0.0-76.0-1.28","1338","3567","12","Male","true","true","false","true","""event"",""trial"",""time""
""fullscreenenter"",""5"",""23740""
","
","
","""event"",""trial"",""time""
""fullscreenenter"",""5"",""23740""
","
","361.39999997615814","","49","","","3000","1","","","images/redplanet1.jpg","images/alien2","images/alien1","images/rocket1","images/alien1","images/nothing.png","2","real","true","1","common","0","2022-11-03 02:14:33.272"
"two-step-fixation","221","550757","0.0-76.0-2.28","1338","3567","12","Male","true","true","false","true","""event"",""trial"",""time""
""fullscreenenter"",""5"",""23740""
","
","
","""event"",""trial"",""time""
""fullscreenenter"",""5"",""23740""
","
","","images/earth.jpg","","","","","","","","","","","","","","fixation","","","","","",""
"d3-animate-choice","222","553029","0.0-76.0-0.29","1338","3567","12","Male","true","true","false","true","""event"",""trial"",""time""
""fullscreenenter"",""5"",""23740""
","
","
","""event"",""trial"",""time""
""fullscreenenter"",""5"",""23740""
","
","266","","49","","","3000","1","","","images/earth.jpg","images/rocket2","images/rocket1","null","images/rocket1","","1","real","null","1","","",""
"d3-animate-choice","223","555077","0.0-76.0-1.29","1338","3567","12","Male","true","true","false","true","""event"",""trial"",""time""
""fullscreenenter"",""5"",""23740""
","
","
","""event"",""trial"",""time""
""fullscreenenter"",""5"",""23740""
","
","41.60000002384186","","49","","","3000","1","","","images/purpleplanet.jpg","images/alien4","images/alien3","images/rocket1","images/alien3","images/nothing.png","2","real","false","1","rare","0","2022-11-03 02:14:38.600"
"two-step-fixation","224","556086","0.0-76.0-2.29","1338","3567","12","Male","true","true","false","true","""event"",""trial"",""time""
""fullscreenenter"",""5"",""23740""
","
","
","""event"",""trial"",""time""
""fullscreenenter"",""5"",""23740""
","
","","images/earth.jpg","","","","","","","","","","","","","","fixation","","","","","",""
"d3-animate-choice","225","558262","0.0-76.0-0.30","1338","3567","12","Male","true","true","false","true","""event"",""trial"",""time""
""fullscreenenter"",""5"",""23740""
","
","
","""event"",""trial"",""time""
""fullscreenenter"",""5"",""23740""
","
","168.19999998807907","","49","","","3000","1","1992.6000000238419","49","images/earth.jpg","images/rocket2","images/rocket1","null","images/rocket1","","1","real","null","1","","",""
"d3-animate-choice","226","561631","0.0-76.0-1.30","1338","3567","12","Male","true","true","false","true","""event"",""trial"",""time""
""fullscreenenter"",""5"",""23740""
","
","
","""event"",""trial"",""time""
""fullscreenenter"",""5"",""23740""
","
","1361","","49","","","3000","1","","","images/redplanet1.jpg","images/alien2","images/alien1","images/rocket1","images/alien1","images/t.png","2","real","true","1","common","1","2022-11-03 02:14:45.154"
"two-step-fixation","227","562637","0.0-76.0-2.30","1338","3567","12","Male","true","true","false","true","""event"",""trial"",""time""
""fullscreenenter"",""5"",""23740""
","
","
","""event"",""trial"",""time""
""fullscreenenter"",""5"",""23740""
","
","","images/earth.jpg","","","","","","","","","","","","","","fixation","","","","","",""
"d3-animate-choice","228","564846","0.0-76.0-0.31","1338","3567","12","Male","true","true","false","true","""event"",""trial"",""time""
""fullscreenenter"",""5"",""23740""
","
","
","""event"",""trial"",""time""
""fullscreenenter"",""5"",""23740""
","
","201.5","","49","","","3000","1","","","images/earth.jpg","images/rocket2","images/rocket1","null","images/rocket1","","1","real","null","1","","",""
"d3-animate-choice","229","567613","0.0-76.0-1.31","1338","3567","12","Male","true","true","false","true","""event"",""trial"",""time""
""fullscreenenter"",""5"",""23740""
","
","
","""event"",""trial"",""time""
""fullscreenenter"",""5"",""23740""
","
","760.8999999761581","","49","","","3000","1","","","images/purpleplanet.jpg","images/alien4","images/alien3","images/rocket1","images/alien3","images/t.png","2","real","false","1","rare","1","2022-11-03 02:14:51.136"
"two-step-fixation","230","568621","0.0-76.0-2.31","1338","3567","12","Male","true","true","false","true","""event"",""trial"",""time""
""fullscreenenter"",""5"",""23740""
","
","
","""event"",""trial"",""time""
""fullscreenenter"",""5"",""23740""
","
","","images/earth.jpg","","","","","","","","","","","","","","fixation","","","","","",""
"d3-animate-choice","231","571245","0.0-76.0-0.32","1338","3567","12","Male","true","true","false","true","""event"",""trial"",""time""
""fullscreenenter"",""5"",""23740""
","
","
","""event"",""trial"",""time""
""fullscreenenter"",""5"",""23740""
","
","617","","49","","","3000","1","1313.5,2145.099999964237","49,49","images/earth.jpg","images/rocket2","images/rocket1","null","images/rocket1","","1","real","null","1","","",""
