"trial_type","trial_index","time_elapsed","internal_node_id","participant_id","subject_id","age","gender","rocket_sides","red_planet_first_rocket","red_display_order","purple_display_order","interactions","blur_events","focus_events","fullscreenenter_events","fullscreenexit_events","rt","stimulus","key_press","button_pressed","success","duration","valid_pressed","rts","keys","planet_text","right_text","left_text","center_text","chosen_text","reward_text","trial_stage","practice_trial","transition_type","choice","transition","reward","timestamp"
"pavlovia","0","4","0.0-0.0","3207","4990","25","Female","true","false","false","false","
","
","
","
","
","","","","","","","","","","","","","","","","","","","","","",""
"html-keyboard-response","1","5003","0.0-1.0","3207","4990","25","Female","true","false","false","false","
","
","
","
","
","4997.899999976158","Welcome! Press the space bar to begin.","32","","","","","","","","","","","","","","","","","","",""
"audio-keyboard-response","2","7014","0.0-2.0","3207","4990","25","Female","true","false","false","false","
","
","
","
","
","1611","audio/beep_loop.wav","32","","","","","","","","","","","","","","","","","","",""
"audio-button-response","3","9408","0.0-3.0","3207","4990","25","Female","true","false","false","false","
","
","
","
","
","NaN","audio/fish.mp3","","1","","","","","","","","","","","","","","","","","",""
"audio-button-response","4","12368","0.0-4.0","3207","4990","25","Female","true","false","false","false","""event"",""trial"",""time""
""fullscreenenter"",""5"",""15506""
","
","
","""event"",""trial"",""time""
""fullscreenenter"",""5"",""15506""
","
","NaN","audio/tiger.mp3","","4","","","","","","","","","","","","","","","","","",""
"fullscreen","5","16476","0.0-5.0","3207","4990","25","Female","true","false","false","false","""event"",""trial"",""time""
""fullscreenenter"",""5"",""15506""
","
","
","""event"",""trial"",""time""
""fullscreenenter"",""5"",""15506""
","
","","","","","true","","","","","","","","","","","","","","","","",""
"d3-instructions","6","23726","0.0-6.0","3207","4990","25","Female","true","false","false","false","""event"",""trial"",""time""
""fullscreenenter"",""5"",""15506""
","
","
","""event"",""trial"",""time""
""fullscreenenter"",""5"",""15506""
","
","","","","","","","","","","","","","","","","","","","","","",""
"d3-instructions","7","31688","0.0-7.0","3207","4990","25","Female","true","false","false","false","""event"",""trial"",""time""
""fullscreenenter"",""5"",""15506""
","
","
","""event"",""trial"",""time""
""fullscreenenter"",""5"",""15506""
","
","","","","","","","","","","","","","","","","","","","","","",""
"d3-instructions","8","35774","0.0-8.0","3207","4990","25","Female","true","false","false","false","""event"",""trial"",""time""
""fullscreenenter"",""5"",""15506""
","
","
","""event"",""trial"",""time""
""fullscreenenter"",""5"",""15506""
","
","","","","","","","","","","","","","","","","","","","","","",""
"d3-instructions","9","44664","0.0-9.0","3207","4990","25","Female","true","false","false","false","""event"",""trial"",""time""
""fullscreenenter"",""5"",""15506""
","
","
","""event"",""trial"",""time""
""fullscreenenter"",""5"",""15506""
","
","","","","","","","","","","","","","","","","","","","","","",""
"d3-instructions","10","54043","0.0-10.0","3207","4990","25","Female","true","false","false","false","""event"",""trial"",""time""
""fullscreenenter"",""5"",""15506""
","
","
","""event"",""trial"",""time""
""fullscreenenter"",""5"",""15506""
","
","","","","","","","","","","","","","","","","","","","","","",""
"d3-animate-choice","11","57787","0.0-11.0","3207","4990","25","Female","true","false","false","false","""event"",""trial"",""time""
""fullscreenenter"",""5"",""15506""
","
","
","""event"",""trial"",""time""
""fullscreenenter"",""5"",""15506""
","
","1714.9000000953674","","49","","","3000","1","","","images/tutgreenplanet.jpg","images/tutalien1","images/tutalien2","null","images/tutalien2","","NA","practice","null","","","",""
"d3-animate-choice","12","60867","0.0-12.0","3207","4990","25","Female","true","false","false","false","""event"",""trial"",""time""
""fullscreenenter"",""5"",""15506""
","
","
","""event"",""trial"",""time""
""fullscreenenter"",""5"",""15506""
","
","1061.3999999761581","","48","","","3000","1","","","images/tutgreenplanet.jpg","images/tutalien1","images/tutalien2","null","images/tutalien1","","NA","practice","null","","","",""
"d3-animate-choice","13","63757","0.0-13.0","3207","4990","25","Female","true","false","false","false","""event"",""trial"",""time""
""fullscreenenter"",""5"",""15506""
","
","
","""event"",""trial"",""time""
""fullscreenenter"",""5"",""15506""
","
","870","","49","","","3000","1","","","images/tutgreenplanet.jpg","images/tutalien1","images/tutalien2","null","images/tutalien2","","NA","practice","null","","","",""
"d3-animate-choice","14","66198","0.0-14.0","3207","4990","25","Female","true","false","false","false","""event"",""trial"",""time""
""fullscreenenter"",""5"",""15506""
","
","
","""event"",""trial"",""time""
""fullscreenenter"",""5"",""15506""
","
","429.3000000715256","","48","","","3000","1","","","images/tutgreenplanet.jpg","images/tutalien1","images/tutalien2","null","images/tutalien1","","NA","practice","null","","","",""
"d3-instructions","15","73419","0.0-15.0","3207","4990","25","Female","true","false","false","false","""event"",""trial"",""time""
""fullscreenenter"",""5"",""15506""
","
","
","""event"",""trial"",""time""
""fullscreenenter"",""5"",""15506""
","
","","","","","","","","","","","","","","","","","","","","","",""
"d3-instructions","16","77731","0.0-16.0","3207","4990","25","Female","true","false","false","false","""event"",""trial"",""time""
""fullscreenenter"",""5"",""15506""
","
","
","""event"",""trial"",""time""
""fullscreenenter"",""5"",""15506""
","
","","","","","","","","","","","","","","","","","","","","","",""
"d3-instructions","17","84280","0.0-17.0","3207","4990","25","Female","true","false","false","false","""event"",""trial"",""time""
""fullscreenenter"",""5"",""15506""
","
","
","""event"",""trial"",""time""
""fullscreenenter"",""5"",""15506""
","
","","","","","","","","","","","","","","","","","","","","","",""
"d3-instructions","18","90428","0.0-18.0","3207","4990","25","Female","true","false","false","false","""event"",""trial"",""time""
""fullscreenenter"",""5"",""15506""
","
","
","""event"",""trial"",""time""
""fullscreenenter"",""5"",""15506""
","
","","","","","","","","","","","","","","","","","","","","","",""
"d3-instructions","19","98124","0.0-19.0","3207","4990","25","Female","true","false","false","false","""event"",""trial"",""time""
""fullscreenenter"",""5"",""15506""
","
","
","""event"",""trial"",""time""
""fullscreenenter"",""5"",""15506""
","
","","","","","","","","","","","","","","","","","","","","","",""
"d3-animate-choice","20","101495","0.0-20.0","3207","4990","25","Female","true","false","false","false","""event"",""trial"",""time""
""fullscreenenter"",""5"",""15506""
","
","
","""event"",""trial"",""time""
""fullscreenenter"",""5"",""15506""
","
","1350.1000000238419","","49","","","3000","1","","","images/tutyellowplanet.jpg","null","images/tutalien3","null","images/tutalien3","images/t.png","NA","practice","null","","","",""
"d3-animate-choice","21","103805","0.0-21.0","3207","4990","25","Female","true","false","false","false","""event"",""trial"",""time""
""fullscreenenter"",""5"",""15506""
","
","
","""event"",""trial"",""time""
""fullscreenenter"",""5"",""15506""
","
","299.7000000476837","","49","","","3000","1","","","images/tutyellowplanet.jpg","null","images/tutalien3","null","images/tutalien3","images/t.png","NA","practice","null","","","",""
"d3-animate-choice","22","106236","0.0-22.0","3207","4990","25","Female","true","false","false","false","""event"",""trial"",""time""
""fullscreenenter"",""5"",""15506""
","
","
","""event"",""trial"",""time""
""fullscreenenter"",""5"",""15506""
","
","405","","49","","","3000","1","","","images/tutyellowplanet.jpg","null","images/tutalien3","null","images/tutalien3","images/t.png","NA","practice","null","","","",""
"d3-animate-choice","23","108506","0.0-23.0","3207","4990","25","Female","true","false","false","false","""event"",""trial"",""time""
""fullscreenenter"",""5"",""15506""
","
","
","""event"",""trial"",""time""
""fullscreenenter"",""5"",""15506""
","
","262.7999999523163","","49","","","3000","1","","","images/tutyellowplanet.jpg","null","images/tutalien3","null","images/tutalien3","images/t.png","NA","practice","null","","","",""
"d3-animate-choice","24","110766","0.0-24.0","3207","4990","25","Female","true","false","false","false","""event"",""trial"",""time""
""fullscreenenter"",""5"",""15506""
","
","
","""event"",""trial"",""time""
""fullscreenenter"",""5"",""15506""
","
","241.70000004768372","","49","","","3000","1","","","images/tutyellowplanet.jpg","null","images/tutalien3","null","images/tutalien3","images/nothing.png","NA","practice","null","","","",""
"d3-animate-choice","25","113125","0.0-25.0","3207","4990","25","Female","true","false","false","false","""event"",""trial"",""time""
""fullscreenenter"",""5"",""15506""
","
","
","""event"",""trial"",""time""
""fullscreenenter"",""5"",""15506""
","
","343.8000000715256","","49","","","3000","1","","","images/tutyellowplanet.jpg","null","images/tutalien3","null","images/tutalien3","images/t.png","NA","practice","null","","","",""
"d3-animate-choice","26","115506","0.0-26.0","3207","4990","25","Female","true","false","false","false","""event"",""trial"",""time""
""fullscreenenter"",""5"",""15506""
","
","
","""event"",""trial"",""time""
""fullscreenenter"",""5"",""15506""
","
","359.7000000476837","","49","","","3000","1","","","images/tutyellowplanet.jpg","null","images/tutalien3","null","images/tutalien3","images/t.png","NA","practice","null","","","",""
"d3-animate-choice","27","117886","0.0-27.0","3207","4990","25","Female","true","false","false","false","""event"",""trial"",""time""
""fullscreenenter"",""5"",""15506""
","
","
","""event"",""trial"",""time""
""fullscreenenter"",""5"",""15506""
","
","361","","49","","","3000","1","","","images/tutyellowplanet.jpg","null","images/tutalien3","null","images/tutalien3","images/t.png","NA","practice","null","","","",""
"d3-animate-choice","28","120196","0.0-28.0","3207","4990","25","Female","true","false","false","false","""event"",""trial"",""time""
""fullscreenenter"",""5"",""15506""
","
","
","""event"",""trial"",""time""
""fullscreenenter"",""5"",""15506""
","
","299.5","","49","","","3000","1","","","images/tutyellowplanet.jpg","null","images/tutalien3","null","images/tutalien3","images/t.png","NA","practice","null","","","",""
"d3-animate-choice","29","122975","0.0-29.0","3207","4990","25","Female","true","false","false","false","""event"",""trial"",""time""
""fullscreenenter"",""5"",""15506""
","
","
","""event"",""trial"",""time""
""fullscreenenter"",""5"",""15506""
","
","763.3999999761581","","49","","","3000","1","","","images/tutyellowplanet.jpg","null","images/tutalien3","null","images/tutalien3","images/t.png","NA","practice","null","","","",""
"d3-instructions","30","125668","0.0-30.0","3207","4990","25","Female","true","false","false","false","""event"",""trial"",""time""
""fullscreenenter"",""5"",""15506""
","
","
","""event"",""trial"",""time""
""fullscreenenter"",""5"",""15506""
","
","","","","","","","","","","","","","","","","","","","","","",""
"d3-instructions","31","129602","0.0-31.0","3207","4990","25","Female","true","false","false","false","""event"",""trial"",""time""
""fullscreenenter"",""5"",""15506""
","
","
","""event"",""trial"",""time""
""fullscreenenter"",""5"",""15506""
","
","","","","","","","","","","","","","","","","","","","","","",""
"d3-instructions","32","133615","0.0-32.0","3207","4990","25","Female","true","false","false","false","""event"",""trial"",""time""
""fullscreenenter"",""5"",""15506""
","
","
","""event"",""trial"",""time""
""fullscreenenter"",""5"",""15506""
","
","","","","","","","","","","","","","","","","","","","","","",""
"d3-instructions","33","138183","0.0-33.0","3207","4990","25","Female","true","false","false","false","""event"",""trial"",""time""
""fullscreenenter"",""5"",""15506""
","
","
","""event"",""trial"",""time""
""fullscreenenter"",""5"",""15506""
","
","","","","","","","","","","","","","","","","","","","","","",""
"d3-animate-choice","34","141316","0.0-34.0","3207","4990","25","Female","true","false","false","false","""event"",""trial"",""time""
""fullscreenenter"",""5"",""15506""
","
","
","""event"",""trial"",""time""
""fullscreenenter"",""5"",""15506""
","
","1110.5","","49","","","3000","1","","","images/tutgreenplanet.jpg","images/tutalien1","images/tutalien2","null","images/tutalien2","images/t.png","NA","practice","null","","","",""
"d3-animate-choice","35","143747","0.0-35.0","3207","4990","25","Female","true","false","false","false","""event"",""trial"",""time""
""fullscreenenter"",""5"",""15506""
","
","
","""event"",""trial"",""time""
""fullscreenenter"",""5"",""15506""
","
","405.6999999284744","","49","","","3000","1","1868.1000000238419","49","images/tutgreenplanet.jpg","images/tutalien1","images/tutalien2","null","images/tutalien2","images/t.png","NA","practice","null","","","",""
"d3-animate-choice","36","146067","0.0-36.0","3207","4990","25","Female","true","false","false","false","""event"",""trial"",""time""
""fullscreenenter"",""5"",""15506""
","
","
","""event"",""trial"",""time""
""fullscreenenter"",""5"",""15506""
","
","299.09999990463257","","49","","","3000","1","","","images/tutgreenplanet.jpg","images/tutalien1","images/tutalien2","null","images/tutalien2","images/t.png","NA","practice","null","","","",""
"d3-animate-choice","37","148397","0.0-37.0","3207","4990","25","Female","true","false","false","false","""event"",""trial"",""time""
""fullscreenenter"",""5"",""15506""
","
","
","""event"",""trial"",""time""
""fullscreenenter"",""5"",""15506""
","
","313.7999999523163","","49","","","3000","1","","","images/tutgreenplanet.jpg","images/tutalien1","images/tutalien2","null","images/tutalien2","images/t.png","NA","practice","null","","","",""
"d3-animate-choice","38","150677","0.0-38.0","3207","4990","25","Female","true","false","false","false","""event"",""trial"",""time""
""fullscreenenter"",""5"",""15506""
","
","
","""event"",""trial"",""time""
""fullscreenenter"",""5"",""15506""
","
","269.5","","49","","","3000","1","","","images/tutgreenplanet.jpg","images/tutalien1","images/tutalien2","null","images/tutalien2","images/t.png","NA","practice","null","","","",""
"d3-animate-choice","39","152937","0.0-39.0","3207","4990","25","Female","true","false","false","false","""event"",""trial"",""time""
""fullscreenenter"",""5"",""15506""
","
","
","""event"",""trial"",""time""
""fullscreenenter"",""5"",""15506""
","
","249.60000002384186","","49","","","3000","1","","","images/tutgreenplanet.jpg","images/tutalien1","images/tutalien2","null","images/tutalien2","images/t.png","NA","practice","null","","","",""
"d3-animate-choice","40","155216","0.0-40.0","3207","4990","25","Female","true","false","false","false","""event"",""trial"",""time""
""fullscreenenter"",""5"",""15506""
","
","
","""event"",""trial"",""time""
""fullscreenenter"",""5"",""15506""
","
","258.8000000715256","","49","","","3000","1","","","images/tutgreenplanet.jpg","images/tutalien1","images/tutalien2","null","images/tutalien2","images/t.png","NA","practice","null","","","",""
"d3-animate-choice","41","157476","0.0-41.0","3207","4990","25","Female","true","false","false","false","""event"",""trial"",""time""
""fullscreenenter"",""5"",""15506""
","
","
","""event"",""trial"",""time""
""fullscreenenter"",""5"",""15506""
","
","238.80000007152557","","49","","","3000","1","","","images/tutgreenplanet.jpg","images/tutalien1","images/tutalien2","null","images/tutalien2","images/t.png","NA","practice","null","","","",""
"d3-animate-choice","42","159756","0.0-42.0","3207","4990","25","Female","true","false","false","false","""event"",""trial"",""time""
""fullscreenenter"",""5"",""15506""
","
","
","""event"",""trial"",""time""
""fullscreenenter"",""5"",""15506""
","
","264.89999997615814","","49","","","3000","1","","","images/tutgreenplanet.jpg","images/tutalien1","images/tutalien2","null","images/tutalien2","images/nothing.png","NA","practice","null","","","",""
"d3-animate-choice","43","162136","0.0-43.0","3207","4990","25","Female","true","false","false","false","""event"",""trial"",""time""
""fullscreenenter"",""5"",""15506""
","
","
","""event"",""trial"",""time""
""fullscreenenter"",""5"",""15506""
","
","355.89999997615814","","49","","","3000","1","","","images/tutgreenplanet.jpg","images/tutalien1","images/tutalien2","null","images/tutalien2","images/nothing.png","NA","practice","null","","","",""
"d3-instructions","44","165429","0.0-44.0","3207","4990","25","Female","true","false","false","false","""event"",""trial"",""time""
""fullscreenenter"",""5"",""15506""
","
","
","""event"",""trial"",""time""
""fullscreenenter"",""5"",""15506""
","
","","","","","","","","","","","","","","","","","","","","","",""
"d3-instructions","45","168517","0.0-45.0","3207","4990","25","Female","true","false","false","false","""event"",""trial"",""time""
""fullscreenenter"",""5"",""15506""
","
","
","""event"",""trial"",""time""
""fullscreenenter"",""5"",""15506""
","
","","","","","","","","","","","","","","","","","","","","","",""
"d3-instructions","46","174188","0.0-46.0","3207","4990","25","Female","true","false","false","false","""event"",""trial"",""time""
""fullscreenenter"",""5"",""15506""
","
","
","""event"",""trial"",""time""
""fullscreenenter"",""5"",""15506""
","
","","","","","","","","","","","","","","","","","","","","","",""
"d3-instructions","47","178872","0.0-47.0","3207","4990","25","Female","true","false","false","false","""event"",""trial"",""time""
""fullscreenenter"",""5"",""15506""
","
","
","""event"",""trial"",""time""
""fullscreenenter"",""5"",""15506""
","
","","","","","","","","","","","","","","","","","","","","","",""
"d3-instructions","48","182164","0.0-48.0","3207","4990","25","Female","true","false","false","false","""event"",""trial"",""time""
""fullscreenenter"",""5"",""15506""
","
","
","""event"",""trial"",""time""
""fullscreenenter"",""5"",""15506""
","
","","","","","","","","","","","","","","","","","","","","","",""
"d3-instructions","49","186203","0.0-49.0","3207","4990","25","Female","true","false","false","false","""event"",""trial"",""time""
""fullscreenenter"",""5"",""15506""
","
","
","""event"",""trial"",""time""
""fullscreenenter"",""5"",""15506""
","
","","","","","","","","","","","","","","","","","","","","","",""
"d3-instructions","50","189413","0.0-50.0","3207","4990","25","Female","true","false","false","false","""event"",""trial"",""time""
""fullscreenenter"",""5"",""15506""
","
","
","""event"",""trial"",""time""
""fullscreenenter"",""5"",""15506""
","
","","","","","","","","","","","","","","","","","","","","","",""
"d3-instructions","51","195183","0.0-51.0","3207","4990","25","Female","true","false","false","false","""event"",""trial"",""time""
""fullscreenenter"",""5"",""15506""
","
","
","""event"",""trial"",""time""
""fullscreenenter"",""5"",""15506""
","
","","","","","","","","","","","","","","","","","","","","","",""
"d3-instructions","52","197561","0.0-52.0","3207","4990","25","Female","true","false","false","false","""event"",""trial"",""time""
""fullscreenenter"",""5"",""15506""
","
","
","""event"",""trial"",""time""
""fullscreenenter"",""5"",""15506""
","
","","","","","","","","","","","","","","","","","","","","","",""
"d3-instructions","53","207963","0.0-53.0","3207","4990","25","Female","true","false","false","false","""event"",""trial"",""time""
""fullscreenenter"",""5"",""15506""
","
","
","""event"",""trial"",""time""
""fullscreenenter"",""5"",""15506""
","
","","","","","","","","","","","","","","","","","","","","","",""
"d3-instructions","54","224395","0.0-54.0","3207","4990","25","Female","true","false","false","false","""event"",""trial"",""time""
""fullscreenenter"",""5"",""15506""
","
","
","""event"",""trial"",""time""
""fullscreenenter"",""5"",""15506""
","
","","","","","","","","","","","","","","","","","","","","","",""
"d3-instructions","55","230086","0.0-55.0","3207","4990","25","Female","true","false","false","false","""event"",""trial"",""time""
""fullscreenenter"",""5"",""15506""
","
","
","""event"",""trial"",""time""
""fullscreenenter"",""5"",""15506""
","
","","","","","","","","","","","","","","","","","","","","","",""
"d3-instructions","56","237480","0.0-56.0","3207","4990","25","Female","true","false","false","false","""event"",""trial"",""time""
""fullscreenenter"",""5"",""15506""
","
","
","""event"",""trial"",""time""
""fullscreenenter"",""5"",""15506""
","
","","","","","","","","","","","","","","","","","","","","","",""
"d3-instructions","57","250125","0.0-57.0","3207","4990","25","Female","true","false","false","false","""event"",""trial"",""time""
""fullscreenenter"",""5"",""15506""
","
","
","""event"",""trial"",""time""
""fullscreenenter"",""5"",""15506""
","
","","","","","","","","","","","","","","","","","","","","","",""
"d3-instructions","58","254964","0.0-58.0","3207","4990","25","Female","true","false","false","false","""event"",""trial"",""time""
""fullscreenenter"",""5"",""15506""
","
","
","""event"",""trial"",""time""
""fullscreenenter"",""5"",""15506""
","
","","","","","","","","","","","","","","","","","","","","","",""
"d3-instructions","59","259098","0.0-59.0","3207","4990","25","Female","true","false","false","false","""event"",""trial"",""time""
""fullscreenenter"",""5"",""15506""
","
","
","""event"",""trial"",""time""
""fullscreenenter"",""5"",""15506""
","
","","","","","","","","","","","","","","","","","","","","","",""
"d3-instructions","60","268634","0.0-60.0","3207","4990","25","Female","true","false","false","false","""event"",""trial"",""time""
""fullscreenenter"",""5"",""15506""
","
","
","""event"",""trial"",""time""
""fullscreenenter"",""5"",""15506""
","
","","","","","","","","","","","","","","","","","","","","","",""
"d3-animate-choice","61","271791","0.0-61.0-0.0","3207","4990","25","Female","true","false","false","false","""event"",""trial"",""time""
""fullscreenenter"",""5"",""15506""
","
","
","""event"",""trial"",""time""
""fullscreenenter"",""5"",""15506""
","
","1133.6000000238419","","49","","","3000","1","","","images/earth.jpg","images/tutrocket2","images/tutrocket1","null","images/tutrocket1","","1","practice","null","1","","",""
"d3-animate-choice","62","274787","0.0-61.0-1.0","3207","4990","25","Female","true","false","false","false","""event"",""trial"",""time""
""fullscreenenter"",""5"",""15506""
","
","
","""event"",""trial"",""time""
""fullscreenenter"",""5"",""15506""
","
","974.7999999523163","","49","","","3000","1","","","images/tutyellowplanet.jpg","images/tutalien4","images/tutalien3","images/tutrocket1","images/tutalien3","images/nothing.png","2","practice","true","1","common","0","2022-12-05 16:54:18.519"
"two-step-fixation","63","275807","0.0-61.0-2.0","3207","4990","25","Female","true","false","false","false","""event"",""trial"",""time""
""fullscreenenter"",""5"",""15506""
","
","
","""event"",""trial"",""time""
""fullscreenenter"",""5"",""15506""
","
","","images/earth.jpg","","","","","","","","","","","","","","fixation","","","","","",""
"d3-animate-choice","64","278166","0.0-61.0-0.1","3207","4990","25","Female","true","false","false","false","""event"",""trial"",""time""
""fullscreenenter"",""5"",""15506""
","
","
","""event"",""trial"",""time""
""fullscreenenter"",""5"",""15506""
","
","353.60000002384186","","49","","","3000","1","","","images/earth.jpg","images/tutrocket2","images/tutrocket1","null","images/tutrocket1","","1","practice","null","1","","",""
"d3-animate-choice","65","280986","0.0-61.0-1.1","3207","4990","25","Female","true","false","false","false","""event"",""trial"",""time""
""fullscreenenter"",""5"",""15506""
","
","
","""event"",""trial"",""time""
""fullscreenenter"",""5"",""15506""
","
","806","","48","","","3000","1","","","images/tutyellowplanet.jpg","images/tutalien4","images/tutalien3","images/tutrocket1","images/tutalien4","images/t.png","2","practice","true","2","common","1","2022-12-05 16:54:24.718"
"two-step-fixation","66","282001","0.0-61.0-2.1","3207","4990","25","Female","true","false","false","false","""event"",""trial"",""time""
""fullscreenenter"",""5"",""15506""
","
","
","""event"",""trial"",""time""
""fullscreenenter"",""5"",""15506""
","
","","images/earth.jpg","","","","","","","","","","","","","","fixation","","","","","",""
"d3-animate-choice","67","285006","0.0-61.0-0.2","3207","4990","25","Female","true","false","false","false","""event"",""trial"",""time""
""fullscreenenter"",""5"",""15506""
","
","
","""event"",""trial"",""time""
""fullscreenenter"",""5"",""15506""
","
","981.6000000238419","","49","","","3000","1","","","images/earth.jpg","images/tutrocket2","images/tutrocket1","null","images/tutrocket1","","1","practice","null","1","","",""
"d3-animate-choice","68","288307","0.0-61.0-1.2","3207","4990","25","Female","true","false","false","false","""event"",""trial"",""time""
""fullscreenenter"",""5"",""15506""
","
","
","""event"",""trial"",""time""
""fullscreenenter"",""5"",""15506""
","
","1281.4000000953674","","49","","","3000","1","","","images/tutgreenplanet.jpg","images/tutalien2","images/tutalien1","images/tutrocket1","images/tutalien1","images/t.png","2","practice","false","1","rare","1","2022-12-05 16:54:32.039"
"two-step-fixation","69","289316","0.0-61.0-2.2","3207","4990","25","Female","true","false","false","false","""event"",""trial"",""time""
""fullscreenenter"",""5"",""15506""
","
","
","""event"",""trial"",""time""
""fullscreenenter"",""5"",""15506""
","
","","images/earth.jpg","","","","","","","","","","","","","","fixation","","","","","",""
"d3-animate-choice","70","291746","0.0-61.0-0.3","3207","4990","25","Female","true","false","false","false","""event"",""trial"",""time""
""fullscreenenter"",""5"",""15506""
","
","
","""event"",""trial"",""time""
""fullscreenenter"",""5"",""15506""
","
","417.2999999523163","","49","","","3000","1","","","images/earth.jpg","images/tutrocket2","images/tutrocket1","null","images/tutrocket1","","1","practice","null","1","","",""
"d3-animate-choice","71","294105","0.0-61.0-1.3","3207","4990","25","Female","true","false","false","false","""event"",""trial"",""time""
""fullscreenenter"",""5"",""15506""
","
","
","""event"",""trial"",""time""
""fullscreenenter"",""5"",""15506""
","
","353.7999999523163","","48","","","3000","1","","","images/tutgreenplanet.jpg","images/tutalien2","images/tutalien1","images/tutrocket1","images/tutalien2","images/nothing.png","2","practice","false","2","rare","0","2022-12-05 16:54:37.838"
"two-step-fixation","72","295114","0.0-61.0-2.3","3207","4990","25","Female","true","false","false","false","""event"",""trial"",""time""
""fullscreenenter"",""5"",""15506""
","
","
","""event"",""trial"",""time""
""fullscreenenter"",""5"",""15506""
","
","","images/earth.jpg","","","","","","","","","","","","","","fixation","","","","","",""
"d3-animate-choice","73","297442","0.0-61.0-0.4","3207","4990","25","Female","true","false","false","false","""event"",""trial"",""time""
""fullscreenenter"",""5"",""15506""
","
","
","""event"",""trial"",""time""
""fullscreenenter"",""5"",""15506""
","
","321.09999990463257","","49","","","3000","1","","","images/earth.jpg","images/tutrocket2","images/tutrocket1","null","images/tutrocket1","","1","practice","null","1","","",""
"d3-animate-choice","74","300297","0.0-61.0-1.4","3207","4990","25","Female","true","false","false","false","""event"",""trial"",""time""
""fullscreenenter"",""5"",""15506""
","
","
","""event"",""trial"",""time""
""fullscreenenter"",""5"",""15506""
","
","850.8000000715256","","49","","","3000","1","","","images/tutyellowplanet.jpg","images/tutalien4","images/tutalien3","images/tutrocket1","images/tutalien3","images/nothing.png","2","practice","true","1","common","0","2022-12-05 16:54:44.030"
"two-step-fixation","75","301305","0.0-61.0-2.4","3207","4990","25","Female","true","false","false","false","""event"",""trial"",""time""
""fullscreenenter"",""5"",""15506""
","
","
","""event"",""trial"",""time""
""fullscreenenter"",""5"",""15506""
","
","","images/earth.jpg","","","","","","","","","","","","","","fixation","","","","","",""
"d3-animate-choice","76","303625","0.0-61.0-0.5","3207","4990","25","Female","true","false","false","false","""event"",""trial"",""time""
""fullscreenenter"",""5"",""15506""
","
","
","""event"",""trial"",""time""
""fullscreenenter"",""5"",""15506""
","
","311.8000000715256","","49","","","3000","1","","","images/earth.jpg","images/tutrocket2","images/tutrocket1","null","images/tutrocket1","","1","practice","null","1","","",""
"d3-animate-choice","77","306970","0.0-61.0-1.5","3207","4990","25","Female","true","false","false","false","""event"",""trial"",""time""
""fullscreenenter"",""5"",""15506""
","
","
","""event"",""trial"",""time""
""fullscreenenter"",""5"",""15506""
","
","1340.1999999284744","","49","","","3000","1","","","images/tutyellowplanet.jpg","images/tutalien4","images/tutalien3","images/tutrocket1","images/tutalien3","images/nothing.png","2","practice","true","1","common","0","2022-12-05 16:54:50.702"
"two-step-fixation","78","307977","0.0-61.0-2.5","3207","4990","25","Female","true","false","false","false","""event"",""trial"",""time""
""fullscreenenter"",""5"",""15506""
","
","
","""event"",""trial"",""time""
""fullscreenenter"",""5"",""15506""
","
","","images/earth.jpg","","","","","","","","","","","","","","fixation","","","","","",""
"d3-animate-choice","79","310311","0.0-61.0-0.6","3207","4990","25","Female","true","false","false","false","""event"",""trial"",""time""
""fullscreenenter"",""5"",""15506""
","
","
","""event"",""trial"",""time""
""fullscreenenter"",""5"",""15506""
","
","325.39999997615814","","49","","","3000","1","","","images/earth.jpg","images/tutrocket2","images/tutrocket1","null","images/tutrocket1","","1","practice","null","1","","",""
"d3-animate-choice","80","313511","0.0-61.0-1.6","3207","4990","25","Female","true","false","false","false","""event"",""trial"",""time""
""fullscreenenter"",""5"",""15506""
","
","
","""event"",""trial"",""time""
""fullscreenenter"",""5"",""15506""
","
","1196","","49","","","3000","1","","","images/tutgreenplanet.jpg","images/tutalien2","images/tutalien1","images/tutrocket1","images/tutalien1","images/nothing.png","2","practice","false","1","rare","0","2022-12-05 16:54:57.243"
"two-step-fixation","81","314522","0.0-61.0-2.6","3207","4990","25","Female","true","false","false","false","""event"",""trial"",""time""
""fullscreenenter"",""5"",""15506""
","
","
","""event"",""trial"",""time""
""fullscreenenter"",""5"",""15506""
","
","","images/earth.jpg","","","","","","","","","","","","","","fixation","","","","","",""
"d3-animate-choice","82","316826","0.0-61.0-0.7","3207","4990","25","Female","true","false","false","false","""event"",""trial"",""time""
""fullscreenenter"",""5"",""15506""
","
","
","""event"",""trial"",""time""
""fullscreenenter"",""5"",""15506""
","
","299.5","","49","","","3000","1","","","images/earth.jpg","images/tutrocket2","images/tutrocket1","null","images/tutrocket1","","1","practice","null","1","","",""
"d3-animate-choice","83","319777","0.0-61.0-1.7","3207","4990","25","Female","true","false","false","false","""event"",""trial"",""time""
""fullscreenenter"",""5"",""15506""
","
","
","""event"",""trial"",""time""
""fullscreenenter"",""5"",""15506""
","
","942.6999999284744","","48","","","3000","1","","","images/tutgreenplanet.jpg","images/tutalien2","images/tutalien1","images/tutrocket1","images/tutalien2","images/nothing.png","2","practice","false","2","rare","0","2022-12-05 16:55:03.509"
"two-step-fixation","84","320785","0.0-61.0-2.7","3207","4990","25","Female","true","false","false","false","""event"",""trial"",""time""
""fullscreenenter"",""5"",""15506""
","
","
","""event"",""trial"",""time""
""fullscreenenter"",""5"",""15506""
","
","","images/earth.jpg","","","","","","","","","","","","","","fixation","","","","","",""
"d3-animate-choice","85","323161","0.0-61.0-0.8","3207","4990","25","Female","true","false","false","false","""event"",""trial"",""time""
""fullscreenenter"",""5"",""15506""
","
","
","""event"",""trial"",""time""
""fullscreenenter"",""5"",""15506""
","
","365.3000000715256","","49","","","3000","1","","","images/earth.jpg","images/tutrocket2","images/tutrocket1","null","images/tutrocket1","","1","practice","null","1","","",""
"d3-animate-choice","86","326018","0.0-61.0-1.8","3207","4990","25","Female","true","false","false","false","""event"",""trial"",""time""
""fullscreenenter"",""5"",""15506""
","
","
","""event"",""trial"",""time""
""fullscreenenter"",""5"",""15506""
","
","851.5","","49","","","3000","1","","","images/tutgreenplanet.jpg","images/tutalien2","images/tutalien1","images/tutrocket1","images/tutalien1","images/nothing.png","2","practice","false","1","rare","0","2022-12-05 16:55:09.750"
"two-step-fixation","87","327026","0.0-61.0-2.8","3207","4990","25","Female","true","false","false","false","""event"",""trial"",""time""
""fullscreenenter"",""5"",""15506""
","
","
","""event"",""trial"",""time""
""fullscreenenter"",""5"",""15506""
","
","","images/earth.jpg","","","","","","","","","","","","","","fixation","","","","","",""
"d3-animate-choice","88","330210","0.0-61.0-0.9","3207","4990","25","Female","true","false","false","false","""event"",""trial"",""time""
""fullscreenenter"",""5"",""15506""
","
","
","""event"",""trial"",""time""
""fullscreenenter"",""5"",""15506""
","
","1175.1000000238419","","48","","","3000","1","","","images/earth.jpg","images/tutrocket2","images/tutrocket1","null","images/tutrocket2","","1","practice","null","2","","",""
"d3-animate-choice","89","332930","0.0-61.0-1.9","3207","4990","25","Female","true","false","false","false","""event"",""trial"",""time""
""fullscreenenter"",""5"",""15506""
","
","
","""event"",""trial"",""time""
""fullscreenenter"",""5"",""15506""
","
","713.1000000238419","","48","","","3000","1","","","images/tutyellowplanet.jpg","images/tutalien4","images/tutalien3","images/tutrocket2","images/tutalien4","images/t.png","2","practice","false","2","rare","1","2022-12-05 16:55:16.662"
"two-step-fixation","90","333938","0.0-61.0-2.9","3207","4990","25","Female","true","false","false","false","""event"",""trial"",""time""
""fullscreenenter"",""5"",""15506""
","
","
","""event"",""trial"",""time""
""fullscreenenter"",""5"",""15506""
","
","","images/earth.jpg","","","","","","","","","","","","","","fixation","","","","","",""
"d3-animate-choice","91","336385","0.0-61.0-0.10","3207","4990","25","Female","true","false","false","false","""event"",""trial"",""time""
""fullscreenenter"",""5"",""15506""
","
","
","""event"",""trial"",""time""
""fullscreenenter"",""5"",""15506""
","
","439.10000002384186","","48","","","3000","1","","","images/earth.jpg","images/tutrocket2","images/tutrocket1","null","images/tutrocket2","","1","practice","null","2","","",""
"d3-animate-choice","92","339328","0.0-61.0-1.10","3207","4990","25","Female","true","false","false","false","""event"",""trial"",""time""
""fullscreenenter"",""5"",""15506""
","
","
","""event"",""trial"",""time""
""fullscreenenter"",""5"",""15506""
","
","938.3999999761581","","49","","","3000","1","","","images/tutgreenplanet.jpg","images/tutalien2","images/tutalien1","images/tutrocket2","images/tutalien1","images/nothing.png","2","practice","true","1","common","0","2022-12-05 16:55:23.060"
"two-step-fixation","93","340338","0.0-61.0-2.10","3207","4990","25","Female","true","false","false","false","""event"",""trial"",""time""
""fullscreenenter"",""5"",""15506""
","
","
","""event"",""trial"",""time""
""fullscreenenter"",""5"",""15506""
","
","","images/earth.jpg","","","","","","","","","","","","","","fixation","","","","","",""
"d3-animate-choice","94","342784","0.0-61.0-0.11","3207","4990","25","Female","true","false","false","false","""event"",""trial"",""time""
""fullscreenenter"",""5"",""15506""
","
","
","""event"",""trial"",""time""
""fullscreenenter"",""5"",""15506""
","
","423.89999997615814","","48","","","3000","1","","","images/earth.jpg","images/tutrocket2","images/tutrocket1","null","images/tutrocket2","","1","practice","null","2","","",""
"d3-animate-choice","95","345601","0.0-61.0-1.11","3207","4990","25","Female","true","false","false","false","""event"",""trial"",""time""
""fullscreenenter"",""5"",""15506""
","
","
","""event"",""trial"",""time""
""fullscreenenter"",""5"",""15506""
","
","810","","48","","","3000","1","","","images/tutgreenplanet.jpg","images/tutalien2","images/tutalien1","images/tutrocket2","images/tutalien2","images/nothing.png","2","practice","true","2","common","0","2022-12-05 16:55:29.333"
"two-step-fixation","96","346609","0.0-61.0-2.11","3207","4990","25","Female","true","false","false","false","""event"",""trial"",""time""
""fullscreenenter"",""5"",""15506""
","
","
","""event"",""trial"",""time""
""fullscreenenter"",""5"",""15506""
","
","","images/earth.jpg","","","","","","","","","","","","","","fixation","","","","","",""
"d3-animate-choice","97","349094","0.0-61.0-0.12","3207","4990","25","Female","true","false","false","false","""event"",""trial"",""time""
""fullscreenenter"",""5"",""15506""
","
","
","""event"",""trial"",""time""
""fullscreenenter"",""5"",""15506""
","
","467.89999997615814","","48","","","3000","1","","","images/earth.jpg","images/tutrocket2","images/tutrocket1","null","images/tutrocket2","","1","practice","null","2","","",""
"d3-animate-choice","98","351754","0.0-61.0-1.12","3207","4990","25","Female","true","false","false","false","""event"",""trial"",""time""
""fullscreenenter"",""5"",""15506""
","
","
","""event"",""trial"",""time""
""fullscreenenter"",""5"",""15506""
","
","649.5","","49","","","3000","1","","","images/tutgreenplanet.jpg","images/tutalien2","images/tutalien1","images/tutrocket2","images/tutalien1","images/nothing.png","2","practice","true","1","common","0","2022-12-05 16:55:35.486"
"two-step-fixation","99","352764","0.0-61.0-2.12","3207","4990","25","Female","true","false","false","false","""event"",""trial"",""time""
""fullscreenenter"",""5"",""15506""
","
","
","""event"",""trial"",""time""
""fullscreenenter"",""5"",""15506""
","
","","images/earth.jpg","","","","","","","","","","","","","","fixation","","","","","",""
"d3-animate-choice","100","355074","0.0-61.0-0.13","3207","4990","25","Female","true","false","false","false","""event"",""trial"",""time""
""fullscreenenter"",""5"",""15506""
","
","
","""event"",""trial"",""time""
""fullscreenenter"",""5"",""15506""
","
","300.60000002384186","","49","","","3000","1","","","images/earth.jpg","images/tutrocket2","images/tutrocket1","null","images/tutrocket1","","1","practice","null","1","","",""
"d3-animate-choice","101","358274","0.0-61.0-1.13","3207","4990","25","Female","true","false","false","false","""event"",""trial"",""time""
""fullscreenenter"",""5"",""15506""
","
","
","""event"",""trial"",""time""
""fullscreenenter"",""5"",""15506""
","
","1188.6000000238419","","48","","","3000","1","","","images/tutgreenplanet.jpg","images/tutalien2","images/tutalien1","images/tutrocket1","images/tutalien2","images/t.png","2","practice","false","2","rare","1","2022-12-05 16:55:42.006"
"two-step-fixation","102","359282","0.0-61.0-2.13","3207","4990","25","Female","true","false","false","false","""event"",""trial"",""time""
""fullscreenenter"",""5"",""15506""
","
","
","""event"",""trial"",""time""
""fullscreenenter"",""5"",""15506""
","
","","images/earth.jpg","","","","","","","","","","","","","","fixation","","","","","",""
"d3-animate-choice","103","361553","0.0-61.0-0.14","3207","4990","25","Female","true","false","false","false","""event"",""trial"",""time""
""fullscreenenter"",""5"",""15506""
","
","
","""event"",""trial"",""time""
""fullscreenenter"",""5"",""15506""
","
","266.89999997615814","","49","","","3000","1","","","images/earth.jpg","images/tutrocket2","images/tutrocket1","null","images/tutrocket1","","1","practice","null","1","","",""
"d3-animate-choice","104","364650","0.0-61.0-1.14","3207","4990","25","Female","true","false","false","false","""event"",""trial"",""time""
""fullscreenenter"",""5"",""15506""
","
","
","""event"",""trial"",""time""
""fullscreenenter"",""5"",""15506""
","
","1088.5","","48","","","3000","1","","","images/tutyellowplanet.jpg","images/tutalien4","images/tutalien3","images/tutrocket1","images/tutalien4","images/t.png","2","practice","true","2","common","1","2022-12-05 16:55:48.382"
"two-step-fixation","105","365658","0.0-61.0-2.14","3207","4990","25","Female","true","false","false","false","""event"",""trial"",""time""
""fullscreenenter"",""5"",""15506""
","
","
","""event"",""trial"",""time""
""fullscreenenter"",""5"",""15506""
","
","","images/earth.jpg","","","","","","","","","","","","","","fixation","","","","","",""
"d3-animate-choice","106","367986","0.0-61.0-0.15","3207","4990","25","Female","true","false","false","false","""event"",""trial"",""time""
""fullscreenenter"",""5"",""15506""
","
","
","""event"",""trial"",""time""
""fullscreenenter"",""5"",""15506""
","
","324.10000002384186","","49","","","3000","1","","","images/earth.jpg","images/tutrocket2","images/tutrocket1","null","images/tutrocket1","","1","practice","null","1","","",""
"d3-animate-choice","107","371074","0.0-61.0-1.15","3207","4990","25","Female","true","false","false","false","""event"",""trial"",""time""
""fullscreenenter"",""5"",""15506""
","
","
","""event"",""trial"",""time""
""fullscreenenter"",""5"",""15506""
","
","1085.3999999761581","","48","","","3000","1","","","images/tutgreenplanet.jpg","images/tutalien2","images/tutalien1","images/tutrocket1","images/tutalien2","images/nothing.png","2","practice","false","2","rare","0","2022-12-05 16:55:54.806"
"two-step-fixation","108","372079","0.0-61.0-2.15","3207","4990","25","Female","true","false","false","false","""event"",""trial"",""time""
""fullscreenenter"",""5"",""15506""
","
","
","""event"",""trial"",""time""
""fullscreenenter"",""5"",""15506""
","
","","images/earth.jpg","","","","","","","","","","","","","","fixation","","","","","",""
"d3-animate-choice","109","374475","0.0-61.0-0.16","3207","4990","25","Female","true","false","false","false","""event"",""trial"",""time""
""fullscreenenter"",""5"",""15506""
","
","
","""event"",""trial"",""time""
""fullscreenenter"",""5"",""15506""
","
","384.7000000476837","","49","","","3000","1","","","images/earth.jpg","images/tutrocket2","images/tutrocket1","null","images/tutrocket1","","1","practice","null","1","","",""
"d3-animate-choice","110","377266","0.0-61.0-1.16","3207","4990","25","Female","true","false","false","false","""event"",""trial"",""time""
""fullscreenenter"",""5"",""15506""
","
","
","""event"",""trial"",""time""
""fullscreenenter"",""5"",""15506""
","
","781","","49","","","3000","1","","","images/tutgreenplanet.jpg","images/tutalien2","images/tutalien1","images/tutrocket1","images/tutalien1","images/nothing.png","2","practice","false","1","rare","0","2022-12-05 16:56:00.998"
"two-step-fixation","111","378274","0.0-61.0-2.16","3207","4990","25","Female","true","false","false","false","""event"",""trial"",""time""
""fullscreenenter"",""5"",""15506""
","
","
","""event"",""trial"",""time""
""fullscreenenter"",""5"",""15506""
","
","","images/earth.jpg","","","","","","","","","","","","","","fixation","","","","","",""
"d3-animate-choice","112","380617","0.0-61.0-0.17","3207","4990","25","Female","true","false","false","false","""event"",""trial"",""time""
""fullscreenenter"",""5"",""15506""
","
","
","""event"",""trial"",""time""
""fullscreenenter"",""5"",""15506""
","
","338.2999999523163","","49","","","3000","1","","","images/earth.jpg","images/tutrocket2","images/tutrocket1","null","images/tutrocket1","","1","practice","null","1","","",""
"d3-animate-choice","113","383178","0.0-61.0-1.17","3207","4990","25","Female","true","false","false","false","""event"",""trial"",""time""
""fullscreenenter"",""5"",""15506""
","
","
","""event"",""trial"",""time""
""fullscreenenter"",""5"",""15506""
","
","552.6000000238419","","48","","","3000","1","","","images/tutgreenplanet.jpg","images/tutalien2","images/tutalien1","images/tutrocket1","images/tutalien2","images/nothing.png","2","practice","false","2","rare","0","2022-12-05 16:56:06.910"
"two-step-fixation","114","384186","0.0-61.0-2.17","3207","4990","25","Female","true","false","false","false","""event"",""trial"",""time""
""fullscreenenter"",""5"",""15506""
","
","
","""event"",""trial"",""time""
""fullscreenenter"",""5"",""15506""
","
","","images/earth.jpg","","","","","","","","","","","","","","fixation","","","","","",""
"d3-animate-choice","115","386513","0.0-61.0-0.18","3207","4990","25","Female","true","false","false","false","""event"",""trial"",""time""
""fullscreenenter"",""5"",""15506""
","
","
","""event"",""trial"",""time""
""fullscreenenter"",""5"",""15506""
","
","316.8000000715256","","48","","","3000","1","","","images/earth.jpg","images/tutrocket2","images/tutrocket1","null","images/tutrocket2","","1","practice","null","2","","",""
"d3-animate-choice","116","389146","0.0-61.0-1.18","3207","4990","25","Female","true","false","false","false","""event"",""trial"",""time""
""fullscreenenter"",""5"",""15506""
","
","
","""event"",""trial"",""time""
""fullscreenenter"",""5"",""15506""
","
","623.1000000238419","","49","","","3000","1","","","images/tutgreenplanet.jpg","images/tutalien2","images/tutalien1","images/tutrocket2","images/tutalien1","images/nothing.png","2","practice","true","1","common","0","2022-12-05 16:56:12.878"
"two-step-fixation","117","390154","0.0-61.0-2.18","3207","4990","25","Female","true","false","false","false","""event"",""trial"",""time""
""fullscreenenter"",""5"",""15506""
","
","
","""event"",""trial"",""time""
""fullscreenenter"",""5"",""15506""
","
","","images/earth.jpg","","","","","","","","","","","","","","fixation","","","","","",""
"d3-animate-choice","118","392482","0.0-61.0-0.19","3207","4990","25","Female","true","false","false","false","""event"",""trial"",""time""
""fullscreenenter"",""5"",""15506""
","
","
","""event"",""trial"",""time""
""fullscreenenter"",""5"",""15506""
","
","324.10000002384186","","48","","","3000","1","","","images/earth.jpg","images/tutrocket2","images/tutrocket1","null","images/tutrocket2","","1","practice","null","2","","",""
"d3-animate-choice","119","395282","0.0-61.0-1.19","3207","4990","25","Female","true","false","false","false","""event"",""trial"",""time""
""fullscreenenter"",""5"",""15506""
","
","
","""event"",""trial"",""time""
""fullscreenenter"",""5"",""15506""
","
","793.5","","49","","","3000","1","","","images/tutgreenplanet.jpg","images/tutalien2","images/tutalien1","images/tutrocket2","images/tutalien1","images/nothing.png","2","practice","true","1","common","0","2022-12-05 16:56:19.014"
"two-step-fixation","120","396290","0.0-61.0-2.19","3207","4990","25","Female","true","false","false","false","""event"",""trial"",""time""
""fullscreenenter"",""5"",""15506""
","
","
","""event"",""trial"",""time""
""fullscreenenter"",""5"",""15506""
","
","","images/earth.jpg","","","","","","","","","","","","","","fixation","","","","","",""
"d3-instructions","121","404166","0.0-62.0","3207","4990","25","Female","true","false","false","false","""event"",""trial"",""time""
""fullscreenenter"",""5"",""15506""
","
","
","""event"",""trial"",""time""
""fullscreenenter"",""5"",""15506""
","
","","","","","","","","","","","","","","","","","","","","","",""
"audio-keyboard-response","122","406016","0.0-63.0","3207","4990","25","Female","true","false","false","false","""event"",""trial"",""time""
""fullscreenenter"",""5"",""15506""
","
","
","""event"",""trial"",""time""
""fullscreenenter"",""5"",""15506""
","
","1840","audio/instructions/treasure_feedback.wav","32","","","","","","","","","","","","","","","","","","",""
"d3-instructions","123","415186","0.0-64.0","3207","4990","25","Female","true","false","false","false","""event"",""trial"",""time""
""fullscreenenter"",""5"",""15506""
","
","
","""event"",""trial"",""time""
""fullscreenenter"",""5"",""15506""
","
","","","","","","","","","","","","","","","","","","","","","",""
"d3-instructions","124","421567","0.0-65.0","3207","4990","25","Female","true","false","false","false","""event"",""trial"",""time""
""fullscreenenter"",""5"",""15506""
","
","
","""event"",""trial"",""time""
""fullscreenenter"",""5"",""15506""
","
","","","","","","","","","","","","","","","","","","","","","",""
"d3-instructions","125","430633","0.0-66.0","3207","4990","25","Female","true","false","false","false","""event"",""trial"",""time""
""fullscreenenter"",""5"",""15506""
","
","
","""event"",""trial"",""time""
""fullscreenenter"",""5"",""15506""
","
","","","","","","","","","","","","","","","","","","","","","",""
"d3-instructions","126","437616","0.0-67.0","3207","4990","25","Female","true","false","false","false","""event"",""trial"",""time""
""fullscreenenter"",""5"",""15506""
","
","
","""event"",""trial"",""time""
""fullscreenenter"",""5"",""15506""
","
","","","","","","","","","","","","","","","","","","","","","",""
"d3-instructions","127","440655","0.0-68.0","3207","4990","25","Female","true","false","false","false","""event"",""trial"",""time""
""fullscreenenter"",""5"",""15506""
","
","
","""event"",""trial"",""time""
""fullscreenenter"",""5"",""15506""
","
","","","","","","","","","","","","","","","","","","","","","",""
"instructions-quiz","128","444977","0.0-69.0","3207","4990","25","Female","true","false","false","false","""event"",""trial"",""time""
""fullscreenenter"",""5"",""15506""
","
","
","""event"",""trial"",""time""
""fullscreenenter"",""5"",""15506""
","
","4320.400000095367","audio/quiz/Q1_Prompt.wav","","1","","","","","","","","","","","","","","","","","",""
"audio-keyboard-response","129","445768","0.0-70.0","3207","4990","25","Female","true","false","false","false","""event"",""trial"",""time""
""fullscreenenter"",""5"",""15506""
","
","
","""event"",""trial"",""time""
""fullscreenenter"",""5"",""15506""
","
","789","audio/quiz/Q1_Correct.wav","32","","","","","","","","","","","","","","","","","","",""
"instructions-quiz","130","451583","0.0-71.0","3207","4990","25","Female","true","false","false","false","""event"",""trial"",""time""
""fullscreenenter"",""5"",""15506""
","
","
","""event"",""trial"",""time""
""fullscreenenter"",""5"",""15506""
","
","5813.100000023842","audio/quiz/Q2_Prompt.wav","","0","","","","","","","","","","","","","","","","","",""
"audio-keyboard-response","131","452291","0.0-72.0","3207","4990","25","Female","true","false","false","false","""event"",""trial"",""time""
""fullscreenenter"",""5"",""15506""
","
","
","""event"",""trial"",""time""
""fullscreenenter"",""5"",""15506""
","
","709","audio/quiz/Q2_Correct.wav","32","","","","","","","","","","","","","","","","","","",""
"instructions-quiz","132","454932","0.0-73.0","3207","4990","25","Female","true","false","false","false","""event"",""trial"",""time""
""fullscreenenter"",""5"",""15506""
","
","
","""event"",""trial"",""time""
""fullscreenenter"",""5"",""15506""
","
","2639.1999999284744","audio/quiz/Q3_Prompt.wav","","1","","","","","","","","","","","","","","","","","",""
"audio-keyboard-response","133","456382","0.0-74.0","3207","4990","25","Female","true","false","false","false","""event"",""trial"",""time""
""fullscreenenter"",""5"",""15506""
","
","
","""event"",""trial"",""time""
""fullscreenenter"",""5"",""15506""
","
","1451","audio/quiz/Q3_Correct.wav","32","","","","","","","","","","","","","","","","","","",""
"d3-instructions","134","462014","0.0-75.0","3207","4990","25","Female","true","false","false","false","""event"",""trial"",""time""
""fullscreenenter"",""5"",""15506""
","
","
","""event"",""trial"",""time""
""fullscreenenter"",""5"",""15506""
","
","","","","","","","","","","","","","","","","","","","","","",""
"d3-animate-choice","135","465234","0.0-76.0-0.0","3207","4990","25","Female","true","false","false","false","""event"",""trial"",""time""
""fullscreenenter"",""5"",""15506""
","
","
","""event"",""trial"",""time""
""fullscreenenter"",""5"",""15506""
","
","1208.8000000715256","","49","","","3000","1","","","images/earth.jpg","images/rocket2","images/rocket1","null","images/rocket1","","1","real","null","1","","",""
"d3-animate-choice","136","468195","0.0-76.0-1.0","3207","4990","25","Female","true","false","false","false","""event"",""trial"",""time""
""fullscreenenter"",""5"",""15506""
","
","
","""event"",""trial"",""time""
""fullscreenenter"",""5"",""15506""
","
","935","","49","","","3000","1","","","images/redplanet1.jpg","images/alien2","images/alien1","images/rocket1","images/alien1","images/nothing.png","2","real","false","1","rare","0","2022-12-05 16:57:31.927"
"two-step-fixation","137","469215","0.0-76.0-2.0","3207","4990","25","Female","true","false","false","false","""event"",""trial"",""time""
""fullscreenenter"",""5"",""15506""
","
","
","""event"",""trial"",""time""
""fullscreenenter"",""5"",""15506""
","
","","images/earth.jpg","","","","","","","","","","","","","","fixation","","","","","",""
"d3-animate-choice","138","471641","0.0-76.0-0.1","3207","4990","25","Female","true","false","false","false","""event"",""trial"",""time""
""fullscreenenter"",""5"",""15506""
","
","
","""event"",""trial"",""time""
""fullscreenenter"",""5"",""15506""
","
","418.2000000476837","","49","","","3000","1","","","images/earth.jpg","images/rocket2","images/rocket1","null","images/rocket1","","1","real","null","1","","",""
"d3-animate-choice","139","474506","0.0-76.0-1.1","3207","4990","25","Female","true","false","false","false","""event"",""trial"",""time""
""fullscreenenter"",""5"",""15506""
","
","
","""event"",""trial"",""time""
""fullscreenenter"",""5"",""15506""
","
","860.6000000238419","","48","","","3000","1","","","images/redplanet1.jpg","images/alien2","images/alien1","images/rocket1","images/alien2","images/nothing.png","2","real","false","2","rare","0","2022-12-05 16:57:38.238"
"two-step-fixation","140","475514","0.0-76.0-2.1","3207","4990","25","Female","true","false","false","false","""event"",""trial"",""time""
""fullscreenenter"",""5"",""15506""
","
","
","""event"",""trial"",""time""
""fullscreenenter"",""5"",""15506""
","
","","images/earth.jpg","","","","","","","","","","","","","","fixation","","","","","",""
"d3-animate-choice","141","478215","0.0-76.0-0.2","3207","4990","25","Female","true","false","false","false","""event"",""trial"",""time""
""fullscreenenter"",""5"",""15506""
","
","
","""event"",""trial"",""time""
""fullscreenenter"",""5"",""15506""
","
","683.3999999761581","","48","","","3000","1","","","images/earth.jpg","images/rocket2","images/rocket1","null","images/rocket2","","1","real","null","2","","",""
"d3-animate-choice","142","481283","0.0-76.0-1.2","3207","4990","25","Female","true","false","false","false","""event"",""trial"",""time""
""fullscreenenter"",""5"",""15506""
","
","
","""event"",""trial"",""time""
""fullscreenenter"",""5"",""15506""
","
","1055.6000000238419","","49","","","3000","1","","","images/redplanet1.jpg","images/alien2","images/alien1","images/rocket2","images/alien1","images/nothing.png","2","real","true","1","common","0","2022-12-05 16:57:45.016"
"two-step-fixation","143","482305","0.0-76.0-2.2","3207","4990","25","Female","true","false","false","false","""event"",""trial"",""time""
""fullscreenenter"",""5"",""15506""
","
","
","""event"",""trial"",""time""
""fullscreenenter"",""5"",""15506""
","
","","images/earth.jpg","","","","","","","","","","","","","","fixation","","","","","",""
"d3-animate-choice","144","484842","0.0-76.0-0.3","3207","4990","25","Female","true","false","false","false","""event"",""trial"",""time""
""fullscreenenter"",""5"",""15506""
","
","
","""event"",""trial"",""time""
""fullscreenenter"",""5"",""15506""
","
","531.5","","48","","","3000","1","","","images/earth.jpg","images/rocket2","images/rocket1","null","images/rocket2","","1","real","null","2","","",""
"d3-animate-choice","145","487549","0.0-76.0-1.3","3207","4990","25","Female","true","false","false","false","""event"",""trial"",""time""
""fullscreenenter"",""5"",""15506""
","
","
","""event"",""trial"",""time""
""fullscreenenter"",""5"",""15506""
","
","705.5","","49","","","3000","1","","","images/purpleplanet.jpg","images/alien4","images/alien3","images/rocket2","images/alien3","images/nothing.png","2","real","false","1","rare","0","2022-12-05 16:57:51.282"
"two-step-fixation","146","488554","0.0-76.0-2.3","3207","4990","25","Female","true","false","false","false","""event"",""trial"",""time""
""fullscreenenter"",""5"",""15506""
","
","
","""event"",""trial"",""time""
""fullscreenenter"",""5"",""15506""
","
","","images/earth.jpg","","","","","","","","","","","","","","fixation","","","","","",""
"d3-animate-choice","147","491009","0.0-76.0-0.4","3207","4990","25","Female","true","false","false","false","""event"",""trial"",""time""
""fullscreenenter"",""5"",""15506""
","
","
","""event"",""trial"",""time""
""fullscreenenter"",""5"",""15506""
","
","452.6999999284744","","48","","","3000","1","","","images/earth.jpg","images/rocket2","images/rocket1","null","images/rocket2","","1","real","null","2","","",""
"d3-animate-choice","148","493818","0.0-76.0-1.4","3207","4990","25","Female","true","false","false","false","""event"",""trial"",""time""
""fullscreenenter"",""5"",""15506""
","
","
","""event"",""trial"",""time""
""fullscreenenter"",""5"",""15506""
","
","802","","48","","","3000","1","","","images/purpleplanet.jpg","images/alien4","images/alien3","images/rocket2","images/alien4","images/t.png","2","real","false","2","rare","1","2022-12-05 16:57:57.550"
"two-step-fixation","149","494826","0.0-76.0-2.4","3207","4990","25","Female","true","false","false","false","""event"",""trial"",""time""
""fullscreenenter"",""5"",""15506""
","
","
","""event"",""trial"",""time""
""fullscreenenter"",""5"",""15506""
","
","","images/earth.jpg","","","","","","","","","","","","","","fixation","","","","","",""
"d3-animate-choice","150","497499","0.0-76.0-0.5","3207","4990","25","Female","true","false","false","false","""event"",""trial"",""time""
""fullscreenenter"",""5"",""15506""
","
","
","""event"",""trial"",""time""
""fullscreenenter"",""5"",""15506""
","
","662","","48","","","3000","1","","","images/earth.jpg","images/rocket2","images/rocket1","null","images/rocket2","","1","real","null","2","","",""
"d3-animate-choice","151","500247","0.0-76.0-1.5","3207","4990","25","Female","true","false","false","false","""event"",""trial"",""time""
""fullscreenenter"",""5"",""15506""
","
","
","""event"",""trial"",""time""
""fullscreenenter"",""5"",""15506""
","
","730.2000000476837","","49","","","3000","1","","","images/redplanet1.jpg","images/alien2","images/alien1","images/rocket2","images/alien1","images/t.png","2","real","true","1","common","1","2022-12-05 16:58:03.979"
"two-step-fixation","152","501259","0.0-76.0-2.5","3207","4990","25","Female","true","false","false","false","""event"",""trial"",""time""
""fullscreenenter"",""5"",""15506""
","
","
","""event"",""trial"",""time""
""fullscreenenter"",""5"",""15506""
","
","","images/earth.jpg","","","","","","","","","","","","","","fixation","","","","","",""
"d3-animate-choice","153","503754","0.0-76.0-0.6","3207","4990","25","Female","true","false","false","false","""event"",""trial"",""time""
""fullscreenenter"",""5"",""15506""
","
","
","""event"",""trial"",""time""
""fullscreenenter"",""5"",""15506""
","
","484.89999997615814","","49","","","3000","1","","","images/earth.jpg","images/rocket2","images/rocket1","null","images/rocket1","","1","real","null","1","","",""
"d3-animate-choice","154","506550","0.0-76.0-1.6","3207","4990","25","Female","true","false","false","false","""event"",""trial"",""time""
""fullscreenenter"",""5"",""15506""
","
","
","""event"",""trial"",""time""
""fullscreenenter"",""5"",""15506""
","
","791.8999999761581","","49","","","3000","1","","","images/redplanet1.jpg","images/alien2","images/alien1","images/rocket1","images/alien1","images/nothing.png","2","real","false","1","rare","0","2022-12-05 16:58:10.282"
"two-step-fixation","155","507554","0.0-76.0-2.6","3207","4990","25","Female","true","false","false","false","""event"",""trial"",""time""
""fullscreenenter"",""5"",""15506""
","
","
","""event"",""trial"",""time""
""fullscreenenter"",""5"",""15506""
","
","","images/earth.jpg","","","","","","","","","","","","","","fixation","","","","","",""
"d3-animate-choice","156","510000","0.0-76.0-0.7","3207","4990","25","Female","true","false","false","false","""event"",""trial"",""time""
""fullscreenenter"",""5"",""15506""
","
","
","""event"",""trial"",""time""
""fullscreenenter"",""5"",""15506""
","
","440","","49","","","3000","1","","","images/earth.jpg","images/rocket2","images/rocket1","null","images/rocket1","","1","real","null","1","","",""
"d3-animate-choice","157","512885","0.0-76.0-1.7","3207","4990","25","Female","true","false","false","false","""event"",""trial"",""time""
""fullscreenenter"",""5"",""15506""
","
","
","""event"",""trial"",""time""
""fullscreenenter"",""5"",""15506""
","
","881.8999999761581","","48","","","3000","1","","","images/redplanet1.jpg","images/alien2","images/alien1","images/rocket1","images/alien2","images/nothing.png","2","real","false","2","rare","0","2022-12-05 16:58:16.617"
"two-step-fixation","158","513890","0.0-76.0-2.7","3207","4990","25","Female","true","false","false","false","""event"",""trial"",""time""
""fullscreenenter"",""5"",""15506""
","
","
","""event"",""trial"",""time""
""fullscreenenter"",""5"",""15506""
","
","","images/earth.jpg","","","","","","","","","","","","","","fixation","","","","","",""
"d3-animate-choice","159","516458","0.0-76.0-0.8","3207","4990","25","Female","true","false","false","false","""event"",""trial"",""time""
""fullscreenenter"",""5"",""15506""
","
","
","""event"",""trial"",""time""
""fullscreenenter"",""5"",""15506""
","
","560.8999999761581","","48","","","3000","1","","","images/earth.jpg","images/rocket2","images/rocket1","null","images/rocket2","","1","real","null","2","","",""
"d3-animate-choice","160","519162","0.0-76.0-1.8","3207","4990","25","Female","true","false","false","false","""event"",""trial"",""time""
""fullscreenenter"",""5"",""15506""
","
","
","""event"",""trial"",""time""
""fullscreenenter"",""5"",""15506""
","
","700.5","","49","","","3000","1","","","images/redplanet1.jpg","images/alien2","images/alien1","images/rocket2","images/alien1","images/t.png","2","real","true","1","common","1","2022-12-05 16:58:22.894"
"two-step-fixation","161","520167","0.0-76.0-2.8","3207","4990","25","Female","true","false","false","false","""event"",""trial"",""time""
""fullscreenenter"",""5"",""15506""
","
","
","""event"",""trial"",""time""
""fullscreenenter"",""5"",""15506""
","
","","images/earth.jpg","","","","","","","","","","","","","","fixation","","","","","",""
"d3-animate-choice","162","522913","0.0-76.0-0.9","3207","4990","25","Female","true","false","false","false","""event"",""trial"",""time""
""fullscreenenter"",""5"",""15506""
","
","
","""event"",""trial"",""time""
""fullscreenenter"",""5"",""15506""
","
","739.1000000238419","","48","","","3000","1","","","images/earth.jpg","images/rocket2","images/rocket1","null","images/rocket2","","1","real","null","2","","",""
"d3-animate-choice","163","525523","0.0-76.0-1.9","3207","4990","25","Female","true","false","false","false","""event"",""trial"",""time""
""fullscreenenter"",""5"",""15506""
","
","
","""event"",""trial"",""time""
""fullscreenenter"",""5"",""15506""
","
","602.8000000715256","","49","","","3000","1","","","images/redplanet1.jpg","images/alien2","images/alien1","images/rocket2","images/alien1","images/t.png","2","real","true","1","common","1","2022-12-05 16:58:29.255"
"two-step-fixation","164","526530","0.0-76.0-2.9","3207","4990","25","Female","true","false","false","false","""event"",""trial"",""time""
""fullscreenenter"",""5"",""15506""
","
","
","""event"",""trial"",""time""
""fullscreenenter"",""5"",""15506""
","
","","images/earth.jpg","","","","","","","","","","","","","","fixation","","","","","",""
"d3-animate-choice","165","529000","0.0-76.0-0.10","3207","4990","25","Female","true","false","false","false","""event"",""trial"",""time""
""fullscreenenter"",""5"",""15506""
","
","
","""event"",""trial"",""time""
""fullscreenenter"",""5"",""15506""
","
","465.89999997615814","","48","","","3000","1","","","images/earth.jpg","images/rocket2","images/rocket1","null","images/rocket2","","1","real","null","2","","",""
"d3-animate-choice","166","531938","0.0-76.0-1.10","3207","4990","25","Female","true","false","false","false","""event"",""trial"",""time""
""fullscreenenter"",""5"",""15506""
","
","
","""event"",""trial"",""time""
""fullscreenenter"",""5"",""15506""
","
","932.5","","49","","","3000","1","","","images/purpleplanet.jpg","images/alien4","images/alien3","images/rocket2","images/alien3","images/nothing.png","2","real","false","1","rare","0","2022-12-05 16:58:35.670"
"two-step-fixation","167","532946","0.0-76.0-2.10","3207","4990","25","Female","true","false","false","false","""event"",""trial"",""time""
""fullscreenenter"",""5"",""15506""
","
","
","""event"",""trial"",""time""
""fullscreenenter"",""5"",""15506""
","
","","images/earth.jpg","","","","","","","","","","","","","","fixation","","","","","",""
"d3-animate-choice","168","535298","0.0-76.0-0.11","3207","4990","25","Female","true","false","false","false","""event"",""trial"",""time""
""fullscreenenter"",""5"",""15506""
","
","
","""event"",""trial"",""time""
""fullscreenenter"",""5"",""15506""
","
","342","","48","","","3000","1","","","images/earth.jpg","images/rocket2","images/rocket1","null","images/rocket2","","1","real","null","2","","",""
"d3-animate-choice","169","538098","0.0-76.0-1.11","3207","4990","25","Female","true","false","false","false","""event"",""trial"",""time""
""fullscreenenter"",""5"",""15506""
","
","
","""event"",""trial"",""time""
""fullscreenenter"",""5"",""15506""
","
","788.6999999284744","","48","","","3000","1","","","images/purpleplanet.jpg","images/alien4","images/alien3","images/rocket2","images/alien4","images/t.png","2","real","false","2","rare","1","2022-12-05 16:58:41.830"
"two-step-fixation","170","539106","0.0-76.0-2.11","3207","4990","25","Female","true","false","false","false","""event"",""trial"",""time""
""fullscreenenter"",""5"",""15506""
","
","
","""event"",""trial"",""time""
""fullscreenenter"",""5"",""15506""
","
","","images/earth.jpg","","","","","","","","","","","","","","fixation","","","","","",""
"d3-animate-choice","171","541514","0.0-76.0-0.12","3207","4990","25","Female","true","false","false","false","""event"",""trial"",""time""
""fullscreenenter"",""5"",""15506""
","
","
","""event"",""trial"",""time""
""fullscreenenter"",""5"",""15506""
","
","401.89999997615814","","48","","","3000","1","","","images/earth.jpg","images/rocket2","images/rocket1","null","images/rocket2","","1","real","null","2","","",""
"d3-animate-choice","172","544011","0.0-76.0-1.12","3207","4990","25","Female","true","false","false","false","""event"",""trial"",""time""
""fullscreenenter"",""5"",""15506""
","
","
","""event"",""trial"",""time""
""fullscreenenter"",""5"",""15506""
","
","492.5","","48","","","3000","1","","","images/purpleplanet.jpg","images/alien4","images/alien3","images/rocket2","images/alien4","images/nothing.png","2","real","false","2","rare","0","2022-12-05 16:58:47.743"
"two-step-fixation","173","545018","0.0-76.0-2.12","3207","4990","25","Female","true","false","false","false","""event"",""trial"",""time""
""fullscreenenter"",""5"",""15506""
","
","
","""event"",""trial"",""time""
""fullscreenenter"",""5"",""15506""
","
","","images/earth.jpg","","","","","","","","","","","","","","fixation","","","","","",""
"d3-animate-choice","174","547290","0.0-76.0-0.13","3207","4990","25","Female","true","false","false","false","""event"",""trial"",""time""
""fullscreenenter"",""5"",""15506""
","
","
","""event"",""trial"",""time""
""fullscreenenter"",""5"",""15506""
","
","263.8000000715256","","48","","","3000","1","","","images/earth.jpg","images/rocket2","images/rocket1","null","images/rocket2","","1","real","null","2","","",""
"d3-animate-choice","175","550098","0.0-76.0-1.13","3207","4990","25","Female","true","false","false","false","""event"",""trial"",""time""
""fullscreenenter"",""5"",""15506""
","
","
","""event"",""trial"",""time""
""fullscreenenter"",""5"",""15506""
","
","797","","49","","","3000","1","","","images/redplanet1.jpg","images/alien2","images/alien1","images/rocket2","images/alien1","images/t.png","2","real","true","1","common","1","2022-12-05 16:58:53.830"
"two-step-fixation","176","551107","0.0-76.0-2.13","3207","4990","25","Female","true","false","false","false","""event"",""trial"",""time""
""fullscreenenter"",""5"",""15506""
","
","
","""event"",""trial"",""time""
""fullscreenenter"",""5"",""15506""
","
","","images/earth.jpg","","","","","","","","","","","","","","fixation","","","","","",""
"d3-animate-choice","177","553394","0.0-76.0-0.14","3207","4990","25","Female","true","false","false","false","""event"",""trial"",""time""
""fullscreenenter"",""5"",""15506""
","
","
","""event"",""trial"",""time""
""fullscreenenter"",""5"",""15506""
","
","278","","48","","","3000","1","","","images/earth.jpg","images/rocket2","images/rocket1","null","images/rocket2","","1","real","null","2","","",""
"d3-animate-choice","178","556362","0.0-76.0-1.14","3207","4990","25","Female","true","false","false","false","""event"",""trial"",""time""
""fullscreenenter"",""5"",""15506""
","
","
","""event"",""trial"",""time""
""fullscreenenter"",""5"",""15506""
","
","961.1000000238419","","48","","","3000","1","","","images/purpleplanet.jpg","images/alien4","images/alien3","images/rocket2","images/alien4","images/t.png","2","real","false","2","rare","1","2022-12-05 16:59:00.094"
"two-step-fixation","179","557368","0.0-76.0-2.14","3207","4990","25","Female","true","false","false","false","""event"",""trial"",""time""
""fullscreenenter"",""5"",""15506""
","
","
","""event"",""trial"",""time""
""fullscreenenter"",""5"",""15506""
","
","","images/earth.jpg","","","","","","","","","","","","","","fixation","","","","","",""
"d3-animate-choice","180","559675","0.0-76.0-0.15","3207","4990","25","Female","true","false","false","false","""event"",""trial"",""time""
""fullscreenenter"",""5"",""15506""
","
","
","""event"",""trial"",""time""
""fullscreenenter"",""5"",""15506""
","
","301.40000009536743","","48","","","3000","1","","","images/earth.jpg","images/rocket2","images/rocket1","null","images/rocket2","","1","real","null","2","","",""
"d3-animate-choice","181","562418","0.0-76.0-1.15","3207","4990","25","Female","true","false","false","false","""event"",""trial"",""time""
""fullscreenenter"",""5"",""15506""
","
","
","""event"",""trial"",""time""
""fullscreenenter"",""5"",""15506""
","
","734.3999999761581","","48","","","3000","1","","","images/purpleplanet.jpg","images/alien4","images/alien3","images/rocket2","images/alien4","images/nothing.png","2","real","false","2","rare","0","2022-12-05 16:59:06.150"
"two-step-fixation","182","563425","0.0-76.0-2.15","3207","4990","25","Female","true","false","false","false","""event"",""trial"",""time""
""fullscreenenter"",""5"",""15506""
","
","
","""event"",""trial"",""time""
""fullscreenenter"",""5"",""15506""
","
","","images/earth.jpg","","","","","","","","","","","","","","fixation","","","","","",""
"d3-animate-choice","183","565702","0.0-76.0-0.16","3207","4990","25","Female","true","false","false","false","""event"",""trial"",""time""
""fullscreenenter"",""5"",""15506""
","
","
","""event"",""trial"",""time""
""fullscreenenter"",""5"",""15506""
","
","271.89999997615814","","48","","","3000","1","","","images/earth.jpg","images/rocket2","images/rocket1","null","images/rocket2","","1","real","null","2","","",""
"d3-animate-choice","184","568338","0.0-76.0-1.16","3207","4990","25","Female","true","false","false","false","""event"",""trial"",""time""
""fullscreenenter"",""5"",""15506""
","
","
","""event"",""trial"",""time""
""fullscreenenter"",""5"",""15506""
","
","632.2999999523163","","49","","","3000","1","","","images/redplanet1.jpg","images/alien2","images/alien1","images/rocket2","images/alien1","images/nothing.png","2","real","true","1","common","0","2022-12-05 16:59:12.070"
"two-step-fixation","185","569346","0.0-76.0-2.16","3207","4990","25","Female","true","false","false","false","""event"",""trial"",""time""
""fullscreenenter"",""5"",""15506""
","
","
","""event"",""trial"",""time""
""fullscreenenter"",""5"",""15506""
","
","","images/earth.jpg","","","","","","","","","","","","","","fixation","","","","","",""
"d3-animate-choice","186","571642","0.0-76.0-0.17","3207","4990","25","Female","true","false","false","false","""event"",""trial"",""time""
""fullscreenenter"",""5"",""15506""
","
","
","""event"",""trial"",""time""
""fullscreenenter"",""5"",""15506""
","
","287.60000002384186","","48","","","3000","1","","","images/earth.jpg","images/rocket2","images/rocket1","null","images/rocket2","","1","real","null","2","","",""
"d3-animate-choice","187","574290","0.0-76.0-1.17","3207","4990","25","Female","true","false","false","false","""event"",""trial"",""time""
""fullscreenenter"",""5"",""15506""
","
","
","""event"",""trial"",""time""
""fullscreenenter"",""5"",""15506""
","
","641.6999999284744","","49","","","3000","1","","","images/redplanet1.jpg","images/alien2","images/alien1","images/rocket2","images/alien1","images/t.png","2","real","true","1","common","1","2022-12-05 16:59:18.022"
"two-step-fixation","188","575299","0.0-76.0-2.17","3207","4990","25","Female","true","false","false","false","""event"",""trial"",""time""
""fullscreenenter"",""5"",""15506""
","
","
","""event"",""trial"",""time""
""fullscreenenter"",""5"",""15506""
","
","","images/earth.jpg","","","","","","","","","","","","","","fixation","","","","","",""
"d3-animate-choice","189","577634","0.0-76.0-0.18","3207","4990","25","Female","true","false","false","false","""event"",""trial"",""time""
""fullscreenenter"",""5"",""15506""
","
","
","""event"",""trial"",""time""
""fullscreenenter"",""5"",""15506""
","
","331.2000000476837","","48","","","3000","1","","","images/earth.jpg","images/rocket2","images/rocket1","null","images/rocket2","","1","real","null","2","","",""
"d3-animate-choice","190","580130","0.0-76.0-1.18","3207","4990","25","Female","true","false","false","false","""event"",""trial"",""time""
""fullscreenenter"",""5"",""15506""
","
","
","""event"",""trial"",""time""
""fullscreenenter"",""5"",""15506""
","
","488.60000002384186","","49","","","3000","1","","","images/redplanet1.jpg","images/alien2","images/alien1","images/rocket2","images/alien1","images/nothing.png","2","real","true","1","common","0","2022-12-05 16:59:23.862"
"two-step-fixation","191","581138","0.0-76.0-2.18","3207","4990","25","Female","true","false","false","false","""event"",""trial"",""time""
""fullscreenenter"",""5"",""15506""
","
","
","""event"",""trial"",""time""
""fullscreenenter"",""5"",""15506""
","
","","images/earth.jpg","","","","","","","","","","","","","","fixation","","","","","",""
"d3-animate-choice","192","583410","0.0-76.0-0.19","3207","4990","25","Female","true","false","false","false","""event"",""trial"",""time""
""fullscreenenter"",""5"",""15506""
","
","
","""event"",""trial"",""time""
""fullscreenenter"",""5"",""15506""
","
","261.89999997615814","","48","","","3000","1","","","images/earth.jpg","images/rocket2","images/rocket1","null","images/rocket2","","1","real","null","2","","",""
"d3-animate-choice","193","586075","0.0-76.0-1.19","3207","4990","25","Female","true","false","false","false","""event"",""trial"",""time""
""fullscreenenter"",""5"",""15506""
","
","
","""event"",""trial"",""time""
""fullscreenenter"",""5"",""15506""
","
","659.4000000953674","","49","","","3000","1","","","images/redplanet1.jpg","images/alien2","images/alien1","images/rocket2","images/alien1","images/t.png","2","real","true","1","common","1","2022-12-05 16:59:29.807"
"two-step-fixation","194","587082","0.0-76.0-2.19","3207","4990","25","Female","true","false","false","false","""event"",""trial"",""time""
""fullscreenenter"",""5"",""15506""
","
","
","""event"",""trial"",""time""
""fullscreenenter"",""5"",""15506""
","
","","images/earth.jpg","","","","","","","","","","","","","","fixation","","","","","",""
"d3-animate-choice","195","589435","0.0-76.0-0.20","3207","4990","25","Female","true","false","false","false","""event"",""trial"",""time""
""fullscreenenter"",""5"",""15506""
","
","
","""event"",""trial"",""time""
""fullscreenenter"",""5"",""15506""
","
","344","","48","","","3000","1","","","images/earth.jpg","images/rocket2","images/rocket1","null","images/rocket2","","1","real","null","2","","",""
"d3-animate-choice","196","592034","0.0-76.0-1.20","3207","4990","25","Female","true","false","false","false","""event"",""trial"",""time""
""fullscreenenter"",""5"",""15506""
","
","
","""event"",""trial"",""time""
""fullscreenenter"",""5"",""15506""
","
","590.5","","49","","","3000","1","","","images/redplanet1.jpg","images/alien2","images/alien1","images/rocket2","images/alien1","images/t.png","2","real","true","1","common","1","2022-12-05 16:59:35.766"
"two-step-fixation","197","593042","0.0-76.0-2.20","3207","4990","25","Female","true","false","false","false","""event"",""trial"",""time""
""fullscreenenter"",""5"",""15506""
","
","
","""event"",""trial"",""time""
""fullscreenenter"",""5"",""15506""
","
","","images/earth.jpg","","","","","","","","","","","","","","fixation","","","","","",""
"d3-animate-choice","198","595369","0.0-76.0-0.21","3207","4990","25","Female","true","false","false","false","""event"",""trial"",""time""
""fullscreenenter"",""5"",""15506""
","
","
","""event"",""trial"",""time""
""fullscreenenter"",""5"",""15506""
","
","320.89999997615814","","48","","","3000","1","","","images/earth.jpg","images/rocket2","images/rocket1","null","images/rocket2","","1","real","null","2","","",""
"d3-animate-choice","199","597810","0.0-76.0-1.21","3207","4990","25","Female","true","false","false","false","""event"",""trial"",""time""
""fullscreenenter"",""5"",""15506""
","
","
","""event"",""trial"",""time""
""fullscreenenter"",""5"",""15506""
","
","437","","49","","","3000","1","","","images/redplanet1.jpg","images/alien2","images/alien1","images/rocket2","images/alien1","images/nothing.png","2","real","true","1","common","0","2022-12-05 16:59:41.542"
"two-step-fixation","200","598818","0.0-76.0-2.21","3207","4990","25","Female","true","false","false","false","""event"",""trial"",""time""
""fullscreenenter"",""5"",""15506""
","
","
","""event"",""trial"",""time""
""fullscreenenter"",""5"",""15506""
","
","","images/earth.jpg","","","","","","","","","","","","","","fixation","","","","","",""
"d3-animate-choice","201","601130","0.0-76.0-0.22","3207","4990","25","Female","true","false","false","false","""event"",""trial"",""time""
""fullscreenenter"",""5"",""15506""
","
","
","""event"",""trial"",""time""
""fullscreenenter"",""5"",""15506""
","
","304","","48","","","3000","1","","","images/earth.jpg","images/rocket2","images/rocket1","null","images/rocket2","","1","real","null","2","","",""
"d3-animate-choice","202","603577","0.0-76.0-1.22","3207","4990","25","Female","true","false","false","false","""event"",""trial"",""time""
""fullscreenenter"",""5"",""15506""
","
","
","""event"",""trial"",""time""
""fullscreenenter"",""5"",""15506""
","
","443.40000009536743","","49","","","3000","1","","","images/redplanet1.jpg","images/alien2","images/alien1","images/rocket2","images/alien1","images/nothing.png","2","real","true","1","common","0","2022-12-05 16:59:47.309"
"two-step-fixation","203","604585","0.0-76.0-2.22","3207","4990","25","Female","true","false","false","false","""event"",""trial"",""time""
""fullscreenenter"",""5"",""15506""
","
","
","""event"",""trial"",""time""
""fullscreenenter"",""5"",""15506""
","
","","images/earth.jpg","","","","","","","","","","","","","","fixation","","","","","",""
"d3-animate-choice","204","606881","0.0-76.0-0.23","3207","4990","25","Female","true","false","false","false","""event"",""trial"",""time""
""fullscreenenter"",""5"",""15506""
","
","
","""event"",""trial"",""time""
""fullscreenenter"",""5"",""15506""
","
","286.7999999523163","","49","","","3000","1","","","images/earth.jpg","images/rocket2","images/rocket1","null","images/rocket1","","1","real","null","1","","",""
"d3-animate-choice","205","609585","0.0-76.0-1.23","3207","4990","25","Female","true","false","false","false","""event"",""trial"",""time""
""fullscreenenter"",""5"",""15506""
","
","
","""event"",""trial"",""time""
""fullscreenenter"",""5"",""15506""
","
","696.2000000476837","","48","","","3000","1","","","images/purpleplanet.jpg","images/alien4","images/alien3","images/rocket1","images/alien4","images/nothing.png","2","real","true","2","common","0","2022-12-05 16:59:53.318"
"two-step-fixation","206","610595","0.0-76.0-2.23","3207","4990","25","Female","true","false","false","false","""event"",""trial"",""time""
""fullscreenenter"",""5"",""15506""
","
","
","""event"",""trial"",""time""
""fullscreenenter"",""5"",""15506""
","
","","images/earth.jpg","","","","","","","","","","","","","","fixation","","","","","",""
"d3-animate-choice","207","613402","0.0-76.0-0.24","3207","4990","25","Female","true","false","false","false","""event"",""trial"",""time""
""fullscreenenter"",""5"",""15506""
","
","
","""event"",""trial"",""time""
""fullscreenenter"",""5"",""15506""
","
","799.8999999761581","","49","","","3000","1","","","images/earth.jpg","images/rocket2","images/rocket1","null","images/rocket1","","1","real","null","1","","",""
"d3-animate-choice","208","616010","0.0-76.0-1.24","3207","4990","25","Female","true","false","false","false","""event"",""trial"",""time""
""fullscreenenter"",""5"",""15506""
","
","
","""event"",""trial"",""time""
""fullscreenenter"",""5"",""15506""
","
","603.2000000476837","","49","","","3000","1","","","images/redplanet1.jpg","images/alien2","images/alien1","images/rocket1","images/alien1","images/t.png","2","real","false","1","rare","1","2022-12-05 16:59:59.742"
"two-step-fixation","209","617018","0.0-76.0-2.24","3207","4990","25","Female","true","false","false","false","""event"",""trial"",""time""
""fullscreenenter"",""5"",""15506""
","
","
","""event"",""trial"",""time""
""fullscreenenter"",""5"",""15506""
","
","","images/earth.jpg","","","","","","","","","","","","","","fixation","","","","","",""
"d3-animate-choice","210","619410","0.0-76.0-0.25","3207","4990","25","Female","true","false","false","false","""event"",""trial"",""time""
""fullscreenenter"",""5"",""15506""
","
","
","""event"",""trial"",""time""
""fullscreenenter"",""5"",""15506""
","
","385.8000000715256","","49","","","3000","1","","","images/earth.jpg","images/rocket2","images/rocket1","null","images/rocket1","","1","real","null","1","","",""
"d3-animate-choice","211","621883","0.0-76.0-1.25","3207","4990","25","Female","true","false","false","false","""event"",""trial"",""time""
""fullscreenenter"",""5"",""15506""
","
","
","""event"",""trial"",""time""
""fullscreenenter"",""5"",""15506""
","
","467.1999999284744","","49","","","3000","1","","","images/purpleplanet.jpg","images/alien4","images/alien3","images/rocket1","images/alien3","images/nothing.png","2","real","true","1","common","0","2022-12-05 17:00:05.615"
"two-step-fixation","212","622886","0.0-76.0-2.25","3207","4990","25","Female","true","false","false","false","""event"",""trial"",""time""
""fullscreenenter"",""5"",""15506""
","
","
","""event"",""trial"",""time""
""fullscreenenter"",""5"",""15506""
","
","","images/earth.jpg","","","","","","","","","","","","","","fixation","","","","","",""
"d3-animate-choice","213","625466","0.0-76.0-0.26","3207","4990","25","Female","true","false","false","false","""event"",""trial"",""time""
""fullscreenenter"",""5"",""15506""
","
","
","""event"",""trial"",""time""
""fullscreenenter"",""5"",""15506""
","
","574.3000000715256","","48","","","3000","1","","","images/earth.jpg","images/rocket2","images/rocket1","null","images/rocket2","","1","real","null","2","","",""
"d3-animate-choice","214","627833","0.0-76.0-1.26","3207","4990","25","Female","true","false","false","false","""event"",""trial"",""time""
""fullscreenenter"",""5"",""15506""
","
","
","""event"",""trial"",""time""
""fullscreenenter"",""5"",""15506""
","
","362.5","","49","","","3000","1","","","images/redplanet1.jpg","images/alien2","images/alien1","images/rocket2","images/alien1","images/nothing.png","2","real","true","1","common","0","2022-12-05 17:00:11.565"
"two-step-fixation","215","628836","0.0-76.0-2.26","3207","4990","25","Female","true","false","false","false","""event"",""trial"",""time""
""fullscreenenter"",""5"",""15506""
","
","
","""event"",""trial"",""time""
""fullscreenenter"",""5"",""15506""
","
","","images/earth.jpg","","","","","","","","","","","","","","fixation","","","","","",""
"d3-animate-choice","216","631211","0.0-76.0-0.27","3207","4990","25","Female","true","false","false","false","""event"",""trial"",""time""
""fullscreenenter"",""5"",""15506""
","
","
","""event"",""trial"",""time""
""fullscreenenter"",""5"",""15506""
","
","365.7000000476837","","48","","","3000","1","","","images/earth.jpg","images/rocket2","images/rocket1","null","images/rocket2","","1","real","null","2","","",""
"d3-animate-choice","217","634069","0.0-76.0-1.27","3207","4990","25","Female","true","false","false","false","""event"",""trial"",""time""
""fullscreenenter"",""5"",""15506""
","
","
","""event"",""trial"",""time""
""fullscreenenter"",""5"",""15506""
","
","853.3999999761581","","48","","","3000","1","","","images/purpleplanet.jpg","images/alien4","images/alien3","images/rocket2","images/alien4","images/nothing.png","2","real","false","2","rare","0","2022-12-05 17:00:17.802"
"two-step-fixation","218","635075","0.0-76.0-2.27","3207","4990","25","Female","true","false","false","false","""event"",""trial"",""time""
""fullscreenenter"",""5"",""15506""
","
","
","""event"",""trial"",""time""
""fullscreenenter"",""5"",""15506""
","
","","images/earth.jpg","","","","","","","","","","","","","","fixation","","","","","",""
"d3-animate-choice","219","637690","0.0-76.0-0.28","3207","4990","25","Female","true","false","false","false","""event"",""trial"",""time""
""fullscreenenter"",""5"",""15506""
","
","
","""event"",""trial"",""time""
""fullscreenenter"",""5"",""15506""
","
","604.3000000715256","","48","","","3000","1","","","images/earth.jpg","images/rocket2","images/rocket1","null","images/rocket2","","1","real","null","2","","",""
"d3-animate-choice","220","640070","0.0-76.0-1.28","3207","4990","25","Female","true","false","false","false","""event"",""trial"",""time""
""fullscreenenter"",""5"",""15506""
","
","
","""event"",""trial"",""time""
""fullscreenenter"",""5"",""15506""
","
","373.5","","49","","","3000","1","","","images/redplanet1.jpg","images/alien2","images/alien1","images/rocket2","images/alien1","images/nothing.png","2","real","true","1","common","0","2022-12-05 17:00:23.802"
"two-step-fixation","221","641074","0.0-76.0-2.28","3207","4990","25","Female","true","false","false","false","""event"",""trial"",""time""
""fullscreenenter"",""5"",""15506""
","
","
","""event"",""trial"",""time""
""fullscreenenter"",""5"",""15506""
","
","","images/earth.jpg","","","","","","","","","","","","","","fixation","","","","","",""
"d3-animate-choice","222","643370","0.0-76.0-0.29","3207","4990","25","Female","true","false","false","false","""event"",""trial"",""time""
""fullscreenenter"",""5"",""15506""
","
","
","""event"",""trial"",""time""
""fullscreenenter"",""5"",""15506""
","
","288.2999999523163","","48","","","3000","1","","","images/earth.jpg","images/rocket2","images/rocket1","null","images/rocket2","","1","real","null","2","","",""
"d3-animate-choice","223","646250","0.0-76.0-1.29","3207","4990","25","Female","true","false","false","false","""event"",""trial"",""time""
""fullscreenenter"",""5"",""15506""
","
","
","""event"",""trial"",""time""
""fullscreenenter"",""5"",""15506""
","
","877.1000000238419","","48","","","3000","1","","","images/redplanet1.jpg","images/alien2","images/alien1","images/rocket2","images/alien2","images/t.png","2","real","true","2","common","1","2022-12-05 17:00:29.982"
"two-step-fixation","224","647254","0.0-76.0-2.29","3207","4990","25","Female","true","false","false","false","""event"",""trial"",""time""
""fullscreenenter"",""5"",""15506""
","
","
","""event"",""trial"",""time""
""fullscreenenter"",""5"",""15506""
","
","","images/earth.jpg","","","","","","","","","","","","","","fixation","","","","","",""
"d3-animate-choice","225","649610","0.0-76.0-0.30","3207","4990","25","Female","true","false","false","false","""event"",""trial"",""time""
""fullscreenenter"",""5"",""15506""
","
","
","""event"",""trial"",""time""
""fullscreenenter"",""5"",""15506""
","
","349.60000002384186","","48","","","3000","1","","","images/earth.jpg","images/rocket2","images/rocket1","null","images/rocket2","","1","real","null","2","","",""
"d3-animate-choice","226","652353","0.0-76.0-1.30","3207","4990","25","Female","true","false","false","false","""event"",""trial"",""time""
""fullscreenenter"",""5"",""15506""
","
","
","""event"",""trial"",""time""
""fullscreenenter"",""5"",""15506""
","
","740.5","","49","","","3000","1","","","images/purpleplanet.jpg","images/alien4","images/alien3","images/rocket2","images/alien3","images/nothing.png","2","real","false","1","rare","0","2022-12-05 17:00:36.085"
"two-step-fixation","227","653362","0.0-76.0-2.30","3207","4990","25","Female","true","false","false","false","""event"",""trial"",""time""
""fullscreenenter"",""5"",""15506""
","
","
","""event"",""trial"",""time""
""fullscreenenter"",""5"",""15506""
","
","","images/earth.jpg","","","","","","","","","","","","","","fixation","","","","","",""
"d3-animate-choice","228","655858","0.0-76.0-0.31","3207","4990","25","Female","true","false","false","false","""event"",""trial"",""time""
""fullscreenenter"",""5"",""15506""
","
","
","""event"",""trial"",""time""
""fullscreenenter"",""5"",""15506""
","
","491.2999999523163","","48","","","3000","1","","","images/earth.jpg","images/rocket2","images/rocket1","null","images/rocket2","","1","real","null","2","","",""
"d3-animate-choice","229","658626","0.0-76.0-1.31","3207","4990","25","Female","true","false","false","false","""event"",""trial"",""time""
""fullscreenenter"",""5"",""15506""
","
","
","""event"",""trial"",""time""
""fullscreenenter"",""5"",""15506""
","
","764.2999999523163","","48","","","3000","1","","","images/purpleplanet.jpg","images/alien4","images/alien3","images/rocket2","images/alien4","images/t.png","2","real","false","2","rare","1","2022-12-05 17:00:42.358"
"two-step-fixation","230","659634","0.0-76.0-2.31","3207","4990","25","Female","true","false","false","false","""event"",""trial"",""time""
""fullscreenenter"",""5"",""15506""
","
","
","""event"",""trial"",""time""
""fullscreenenter"",""5"",""15506""
","
","","images/earth.jpg","","","","","","","","","","","","","","fixation","","","","","",""
"d3-animate-choice","231","661946","0.0-76.0-0.32","3207","4990","25","Female","true","false","false","false","""event"",""trial"",""time""
""fullscreenenter"",""5"",""15506""
","
","
","""event"",""trial"",""time""
""fullscreenenter"",""5"",""15506""
","
","302.10000002384186","","49","","","3000","1","","","images/earth.jpg","images/rocket2","images/rocket1","null","images/rocket1","","1","real","null","1","","",""
"d3-animate-choice","232","664546","0.0-76.0-1.32","3207","4990","25","Female","true","false","false","false","""event"",""trial"",""time""
""fullscreenenter"",""5"",""15506""
","
","
","""event"",""trial"",""time""
""fullscreenenter"",""5"",""15506""
","
","596","","48","","","3000","1","","","images/redplanet1.jpg","images/alien2","images/alien1","images/rocket1","images/alien2","images/nothing.png","2","real","false","2","rare","0","2022-12-05 17:00:48.278"
"two-step-fixation","233","665554","0.0-76.0-2.32","3207","4990","25","Female","true","false","false","false","""event"",""trial"",""time""
""fullscreenenter"",""5"",""15506""
","
","
","""event"",""trial"",""time""
""fullscreenenter"",""5"",""15506""
","
","","images/earth.jpg","","","","","","","","","","","","","","fixation","","","","","",""
"d3-animate-choice","234","667898","0.0-76.0-0.33","3207","4990","25","Female","true","false","false","false","""event"",""trial"",""time""
""fullscreenenter"",""5"",""15506""
","
","
","""event"",""trial"",""time""
""fullscreenenter"",""5"",""15506""
","
","338.60000002384186","","48","","","3000","1","","","images/earth.jpg","images/rocket2","images/rocket1","null","images/rocket2","","1","real","null","2","","",""
"d3-animate-choice","235","671146","0.0-76.0-1.33","3207","4990","25","Female","true","false","false","false","""event"",""trial"",""time""
""fullscreenenter"",""5"",""15506""
","
","
","""event"",""trial"",""time""
""fullscreenenter"",""5"",""15506""
","
","1243.8999999761581","","48","","","3000","1","","","images/redplanet1.jpg","images/alien2","images/alien1","images/rocket2","images/alien2","images/t.png","2","real","true","2","common","1","2022-12-05 17:00:54.879"
"two-step-fixation","236","672154","0.0-76.0-2.33","3207","4990","25","Female","true","false","false","false","""event"",""trial"",""time""
""fullscreenenter"",""5"",""15506""
","
","
","""event"",""trial"",""time""
""fullscreenenter"",""5"",""15506""
","
","","images/earth.jpg","","","","","","","","","","","","","","fixation","","","","","",""
"d3-animate-choice","237","674435","0.0-76.0-0.34","3207","4990","25","Female","true","false","false","false","""event"",""trial"",""time""
""fullscreenenter"",""5"",""15506""
","
","
","""event"",""trial"",""time""
""fullscreenenter"",""5"",""15506""
","
","270.2999999523163","","48","","","3000","1","","","images/earth.jpg","images/rocket2","images/rocket1","null","images/rocket2","","1","real","null","2","","",""
"d3-animate-choice","238","676818","0.0-76.0-1.34","3207","4990","25","Female","true","false","false","false","""event"",""trial"",""time""
""fullscreenenter"",""5"",""15506""
","
","
","""event"",""trial"",""time""
""fullscreenenter"",""5"",""15506""
","
","377.40000009536743","","48","","","3000","1","","","images/redplanet1.jpg","images/alien2","images/alien1","images/rocket2","images/alien2","images/t.png","2","real","true","2","common","1","2022-12-05 17:01:00.550"
"two-step-fixation","239","677821","0.0-76.0-2.34","3207","4990","25","Female","true","false","false","false","""event"",""trial"",""time""
""fullscreenenter"",""5"",""15506""
","
","
","""event"",""trial"",""time""
""fullscreenenter"",""5"",""15506""
","
","","images/earth.jpg","","","","","","","","","","","","","","fixation","","","","","",""
"d3-animate-choice","240","680114","0.0-76.0-0.35","3207","4990","25","Female","true","false","false","false","""event"",""trial"",""time""
""fullscreenenter"",""5"",""15506""
","
","
","""event"",""trial"",""time""
""fullscreenenter"",""5"",""15506""
","
","281.7000000476837","","48","","","3000","1","","","images/earth.jpg","images/rocket2","images/rocket1","null","images/rocket2","","1","real","null","2","","",""
"d3-animate-choice","241","682455","0.0-76.0-1.35","3207","4990","25","Female","true","false","false","false","""event"",""trial"",""time""
""fullscreenenter"",""5"",""15506""
","
","
","""event"",""trial"",""time""
""fullscreenenter"",""5"",""15506""
","
","339.2000000476837","","48","","","3000","1","","","images/redplanet1.jpg","images/alien2","images/alien1","images/rocket2","images/alien2","images/nothing.png","2","real","true","2","common","0","2022-12-05 17:01:06.188"
"two-step-fixation","242","683466","0.0-76.0-2.35","3207","4990","25","Female","true","false","false","false","""event"",""trial"",""time""
""fullscreenenter"",""5"",""15506""
","
","
","""event"",""trial"",""time""
""fullscreenenter"",""5"",""15506""
","
","","images/earth.jpg","","","","","","","","","","","","","","fixation","","","","","",""
"d3-animate-choice","243","685762","0.0-76.0-0.36","3207","4990","25","Female","true","false","false","false","""event"",""trial"",""time""
""fullscreenenter"",""5"",""15506""
","
","
","""event"",""trial"",""time""
""fullscreenenter"",""5"",""15506""
","
","287.89999997615814","","48","","","3000","1","","","images/earth.jpg","images/rocket2","images/rocket1","null","images/rocket2","","1","real","null","2","","",""
"d3-animate-choice","244","688114","0.0-76.0-1.36","3207","4990","25","Female","true","false","false","false","""event"",""trial"",""time""
""fullscreenenter"",""5"",""15506""
","
","
","""event"",""trial"",""time""
""fullscreenenter"",""5"",""15506""
","
","348.60000002384186","","48","","","3000","1","","","images/redplanet1.jpg","images/alien2","images/alien1","images/rocket2","images/alien2","images/t.png","2","real","true","2","common","1","2022-12-05 17:01:11.846"
