"trial_type","trial_index","time_elapsed","internal_node_id","participant_id","subject_id","age","gender","rocket_sides","red_planet_first_rocket","red_display_order","purple_display_order","interactions","blur_events","focus_events","fullscreenenter_events","fullscreenexit_events","rt","stimulus","key_press","button_pressed","success","duration","valid_pressed","rts","keys","planet_text","right_text","left_text","center_text","chosen_text","reward_text","trial_stage","practice_trial","transition_type","choice","transition","reward","timestamp"
"pavlovia","0","4","0.0-0.0","72","643","12","Female","true","false","false","false","
","
","
","
","
","","","","","","","","","","","","","","","","","","","","","",""
"html-keyboard-response","1","18240","0.0-1.0","72","643","12","Female","true","false","false","false","
","
","
","
","
","18234.59999999404","Welcome! Press the space bar to begin.","32","","","","","","","","","","","","","","","","","","",""
"audio-keyboard-response","2","22751","0.0-2.0","72","643","12","Female","true","false","false","false","
","
","
","
","
","4349","audio/beep_loop.wav","32","","","","","","","","","","","","","","","","","","",""
"audio-button-response","3","26766","0.0-3.0","72","643","12","Female","true","false","false","false","
","
","
","
","
","NaN","audio/fish.mp3","","1","","","","","","","","","","","","","","","","","",""
"audio-button-response","4","31082","0.0-4.0","72","643","12","Female","true","false","false","false","""event"",""trial"",""time""
""fullscreenenter"",""5"",""39019""
","
","
","""event"",""trial"",""time""
""fullscreenenter"",""5"",""39019""
","
","NaN","audio/tiger.mp3","","4","","","","","","","","","","","","","","","","","",""
"fullscreen","5","39930","0.0-5.0","72","643","12","Female","true","false","false","false","""event"",""trial"",""time""
""fullscreenenter"",""5"",""39019""
","
","
","""event"",""trial"",""time""
""fullscreenenter"",""5"",""39019""
","
","","","","","true","","","","","","","","","","","","","","","","",""
"d3-instructions","6","55631","0.0-6.0","72","643","12","Female","true","false","false","false","""event"",""trial"",""time""
""fullscreenenter"",""5"",""39019""
","
","
","""event"",""trial"",""time""
""fullscreenenter"",""5"",""39019""
","
","","","","","","","","","","","","","","","","","","","","","",""
"d3-instructions","7","65647","0.0-7.0","72","643","12","Female","true","false","false","false","""event"",""trial"",""time""
""fullscreenenter"",""5"",""39019""
","
","
","""event"",""trial"",""time""
""fullscreenenter"",""5"",""39019""
","
","","","","","","","","","","","","","","","","","","","","","",""
"d3-instructions","8","73215","0.0-8.0","72","643","12","Female","true","false","false","false","""event"",""trial"",""time""
""fullscreenenter"",""5"",""39019""
","
","
","""event"",""trial"",""time""
""fullscreenenter"",""5"",""39019""
","
","","","","","","","","","","","","","","","","","","","","","",""
"d3-instructions","9","87119","0.0-9.0","72","643","12","Female","true","false","false","false","""event"",""trial"",""time""
""fullscreenenter"",""5"",""39019""
","
","
","""event"",""trial"",""time""
""fullscreenenter"",""5"",""39019""
","
","","","","","","","","","","","","","","","","","","","","","",""
"d3-instructions","10","105975","0.0-10.0","72","643","12","Female","true","false","false","false","""event"",""trial"",""time""
""fullscreenenter"",""5"",""39019""
","
","
","""event"",""trial"",""time""
""fullscreenenter"",""5"",""39019""
","
","","","","","","","","","","","","","","","","","","","","","",""
"d3-animate-choice","11","109571","0.0-11.0","72","643","12","Female","true","false","false","false","""event"",""trial"",""time""
""fullscreenenter"",""5"",""39019""
","
","
","""event"",""trial"",""time""
""fullscreenenter"",""5"",""39019""
","
","1589.9000000059605","","49","","","3000","1","3157.9000000059605","48","images/tutgreenplanet.jpg","images/tutalien1","images/tutalien2","null","images/tutalien2","","NA","practice","null","","","",""
"d3-animate-choice","12","112641","0.0-12.0","72","643","12","Female","true","false","false","false","""event"",""trial"",""time""
""fullscreenenter"",""5"",""39019""
","
","
","""event"",""trial"",""time""
""fullscreenenter"",""5"",""39019""
","
","1057.9000000059605","","48","","","3000","1","","","images/tutgreenplanet.jpg","images/tutalien1","images/tutalien2","null","images/tutalien1","","NA","practice","null","","","",""
"d3-animate-choice","13","115141","0.0-13.0","72","643","12","Female","true","false","false","false","""event"",""trial"",""time""
""fullscreenenter"",""5"",""39019""
","
","
","""event"",""trial"",""time""
""fullscreenenter"",""5"",""39019""
","
","492.29999999701977","","49","","","3000","1","","","images/tutgreenplanet.jpg","images/tutalien1","images/tutalien2","null","images/tutalien2","","NA","practice","null","","","",""
"d3-animate-choice","14","117609","0.0-14.0","72","643","12","Female","true","false","false","false","""event"",""trial"",""time""
""fullscreenenter"",""5"",""39019""
","
","
","""event"",""trial"",""time""
""fullscreenenter"",""5"",""39019""
","
","448.20000000298023","","48","","","3000","1","","","images/tutgreenplanet.jpg","images/tutalien1","images/tutalien2","null","images/tutalien1","","NA","practice","null","","","",""
"d3-instructions","15","126343","0.0-15.0","72","643","12","Female","true","false","false","false","""event"",""trial"",""time""
""fullscreenenter"",""5"",""39019""
","
","
","""event"",""trial"",""time""
""fullscreenenter"",""5"",""39019""
","
","","","","","","","","","","","","","","","","","","","","","",""
"d3-instructions","16","132967","0.0-16.0","72","643","12","Female","true","false","false","false","""event"",""trial"",""time""
""fullscreenenter"",""5"",""39019""
","
","
","""event"",""trial"",""time""
""fullscreenenter"",""5"",""39019""
","
","","","","","","","","","","","","","","","","","","","","","",""
"d3-instructions","17","141495","0.0-17.0","72","643","12","Female","true","false","false","false","""event"",""trial"",""time""
""fullscreenenter"",""5"",""39019""
","
","
","""event"",""trial"",""time""
""fullscreenenter"",""5"",""39019""
","
","","","","","","","","","","","","","","","","","","","","","",""
"d3-instructions","18","154175","0.0-18.0","72","643","12","Female","true","false","false","false","""event"",""trial"",""time""
""fullscreenenter"",""5"",""39019""
","
","
","""event"",""trial"",""time""
""fullscreenenter"",""5"",""39019""
","
","","","","","","","","","","","","","","","","","","","","","",""
"d3-instructions","19","166695","0.0-19.0","72","643","12","Female","true","false","false","false","""event"",""trial"",""time""
""fullscreenenter"",""5"",""39019""
","
","
","""event"",""trial"",""time""
""fullscreenenter"",""5"",""39019""
","
","","","","","","","","","","","","","","","","","","","","","",""
"d3-animate-choice","20","170041","0.0-20.0","72","643","12","Female","true","false","false","false","""event"",""trial"",""time""
""fullscreenenter"",""5"",""39019""
","
","
","""event"",""trial"",""time""
""fullscreenenter"",""5"",""39019""
","
","1326.2999999970198","","49","","","3000","1","1870.3999999910593","49","images/tutyellowplanet.jpg","null","images/tutalien3","null","images/tutalien3","images/t.png","NA","practice","null","","","",""
"d3-animate-choice","21","172491","0.0-21.0","72","643","12","Female","true","false","false","false","""event"",""trial"",""time""
""fullscreenenter"",""5"",""39019""
","
","
","""event"",""trial"",""time""
""fullscreenenter"",""5"",""39019""
","
","428.6000000089407","","49","","","3000","1","","","images/tutyellowplanet.jpg","null","images/tutalien3","null","images/tutalien3","images/t.png","NA","practice","null","","","",""
"d3-animate-choice","22","174921","0.0-22.0","72","643","12","Female","true","false","false","false","""event"",""trial"",""time""
""fullscreenenter"",""5"",""39019""
","
","
","""event"",""trial"",""time""
""fullscreenenter"",""5"",""39019""
","
","418.59999999403954","","49","","","3000","1","","","images/tutyellowplanet.jpg","null","images/tutalien3","null","images/tutalien3","images/t.png","NA","practice","null","","","",""
"d3-animate-choice","23","177401","0.0-23.0","72","643","12","Female","true","false","false","false","""event"",""trial"",""time""
""fullscreenenter"",""5"",""39019""
","
","
","""event"",""trial"",""time""
""fullscreenenter"",""5"",""39019""
","
","468.29999999701977","","49","","","3000","1","","","images/tutyellowplanet.jpg","null","images/tutalien3","null","images/tutalien3","images/t.png","NA","practice","null","","","",""
"d3-animate-choice","24","179866","0.0-24.0","72","643","12","Female","true","false","false","false","""event"",""trial"",""time""
""fullscreenenter"",""5"",""39019""
","
","
","""event"",""trial"",""time""
""fullscreenenter"",""5"",""39019""
","
","460.3999999910593","","49","","","3000","1","","","images/tutyellowplanet.jpg","null","images/tutalien3","null","images/tutalien3","images/nothing.png","NA","practice","null","","","",""
"d3-animate-choice","25","182281","0.0-25.0","72","643","12","Female","true","false","false","false","""event"",""trial"",""time""
""fullscreenenter"",""5"",""39019""
","
","
","""event"",""trial"",""time""
""fullscreenenter"",""5"",""39019""
","
","411.40000000596046","","49","","","3000","1","","","images/tutyellowplanet.jpg","null","images/tutalien3","null","images/tutalien3","images/t.png","NA","practice","null","","","",""
"d3-animate-choice","26","184841","0.0-26.0","72","643","12","Female","true","false","false","false","""event"",""trial"",""time""
""fullscreenenter"",""5"",""39019""
","
","
","""event"",""trial"",""time""
""fullscreenenter"",""5"",""39019""
","
","556.5","","49","","","3000","1","","","images/tutyellowplanet.jpg","null","images/tutalien3","null","images/tutalien3","images/nothing.png","NA","practice","null","","","",""
"d3-animate-choice","27","187391","0.0-27.0","72","643","12","Female","true","false","false","false","""event"",""trial"",""time""
""fullscreenenter"",""5"",""39019""
","
","
","""event"",""trial"",""time""
""fullscreenenter"",""5"",""39019""
","
","532.7999999970198","","49","","","3000","1","","","images/tutyellowplanet.jpg","null","images/tutalien3","null","images/tutalien3","images/t.png","NA","practice","null","","","",""
"d3-animate-choice","28","189881","0.0-28.0","72","643","12","Female","true","false","false","false","""event"",""trial"",""time""
""fullscreenenter"",""5"",""39019""
","
","
","""event"",""trial"",""time""
""fullscreenenter"",""5"",""39019""
","
","486.40000000596046","","49","","","3000","1","","","images/tutyellowplanet.jpg","null","images/tutalien3","null","images/tutalien3","images/nothing.png","NA","practice","null","","","",""
"d3-animate-choice","29","192391","0.0-29.0","72","643","12","Female","true","false","false","false","""event"",""trial"",""time""
""fullscreenenter"",""5"",""39019""
","
","
","""event"",""trial"",""time""
""fullscreenenter"",""5"",""39019""
","
","492.20000000298023","","49","","","3000","1","","","images/tutyellowplanet.jpg","null","images/tutalien3","null","images/tutalien3","images/t.png","NA","practice","null","","","",""
"d3-instructions","30","198342","0.0-30.0","72","643","12","Female","true","false","false","false","""event"",""trial"",""time""
""fullscreenenter"",""5"",""39019""
","
","
","""event"",""trial"",""time""
""fullscreenenter"",""5"",""39019""
","
","","","","","","","","","","","","","","","","","","","","","",""
"d3-instructions","31","205607","0.0-31.0","72","643","12","Female","true","false","false","false","""event"",""trial"",""time""
""fullscreenenter"",""5"",""39019""
","
","
","""event"",""trial"",""time""
""fullscreenenter"",""5"",""39019""
","
","","","","","","","","","","","","","","","","","","","","","",""
"d3-instructions","32","213014","0.0-32.0","72","643","12","Female","true","false","false","false","""event"",""trial"",""time""
""fullscreenenter"",""5"",""39019""
","
","
","""event"",""trial"",""time""
""fullscreenenter"",""5"",""39019""
","
","","","","","","","","","","","","","","","","","","","","","",""
"d3-instructions","33","218447","0.0-33.0","72","643","12","Female","true","false","false","false","""event"",""trial"",""time""
""fullscreenenter"",""5"",""39019""
","
","
","""event"",""trial"",""time""
""fullscreenenter"",""5"",""39019""
","
","","","","","","","","","","","","","","","","","","","","","",""
"d3-animate-choice","34","221790","0.0-34.0","72","643","12","Female","true","false","false","false","""event"",""trial"",""time""
""fullscreenenter"",""5"",""39019""
","
","
","""event"",""trial"",""time""
""fullscreenenter"",""5"",""39019""
","
","1334.5","","49","","","3000","1","","","images/tutgreenplanet.jpg","images/tutalien1","images/tutalien2","null","images/tutalien2","images/nothing.png","NA","practice","null","","","",""
"d3-animate-choice","35","227451","0.0-35.0","72","643","12","Female","true","false","false","false","""event"",""trial"",""time""
""fullscreenenter"",""5"",""39019""
","
","
","""event"",""trial"",""time""
""fullscreenenter"",""5"",""39019""
","
","3647","","49","","","3000","1","","","images/tutgreenplanet.jpg","images/tutalien1","images/tutalien2","null","images/tutalien2","images/t.png","NA","practice","null","","","",""
"d3-animate-choice","36","229871","0.0-36.0","72","643","12","Female","true","false","false","false","""event"",""trial"",""time""
""fullscreenenter"",""5"",""39019""
","
","
","""event"",""trial"",""time""
""fullscreenenter"",""5"",""39019""
","
","409.90000000596046","","49","","","3000","1","1937.9000000059605","49","images/tutgreenplanet.jpg","images/tutalien1","images/tutalien2","null","images/tutalien2","images/t.png","NA","practice","null","","","",""
"d3-animate-choice","37","232250","0.0-37.0","72","643","12","Female","true","false","false","false","""event"",""trial"",""time""
""fullscreenenter"",""5"",""39019""
","
","
","""event"",""trial"",""time""
""fullscreenenter"",""5"",""39019""
","
","366.19999998807907","","49","","","3000","1","","","images/tutgreenplanet.jpg","images/tutalien1","images/tutalien2","null","images/tutalien2","images/t.png","NA","practice","null","","","",""
"d3-animate-choice","38","234866","0.0-38.0","72","643","12","Female","true","false","false","false","""event"",""trial"",""time""
""fullscreenenter"",""5"",""39019""
","
","
","""event"",""trial"",""time""
""fullscreenenter"",""5"",""39019""
","
","602.5999999940395","","49","","","3000","1","","","images/tutgreenplanet.jpg","images/tutalien1","images/tutalien2","null","images/tutalien2","images/t.png","NA","practice","null","","","",""
"d3-animate-choice","39","237311","0.0-39.0","72","643","12","Female","true","false","false","false","""event"",""trial"",""time""
""fullscreenenter"",""5"",""39019""
","
","
","""event"",""trial"",""time""
""fullscreenenter"",""5"",""39019""
","
","427","","49","","","3000","1","","","images/tutgreenplanet.jpg","images/tutalien1","images/tutalien2","null","images/tutalien2","images/t.png","NA","practice","null","","","",""
"d3-animate-choice","40","239868","0.0-40.0","72","643","12","Female","true","false","false","false","""event"",""trial"",""time""
""fullscreenenter"",""5"",""39019""
","
","
","""event"",""trial"",""time""
""fullscreenenter"",""5"",""39019""
","
","550.0999999940395","","49","","","3000","1","","","images/tutgreenplanet.jpg","images/tutalien1","images/tutalien2","null","images/tutalien2","images/t.png","NA","practice","null","","","",""
"d3-animate-choice","41","242269","0.0-41.0","72","643","12","Female","true","false","false","false","""event"",""trial"",""time""
""fullscreenenter"",""5"",""39019""
","
","
","""event"",""trial"",""time""
""fullscreenenter"",""5"",""39019""
","
","393.09999999403954","","49","","","3000","1","","","images/tutgreenplanet.jpg","images/tutalien1","images/tutalien2","null","images/tutalien2","images/nothing.png","NA","practice","null","","","",""
"d3-animate-choice","42","244528","0.0-42.0","72","643","12","Female","true","false","false","false","""event"",""trial"",""time""
""fullscreenenter"",""5"",""39019""
","
","
","""event"",""trial"",""time""
""fullscreenenter"",""5"",""39019""
","
","255.69999998807907","","49","","","3000","1","","","images/tutgreenplanet.jpg","images/tutalien1","images/tutalien2","null","images/tutalien2","images/t.png","NA","practice","null","","","",""
"d3-animate-choice","43","247271","0.0-43.0","72","643","12","Female","true","false","false","false","""event"",""trial"",""time""
""fullscreenenter"",""5"",""39019""
","
","
","""event"",""trial"",""time""
""fullscreenenter"",""5"",""39019""
","
","723.3999999910593","","49","","","3000","1","","","images/tutgreenplanet.jpg","images/tutalien1","images/tutalien2","null","images/tutalien2","images/t.png","NA","practice","null","","","",""
"d3-instructions","44","263078","0.0-44.0","72","643","12","Female","true","false","false","false","""event"",""trial"",""time""
""fullscreenenter"",""5"",""39019""
","
","
","""event"",""trial"",""time""
""fullscreenenter"",""5"",""39019""
","
","","","","","","","","","","","","","","","","","","","","","",""
"d3-instructions","45","271350","0.0-45.0","72","643","12","Female","true","false","false","false","""event"",""trial"",""time""
""fullscreenenter"",""5"",""39019""
","
","
","""event"",""trial"",""time""
""fullscreenenter"",""5"",""39019""
","
","","","","","","","","","","","","","","","","","","","","","",""
"d3-instructions","46","278566","0.0-46.0","72","643","12","Female","true","false","false","false","""event"",""trial"",""time""
""fullscreenenter"",""5"",""39019""
","
","
","""event"",""trial"",""time""
""fullscreenenter"",""5"",""39019""
","
","","","","","","","","","","","","","","","","","","","","","",""
"d3-instructions","47","296798","0.0-47.0","72","643","12","Female","true","false","false","false","""event"",""trial"",""time""
""fullscreenenter"",""5"",""39019""
","
","
","""event"",""trial"",""time""
""fullscreenenter"",""5"",""39019""
","
","","","","","","","","","","","","","","","","","","","","","",""
"d3-instructions","48","303774","0.0-48.0","72","643","12","Female","true","false","false","false","""event"",""trial"",""time""
""fullscreenenter"",""5"",""39019""
","
","
","""event"",""trial"",""time""
""fullscreenenter"",""5"",""39019""
","
","","","","","","","","","","","","","","","","","","","","","",""
"d3-instructions","49","316486","0.0-49.0","72","643","12","Female","true","false","false","false","""event"",""trial"",""time""
""fullscreenenter"",""5"",""39019""
","
","
","""event"",""trial"",""time""
""fullscreenenter"",""5"",""39019""
","
","","","","","","","","","","","","","","","","","","","","","",""
"d3-instructions","50","326374","0.0-50.0","72","643","12","Female","true","false","false","false","""event"",""trial"",""time""
""fullscreenenter"",""5"",""39019""
","
","
","""event"",""trial"",""time""
""fullscreenenter"",""5"",""39019""
","
","","","","","","","","","","","","","","","","","","","","","",""
"d3-instructions","51","329230","0.0-51.0","72","643","12","Female","true","false","false","false","""event"",""trial"",""time""
""fullscreenenter"",""5"",""39019""
","
","
","""event"",""trial"",""time""
""fullscreenenter"",""5"",""39019""
","
","","","","","","","","","","","","","","","","","","","","","",""
"d3-instructions","52","331574","0.0-52.0","72","643","12","Female","true","false","false","false","""event"",""trial"",""time""
""fullscreenenter"",""5"",""39019""
","
","
","""event"",""trial"",""time""
""fullscreenenter"",""5"",""39019""
","
","","","","","","","","","","","","","","","","","","","","","",""
"d3-instructions","53","342438","0.0-53.0","72","643","12","Female","true","false","false","false","""event"",""trial"",""time""
""fullscreenenter"",""5"",""39019""
","
","
","""event"",""trial"",""time""
""fullscreenenter"",""5"",""39019""
","
","","","","","","","","","","","","","","","","","","","","","",""
"d3-instructions","54","355847","0.0-54.0","72","643","12","Female","true","false","false","false","""event"",""trial"",""time""
""fullscreenenter"",""5"",""39019""
","
","
","""event"",""trial"",""time""
""fullscreenenter"",""5"",""39019""
","
","","","","","","","","","","","","","","","","","","","","","",""
"d3-instructions","55","365303","0.0-55.0","72","643","12","Female","true","false","false","false","""event"",""trial"",""time""
""fullscreenenter"",""5"",""39019""
","
","
","""event"",""trial"",""time""
""fullscreenenter"",""5"",""39019""
","
","","","","","","","","","","","","","","","","","","","","","",""
"d3-instructions","56","373831","0.0-56.0","72","643","12","Female","true","false","false","false","""event"",""trial"",""time""
""fullscreenenter"",""5"",""39019""
","
","
","""event"",""trial"",""time""
""fullscreenenter"",""5"",""39019""
","
","","","","","","","","","","","","","","","","","","","","","",""
"d3-instructions","57","383967","0.0-57.0","72","643","12","Female","true","false","false","false","""event"",""trial"",""time""
""fullscreenenter"",""5"",""39019""
","
","
","""event"",""trial"",""time""
""fullscreenenter"",""5"",""39019""
","
","","","","","","","","","","","","","","","","","","","","","",""
"d3-instructions","58","395127","0.0-58.0","72","643","12","Female","true","false","false","false","""event"",""trial"",""time""
""fullscreenenter"",""5"",""39019""
","
","
","""event"",""trial"",""time""
""fullscreenenter"",""5"",""39019""
","
","","","","","","","","","","","","","","","","","","","","","",""
"d3-instructions","59","400798","0.0-59.0","72","643","12","Female","true","false","false","false","""event"",""trial"",""time""
""fullscreenenter"",""5"",""39019""
","
","
","""event"",""trial"",""time""
""fullscreenenter"",""5"",""39019""
","
","","","","","","","","","","","","","","","","","","","","","",""
"d3-instructions","60","405063","0.0-60.0","72","643","12","Female","true","false","false","false","""event"",""trial"",""time""
""fullscreenenter"",""5"",""39019""
","
","
","""event"",""trial"",""time""
""fullscreenenter"",""5"",""39019""
","
","","","","","","","","","","","","","","","","","","","","","",""
"d3-animate-choice","61","408490","0.0-61.0-0.0","72","643","12","Female","true","false","false","false","""event"",""trial"",""time""
""fullscreenenter"",""5"",""39019""
","
","
","""event"",""trial"",""time""
""fullscreenenter"",""5"",""39019""
","
","1404.9000000059605","","49","","","3000","1","","","images/earth.jpg","images/tutrocket2","images/tutrocket1","null","images/tutrocket1","","1","practice","null","1","","",""
"d3-animate-choice","62","411631","0.0-61.0-1.0","72","643","12","Female","true","false","false","false","""event"",""trial"",""time""
""fullscreenenter"",""5"",""39019""
","
","
","""event"",""trial"",""time""
""fullscreenenter"",""5"",""39019""
","
","1121.800000011921","","48","","","3000","1","","","images/tutgreenplanet.jpg","images/tutalien2","images/tutalien1","images/tutrocket1","images/tutalien2","images/t.png","2","practice","false","2","rare","1","2022-02-04 21:31:15.243"
"two-step-fixation","63","412634","0.0-61.0-2.0","72","643","12","Female","true","false","false","false","""event"",""trial"",""time""
""fullscreenenter"",""5"",""39019""
","
","
","""event"",""trial"",""time""
""fullscreenenter"",""5"",""39019""
","
","","images/earth.jpg","","","","","","","","","","","","","","fixation","","","","","",""
"d3-animate-choice","64","415256","0.0-61.0-0.1","72","643","12","Female","true","false","false","false","""event"",""trial"",""time""
""fullscreenenter"",""5"",""39019""
","
","
","""event"",""trial"",""time""
""fullscreenenter"",""5"",""39019""
","
","618.8999999910593","","48","","","3000","1","","","images/earth.jpg","images/tutrocket2","images/tutrocket1","null","images/tutrocket2","","1","practice","null","2","","",""
"d3-animate-choice","65","418081","0.0-61.0-1.1","72","643","12","Female","true","false","false","false","""event"",""trial"",""time""
""fullscreenenter"",""5"",""39019""
","
","
","""event"",""trial"",""time""
""fullscreenenter"",""5"",""39019""
","
","804.2999999970198","","48","","","3000","1","","","images/tutgreenplanet.jpg","images/tutalien2","images/tutalien1","images/tutrocket2","images/tutalien2","images/t.png","2","practice","true","2","common","1","2022-02-04 21:31:21.693"
"two-step-fixation","66","419100","0.0-61.0-2.1","72","643","12","Female","true","false","false","false","""event"",""trial"",""time""
""fullscreenenter"",""5"",""39019""
","
","
","""event"",""trial"",""time""
""fullscreenenter"",""5"",""39019""
","
","","images/earth.jpg","","","","","","","","","","","","","","fixation","","","","","",""
"d3-animate-choice","67","421455","0.0-61.0-0.2","72","643","12","Female","true","false","false","false","""event"",""trial"",""time""
""fullscreenenter"",""5"",""39019""
","
","
","""event"",""trial"",""time""
""fullscreenenter"",""5"",""39019""
","
","352.09999999403954","","48","","","3000","1","","","images/earth.jpg","images/tutrocket2","images/tutrocket1","null","images/tutrocket2","","1","practice","null","2","","",""
"d3-animate-choice","68","424210","0.0-61.0-1.2","72","643","12","Female","true","false","false","false","""event"",""trial"",""time""
""fullscreenenter"",""5"",""39019""
","
","
","""event"",""trial"",""time""
""fullscreenenter"",""5"",""39019""
","
","741.1000000089407","","48","","","3000","1","","","images/tutgreenplanet.jpg","images/tutalien2","images/tutalien1","images/tutrocket2","images/tutalien2","images/nothing.png","2","practice","true","2","common","0","2022-02-04 21:31:27.823"
"two-step-fixation","69","425220","0.0-61.0-2.2","72","643","12","Female","true","false","false","false","""event"",""trial"",""time""
""fullscreenenter"",""5"",""39019""
","
","
","""event"",""trial"",""time""
""fullscreenenter"",""5"",""39019""
","
","","images/earth.jpg","","","","","","","","","","","","","","fixation","","","","","",""
"d3-animate-choice","70","427740","0.0-61.0-0.3","72","643","12","Female","true","false","false","false","""event"",""trial"",""time""
""fullscreenenter"",""5"",""39019""
","
","
","""event"",""trial"",""time""
""fullscreenenter"",""5"",""39019""
","
","512.2000000029802","","49","","","3000","1","","","images/earth.jpg","images/tutrocket2","images/tutrocket1","null","images/tutrocket1","","1","practice","null","1","","",""
"d3-animate-choice","71","430250","0.0-61.0-1.3","72","643","12","Female","true","false","false","false","""event"",""trial"",""time""
""fullscreenenter"",""5"",""39019""
","
","
","""event"",""trial"",""time""
""fullscreenenter"",""5"",""39019""
","
","504.40000000596046","","48","","","3000","1","","","images/tutgreenplanet.jpg","images/tutalien2","images/tutalien1","images/tutrocket1","images/tutalien2","images/t.png","2","practice","false","2","rare","1","2022-02-04 21:31:33.863"
"two-step-fixation","72","431260","0.0-61.0-2.3","72","643","12","Female","true","false","false","false","""event"",""trial"",""time""
""fullscreenenter"",""5"",""39019""
","
","
","""event"",""trial"",""time""
""fullscreenenter"",""5"",""39019""
","
","","images/earth.jpg","","","","","","","","","","","","","","fixation","","","","","",""
"d3-animate-choice","73","433720","0.0-61.0-0.4","72","643","12","Female","true","false","false","false","""event"",""trial"",""time""
""fullscreenenter"",""5"",""39019""
","
","
","""event"",""trial"",""time""
""fullscreenenter"",""5"",""39019""
","
","448.5","","48","","","3000","1","","","images/earth.jpg","images/tutrocket2","images/tutrocket1","null","images/tutrocket2","","1","practice","null","2","","",""
"d3-animate-choice","74","436624","0.0-61.0-1.4","72","643","12","Female","true","false","false","false","""event"",""trial"",""time""
""fullscreenenter"",""5"",""39019""
","
","
","""event"",""trial"",""time""
""fullscreenenter"",""5"",""39019""
","
","900.2000000029802","","48","","","3000","1","","","images/tutgreenplanet.jpg","images/tutalien2","images/tutalien1","images/tutrocket2","images/tutalien2","images/nothing.png","2","practice","true","2","common","0","2022-02-04 21:31:40.236"
"two-step-fixation","75","437626","0.0-61.0-2.4","72","643","12","Female","true","false","false","false","""event"",""trial"",""time""
""fullscreenenter"",""5"",""39019""
","
","
","""event"",""trial"",""time""
""fullscreenenter"",""5"",""39019""
","
","","images/earth.jpg","","","","","","","","","","","","","","fixation","","","","","",""
"d3-animate-choice","76","440127","0.0-61.0-0.5","72","643","12","Female","true","false","false","false","""event"",""trial"",""time""
""fullscreenenter"",""5"",""39019""
","
","
","""event"",""trial"",""time""
""fullscreenenter"",""5"",""39019""
","
","498.5","","49","","","3000","1","","","images/earth.jpg","images/tutrocket2","images/tutrocket1","null","images/tutrocket1","","1","practice","null","1","","",""
"d3-animate-choice","77","442871","0.0-61.0-1.5","72","643","12","Female","true","false","false","false","""event"",""trial"",""time""
""fullscreenenter"",""5"",""39019""
","
","
","""event"",""trial"",""time""
""fullscreenenter"",""5"",""39019""
","
","741.2000000029802","","49","","","3000","1","","","images/tutgreenplanet.jpg","images/tutalien2","images/tutalien1","images/tutrocket1","images/tutalien1","images/t.png","2","practice","false","1","rare","1","2022-02-04 21:31:46.483"
"two-step-fixation","78","443873","0.0-61.0-2.5","72","643","12","Female","true","false","false","false","""event"",""trial"",""time""
""fullscreenenter"",""5"",""39019""
","
","
","""event"",""trial"",""time""
""fullscreenenter"",""5"",""39019""
","
","","images/earth.jpg","","","","","","","","","","","","","","fixation","","","","","",""
"d3-animate-choice","79","446255","0.0-61.0-0.6","72","643","12","Female","true","false","false","false","""event"",""trial"",""time""
""fullscreenenter"",""5"",""39019""
","
","
","""event"",""trial"",""time""
""fullscreenenter"",""5"",""39019""
","
","379.29999999701977","","48","","","3000","1","","","images/earth.jpg","images/tutrocket2","images/tutrocket1","null","images/tutrocket2","","1","practice","null","2","","",""
"d3-animate-choice","80","449159","0.0-61.0-1.6","72","643","12","Female","true","false","false","false","""event"",""trial"",""time""
""fullscreenenter"",""5"",""39019""
","
","
","""event"",""trial"",""time""
""fullscreenenter"",""5"",""39019""
","
","901.2999999970198","","49","","","3000","1","","","images/tutyellowplanet.jpg","images/tutalien4","images/tutalien3","images/tutrocket2","images/tutalien3","images/nothing.png","2","practice","false","1","rare","0","2022-02-04 21:31:52.771"
"two-step-fixation","81","450161","0.0-61.0-2.6","72","643","12","Female","true","false","false","false","""event"",""trial"",""time""
""fullscreenenter"",""5"",""39019""
","
","
","""event"",""trial"",""time""
""fullscreenenter"",""5"",""39019""
","
","","images/earth.jpg","","","","","","","","","","","","","","fixation","","","","","",""
"d3-animate-choice","82","452575","0.0-61.0-0.7","72","643","12","Female","true","false","false","false","""event"",""trial"",""time""
""fullscreenenter"",""5"",""39019""
","
","
","""event"",""trial"",""time""
""fullscreenenter"",""5"",""39019""
","
","411.90000000596046","","48","","","3000","1","","","images/earth.jpg","images/tutrocket2","images/tutrocket1","null","images/tutrocket2","","1","practice","null","2","","",""
"d3-animate-choice","83","455135","0.0-61.0-1.7","72","643","12","Female","true","false","false","false","""event"",""trial"",""time""
""fullscreenenter"",""5"",""39019""
","
","
","""event"",""trial"",""time""
""fullscreenenter"",""5"",""39019""
","
","557.7999999970198","","48","","","3000","1","","","images/tutgreenplanet.jpg","images/tutalien2","images/tutalien1","images/tutrocket2","images/tutalien2","images/nothing.png","2","practice","true","2","common","0","2022-02-04 21:31:58.747"
"two-step-fixation","84","456138","0.0-61.0-2.7","72","643","12","Female","true","false","false","false","""event"",""trial"",""time""
""fullscreenenter"",""5"",""39019""
","
","
","""event"",""trial"",""time""
""fullscreenenter"",""5"",""39019""
","
","","images/earth.jpg","","","","","","","","","","","","","","fixation","","","","","",""
"d3-animate-choice","85","458463","0.0-61.0-0.8","72","643","12","Female","true","false","false","false","""event"",""trial"",""time""
""fullscreenenter"",""5"",""39019""
","
","
","""event"",""trial"",""time""
""fullscreenenter"",""5"",""39019""
","
","322.8999999910593","","48","","","3000","1","","","images/earth.jpg","images/tutrocket2","images/tutrocket1","null","images/tutrocket2","","1","practice","null","2","","",""
"d3-animate-choice","86","460951","0.0-61.0-1.8","72","643","12","Female","true","false","false","false","""event"",""trial"",""time""
""fullscreenenter"",""5"",""39019""
","
","
","""event"",""trial"",""time""
""fullscreenenter"",""5"",""39019""
","
","485.3999999910593","","49","","","3000","1","","","images/tutgreenplanet.jpg","images/tutalien2","images/tutalien1","images/tutrocket2","images/tutalien1","images/nothing.png","2","practice","true","1","common","0","2022-02-04 21:32:04.563"
"two-step-fixation","87","461953","0.0-61.0-2.8","72","643","12","Female","true","false","false","false","""event"",""trial"",""time""
""fullscreenenter"",""5"",""39019""
","
","
","""event"",""trial"",""time""
""fullscreenenter"",""5"",""39019""
","
","","images/earth.jpg","","","","","","","","","","","","","","fixation","","","","","",""
"d3-animate-choice","88","465728","0.0-61.0-0.9","72","643","12","Female","true","false","false","false","""event"",""trial"",""time""
""fullscreenenter"",""5"",""39019""
","
","
","""event"",""trial"",""time""
""fullscreenenter"",""5"",""39019""
","
","1771.7000000029802","","48","","","3000","1","","","images/earth.jpg","images/tutrocket2","images/tutrocket1","null","images/tutrocket2","","1","practice","null","2","","",""
"d3-animate-choice","89","468519","0.0-61.0-1.9","72","643","12","Female","true","false","false","false","""event"",""trial"",""time""
""fullscreenenter"",""5"",""39019""
","
","
","""event"",""trial"",""time""
""fullscreenenter"",""5"",""39019""
","
","788.6000000089407","","49","","","3000","1","","","images/tutgreenplanet.jpg","images/tutalien2","images/tutalien1","images/tutrocket2","images/tutalien1","images/nothing.png","2","practice","true","1","common","0","2022-02-04 21:32:12.131"
"two-step-fixation","90","469521","0.0-61.0-2.9","72","643","12","Female","true","false","false","false","""event"",""trial"",""time""
""fullscreenenter"",""5"",""39019""
","
","
","""event"",""trial"",""time""
""fullscreenenter"",""5"",""39019""
","
","","images/earth.jpg","","","","","","","","","","","","","","fixation","","","","","",""
"d3-animate-choice","91","472183","0.0-61.0-0.10","72","643","12","Female","true","false","false","false","""event"",""trial"",""time""
""fullscreenenter"",""5"",""39019""
","
","
","""event"",""trial"",""time""
""fullscreenenter"",""5"",""39019""
","
","658.9000000059605","","49","","","3000","1","1258.7999999970198","49","images/earth.jpg","images/tutrocket2","images/tutrocket1","null","images/tutrocket1","","1","practice","null","1","","",""
"d3-animate-choice","92","474727","0.0-61.0-1.10","72","643","12","Female","true","false","false","false","""event"",""trial"",""time""
""fullscreenenter"",""5"",""39019""
","
","
","""event"",""trial"",""time""
""fullscreenenter"",""5"",""39019""
","
","541.2000000029802","","48","","","3000","1","","","images/tutgreenplanet.jpg","images/tutalien2","images/tutalien1","images/tutrocket1","images/tutalien2","images/nothing.png","2","practice","false","2","rare","0","2022-02-04 21:32:18.340"
"two-step-fixation","93","475729","0.0-61.0-2.10","72","643","12","Female","true","false","false","false","""event"",""trial"",""time""
""fullscreenenter"",""5"",""39019""
","
","
","""event"",""trial"",""time""
""fullscreenenter"",""5"",""39019""
","
","","images/earth.jpg","","","","","","","","","","","","","","fixation","","","","","",""
"d3-animate-choice","94","478263","0.0-61.0-0.11","72","643","12","Female","true","false","false","false","""event"",""trial"",""time""
""fullscreenenter"",""5"",""39019""
","
","
","""event"",""trial"",""time""
""fullscreenenter"",""5"",""39019""
","
","531","","48","","","3000","1","","","images/earth.jpg","images/tutrocket2","images/tutrocket1","null","images/tutrocket2","","1","practice","null","2","","",""
"d3-animate-choice","95","481158","0.0-61.0-1.11","72","643","12","Female","true","false","false","false","""event"",""trial"",""time""
""fullscreenenter"",""5"",""39019""
","
","
","""event"",""trial"",""time""
""fullscreenenter"",""5"",""39019""
","
","892.7000000029802","","48","","","3000","1","","","images/tutyellowplanet.jpg","images/tutalien4","images/tutalien3","images/tutrocket2","images/tutalien4","images/t.png","2","practice","false","2","rare","1","2022-02-04 21:32:24.771"
"two-step-fixation","96","482161","0.0-61.0-2.11","72","643","12","Female","true","false","false","false","""event"",""trial"",""time""
""fullscreenenter"",""5"",""39019""
","
","
","""event"",""trial"",""time""
""fullscreenenter"",""5"",""39019""
","
","","images/earth.jpg","","","","","","","","","","","","","","fixation","","","","","",""
"d3-animate-choice","97","485054","0.0-61.0-0.12","72","643","12","Female","true","false","false","false","""event"",""trial"",""time""
""fullscreenenter"",""5"",""39019""
","
","
","""event"",""trial"",""time""
""fullscreenenter"",""5"",""39019""
","
","891.1999999880791","","48","","","3000","1","","","images/earth.jpg","images/tutrocket2","images/tutrocket1","null","images/tutrocket2","","1","practice","null","2","","",""
"d3-animate-choice","98","487422","0.0-61.0-1.12","72","643","12","Female","true","false","false","false","""event"",""trial"",""time""
""fullscreenenter"",""5"",""39019""
","
","
","""event"",""trial"",""time""
""fullscreenenter"",""5"",""39019""
","
","366","","49","","","3000","1","","","images/tutyellowplanet.jpg","images/tutalien4","images/tutalien3","images/tutrocket2","images/tutalien3","images/t.png","2","practice","false","1","rare","1","2022-02-04 21:32:31.034"
"two-step-fixation","99","488425","0.0-61.0-2.12","72","643","12","Female","true","false","false","false","""event"",""trial"",""time""
""fullscreenenter"",""5"",""39019""
","
","
","""event"",""trial"",""time""
""fullscreenenter"",""5"",""39019""
","
","","images/earth.jpg","","","","","","","","","","","","","","fixation","","","","","",""
"d3-animate-choice","100","491007","0.0-61.0-0.13","72","643","12","Female","true","false","false","false","""event"",""trial"",""time""
""fullscreenenter"",""5"",""39019""
","
","
","""event"",""trial"",""time""
""fullscreenenter"",""5"",""39019""
","
","579.4000000059605","","48","","","3000","1","","","images/earth.jpg","images/tutrocket2","images/tutrocket1","null","images/tutrocket2","","1","practice","null","2","","",""
"d3-animate-choice","101","493631","0.0-61.0-1.13","72","643","12","Female","true","false","false","false","""event"",""trial"",""time""
""fullscreenenter"",""5"",""39019""
","
","
","""event"",""trial"",""time""
""fullscreenenter"",""5"",""39019""
","
","620.7999999970198","","48","","","3000","1","","","images/tutgreenplanet.jpg","images/tutalien2","images/tutalien1","images/tutrocket2","images/tutalien2","images/nothing.png","2","practice","true","2","common","0","2022-02-04 21:32:37.243"
"two-step-fixation","102","494633","0.0-61.0-2.13","72","643","12","Female","true","false","false","false","""event"",""trial"",""time""
""fullscreenenter"",""5"",""39019""
","
","
","""event"",""trial"",""time""
""fullscreenenter"",""5"",""39019""
","
","","images/earth.jpg","","","","","","","","","","","","","","fixation","","","","","",""
"d3-animate-choice","103","496998","0.0-61.0-0.14","72","643","12","Female","true","false","false","false","""event"",""trial"",""time""
""fullscreenenter"",""5"",""39019""
","
","
","""event"",""trial"",""time""
""fullscreenenter"",""5"",""39019""
","
","362.29999999701977","","48","","","3000","1","","","images/earth.jpg","images/tutrocket2","images/tutrocket1","null","images/tutrocket2","","1","practice","null","2","","",""
"d3-animate-choice","104","500255","0.0-61.0-1.14","72","643","12","Female","true","false","false","false","""event"",""trial"",""time""
""fullscreenenter"",""5"",""39019""
","
","
","""event"",""trial"",""time""
""fullscreenenter"",""5"",""39019""
","
","1253.7999999970198","","48","","","3000","1","","","images/tutyellowplanet.jpg","images/tutalien4","images/tutalien3","images/tutrocket2","images/tutalien4","images/t.png","2","practice","false","2","rare","1","2022-02-04 21:32:43.867"
"two-step-fixation","105","501258","0.0-61.0-2.14","72","643","12","Female","true","false","false","false","""event"",""trial"",""time""
""fullscreenenter"",""5"",""39019""
","
","
","""event"",""trial"",""time""
""fullscreenenter"",""5"",""39019""
","
","","images/earth.jpg","","","","","","","","","","","","","","fixation","","","","","",""
"d3-animate-choice","106","503703","0.0-61.0-0.15","72","643","12","Female","true","false","false","false","""event"",""trial"",""time""
""fullscreenenter"",""5"",""39019""
","
","
","""event"",""trial"",""time""
""fullscreenenter"",""5"",""39019""
","
","441.79999999701977","","48","","","3000","1","","","images/earth.jpg","images/tutrocket2","images/tutrocket1","null","images/tutrocket2","","1","practice","null","2","","",""
"d3-animate-choice","107","506094","0.0-61.0-1.15","72","643","12","Female","true","false","false","false","""event"",""trial"",""time""
""fullscreenenter"",""5"",""39019""
","
","
","""event"",""trial"",""time""
""fullscreenenter"",""5"",""39019""
","
","389.29999999701977","","48","","","3000","1","","","images/tutgreenplanet.jpg","images/tutalien2","images/tutalien1","images/tutrocket2","images/tutalien2","images/t.png","2","practice","true","2","common","1","2022-02-04 21:32:49.706"
"two-step-fixation","108","507096","0.0-61.0-2.15","72","643","12","Female","true","false","false","false","""event"",""trial"",""time""
""fullscreenenter"",""5"",""39019""
","
","
","""event"",""trial"",""time""
""fullscreenenter"",""5"",""39019""
","
","","images/earth.jpg","","","","","","","","","","","","","","fixation","","","","","",""
"d3-animate-choice","109","510118","0.0-61.0-0.16","72","643","12","Female","true","false","false","false","""event"",""trial"",""time""
""fullscreenenter"",""5"",""39019""
","
","
","""event"",""trial"",""time""
""fullscreenenter"",""5"",""39019""
","
","1020","","49","","","3000","1","","","images/earth.jpg","images/tutrocket2","images/tutrocket1","null","images/tutrocket1","","1","practice","null","1","","",""
"d3-animate-choice","110","512590","0.0-61.0-1.16","72","643","12","Female","true","false","false","false","""event"",""trial"",""time""
""fullscreenenter"",""5"",""39019""
","
","
","""event"",""trial"",""time""
""fullscreenenter"",""5"",""39019""
","
","469.09999999403954","","48","","","3000","1","","","images/tutyellowplanet.jpg","images/tutalien4","images/tutalien3","images/tutrocket1","images/tutalien4","images/t.png","2","practice","true","2","common","1","2022-02-04 21:32:56.202"
"two-step-fixation","111","513592","0.0-61.0-2.16","72","643","12","Female","true","false","false","false","""event"",""trial"",""time""
""fullscreenenter"",""5"",""39019""
","
","
","""event"",""trial"",""time""
""fullscreenenter"",""5"",""39019""
","
","","images/earth.jpg","","","","","","","","","","","","","","fixation","","","","","",""
"d3-animate-choice","112","516022","0.0-61.0-0.17","72","643","12","Female","true","false","false","false","""event"",""trial"",""time""
""fullscreenenter"",""5"",""39019""
","
","
","""event"",""trial"",""time""
""fullscreenenter"",""5"",""39019""
","
","427.5","","49","","","3000","1","","","images/earth.jpg","images/tutrocket2","images/tutrocket1","null","images/tutrocket1","","1","practice","null","1","","",""
"d3-animate-choice","113","518615","0.0-61.0-1.17","72","643","12","Female","true","false","false","false","""event"",""trial"",""time""
""fullscreenenter"",""5"",""39019""
","
","
","""event"",""trial"",""time""
""fullscreenenter"",""5"",""39019""
","
","589.3999999910593","","48","","","3000","1","","","images/tutyellowplanet.jpg","images/tutalien4","images/tutalien3","images/tutrocket1","images/tutalien4","images/t.png","2","practice","true","2","common","1","2022-02-04 21:33:02.227"
"two-step-fixation","114","519617","0.0-61.0-2.17","72","643","12","Female","true","false","false","false","""event"",""trial"",""time""
""fullscreenenter"",""5"",""39019""
","
","
","""event"",""trial"",""time""
""fullscreenenter"",""5"",""39019""
","
","","images/earth.jpg","","","","","","","","","","","","","","fixation","","","","","",""
"d3-animate-choice","115","522038","0.0-61.0-0.18","72","643","12","Female","true","false","false","false","""event"",""trial"",""time""
""fullscreenenter"",""5"",""39019""
","
","
","""event"",""trial"",""time""
""fullscreenenter"",""5"",""39019""
","
","418.79999999701977","","48","","","3000","1","","","images/earth.jpg","images/tutrocket2","images/tutrocket1","null","images/tutrocket2","","1","practice","null","2","","",""
"d3-animate-choice","116","524631","0.0-61.0-1.18","72","643","12","Female","true","false","false","false","""event"",""trial"",""time""
""fullscreenenter"",""5"",""39019""
","
","
","""event"",""trial"",""time""
""fullscreenenter"",""5"",""39019""
","
","589.5999999940395","","48","","","3000","1","","","images/tutyellowplanet.jpg","images/tutalien4","images/tutalien3","images/tutrocket2","images/tutalien4","images/nothing.png","2","practice","false","2","rare","0","2022-02-04 21:33:08.243"
"two-step-fixation","117","525633","0.0-61.0-2.18","72","643","12","Female","true","false","false","false","""event"",""trial"",""time""
""fullscreenenter"",""5"",""39019""
","
","
","""event"",""trial"",""time""
""fullscreenenter"",""5"",""39019""
","
","","images/earth.jpg","","","","","","","","","","","","","","fixation","","","","","",""
"d3-animate-choice","118","528303","0.0-61.0-0.19","72","643","12","Female","true","false","false","false","""event"",""trial"",""time""
""fullscreenenter"",""5"",""39019""
","
","
","""event"",""trial"",""time""
""fullscreenenter"",""5"",""39019""
","
","666.8999999910593","","49","","","3000","1","","","images/earth.jpg","images/tutrocket2","images/tutrocket1","null","images/tutrocket1","","1","practice","null","1","","",""
"d3-animate-choice","119","530734","0.0-61.0-1.19","72","643","12","Female","true","false","false","false","""event"",""trial"",""time""
""fullscreenenter"",""5"",""39019""
","
","
","""event"",""trial"",""time""
""fullscreenenter"",""5"",""39019""
","
","428.90000000596046","","48","","","3000","1","","","images/tutgreenplanet.jpg","images/tutalien2","images/tutalien1","images/tutrocket1","images/tutalien2","images/nothing.png","2","practice","false","2","rare","0","2022-02-04 21:33:14.346"
"two-step-fixation","120","531736","0.0-61.0-2.19","72","643","12","Female","true","false","false","false","""event"",""trial"",""time""
""fullscreenenter"",""5"",""39019""
","
","
","""event"",""trial"",""time""
""fullscreenenter"",""5"",""39019""
","
","","images/earth.jpg","","","","","","","","","","","","","","fixation","","","","","",""
"d3-instructions","121","539662","0.0-62.0","72","643","12","Female","true","false","false","false","""event"",""trial"",""time""
""fullscreenenter"",""5"",""39019""
","
","
","""event"",""trial"",""time""
""fullscreenenter"",""5"",""39019""
","
","","","","","","","","","","","","","","","","","","","","","",""
"audio-keyboard-response","122","544910","0.0-63.0","72","643","12","Female","true","false","false","false","""event"",""trial"",""time""
""fullscreenenter"",""5"",""39019""
","
","
","""event"",""trial"",""time""
""fullscreenenter"",""5"",""39019""
","
","5240","audio/instructions/treasure_feedback.wav","32","","","","","","","","","","","","","","","","","","",""
"d3-instructions","123","564622","0.0-64.0","72","643","12","Female","true","false","false","false","""event"",""trial"",""time""
""fullscreenenter"",""5"",""39019""
","
","
","""event"",""trial"",""time""
""fullscreenenter"",""5"",""39019""
","
","","","","","","","","","","","","","","","","","","","","","",""
"d3-instructions","124","580374","0.0-65.0","72","643","12","Female","true","false","false","false","""event"",""trial"",""time""
""fullscreenenter"",""5"",""39019""
","
","
","""event"",""trial"",""time""
""fullscreenenter"",""5"",""39019""
","
","","","","","","","","","","","","","","","","","","","","","",""
"d3-instructions","125","605726","0.0-66.0","72","643","12","Female","true","false","false","false","""event"",""trial"",""time""
""fullscreenenter"",""5"",""39019""
","
","
","""event"",""trial"",""time""
""fullscreenenter"",""5"",""39019""
","
","","","","","","","","","","","","","","","","","","","","","",""
"d3-instructions","126","621950","0.0-67.0","72","643","12","Female","true","false","false","false","""event"",""trial"",""time""
""fullscreenenter"",""5"",""39019""
","
","
","""event"",""trial"",""time""
""fullscreenenter"",""5"",""39019""
","
","","","","","","","","","","","","","","","","","","","","","",""
"d3-instructions","127","631358","0.0-68.0","72","643","12","Female","true","false","false","false","""event"",""trial"",""time""
""fullscreenenter"",""5"",""39019""
","
","
","""event"",""trial"",""time""
""fullscreenenter"",""5"",""39019""
","
","","","","","","","","","","","","","","","","","","","","","",""
"instructions-quiz","128","637671","0.0-69.0","72","643","12","Female","true","false","false","false","""event"",""trial"",""time""
""fullscreenenter"",""5"",""39019""
","
","
","""event"",""trial"",""time""
""fullscreenenter"",""5"",""39019""
","
","6311.20000000298","audio/quiz/Q1_Prompt.wav","","1","","","","","","","","","","","","","","","","","",""
"audio-keyboard-response","129","646840","0.0-70.0","72","643","12","Female","true","false","false","false","""event"",""trial"",""time""
""fullscreenenter"",""5"",""39019""
","
","
","""event"",""trial"",""time""
""fullscreenenter"",""5"",""39019""
","
","null","audio/quiz/Q1_Correct.wav","null","","","","","","","","","","","","","","","","","","",""
"instructions-quiz","130","652162","0.0-71.0","72","643","12","Female","true","false","false","false","""event"",""trial"",""time""
""fullscreenenter"",""5"",""39019""
","
","
","""event"",""trial"",""time""
""fullscreenenter"",""5"",""39019""
","
","5320","audio/quiz/Q2_Prompt.wav","","0","","","","","","","","","","","","","","","","","",""
"audio-keyboard-response","131","665030","0.0-72.0","72","643","12","Female","true","false","false","false","""event"",""trial"",""time""
""fullscreenenter"",""5"",""39019""
","
","
","""event"",""trial"",""time""
""fullscreenenter"",""5"",""39019""
","
","null","audio/quiz/Q2_Correct.wav","null","","","","","","","","","","","","","","","","","","",""
"instructions-quiz","132","668220","0.0-73.0","72","643","12","Female","true","false","false","false","""event"",""trial"",""time""
""fullscreenenter"",""5"",""39019""
","
","
","""event"",""trial"",""time""
""fullscreenenter"",""5"",""39019""
","
","3188","audio/quiz/Q3_Prompt.wav","","1","","","","","","","","","","","","","","","","","",""
"audio-keyboard-response","133","674020","0.0-74.0","72","643","12","Female","true","false","false","false","""event"",""trial"",""time""
""fullscreenenter"",""5"",""39019""
","
","
","""event"",""trial"",""time""
""fullscreenenter"",""5"",""39019""
","
","null","audio/quiz/Q3_Correct.wav","null","","","","","","","","","","","","","","","","","","",""
"d3-instructions","134","690814","0.0-75.0","72","643","12","Female","true","false","false","false","""event"",""trial"",""time""
""fullscreenenter"",""5"",""39019""
","
","
","""event"",""trial"",""time""
""fullscreenenter"",""5"",""39019""
","
","","","","","","","","","","","","","","","","","","","","","",""
"d3-animate-choice","135","693783","0.0-76.0-0.0","72","643","12","Female","true","false","false","false","""event"",""trial"",""time""
""fullscreenenter"",""5"",""39019""
","
","
","""event"",""trial"",""time""
""fullscreenenter"",""5"",""39019""
","
","965.0999999940395","","48","","","3000","1","","","images/earth.jpg","images/rocket2","images/rocket1","null","images/rocket2","","1","real","null","2","","",""
"d3-animate-choice","136","696526","0.0-76.0-1.0","72","643","12","Female","true","false","false","false","""event"",""trial"",""time""
""fullscreenenter"",""5"",""39019""
","
","
","""event"",""trial"",""time""
""fullscreenenter"",""5"",""39019""
","
","741","","48","","","3000","1","","","images/redplanet1.jpg","images/alien2","images/alien1","images/rocket2","images/alien2","images/t.png","2","real","true","2","common","1","2022-02-04 21:36:00.139"
"two-step-fixation","137","697529","0.0-76.0-2.0","72","643","12","Female","true","false","false","false","""event"",""trial"",""time""
""fullscreenenter"",""5"",""39019""
","
","
","""event"",""trial"",""time""
""fullscreenenter"",""5"",""39019""
","
","","images/earth.jpg","","","","","","","","","","","","","","fixation","","","","","",""
"d3-animate-choice","138","700116","0.0-76.0-0.1","72","643","12","Female","true","false","false","false","""event"",""trial"",""time""
""fullscreenenter"",""5"",""39019""
","
","
","""event"",""trial"",""time""
""fullscreenenter"",""5"",""39019""
","
","579","","48","","","3000","1","","","images/earth.jpg","images/rocket2","images/rocket1","null","images/rocket2","","1","real","null","2","","",""
"d3-animate-choice","139","702670","0.0-76.0-1.1","72","643","12","Female","true","false","false","false","""event"",""trial"",""time""
""fullscreenenter"",""5"",""39019""
","
","
","""event"",""trial"",""time""
""fullscreenenter"",""5"",""39019""
","
","552.0999999940395","","48","","","3000","1","","","images/redplanet1.jpg","images/alien2","images/alien1","images/rocket2","images/alien2","images/t.png","2","real","true","2","common","1","2022-02-04 21:36:06.282"
"two-step-fixation","140","703673","0.0-76.0-2.1","72","643","12","Female","true","false","false","false","""event"",""trial"",""time""
""fullscreenenter"",""5"",""39019""
","
","
","""event"",""trial"",""time""
""fullscreenenter"",""5"",""39019""
","
","","images/earth.jpg","","","","","","","","","","","","","","fixation","","","","","",""
"d3-animate-choice","141","706088","0.0-76.0-0.2","72","643","12","Female","true","false","false","false","""event"",""trial"",""time""
""fullscreenenter"",""5"",""39019""
","
","
","""event"",""trial"",""time""
""fullscreenenter"",""5"",""39019""
","
","401.79999999701977","","49","","","3000","1","","","images/earth.jpg","images/rocket2","images/rocket1","null","images/rocket1","","1","real","null","1","","",""
"d3-animate-choice","142","708738","0.0-76.0-1.2","72","643","12","Female","true","false","false","false","""event"",""trial"",""time""
""fullscreenenter"",""5"",""39019""
","
","
","""event"",""trial"",""time""
""fullscreenenter"",""5"",""39019""
","
","643.5","","48","","","3000","1","","","images/redplanet1.jpg","images/alien2","images/alien1","images/rocket1","images/alien2","images/t.png","2","real","false","2","rare","1","2022-02-04 21:36:12.351"
"two-step-fixation","143","709753","0.0-76.0-2.2","72","643","12","Female","true","false","false","false","""event"",""trial"",""time""
""fullscreenenter"",""5"",""39019""
","
","
","""event"",""trial"",""time""
""fullscreenenter"",""5"",""39019""
","
","","images/earth.jpg","","","","","","","","","","","","","","fixation","","","","","",""
"d3-animate-choice","144","712298","0.0-76.0-0.3","72","643","12","Female","true","false","false","false","""event"",""trial"",""time""
""fullscreenenter"",""5"",""39019""
","
","
","""event"",""trial"",""time""
""fullscreenenter"",""5"",""39019""
","
","530.1000000089407","","48","","","3000","1","","","images/earth.jpg","images/rocket2","images/rocket1","null","images/rocket2","","1","real","null","2","","",""
"d3-animate-choice","145","715178","0.0-76.0-1.3","72","643","12","Female","true","false","false","false","""event"",""trial"",""time""
""fullscreenenter"",""5"",""39019""
","
","
","""event"",""trial"",""time""
""fullscreenenter"",""5"",""39019""
","
","873","","48","","","3000","1","","","images/redplanet1.jpg","images/alien2","images/alien1","images/rocket2","images/alien2","images/t.png","2","real","true","2","common","1","2022-02-04 21:36:18.790"
"two-step-fixation","146","716198","0.0-76.0-2.3","72","643","12","Female","true","false","false","false","""event"",""trial"",""time""
""fullscreenenter"",""5"",""39019""
","
","
","""event"",""trial"",""time""
""fullscreenenter"",""5"",""39019""
","
","","images/earth.jpg","","","","","","","","","","","","","","fixation","","","","","",""
"d3-animate-choice","147","718742","0.0-76.0-0.4","72","643","12","Female","true","false","false","false","""event"",""trial"",""time""
""fullscreenenter"",""5"",""39019""
","
","
","""event"",""trial"",""time""
""fullscreenenter"",""5"",""39019""
","
","541.1000000089407","","49","","","3000","1","","","images/earth.jpg","images/rocket2","images/rocket1","null","images/rocket1","","1","real","null","1","","",""
"d3-animate-choice","148","721534","0.0-76.0-1.4","72","643","12","Female","true","false","false","false","""event"",""trial"",""time""
""fullscreenenter"",""5"",""39019""
","
","
","""event"",""trial"",""time""
""fullscreenenter"",""5"",""39019""
","
","789.5","","49","","","3000","1","","","images/purpleplanet.jpg","images/alien4","images/alien3","images/rocket1","images/alien3","images/nothing.png","2","real","true","1","common","0","2022-02-04 21:36:25.147"
"two-step-fixation","149","722536","0.0-76.0-2.4","72","643","12","Female","true","false","false","false","""event"",""trial"",""time""
""fullscreenenter"",""5"",""39019""
","
","
","""event"",""trial"",""time""
""fullscreenenter"",""5"",""39019""
","
","","images/earth.jpg","","","","","","","","","","","","","","fixation","","","","","",""
"d3-animate-choice","150","725183","0.0-76.0-0.5","72","643","12","Female","true","false","false","false","""event"",""trial"",""time""
""fullscreenenter"",""5"",""39019""
","
","
","""event"",""trial"",""time""
""fullscreenenter"",""5"",""39019""
","
","643.2000000029802","","49","","","3000","1","","","images/earth.jpg","images/rocket2","images/rocket1","null","images/rocket1","","1","real","null","1","","",""
"d3-animate-choice","151","727630","0.0-76.0-1.5","72","643","12","Female","true","false","false","false","""event"",""trial"",""time""
""fullscreenenter"",""5"",""39019""
","
","
","""event"",""trial"",""time""
""fullscreenenter"",""5"",""39019""
","
","444.69999998807907","","48","","","3000","1","","","images/purpleplanet.jpg","images/alien4","images/alien3","images/rocket1","images/alien4","images/t.png","2","real","true","2","common","1","2022-02-04 21:36:31.242"
"two-step-fixation","152","728632","0.0-76.0-2.5","72","643","12","Female","true","false","false","false","""event"",""trial"",""time""
""fullscreenenter"",""5"",""39019""
","
","
","""event"",""trial"",""time""
""fullscreenenter"",""5"",""39019""
","
","","images/earth.jpg","","","","","","","","","","","","","","fixation","","","","","",""
"d3-animate-choice","153","731342","0.0-76.0-0.6","72","643","12","Female","true","false","false","false","""event"",""trial"",""time""
""fullscreenenter"",""5"",""39019""
","
","
","""event"",""trial"",""time""
""fullscreenenter"",""5"",""39019""
","
","707.6000000089407","","49","","","3000","1","","","images/earth.jpg","images/rocket2","images/rocket1","null","images/rocket1","","1","real","null","1","","",""
"d3-animate-choice","154","734013","0.0-76.0-1.6","72","643","12","Female","true","false","false","false","""event"",""trial"",""time""
""fullscreenenter"",""5"",""39019""
","
","
","""event"",""trial"",""time""
""fullscreenenter"",""5"",""39019""
","
","669.7999999970198","","48","","","3000","1","","","images/purpleplanet.jpg","images/alien4","images/alien3","images/rocket1","images/alien4","images/nothing.png","2","real","true","2","common","0","2022-02-04 21:36:37.625"
"two-step-fixation","155","735015","0.0-76.0-2.6","72","643","12","Female","true","false","false","false","""event"",""trial"",""time""
""fullscreenenter"",""5"",""39019""
","
","
","""event"",""trial"",""time""
""fullscreenenter"",""5"",""39019""
","
","","images/earth.jpg","","","","","","","","","","","","","","fixation","","","","","",""
"d3-animate-choice","156","737670","0.0-76.0-0.7","72","643","12","Female","true","false","false","false","""event"",""trial"",""time""
""fullscreenenter"",""5"",""39019""
","
","
","""event"",""trial"",""time""
""fullscreenenter"",""5"",""39019""
","
","652.5","","48","","","3000","1","","","images/earth.jpg","images/rocket2","images/rocket1","null","images/rocket2","","1","real","null","2","","",""
"d3-animate-choice","157","740350","0.0-76.0-1.7","72","643","12","Female","true","false","false","false","""event"",""trial"",""time""
""fullscreenenter"",""5"",""39019""
","
","
","""event"",""trial"",""time""
""fullscreenenter"",""5"",""39019""
","
","677.6000000089407","","48","","","3000","1","","","images/redplanet1.jpg","images/alien2","images/alien1","images/rocket2","images/alien2","images/t.png","2","real","true","2","common","1","2022-02-04 21:36:43.962"
"two-step-fixation","158","741352","0.0-76.0-2.7","72","643","12","Female","true","false","false","false","""event"",""trial"",""time""
""fullscreenenter"",""5"",""39019""
","
","
","""event"",""trial"",""time""
""fullscreenenter"",""5"",""39019""
","
","","images/earth.jpg","","","","","","","","","","","","","","fixation","","","","","",""
"d3-animate-choice","159","744102","0.0-76.0-0.8","72","643","12","Female","true","false","false","false","""event"",""trial"",""time""
""fullscreenenter"",""5"",""39019""
","
","
","""event"",""trial"",""time""
""fullscreenenter"",""5"",""39019""
","
","747.8999999910593","","48","","","3000","1","","","images/earth.jpg","images/rocket2","images/rocket1","null","images/rocket2","","1","real","null","2","","",""
"d3-animate-choice","160","746694","0.0-76.0-1.8","72","643","12","Female","true","false","false","false","""event"",""trial"",""time""
""fullscreenenter"",""5"",""39019""
","
","
","""event"",""trial"",""time""
""fullscreenenter"",""5"",""39019""
","
","590.2000000029802","","48","","","3000","1","","","images/purpleplanet.jpg","images/alien4","images/alien3","images/rocket2","images/alien4","images/nothing.png","2","real","false","2","rare","0","2022-02-04 21:36:50.306"
"two-step-fixation","161","747696","0.0-76.0-2.8","72","643","12","Female","true","false","false","false","""event"",""trial"",""time""
""fullscreenenter"",""5"",""39019""
","
","
","""event"",""trial"",""time""
""fullscreenenter"",""5"",""39019""
","
","","images/earth.jpg","","","","","","","","","","","","","","fixation","","","","","",""
"d3-animate-choice","162","750398","0.0-76.0-0.9","72","643","12","Female","true","false","false","false","""event"",""trial"",""time""
""fullscreenenter"",""5"",""39019""
","
","
","""event"",""trial"",""time""
""fullscreenenter"",""5"",""39019""
","
","699.5999999940395","","48","","","3000","1","","","images/earth.jpg","images/rocket2","images/rocket1","null","images/rocket2","","1","real","null","2","","",""
"d3-animate-choice","163","753135","0.0-76.0-1.9","72","643","12","Female","true","false","false","false","""event"",""trial"",""time""
""fullscreenenter"",""5"",""39019""
","
","
","""event"",""trial"",""time""
""fullscreenenter"",""5"",""39019""
","
","733.5","","48","","","3000","1","","","images/redplanet1.jpg","images/alien2","images/alien1","images/rocket2","images/alien2","images/nothing.png","2","real","true","2","common","0","2022-02-04 21:36:56.747"
"two-step-fixation","164","754137","0.0-76.0-2.9","72","643","12","Female","true","false","false","false","""event"",""trial"",""time""
""fullscreenenter"",""5"",""39019""
","
","
","""event"",""trial"",""time""
""fullscreenenter"",""5"",""39019""
","
","","images/earth.jpg","","","","","","","","","","","","","","fixation","","","","","",""
"d3-animate-choice","165","756638","0.0-76.0-0.10","72","643","12","Female","true","false","false","false","""event"",""trial"",""time""
""fullscreenenter"",""5"",""39019""
","
","
","""event"",""trial"",""time""
""fullscreenenter"",""5"",""39019""
","
","498.90000000596046","","49","","","3000","1","","","images/earth.jpg","images/rocket2","images/rocket1","null","images/rocket1","","1","real","null","1","","",""
"d3-animate-choice","166","759342","0.0-76.0-1.10","72","643","12","Female","true","false","false","false","""event"",""trial"",""time""
""fullscreenenter"",""5"",""39019""
","
","
","""event"",""trial"",""time""
""fullscreenenter"",""5"",""39019""
","
","701.5","","49","","","3000","1","","","images/purpleplanet.jpg","images/alien4","images/alien3","images/rocket1","images/alien3","images/nothing.png","2","real","true","1","common","0","2022-02-04 21:37:02.954"
"two-step-fixation","167","760344","0.0-76.0-2.10","72","643","12","Female","true","false","false","false","""event"",""trial"",""time""
""fullscreenenter"",""5"",""39019""
","
","
","""event"",""trial"",""time""
""fullscreenenter"",""5"",""39019""
","
","","images/earth.jpg","","","","","","","","","","","","","","fixation","","","","","",""
"d3-animate-choice","168","762638","0.0-76.0-0.11","72","643","12","Female","true","false","false","false","""event"",""trial"",""time""
""fullscreenenter"",""5"",""39019""
","
","
","""event"",""trial"",""time""
""fullscreenenter"",""5"",""39019""
","
","291.5","","49","","","3000","1","","","images/earth.jpg","images/rocket2","images/rocket1","null","images/rocket1","","1","real","null","1","","",""
"d3-animate-choice","169","764974","0.0-76.0-1.11","72","643","12","Female","true","false","false","false","""event"",""trial"",""time""
""fullscreenenter"",""5"",""39019""
","
","
","""event"",""trial"",""time""
""fullscreenenter"",""5"",""39019""
","
","333.6000000089407","","49","","","3000","1","","","images/purpleplanet.jpg","images/alien4","images/alien3","images/rocket1","images/alien3","images/nothing.png","2","real","true","1","common","0","2022-02-04 21:37:08.586"
"two-step-fixation","170","765976","0.0-76.0-2.11","72","643","12","Female","true","false","false","false","""event"",""trial"",""time""
""fullscreenenter"",""5"",""39019""
","
","
","""event"",""trial"",""time""
""fullscreenenter"",""5"",""39019""
","
","","images/earth.jpg","","","","","","","","","","","","","","fixation","","","","","",""
"d3-animate-choice","171","768295","0.0-76.0-0.12","72","643","12","Female","true","false","false","false","""event"",""trial"",""time""
""fullscreenenter"",""5"",""39019""
","
","
","""event"",""trial"",""time""
""fullscreenenter"",""5"",""39019""
","
","315.70000000298023","","49","","","3000","1","","","images/earth.jpg","images/rocket2","images/rocket1","null","images/rocket1","","1","real","null","1","","",""
"d3-animate-choice","172","770854","0.0-76.0-1.12","72","643","12","Female","true","false","false","false","""event"",""trial"",""time""
""fullscreenenter"",""5"",""39019""
","
","
","""event"",""trial"",""time""
""fullscreenenter"",""5"",""39019""
","
","556.5999999940395","","49","","","3000","1","","","images/purpleplanet.jpg","images/alien4","images/alien3","images/rocket1","images/alien3","images/t.png","2","real","true","1","common","1","2022-02-04 21:37:14.466"
"two-step-fixation","173","771856","0.0-76.0-2.12","72","643","12","Female","true","false","false","false","""event"",""trial"",""time""
""fullscreenenter"",""5"",""39019""
","
","
","""event"",""trial"",""time""
""fullscreenenter"",""5"",""39019""
","
","","images/earth.jpg","","","","","","","","","","","","","","fixation","","","","","",""
"d3-animate-choice","174","774422","0.0-76.0-0.13","72","643","12","Female","true","false","false","false","""event"",""trial"",""time""
""fullscreenenter"",""5"",""39019""
","
","
","""event"",""trial"",""time""
""fullscreenenter"",""5"",""39019""
","
","563.2999999970198","","49","","","3000","1","","","images/earth.jpg","images/rocket2","images/rocket1","null","images/rocket1","","1","real","null","1","","",""
"d3-animate-choice","175","776766","0.0-76.0-1.13","72","643","12","Female","true","false","false","false","""event"",""trial"",""time""
""fullscreenenter"",""5"",""39019""
","
","
","""event"",""trial"",""time""
""fullscreenenter"",""5"",""39019""
","
","341.69999998807907","","49","","","3000","1","","","images/redplanet1.jpg","images/alien2","images/alien1","images/rocket1","images/alien1","images/t.png","2","real","false","1","rare","1","2022-02-04 21:37:20.379"
"two-step-fixation","176","777768","0.0-76.0-2.13","72","643","12","Female","true","false","false","false","""event"",""trial"",""time""
""fullscreenenter"",""5"",""39019""
","
","
","""event"",""trial"",""time""
""fullscreenenter"",""5"",""39019""
","
","","images/earth.jpg","","","","","","","","","","","","","","fixation","","","","","",""
"d3-animate-choice","177","780366","0.0-76.0-0.14","72","643","12","Female","true","false","false","false","""event"",""trial"",""time""
""fullscreenenter"",""5"",""39019""
","
","
","""event"",""trial"",""time""
""fullscreenenter"",""5"",""39019""
","
","595.2999999970198","","48","","","3000","1","","","images/earth.jpg","images/rocket2","images/rocket1","null","images/rocket2","","1","real","null","2","","",""
"d3-animate-choice","178","783014","0.0-76.0-1.14","72","643","12","Female","true","false","false","false","""event"",""trial"",""time""
""fullscreenenter"",""5"",""39019""
","
","
","""event"",""trial"",""time""
""fullscreenenter"",""5"",""39019""
","
","645.5","","48","","","3000","1","","","images/redplanet1.jpg","images/alien2","images/alien1","images/rocket2","images/alien2","images/t.png","2","real","true","2","common","1","2022-02-04 21:37:26.626"
"two-step-fixation","179","784016","0.0-76.0-2.14","72","643","12","Female","true","false","false","false","""event"",""trial"",""time""
""fullscreenenter"",""5"",""39019""
","
","
","""event"",""trial"",""time""
""fullscreenenter"",""5"",""39019""
","
","","images/earth.jpg","","","","","","","","","","","","","","fixation","","","","","",""
"d3-animate-choice","180","787031","0.0-76.0-0.15","72","643","12","Female","true","false","false","false","""event"",""trial"",""time""
""fullscreenenter"",""5"",""39019""
","
","
","""event"",""trial"",""time""
""fullscreenenter"",""5"",""39019""
","
","1011.7999999970198","","49","","","3000","1","","","images/earth.jpg","images/rocket2","images/rocket1","null","images/rocket1","","1","real","null","1","","",""
"d3-animate-choice","181","790134","0.0-76.0-1.15","72","643","12","Female","true","false","false","false","""event"",""trial"",""time""
""fullscreenenter"",""5"",""39019""
","
","
","""event"",""trial"",""time""
""fullscreenenter"",""5"",""39019""
","
","1101.199999988079","","49","","","3000","1","","","images/purpleplanet.jpg","images/alien4","images/alien3","images/rocket1","images/alien3","images/t.png","2","real","true","1","common","1","2022-02-04 21:37:33.746"
"two-step-fixation","182","791136","0.0-76.0-2.15","72","643","12","Female","true","false","false","false","""event"",""trial"",""time""
""fullscreenenter"",""5"",""39019""
","
","
","""event"",""trial"",""time""
""fullscreenenter"",""5"",""39019""
","
","","images/earth.jpg","","","","","","","","","","","","","","fixation","","","","","",""
"d3-animate-choice","183","793742","0.0-76.0-0.16","72","643","12","Female","true","false","false","false","""event"",""trial"",""time""
""fullscreenenter"",""5"",""39019""
","
","
","""event"",""trial"",""time""
""fullscreenenter"",""5"",""39019""
","
","603.5999999940395","","49","","","3000","1","","","images/earth.jpg","images/rocket2","images/rocket1","null","images/rocket1","","1","real","null","1","","",""
"d3-animate-choice","184","796174","0.0-76.0-1.16","72","643","12","Female","true","false","false","false","""event"",""trial"",""time""
""fullscreenenter"",""5"",""39019""
","
","
","""event"",""trial"",""time""
""fullscreenenter"",""5"",""39019""
","
","429.19999998807907","","49","","","3000","1","","","images/purpleplanet.jpg","images/alien4","images/alien3","images/rocket1","images/alien3","images/t.png","2","real","true","1","common","1","2022-02-04 21:37:39.786"
"two-step-fixation","185","797176","0.0-76.0-2.16","72","643","12","Female","true","false","false","false","""event"",""trial"",""time""
""fullscreenenter"",""5"",""39019""
","
","
","""event"",""trial"",""time""
""fullscreenenter"",""5"",""39019""
","
","","images/earth.jpg","","","","","","","","","","","","","","fixation","","","","","",""
"d3-animate-choice","186","799534","0.0-76.0-0.17","72","643","12","Female","true","false","false","false","""event"",""trial"",""time""
""fullscreenenter"",""5"",""39019""
","
","
","""event"",""trial"",""time""
""fullscreenenter"",""5"",""39019""
","
","355.59999999403954","","48","","","3000","1","","","images/earth.jpg","images/rocket2","images/rocket1","null","images/rocket2","","1","real","null","2","","",""
"d3-animate-choice","187","802390","0.0-76.0-1.17","72","643","12","Female","true","false","false","false","""event"",""trial"",""time""
""fullscreenenter"",""5"",""39019""
","
","
","""event"",""trial"",""time""
""fullscreenenter"",""5"",""39019""
","
","853.2000000029802","","48","","","3000","1","","","images/redplanet1.jpg","images/alien2","images/alien1","images/rocket2","images/alien2","images/t.png","2","real","true","2","common","1","2022-02-04 21:37:46.002"
"two-step-fixation","188","803394","0.0-76.0-2.17","72","643","12","Female","true","false","false","false","""event"",""trial"",""time""
""fullscreenenter"",""5"",""39019""
","
","
","""event"",""trial"",""time""
""fullscreenenter"",""5"",""39019""
","
","","images/earth.jpg","","","","","","","","","","","","","","fixation","","","","","",""
"d3-animate-choice","189","805918","0.0-76.0-0.18","72","643","12","Female","true","false","false","false","""event"",""trial"",""time""
""fullscreenenter"",""5"",""39019""
","
","
","""event"",""trial"",""time""
""fullscreenenter"",""5"",""39019""
","
","521.2999999970198","","48","","","3000","1","","","images/earth.jpg","images/rocket2","images/rocket1","null","images/rocket2","","1","real","null","2","","",""
"d3-animate-choice","190","808607","0.0-76.0-1.18","72","643","12","Female","true","false","false","false","""event"",""trial"",""time""
""fullscreenenter"",""5"",""39019""
","
","
","""event"",""trial"",""time""
""fullscreenenter"",""5"",""39019""
","
","685.4000000059605","","48","","","3000","1","","","images/redplanet1.jpg","images/alien2","images/alien1","images/rocket2","images/alien2","images/nothing.png","2","real","true","2","common","0","2022-02-04 21:37:52.219"
"two-step-fixation","191","809609","0.0-76.0-2.18","72","643","12","Female","true","false","false","false","""event"",""trial"",""time""
""fullscreenenter"",""5"",""39019""
","
","
","""event"",""trial"",""time""
""fullscreenenter"",""5"",""39019""
","
","","images/earth.jpg","","","","","","","","","","","","","","fixation","","","","","",""
"d3-animate-choice","192","812086","0.0-76.0-0.19","72","643","12","Female","true","false","false","false","""event"",""trial"",""time""
""fullscreenenter"",""5"",""39019""
","
","
","""event"",""trial"",""time""
""fullscreenenter"",""5"",""39019""
","
","474.40000000596046","","48","","","3000","1","","","images/earth.jpg","images/rocket2","images/rocket1","null","images/rocket2","","1","real","null","2","","",""
"d3-animate-choice","193","814582","0.0-76.0-1.19","72","643","12","Female","true","false","false","false","""event"",""trial"",""time""
""fullscreenenter"",""5"",""39019""
","
","
","""event"",""trial"",""time""
""fullscreenenter"",""5"",""39019""
","
","493","","49","","","3000","1","","","images/purpleplanet.jpg","images/alien4","images/alien3","images/rocket2","images/alien3","images/nothing.png","2","real","false","1","rare","0","2022-02-04 21:37:58.194"
"two-step-fixation","194","815584","0.0-76.0-2.19","72","643","12","Female","true","false","false","false","""event"",""trial"",""time""
""fullscreenenter"",""5"",""39019""
","
","
","""event"",""trial"",""time""
""fullscreenenter"",""5"",""39019""
","
","","images/earth.jpg","","","","","","","","","","","","","","fixation","","","","","",""
"d3-animate-choice","195","817990","0.0-76.0-0.20","72","643","12","Female","true","false","false","false","""event"",""trial"",""time""
""fullscreenenter"",""5"",""39019""
","
","
","""event"",""trial"",""time""
""fullscreenenter"",""5"",""39019""
","
","403.3999999910593","","48","","","3000","1","","","images/earth.jpg","images/rocket2","images/rocket1","null","images/rocket2","","1","real","null","2","","",""
"d3-animate-choice","196","820710","0.0-76.0-1.20","72","643","12","Female","true","false","false","false","""event"",""trial"",""time""
""fullscreenenter"",""5"",""39019""
","
","
","""event"",""trial"",""time""
""fullscreenenter"",""5"",""39019""
","
","717.8999999910593","","48","","","3000","1","","","images/redplanet1.jpg","images/alien2","images/alien1","images/rocket2","images/alien2","images/t.png","2","real","true","2","common","1","2022-02-04 21:38:04.323"
"two-step-fixation","197","821712","0.0-76.0-2.20","72","643","12","Female","true","false","false","false","""event"",""trial"",""time""
""fullscreenenter"",""5"",""39019""
","
","
","""event"",""trial"",""time""
""fullscreenenter"",""5"",""39019""
","
","","images/earth.jpg","","","","","","","","","","","","","","fixation","","","","","",""
"d3-animate-choice","198","824094","0.0-76.0-0.21","72","643","12","Female","true","false","false","false","""event"",""trial"",""time""
""fullscreenenter"",""5"",""39019""
","
","
","""event"",""trial"",""time""
""fullscreenenter"",""5"",""39019""
","
","379.3999999910593","","48","","","3000","1","","","images/earth.jpg","images/rocket2","images/rocket1","null","images/rocket2","","1","real","null","2","","",""
"d3-animate-choice","199","826518","0.0-76.0-1.21","72","643","12","Female","true","false","false","false","""event"",""trial"",""time""
""fullscreenenter"",""5"",""39019""
","
","
","""event"",""trial"",""time""
""fullscreenenter"",""5"",""39019""
","
","421.09999999403954","","48","","","3000","1","","","images/purpleplanet.jpg","images/alien4","images/alien3","images/rocket2","images/alien4","images/nothing.png","2","real","false","2","rare","0","2022-02-04 21:38:10.130"
"two-step-fixation","200","827520","0.0-76.0-2.21","72","643","12","Female","true","false","false","false","""event"",""trial"",""time""
""fullscreenenter"",""5"",""39019""
","
","
","""event"",""trial"",""time""
""fullscreenenter"",""5"",""39019""
","
","","images/earth.jpg","","","","","","","","","","","","","","fixation","","","","","",""
"d3-animate-choice","201","830086","0.0-76.0-0.22","72","643","12","Female","true","false","false","false","""event"",""trial"",""time""
""fullscreenenter"",""5"",""39019""
","
","
","""event"",""trial"",""time""
""fullscreenenter"",""5"",""39019""
","
","563.5999999940395","","48","","","3000","1","","","images/earth.jpg","images/rocket2","images/rocket1","null","images/rocket2","","1","real","null","2","","",""
"d3-animate-choice","202","832966","0.0-76.0-1.22","72","643","12","Female","true","false","false","false","""event"",""trial"",""time""
""fullscreenenter"",""5"",""39019""
","
","
","""event"",""trial"",""time""
""fullscreenenter"",""5"",""39019""
","
","877.2000000029802","","49","","","3000","1","","","images/redplanet1.jpg","images/alien2","images/alien1","images/rocket2","images/alien1","images/nothing.png","2","real","true","1","common","0","2022-02-04 21:38:16.579"
"two-step-fixation","203","833969","0.0-76.0-2.22","72","643","12","Female","true","false","false","false","""event"",""trial"",""time""
""fullscreenenter"",""5"",""39019""
","
","
","""event"",""trial"",""time""
""fullscreenenter"",""5"",""39019""
","
","","images/earth.jpg","","","","","","","","","","","","","","fixation","","","","","",""
"d3-animate-choice","204","836334","0.0-76.0-0.23","72","643","12","Female","true","false","false","false","""event"",""trial"",""time""
""fullscreenenter"",""5"",""39019""
","
","
","""event"",""trial"",""time""
""fullscreenenter"",""5"",""39019""
","
","362.69999998807907","","49","","","3000","1","","","images/earth.jpg","images/rocket2","images/rocket1","null","images/rocket1","","1","real","null","1","","",""
"d3-animate-choice","205","838886","0.0-76.0-1.23","72","643","12","Female","true","false","false","false","""event"",""trial"",""time""
""fullscreenenter"",""5"",""39019""
","
","
","""event"",""trial"",""time""
""fullscreenenter"",""5"",""39019""
","
","549.2999999970198","","49","","","3000","1","","","images/purpleplanet.jpg","images/alien4","images/alien3","images/rocket1","images/alien3","images/nothing.png","2","real","true","1","common","0","2022-02-04 21:38:22.498"
"two-step-fixation","206","839888","0.0-76.0-2.23","72","643","12","Female","true","false","false","false","""event"",""trial"",""time""
""fullscreenenter"",""5"",""39019""
","
","
","""event"",""trial"",""time""
""fullscreenenter"",""5"",""39019""
","
","","images/earth.jpg","","","","","","","","","","","","","","fixation","","","","","",""
"d3-animate-choice","207","842766","0.0-76.0-0.24","72","643","12","Female","true","false","false","false","""event"",""trial"",""time""
""fullscreenenter"",""5"",""39019""
","
","
","""event"",""trial"",""time""
""fullscreenenter"",""5"",""39019""
","
","875.2000000029802","","48","","","3000","1","","","images/earth.jpg","images/rocket2","images/rocket1","null","images/rocket2","","1","real","null","2","","",""
"d3-animate-choice","208","845383","0.0-76.0-1.24","72","643","12","Female","true","false","false","false","""event"",""trial"",""time""
""fullscreenenter"",""5"",""39019""
","
","
","""event"",""trial"",""time""
""fullscreenenter"",""5"",""39019""
","
","612.9000000059605","","48","","","3000","1","","","images/redplanet1.jpg","images/alien2","images/alien1","images/rocket2","images/alien2","images/t.png","2","real","true","2","common","1","2022-02-04 21:38:28.995"
"two-step-fixation","209","846385","0.0-76.0-2.24","72","643","12","Female","true","false","false","false","""event"",""trial"",""time""
""fullscreenenter"",""5"",""39019""
","
","
","""event"",""trial"",""time""
""fullscreenenter"",""5"",""39019""
","
","","images/earth.jpg","","","","","","","","","","","","","","fixation","","","","","",""
"d3-animate-choice","210","849062","0.0-76.0-0.25","72","643","12","Female","true","false","false","false","""event"",""trial"",""time""
""fullscreenenter"",""5"",""39019""
","
","
","""event"",""trial"",""time""
""fullscreenenter"",""5"",""39019""
","
","674.2000000029802","","48","","","3000","1","","","images/earth.jpg","images/rocket2","images/rocket1","null","images/rocket2","","1","real","null","2","","",""
"d3-animate-choice","211","851709","0.0-76.0-1.25","72","643","12","Female","true","false","false","false","""event"",""trial"",""time""
""fullscreenenter"",""5"",""39019""
","
","
","""event"",""trial"",""time""
""fullscreenenter"",""5"",""39019""
","
","645.5","","48","","","3000","1","","","images/redplanet1.jpg","images/alien2","images/alien1","images/rocket2","images/alien2","images/nothing.png","2","real","true","2","common","0","2022-02-04 21:38:35.321"
"two-step-fixation","212","852712","0.0-76.0-2.25","72","643","12","Female","true","false","false","false","""event"",""trial"",""time""
""fullscreenenter"",""5"",""39019""
","
","
","""event"",""trial"",""time""
""fullscreenenter"",""5"",""39019""
","
","","images/earth.jpg","","","","","","","","","","","","","","fixation","","","","","",""
"d3-animate-choice","213","855206","0.0-76.0-0.26","72","643","12","Female","true","false","false","false","""event"",""trial"",""time""
""fullscreenenter"",""5"",""39019""
","
","
","""event"",""trial"",""time""
""fullscreenenter"",""5"",""39019""
","
","490.79999999701977","","48","","","3000","1","","","images/earth.jpg","images/rocket2","images/rocket1","null","images/rocket2","","1","real","null","2","","",""
"d3-animate-choice","214","857814","0.0-76.0-1.26","72","643","12","Female","true","false","false","false","""event"",""trial"",""time""
""fullscreenenter"",""5"",""39019""
","
","
","""event"",""trial"",""time""
""fullscreenenter"",""5"",""39019""
","
","605.5","","48","","","3000","1","","","images/redplanet1.jpg","images/alien2","images/alien1","images/rocket2","images/alien2","images/t.png","2","real","true","2","common","1","2022-02-04 21:38:41.426"
"two-step-fixation","215","858816","0.0-76.0-2.26","72","643","12","Female","true","false","false","false","""event"",""trial"",""time""
""fullscreenenter"",""5"",""39019""
","
","
","""event"",""trial"",""time""
""fullscreenenter"",""5"",""39019""
","
","","images/earth.jpg","","","","","","","","","","","","","","fixation","","","","","",""
"d3-animate-choice","216","861622","0.0-76.0-0.27","72","643","12","Female","true","false","false","false","""event"",""trial"",""time""
""fullscreenenter"",""5"",""39019""
","
","
","""event"",""trial"",""time""
""fullscreenenter"",""5"",""39019""
","
","803.4000000059605","","48","","","3000","1","","","images/earth.jpg","images/rocket2","images/rocket1","null","images/rocket2","","1","real","null","2","","",""
"d3-animate-choice","217","864246","0.0-76.0-1.27","72","643","12","Female","true","false","false","false","""event"",""trial"",""time""
""fullscreenenter"",""5"",""39019""
","
","
","""event"",""trial"",""time""
""fullscreenenter"",""5"",""39019""
","
","621.4000000059605","","48","","","3000","1","","","images/redplanet1.jpg","images/alien2","images/alien1","images/rocket2","images/alien2","images/t.png","2","real","true","2","common","1","2022-02-04 21:38:47.858"
"two-step-fixation","218","865249","0.0-76.0-2.27","72","643","12","Female","true","false","false","false","""event"",""trial"",""time""
""fullscreenenter"",""5"",""39019""
","
","
","""event"",""trial"",""time""
""fullscreenenter"",""5"",""39019""
","
","","images/earth.jpg","","","","","","","","","","","","","","fixation","","","","","",""
"d3-animate-choice","219","867646","0.0-76.0-0.28","72","643","12","Female","true","false","false","false","""event"",""trial"",""time""
""fullscreenenter"",""5"",""39019""
","
","
","""event"",""trial"",""time""
""fullscreenenter"",""5"",""39019""
","
","393.90000000596046","","48","","","3000","1","","","images/earth.jpg","images/rocket2","images/rocket1","null","images/rocket2","","1","real","null","2","","",""
"d3-animate-choice","220","870581","0.0-76.0-1.28","72","643","12","Female","true","false","false","false","""event"",""trial"",""time""
""fullscreenenter"",""5"",""39019""
","
","
","""event"",""trial"",""time""
""fullscreenenter"",""5"",""39019""
","
","933.1000000089407","","48","","","3000","1","","","images/redplanet1.jpg","images/alien2","images/alien1","images/rocket2","images/alien2","images/t.png","2","real","true","2","common","1","2022-02-04 21:38:54.193"
"two-step-fixation","221","871584","0.0-76.0-2.28","72","643","12","Female","true","false","false","false","""event"",""trial"",""time""
""fullscreenenter"",""5"",""39019""
","
","
","""event"",""trial"",""time""
""fullscreenenter"",""5"",""39019""
","
","","images/earth.jpg","","","","","","","","","","","","","","fixation","","","","","",""
"d3-animate-choice","222","874062","0.0-76.0-0.29","72","643","12","Female","true","false","false","false","""event"",""trial"",""time""
""fullscreenenter"",""5"",""39019""
","
","
","""event"",""trial"",""time""
""fullscreenenter"",""5"",""39019""
","
","475.79999999701977","","48","","","3000","1","","","images/earth.jpg","images/rocket2","images/rocket1","null","images/rocket2","","1","real","null","2","","",""
"d3-animate-choice","223","877270","0.0-76.0-1.29","72","643","12","Female","true","false","false","false","""event"",""trial"",""time""
""fullscreenenter"",""5"",""39019""
","
","
","""event"",""trial"",""time""
""fullscreenenter"",""5"",""39019""
","
","1205.4000000059605","","49","","","3000","1","","","images/purpleplanet.jpg","images/alien4","images/alien3","images/rocket2","images/alien3","images/nothing.png","2","real","false","1","rare","0","2022-02-04 21:39:00.882"
"two-step-fixation","224","878273","0.0-76.0-2.29","72","643","12","Female","true","false","false","false","""event"",""trial"",""time""
""fullscreenenter"",""5"",""39019""
","
","
","""event"",""trial"",""time""
""fullscreenenter"",""5"",""39019""
","
","","images/earth.jpg","","","","","","","","","","","","","","fixation","","","","","",""
"d3-animate-choice","225","880759","0.0-76.0-0.30","72","643","12","Female","true","false","false","false","""event"",""trial"",""time""
""fullscreenenter"",""5"",""39019""
","
","
","""event"",""trial"",""time""
""fullscreenenter"",""5"",""39019""
","
","481.90000000596046","","48","","","3000","1","","","images/earth.jpg","images/rocket2","images/rocket1","null","images/rocket2","","1","real","null","2","","",""
"d3-animate-choice","226","883486","0.0-76.0-1.30","72","643","12","Female","true","false","false","false","""event"",""trial"",""time""
""fullscreenenter"",""5"",""39019""
","
","
","""event"",""trial"",""time""
""fullscreenenter"",""5"",""39019""
","
","724.7000000029802","","48","","","3000","1","","","images/redplanet1.jpg","images/alien2","images/alien1","images/rocket2","images/alien2","images/nothing.png","2","real","true","2","common","0","2022-02-04 21:39:07.098"
"two-step-fixation","227","884488","0.0-76.0-2.30","72","643","12","Female","true","false","false","false","""event"",""trial"",""time""
""fullscreenenter"",""5"",""39019""
","
","
","""event"",""trial"",""time""
""fullscreenenter"",""5"",""39019""
","
","","images/earth.jpg","","","","","","","","","","","","","","fixation","","","","","",""
"d3-animate-choice","228","887295","0.0-76.0-0.31","72","643","12","Female","true","false","false","false","""event"",""trial"",""time""
""fullscreenenter"",""5"",""39019""
","
","
","""event"",""trial"",""time""
""fullscreenenter"",""5"",""39019""
","
","803","","49","","","3000","1","","","images/earth.jpg","images/rocket2","images/rocket1","null","images/rocket1","","1","real","null","1","","",""
"d3-animate-choice","229","889741","0.0-76.0-1.31","72","643","12","Female","true","false","false","false","""event"",""trial"",""time""
""fullscreenenter"",""5"",""39019""
","
","
","""event"",""trial"",""time""
""fullscreenenter"",""5"",""39019""
","
","444.5","","48","","","3000","1","","","images/purpleplanet.jpg","images/alien4","images/alien3","images/rocket1","images/alien4","images/t.png","2","real","true","2","common","1","2022-02-04 21:39:13.353"
"two-step-fixation","230","890744","0.0-76.0-2.31","72","643","12","Female","true","false","false","false","""event"",""trial"",""time""
""fullscreenenter"",""5"",""39019""
","
","
","""event"",""trial"",""time""
""fullscreenenter"",""5"",""39019""
","
","","images/earth.jpg","","","","","","","","","","","","","","fixation","","","","","",""
"d3-animate-choice","231","892894","0.0-76.0-0.32","72","643","12","Female","true","false","false","false","""event"",""trial"",""time""
""fullscreenenter"",""5"",""39019""
","
","
","""event"",""trial"",""time""
""fullscreenenter"",""5"",""39019""
","
","147.1000000089407","","48","","","3000","1","","","images/earth.jpg","images/rocket2","images/rocket1","null","images/rocket2","","1","real","null","2","","",""
"d3-animate-choice","232","895686","0.0-76.0-1.32","72","643","12","Female","true","false","false","false","""event"",""trial"",""time""
""fullscreenenter"",""5"",""39019""
","
","
","""event"",""trial"",""time""
""fullscreenenter"",""5"",""39019""
","
","788.8000000119209","","48","","","3000","1","","","images/redplanet1.jpg","images/alien2","images/alien1","images/rocket2","images/alien2","images/nothing.png","2","real","true","2","common","0","2022-02-04 21:39:19.298"
"two-step-fixation","233","896688","0.0-76.0-2.32","72","643","12","Female","true","false","false","false","""event"",""trial"",""time""
""fullscreenenter"",""5"",""39019""
","
","
","""event"",""trial"",""time""
""fullscreenenter"",""5"",""39019""
","
","","images/earth.jpg","","","","","","","","","","","","","","fixation","","","","","",""
"d3-animate-choice","234","899230","0.0-76.0-0.33","72","643","12","Female","true","false","false","false","""event"",""trial"",""time""
""fullscreenenter"",""5"",""39019""
","
","
","""event"",""trial"",""time""
""fullscreenenter"",""5"",""39019""
","
","539.2000000029802","","49","","","3000","1","","","images/earth.jpg","images/rocket2","images/rocket1","null","images/rocket1","","1","real","null","1","","",""
"d3-animate-choice","235","901662","0.0-76.0-1.33","72","643","12","Female","true","false","false","false","""event"",""trial"",""time""
""fullscreenenter"",""5"",""39019""
","
","
","""event"",""trial"",""time""
""fullscreenenter"",""5"",""39019""
","
","429.79999999701977","","48","","","3000","1","709.9000000059605","48","images/purpleplanet.jpg","images/alien4","images/alien3","images/rocket1","images/alien4","images/t.png","2","real","true","2","common","1","2022-02-04 21:39:25.274"
"two-step-fixation","236","902664","0.0-76.0-2.33","72","643","12","Female","true","false","false","false","""event"",""trial"",""time""
""fullscreenenter"",""5"",""39019""
","
","
","""event"",""trial"",""time""
""fullscreenenter"",""5"",""39019""
","
","","images/earth.jpg","","","","","","","","","","","","","","fixation","","","","","",""
"d3-animate-choice","237","905678","0.0-76.0-0.34","72","643","12","Female","true","false","false","false","""event"",""trial"",""time""
""fullscreenenter"",""5"",""39019""
","
","
","""event"",""trial"",""time""
""fullscreenenter"",""5"",""39019""
","
","1011.2000000029802","","49","","","3000","1","","","images/earth.jpg","images/rocket2","images/rocket1","null","images/rocket1","","1","real","null","1","","",""
"d3-animate-choice","238","908166","0.0-76.0-1.34","72","643","12","Female","true","false","false","false","""event"",""trial"",""time""
""fullscreenenter"",""5"",""39019""
","
","
","""event"",""trial"",""time""
""fullscreenenter"",""5"",""39019""
","
","485.20000000298023","","48","","","3000","1","","","images/purpleplanet.jpg","images/alien4","images/alien3","images/rocket1","images/alien4","images/t.png","2","real","true","2","common","1","2022-02-04 21:39:31.778"
"two-step-fixation","239","909169","0.0-76.0-2.34","72","643","12","Female","true","false","false","false","""event"",""trial"",""time""
""fullscreenenter"",""5"",""39019""
","
","
","""event"",""trial"",""time""
""fullscreenenter"",""5"",""39019""
","
","","images/earth.jpg","","","","","","","","","","","","","","fixation","","","","","",""
"d3-animate-choice","240","911558","0.0-76.0-0.35","72","643","12","Female","true","false","false","false","""event"",""trial"",""time""
""fullscreenenter"",""5"",""39019""
","
","
","""event"",""trial"",""time""
""fullscreenenter"",""5"",""39019""
","
","386.80000001192093","","48","","","3000","1","","","images/earth.jpg","images/rocket2","images/rocket1","null","images/rocket2","","1","real","null","2","","",""
"d3-animate-choice","241","914846","0.0-76.0-1.35","72","643","12","Female","true","false","false","false","""event"",""trial"",""time""
""fullscreenenter"",""5"",""39019""
","
","
","""event"",""trial"",""time""
""fullscreenenter"",""5"",""39019""
","
","1285.300000011921","","48","","","3000","1","","","images/redplanet1.jpg","images/alien2","images/alien1","images/rocket2","images/alien2","images/nothing.png","2","real","true","2","common","0","2022-02-04 21:39:38.458"
"two-step-fixation","242","915848","0.0-76.0-2.35","72","643","12","Female","true","false","false","false","""event"",""trial"",""time""
""fullscreenenter"",""5"",""39019""
","
","
","""event"",""trial"",""time""
""fullscreenenter"",""5"",""39019""
","
","","images/earth.jpg","","","","","","","","","","","","","","fixation","","","","","",""
"d3-animate-choice","243","918334","0.0-76.0-0.36","72","643","12","Female","true","false","false","false","""event"",""trial"",""time""
""fullscreenenter"",""5"",""39019""
","
","
","""event"",""trial"",""time""
""fullscreenenter"",""5"",""39019""
","
","483.20000000298023","","48","","","3000","1","","","images/earth.jpg","images/rocket2","images/rocket1","null","images/rocket2","","1","real","null","2","","",""
"d3-animate-choice","244","921150","0.0-76.0-1.36","72","643","12","Female","true","false","false","false","""event"",""trial"",""time""
""fullscreenenter"",""5"",""39019""
","
","
","""event"",""trial"",""time""
""fullscreenenter"",""5"",""39019""
","
","813.8999999910593","","48","","","3000","1","","","images/redplanet1.jpg","images/alien2","images/alien1","images/rocket2","images/alien2","images/nothing.png","2","real","true","2","common","0","2022-02-04 21:39:44.762"
"two-step-fixation","245","922153","0.0-76.0-2.36","72","643","12","Female","true","false","false","false","""event"",""trial"",""time""
""fullscreenenter"",""5"",""39019""
","
","
","""event"",""trial"",""time""
""fullscreenenter"",""5"",""39019""
","
","","images/earth.jpg","","","","","","","","","","","","","","fixation","","","","","",""
"d3-animate-choice","246","924638","0.0-76.0-0.37","72","643","12","Female","true","false","false","false","""event"",""trial"",""time""
""fullscreenenter"",""5"",""39019""
","
","
","""event"",""trial"",""time""
""fullscreenenter"",""5"",""39019""
","
