"trial_type","trial_index","time_elapsed","internal_node_id","participant_id","subject_id","age","gender","rocket_sides","red_planet_first_rocket","red_display_order","purple_display_order","interactions","blur_events","focus_events","fullscreenenter_events","fullscreenexit_events","rt","stimulus","key_press","button_pressed","success","duration","valid_pressed","rts","keys","planet_text","right_text","left_text","center_text","chosen_text","reward_text","trial_stage","practice_trial","transition_type","choice","transition","reward","timestamp"
"pavlovia","0","3","0.0-0.0","746","5439","17","Female","false","true","false","false","
","
","
","
","
","","","","","","","","","","","","","","","","","","","","","",""
"html-keyboard-response","1","5715","0.0-1.0","746","5439","17","Female","false","true","false","false","
","
","
","
","
","5710.5","Welcome! Press the space bar to begin.","32","","","","","","","","","","","","","","","","","","",""
"audio-keyboard-response","2","11101","0.0-2.0","746","5439","17","Female","false","true","false","false","
","
","
","
","
","5211","audio/beep_loop.wav","32","","","","","","","","","","","","","","","","","","",""
"audio-button-response","3","14945","0.0-3.0","746","5439","17","Female","false","true","false","false","
","
","
","
","
","NaN","audio/fish.mp3","","1","","","","","","","","","","","","","","","","","",""
"audio-button-response","4","17786","0.0-4.0","746","5439","17","Female","false","true","false","false","""event"",""trial"",""time""
""fullscreenenter"",""5"",""28891""
","
","
","""event"",""trial"",""time""
""fullscreenenter"",""5"",""28891""
","
","NaN","audio/tiger.mp3","","4","","","","","","","","","","","","","","","","","",""
"fullscreen","5","29842","0.0-5.0","746","5439","17","Female","false","true","false","false","""event"",""trial"",""time""
""fullscreenenter"",""5"",""28891""
","
","
","""event"",""trial"",""time""
""fullscreenenter"",""5"",""28891""
","
","","","","","true","","","","","","","","","","","","","","","","",""
"d3-instructions","6","44175","0.0-6.0","746","5439","17","Female","false","true","false","false","""event"",""trial"",""time""
""fullscreenenter"",""5"",""28891""
","
","
","""event"",""trial"",""time""
""fullscreenenter"",""5"",""28891""
","
","","","","","","","","","","","","","","","","","","","","","",""
"d3-instructions","7","52399","0.0-7.0","746","5439","17","Female","false","true","false","false","""event"",""trial"",""time""
""fullscreenenter"",""5"",""28891""
","
","
","""event"",""trial"",""time""
""fullscreenenter"",""5"",""28891""
","
","","","","","","","","","","","","","","","","","","","","","",""
"d3-instructions","8","59778","0.0-8.0","746","5439","17","Female","false","true","false","false","""event"",""trial"",""time""
""fullscreenenter"",""5"",""28891""
","
","
","""event"",""trial"",""time""
""fullscreenenter"",""5"",""28891""
","
","","","","","","","","","","","","","","","","","","","","","",""
"d3-instructions","9","70748","0.0-9.0","746","5439","17","Female","false","true","false","false","""event"",""trial"",""time""
""fullscreenenter"",""5"",""28891""
","
","
","""event"",""trial"",""time""
""fullscreenenter"",""5"",""28891""
","
","","","","","","","","","","","","","","","","","","","","","",""
"d3-instructions","10","91038","0.0-10.0","746","5439","17","Female","false","true","false","false","""event"",""trial"",""time""
""fullscreenenter"",""5"",""28891""
","
","
","""event"",""trial"",""time""
""fullscreenenter"",""5"",""28891""
","
","","","","","","","","","","","","","","","","","","","","","",""
"d3-animate-choice","11","94092","0.0-11.0","746","5439","17","Female","false","true","false","false","""event"",""trial"",""time""
""fullscreenenter"",""5"",""28891""
","
","
","""event"",""trial"",""time""
""fullscreenenter"",""5"",""28891""
","
","1028.5999999996275","","49","","","3000","1","2237.5,2934","48,49","images/tutgreenplanet.jpg","images/tutalien1","images/tutalien2","null","images/tutalien2","","NA","practice","null","","","",""
"d3-animate-choice","12","96724","0.0-12.0","746","5439","17","Female","false","true","false","false","""event"",""trial"",""time""
""fullscreenenter"",""5"",""28891""
","
","
","""event"",""trial"",""time""
""fullscreenenter"",""5"",""28891""
","
","623.3000000007451","","48","","","3000","1","","","images/tutgreenplanet.jpg","images/tutalien1","images/tutalien2","null","images/tutalien1","","NA","practice","null","","","",""
"d3-animate-choice","13","99831","0.0-13.0","746","5439","17","Female","false","true","false","false","""event"",""trial"",""time""
""fullscreenenter"",""5"",""28891""
","
","
","""event"",""trial"",""time""
""fullscreenenter"",""5"",""28891""
","
","1084.7999999988824","","49","","","3000","1","","","images/tutgreenplanet.jpg","images/tutalien1","images/tutalien2","null","images/tutalien2","","NA","practice","null","","","",""
"d3-animate-choice","14","103245","0.0-14.0","746","5439","17","Female","false","true","false","false","""event"",""trial"",""time""
""fullscreenenter"",""5"",""28891""
","
","
","""event"",""trial"",""time""
""fullscreenenter"",""5"",""28891""
","
","1399.300000000745","","48","","","3000","1","","","images/tutgreenplanet.jpg","images/tutalien1","images/tutalien2","null","images/tutalien1","","NA","practice","null","","","",""
"d3-instructions","15","110690","0.0-15.0","746","5439","17","Female","false","true","false","false","""event"",""trial"",""time""
""fullscreenenter"",""5"",""28891""
","
","
","""event"",""trial"",""time""
""fullscreenenter"",""5"",""28891""
","
","","","","","","","","","","","","","","","","","","","","","",""
"d3-instructions","16","117592","0.0-16.0","746","5439","17","Female","false","true","false","false","""event"",""trial"",""time""
""fullscreenenter"",""5"",""28891""
","
","
","""event"",""trial"",""time""
""fullscreenenter"",""5"",""28891""
","
","","","","","","","","","","","","","","","","","","","","","",""
"d3-instructions","17","127669","0.0-17.0","746","5439","17","Female","false","true","false","false","""event"",""trial"",""time""
""fullscreenenter"",""5"",""28891""
","
","
","""event"",""trial"",""time""
""fullscreenenter"",""5"",""28891""
","
","","","","","","","","","","","","","","","","","","","","","",""
"d3-instructions","18","140303","0.0-18.0","746","5439","17","Female","false","true","false","false","""event"",""trial"",""time""
""fullscreenenter"",""5"",""28891""
","
","
","""event"",""trial"",""time""
""fullscreenenter"",""5"",""28891""
","
","","","","","","","","","","","","","","","","","","","","","",""
"d3-instructions","19","154089","0.0-19.0","746","5439","17","Female","false","true","false","false","""event"",""trial"",""time""
""fullscreenenter"",""5"",""28891""
","
","
","""event"",""trial"",""time""
""fullscreenenter"",""5"",""28891""
","
","","","","","","","","","","","","","","","","","","","","","",""
"d3-animate-choice","20","156703","0.0-20.0","746","5439","17","Female","false","true","false","false","""event"",""trial"",""time""
""fullscreenenter"",""5"",""28891""
","
","
","""event"",""trial"",""time""
""fullscreenenter"",""5"",""28891""
","
","594.8000000007451","","49","","","3000","1","1127.300000000745,1691.0999999996275","49,49","images/tutyellowplanet.jpg","null","images/tutalien3","null","images/tutalien3","images/t.png","NA","practice","null","","","",""
"d3-animate-choice","21","158792","0.0-21.0","746","5439","17","Female","false","true","false","false","""event"",""trial"",""time""
""fullscreenenter"",""5"",""28891""
","
","
","""event"",""trial"",""time""
""fullscreenenter"",""5"",""28891""
","
","67","","49","","","3000","1","540.3000000007451,1083.1000000014901,1940.7000000011176","49,49,49","images/tutyellowplanet.jpg","null","images/tutalien3","null","images/tutalien3","images/nothing.png","NA","practice","null","","","",""
"d3-animate-choice","22","161173","0.0-22.0","746","5439","17","Female","false","true","false","false","""event"",""trial"",""time""
""fullscreenenter"",""5"",""28891""
","
","
","""event"",""trial"",""time""
""fullscreenenter"",""5"",""28891""
","
","361.7000000011176","","49","","","3000","1","878.1000000014901,1446.7000000011176,2300.60000000149","49,49,49","images/tutyellowplanet.jpg","null","images/tutalien3","null","images/tutalien3","images/t.png","NA","practice","null","","","",""
"d3-animate-choice","23","163800","0.0-23.0","746","5439","17","Female","false","true","false","false","""event"",""trial"",""time""
""fullscreenenter"",""5"",""28891""
","
","
","""event"",""trial"",""time""
""fullscreenenter"",""5"",""28891""
","
","617.0999999996275","","49","","","3000","1","977.8000000007451,1659.9000000003725","49,49","images/tutyellowplanet.jpg","null","images/tutalien3","null","images/tutalien3","images/t.png","NA","practice","null","","","",""
"d3-animate-choice","24","166151","0.0-24.0","746","5439","17","Female","false","true","false","false","""event"",""trial"",""time""
""fullscreenenter"",""5"",""28891""
","
","
","""event"",""trial"",""time""
""fullscreenenter"",""5"",""28891""
","
","330.40000000037253","","49","","","3000","1","808.4000000003725","49","images/tutyellowplanet.jpg","null","images/tutalien3","null","images/tutalien3","images/t.png","NA","practice","null","","","",""
"d3-animate-choice","25","168503","0.0-25.0","746","5439","17","Female","false","true","false","false","""event"",""trial"",""time""
""fullscreenenter"",""5"",""28891""
","
","
","""event"",""trial"",""time""
""fullscreenenter"",""5"",""28891""
","
","328.80000000074506","","49","","","3000","1","731.9000000003725,2026.300000000745","49,49","images/tutyellowplanet.jpg","null","images/tutalien3","null","images/tutalien3","images/nothing.png","NA","practice","null","","","",""
"d3-animate-choice","26","170869","0.0-26.0","746","5439","17","Female","false","true","false","false","""event"",""trial"",""time""
""fullscreenenter"",""5"",""28891""
","
","
","""event"",""trial"",""time""
""fullscreenenter"",""5"",""28891""
","
","357.2999999988824","","49","","","3000","1","607,2039.2999999988824","49,49","images/tutyellowplanet.jpg","null","images/tutalien3","null","images/tutalien3","images/t.png","NA","practice","null","","","",""
"d3-animate-choice","27","173236","0.0-27.0","746","5439","17","Female","false","true","false","false","""event"",""trial"",""time""
""fullscreenenter"",""5"",""28891""
","
","
","""event"",""trial"",""time""
""fullscreenenter"",""5"",""28891""
","
","362.2999999988824","","49","","","3000","1","678.7999999988824,2186","49,49","images/tutyellowplanet.jpg","null","images/tutalien3","null","images/tutalien3","images/t.png","NA","practice","null","","","",""
"d3-animate-choice","28","175602","0.0-28.0","746","5439","17","Female","false","true","false","false","""event"",""trial"",""time""
""fullscreenenter"",""5"",""28891""
","
","
","""event"",""trial"",""time""
""fullscreenenter"",""5"",""28891""
","
","345.5","","49","","","3000","1","2244.5999999996275","49","images/tutyellowplanet.jpg","null","images/tutalien3","null","images/tutalien3","images/t.png","NA","practice","null","","","",""
"d3-animate-choice","29","177973","0.0-29.0","746","5439","17","Female","false","true","false","false","""event"",""trial"",""time""
""fullscreenenter"",""5"",""28891""
","
","
","""event"",""trial"",""time""
""fullscreenenter"",""5"",""28891""
","
","350.30000000074506","","49","","","3000","1","2138","49","images/tutyellowplanet.jpg","null","images/tutalien3","null","images/tutalien3","images/nothing.png","NA","practice","null","","","",""
"d3-instructions","30","186471","0.0-30.0","746","5439","17","Female","false","true","false","false","""event"",""trial"",""time""
""fullscreenenter"",""5"",""28891""
","
","
","""event"",""trial"",""time""
""fullscreenenter"",""5"",""28891""
","
","","","","","","","","","","","","","","","","","","","","","",""
"d3-instructions","31","196282","0.0-31.0","746","5439","17","Female","false","true","false","false","""event"",""trial"",""time""
""fullscreenenter"",""5"",""28891""
","
","
","""event"",""trial"",""time""
""fullscreenenter"",""5"",""28891""
","
","","","","","","","","","","","","","","","","","","","","","",""
"d3-instructions","32","204295","0.0-32.0","746","5439","17","Female","false","true","false","false","""event"",""trial"",""time""
""fullscreenenter"",""5"",""28891""
","
","
","""event"",""trial"",""time""
""fullscreenenter"",""5"",""28891""
","
","","","","","","","","","","","","","","","","","","","","","",""
"d3-instructions","33","210530","0.0-33.0","746","5439","17","Female","false","true","false","false","""event"",""trial"",""time""
""fullscreenenter"",""5"",""28891""
","
","
","""event"",""trial"",""time""
""fullscreenenter"",""5"",""28891""
","
","","","","","","","","","","","","","","","","","","","","","",""
"d3-animate-choice","34","213898","0.0-34.0","746","5439","17","Female","false","true","false","false","""event"",""trial"",""time""
""fullscreenenter"",""5"",""28891""
","
","
","""event"",""trial"",""time""
""fullscreenenter"",""5"",""28891""
","
","1356.4000000003725","","49","","","3000","1","","","images/tutgreenplanet.jpg","images/tutalien1","images/tutalien2","null","images/tutalien2","images/t.png","NA","practice","null","","","",""
"d3-animate-choice","35","216411","0.0-35.0","746","5439","17","Female","false","true","false","false","""event"",""trial"",""time""
""fullscreenenter"",""5"",""28891""
","
","
","""event"",""trial"",""time""
""fullscreenenter"",""5"",""28891""
","
","487.90000000037253","","49","","","3000","1","","","images/tutgreenplanet.jpg","images/tutalien1","images/tutalien2","null","images/tutalien2","images/t.png","NA","practice","null","","","",""
"d3-animate-choice","36","218612","0.0-36.0","746","5439","17","Female","false","true","false","false","""event"",""trial"",""time""
""fullscreenenter"",""5"",""28891""
","
","
","""event"",""trial"",""time""
""fullscreenenter"",""5"",""28891""
","
","186.7000000011176","","49","","","3000","1","1759.300000000745","49","images/tutgreenplanet.jpg","images/tutalien1","images/tutalien2","null","images/tutalien2","images/t.png","NA","practice","null","","","",""
"d3-animate-choice","37","220940","0.0-37.0","746","5439","17","Female","false","true","false","false","""event"",""trial"",""time""
""fullscreenenter"",""5"",""28891""
","
","
","""event"",""trial"",""time""
""fullscreenenter"",""5"",""28891""
","
","317","","49","","","3000","1","","","images/tutgreenplanet.jpg","images/tutalien1","images/tutalien2","null","images/tutalien2","images/t.png","NA","practice","null","","","",""
"d3-animate-choice","38","223269","0.0-38.0","746","5439","17","Female","false","true","false","false","""event"",""trial"",""time""
""fullscreenenter"",""5"",""28891""
","
","
","""event"",""trial"",""time""
""fullscreenenter"",""5"",""28891""
","
","324.5","","49","","","3000","1","","","images/tutgreenplanet.jpg","images/tutalien1","images/tutalien2","null","images/tutalien2","images/t.png","NA","practice","null","","","",""
"d3-animate-choice","39","225552","0.0-39.0","746","5439","17","Female","false","true","false","false","""event"",""trial"",""time""
""fullscreenenter"",""5"",""28891""
","
","
","""event"",""trial"",""time""
""fullscreenenter"",""5"",""28891""
","
","260.69999999925494","","49","","","3000","1","","","images/tutgreenplanet.jpg","images/tutalien1","images/tutalien2","null","images/tutalien2","images/t.png","NA","practice","null","","","",""
"d3-animate-choice","40","227923","0.0-40.0","746","5439","17","Female","false","true","false","false","""event"",""trial"",""time""
""fullscreenenter"",""5"",""28891""
","
","
","""event"",""trial"",""time""
""fullscreenenter"",""5"",""28891""
","
","360.2999999988824","","48","","","3000","1","1875.5","48","images/tutgreenplanet.jpg","images/tutalien1","images/tutalien2","null","images/tutalien1","images/nothing.png","NA","practice","null","","","",""
"d3-animate-choice","41","230276","0.0-41.0","746","5439","17","Female","false","true","false","false","""event"",""trial"",""time""
""fullscreenenter"",""5"",""28891""
","
","
","""event"",""trial"",""time""
""fullscreenenter"",""5"",""28891""
","
","342.7000000011176","","48","","","3000","1","1859.1000000014901","48","images/tutgreenplanet.jpg","images/tutalien1","images/tutalien2","null","images/tutalien1","images/nothing.png","NA","practice","null","","","",""
"d3-animate-choice","42","232628","0.0-42.0","746","5439","17","Female","false","true","false","false","""event"",""trial"",""time""
""fullscreenenter"",""5"",""28891""
","
","
","""event"",""trial"",""time""
""fullscreenenter"",""5"",""28891""
","
","344.40000000037253","","48","","","3000","1","2081.5","48","images/tutgreenplanet.jpg","images/tutalien1","images/tutalien2","null","images/tutalien1","images/nothing.png","NA","practice","null","","","",""
"d3-animate-choice","43","235020","0.0-43.0","746","5439","17","Female","false","true","false","false","""event"",""trial"",""time""
""fullscreenenter"",""5"",""28891""
","
","
","""event"",""trial"",""time""
""fullscreenenter"",""5"",""28891""
","
","383.19999999925494","","48","","","3000","1","","","images/tutgreenplanet.jpg","images/tutalien1","images/tutalien2","null","images/tutalien1","images/nothing.png","NA","practice","null","","","",""
"d3-instructions","44","248678","0.0-44.0","746","5439","17","Female","false","true","false","false","""event"",""trial"",""time""
""fullscreenenter"",""5"",""28891""
","
","
","""event"",""trial"",""time""
""fullscreenenter"",""5"",""28891""
","
","","","","","","","","","","","","","","","","","","","","","",""
"d3-instructions","45","258780","0.0-45.0","746","5439","17","Female","false","true","false","false","""event"",""trial"",""time""
""fullscreenenter"",""5"",""28891""
","
","
","""event"",""trial"",""time""
""fullscreenenter"",""5"",""28891""
","
","","","","","","","","","","","","","","","","","","","","","",""
"d3-instructions","46","263893","0.0-46.0","746","5439","17","Female","false","true","false","false","""event"",""trial"",""time""
""fullscreenenter"",""5"",""28891""
","
","
","""event"",""trial"",""time""
""fullscreenenter"",""5"",""28891""
","
","","","","","","","","","","","","","","","","","","","","","",""
"d3-instructions","47","281794","0.0-47.0","746","5439","17","Female","false","true","false","false","""event"",""trial"",""time""
""fullscreenenter"",""5"",""28891""
","
","
","""event"",""trial"",""time""
""fullscreenenter"",""5"",""28891""
","
","","","","","","","","","","","","","","","","","","","","","",""
"d3-instructions","48","290118","0.0-48.0","746","5439","17","Female","false","true","false","false","""event"",""trial"",""time""
""fullscreenenter"",""5"",""28891""
","
","
","""event"",""trial"",""time""
""fullscreenenter"",""5"",""28891""
","
","","","","","","","","","","","","","","","","","","","","","",""
"d3-instructions","49","302812","0.0-49.0","746","5439","17","Female","false","true","false","false","""event"",""trial"",""time""
""fullscreenenter"",""5"",""28891""
","
","
","""event"",""trial"",""time""
""fullscreenenter"",""5"",""28891""
","
","","","","","","","","","","","","","","","","","","","","","",""
"d3-instructions","50","313018","0.0-50.0","746","5439","17","Female","false","true","false","false","""event"",""trial"",""time""
""fullscreenenter"",""5"",""28891""
","
","
","""event"",""trial"",""time""
""fullscreenenter"",""5"",""28891""
","
","","","","","","","","","","","","","","","","","","","","","",""
"d3-instructions","51","316348","0.0-51.0","746","5439","17","Female","false","true","false","false","""event"",""trial"",""time""
""fullscreenenter"",""5"",""28891""
","
","
","""event"",""trial"",""time""
""fullscreenenter"",""5"",""28891""
","
","","","","","","","","","","","","","","","","","","","","","",""
"d3-instructions","52","318944","0.0-52.0","746","5439","17","Female","false","true","false","false","""event"",""trial"",""time""
""fullscreenenter"",""5"",""28891""
","
","
","""event"",""trial"",""time""
""fullscreenenter"",""5"",""28891""
","
","","","","","","","","","","","","","","","","","","","","","",""
"d3-instructions","53","330759","0.0-53.0","746","5439","17","Female","false","true","false","false","""event"",""trial"",""time""
""fullscreenenter"",""5"",""28891""
","
","
","""event"",""trial"",""time""
""fullscreenenter"",""5"",""28891""
","
","","","","","","","","","","","","","","","","","","","","","",""
"d3-instructions","54","348742","0.0-54.0","746","5439","17","Female","false","true","false","false","""event"",""trial"",""time""
""fullscreenenter"",""5"",""28891""
","
","
","""event"",""trial"",""time""
""fullscreenenter"",""5"",""28891""
","
","","","","","","","","","","","","","","","","","","","","","",""
"d3-instructions","55","359973","0.0-55.0","746","5439","17","Female","false","true","false","false","""event"",""trial"",""time""
""fullscreenenter"",""5"",""28891""
","
","
","""event"",""trial"",""time""
""fullscreenenter"",""5"",""28891""
","
","","","","","","","","","","","","","","","","","","","","","",""
"d3-instructions","56","373452","0.0-56.0","746","5439","17","Female","false","true","false","false","""event"",""trial"",""time""
""fullscreenenter"",""5"",""28891""
","
","
","""event"",""trial"",""time""
""fullscreenenter"",""5"",""28891""
","
","","","","","","","","","","","","","","","","","","","","","",""
"d3-instructions","57","385388","0.0-57.0","746","5439","17","Female","false","true","false","false","""event"",""trial"",""time""
""fullscreenenter"",""5"",""28891""
","
","
","""event"",""trial"",""time""
""fullscreenenter"",""5"",""28891""
","
","","","","","","","","","","","","","","","","","","","","","",""
"d3-instructions","58","396445","0.0-58.0","746","5439","17","Female","false","true","false","false","""event"",""trial"",""time""
""fullscreenenter"",""5"",""28891""
","
","
","""event"",""trial"",""time""
""fullscreenenter"",""5"",""28891""
","
","","","","","","","","","","","","","","","","","","","","","",""
"d3-instructions","59","402377","0.0-59.0","746","5439","17","Female","false","true","false","false","""event"",""trial"",""time""
""fullscreenenter"",""5"",""28891""
","
","
","""event"",""trial"",""time""
""fullscreenenter"",""5"",""28891""
","
","","","","","","","","","","","","","","","","","","","","","",""
"d3-instructions","60","408738","0.0-60.0","746","5439","17","Female","false","true","false","false","""event"",""trial"",""time""
""fullscreenenter"",""5"",""28891""
","
","
","""event"",""trial"",""time""
""fullscreenenter"",""5"",""28891""
","
","","","","","","","","","","","","","","","","","","","","","",""
"d3-animate-choice","61","411269","0.0-61.0-0.0","746","5439","17","Female","false","true","false","false","""event"",""trial"",""time""
""fullscreenenter"",""5"",""28891""
","
","
","""event"",""trial"",""time""
""fullscreenenter"",""5"",""28891""
","
","523","","49","","","3000","1","","","images/earth.jpg","images/tutrocket2","images/tutrocket1","null","images/tutrocket1","","1","practice","null","1","","",""
"d3-animate-choice","62","414420","0.0-61.0-1.0","746","5439","17","Female","false","true","false","false","""event"",""trial"",""time""
""fullscreenenter"",""5"",""28891""
","
","
","""event"",""trial"",""time""
""fullscreenenter"",""5"",""28891""
","
","1138.800000000745","","49","","","3000","1","","","images/tutgreenplanet.jpg","images/tutalien2","images/tutalien1","images/tutrocket1","images/tutalien1","images/nothing.png","2","practice","true","1","common","0","2022-12-30 19:46:27.120"
"two-step-fixation","63","415428","0.0-61.0-2.0","746","5439","17","Female","false","true","false","false","""event"",""trial"",""time""
""fullscreenenter"",""5"",""28891""
","
","
","""event"",""trial"",""time""
""fullscreenenter"",""5"",""28891""
","
","","images/earth.jpg","","","","","","","","","","","","","","fixation","","","","","",""
"d3-animate-choice","64","418522","0.0-61.0-0.1","746","5439","17","Female","false","true","false","false","""event"",""trial"",""time""
""fullscreenenter"",""5"",""28891""
","
","
","""event"",""trial"",""time""
""fullscreenenter"",""5"",""28891""
","
","1081.9000000003725","","49","","","3000","1","","","images/earth.jpg","images/tutrocket2","images/tutrocket1","null","images/tutrocket1","","1","practice","null","1","","",""
"d3-animate-choice","65","421444","0.0-61.0-1.1","746","5439","17","Female","false","true","false","false","""event"",""trial"",""time""
""fullscreenenter"",""5"",""28891""
","
","
","""event"",""trial"",""time""
""fullscreenenter"",""5"",""28891""
","
","911.6999999992549","","49","","","3000","1","","","images/tutyellowplanet.jpg","images/tutalien4","images/tutalien3","images/tutrocket1","images/tutalien3","images/nothing.png","2","practice","false","1","rare","0","2022-12-30 19:46:34.145"
"two-step-fixation","66","422453","0.0-61.0-2.1","746","5439","17","Female","false","true","false","false","""event"",""trial"",""time""
""fullscreenenter"",""5"",""28891""
","
","
","""event"",""trial"",""time""
""fullscreenenter"",""5"",""28891""
","
","","images/earth.jpg","","","","","","","","","","","","","","fixation","","","","","",""
"d3-animate-choice","67","424900","0.0-61.0-0.2","746","5439","17","Female","false","true","false","false","""event"",""trial"",""time""
""fullscreenenter"",""5"",""28891""
","
","
","""event"",""trial"",""time""
""fullscreenenter"",""5"",""28891""
","
","424.80000000074506","","49","","","3000","1","","","images/earth.jpg","images/tutrocket2","images/tutrocket1","null","images/tutrocket1","","1","practice","null","1","","",""
"d3-animate-choice","68","428139","0.0-61.0-1.2","746","5439","17","Female","false","true","false","false","""event"",""trial"",""time""
""fullscreenenter"",""5"",""28891""
","
","
","""event"",""trial"",""time""
""fullscreenenter"",""5"",""28891""
","
","1220.800000000745","","49","","","3000","1","","","images/tutgreenplanet.jpg","images/tutalien2","images/tutalien1","images/tutrocket1","images/tutalien1","images/t.png","2","practice","true","1","common","1","2022-12-30 19:46:40.839"
"two-step-fixation","69","429150","0.0-61.0-2.2","746","5439","17","Female","false","true","false","false","""event"",""trial"",""time""
""fullscreenenter"",""5"",""28891""
","
","
","""event"",""trial"",""time""
""fullscreenenter"",""5"",""28891""
","
","","images/earth.jpg","","","","","","","","","","","","","","fixation","","","","","",""
"d3-animate-choice","70","432005","0.0-61.0-0.3","746","5439","17","Female","false","true","false","false","""event"",""trial"",""time""
""fullscreenenter"",""5"",""28891""
","
","
","""event"",""trial"",""time""
""fullscreenenter"",""5"",""28891""
","
","845.9000000003725","","49","","","3000","1","","","images/earth.jpg","images/tutrocket2","images/tutrocket1","null","images/tutrocket1","","1","practice","null","1","","",""
"d3-animate-choice","71","434878","0.0-61.0-1.3","746","5439","17","Female","false","true","false","false","""event"",""trial"",""time""
""fullscreenenter"",""5"",""28891""
","
","
","""event"",""trial"",""time""
""fullscreenenter"",""5"",""28891""
","
","857.3999999985099","","49","","","3000","1","","","images/tutgreenplanet.jpg","images/tutalien2","images/tutalien1","images/tutrocket1","images/tutalien1","images/nothing.png","2","practice","true","1","common","0","2022-12-30 19:46:47.579"
"two-step-fixation","72","435902","0.0-61.0-2.3","746","5439","17","Female","false","true","false","false","""event"",""trial"",""time""
""fullscreenenter"",""5"",""28891""
","
","
","""event"",""trial"",""time""
""fullscreenenter"",""5"",""28891""
","
","","images/earth.jpg","","","","","","","","","","","","","","fixation","","","","","",""
"d3-animate-choice","73","438736","0.0-61.0-0.4","746","5439","17","Female","false","true","false","false","""event"",""trial"",""time""
""fullscreenenter"",""5"",""28891""
","
","
","""event"",""trial"",""time""
""fullscreenenter"",""5"",""28891""
","
","825.2999999988824","","48","","","3000","1","","","images/earth.jpg","images/tutrocket2","images/tutrocket1","null","images/tutrocket2","","1","practice","null","2","","",""
"d3-animate-choice","74","441660","0.0-61.0-1.4","746","5439","17","Female","false","true","false","false","""event"",""trial"",""time""
""fullscreenenter"",""5"",""28891""
","
","
","""event"",""trial"",""time""
""fullscreenenter"",""5"",""28891""
","
","912.0999999996275","","49","","","3000","1","1062.5999999996275","48","images/tutgreenplanet.jpg","images/tutalien2","images/tutalien1","images/tutrocket2","images/tutalien1","images/nothing.png","2","practice","false","1","rare","0","2022-12-30 19:46:54.360"
"two-step-fixation","75","442668","0.0-61.0-2.4","746","5439","17","Female","false","true","false","false","""event"",""trial"",""time""
""fullscreenenter"",""5"",""28891""
","
","
","""event"",""trial"",""time""
""fullscreenenter"",""5"",""28891""
","
","","images/earth.jpg","","","","","","","","","","","","","","fixation","","","","","",""
"d3-animate-choice","76","445460","0.0-61.0-0.5","746","5439","17","Female","false","true","false","false","""event"",""trial"",""time""
""fullscreenenter"",""5"",""28891""
","
","
","""event"",""trial"",""time""
""fullscreenenter"",""5"",""28891""
","
","787.5999999996275","","48","","","3000","1","","","images/earth.jpg","images/tutrocket2","images/tutrocket1","null","images/tutrocket2","","1","practice","null","2","","",""
"d3-animate-choice","77","448652","0.0-61.0-1.5","746","5439","17","Female","false","true","false","false","""event"",""trial"",""time""
""fullscreenenter"",""5"",""28891""
","
","
","""event"",""trial"",""time""
""fullscreenenter"",""5"",""28891""
","
","1178.300000000745","","49","","","3000","1","","","images/tutyellowplanet.jpg","images/tutalien4","images/tutalien3","images/tutrocket2","images/tutalien3","images/nothing.png","2","practice","true","1","common","0","2022-12-30 19:47:01.352"
"two-step-fixation","78","449660","0.0-61.0-2.5","746","5439","17","Female","false","true","false","false","""event"",""trial"",""time""
""fullscreenenter"",""5"",""28891""
","
","
","""event"",""trial"",""time""
""fullscreenenter"",""5"",""28891""
","
","","images/earth.jpg","","","","","","","","","","","","","","fixation","","","","","",""
"d3-animate-choice","79","452316","0.0-61.0-0.6","746","5439","17","Female","false","true","false","false","""event"",""trial"",""time""
""fullscreenenter"",""5"",""28891""
","
","
","""event"",""trial"",""time""
""fullscreenenter"",""5"",""28891""
","
","642.5","","48","","","3000","1","","","images/earth.jpg","images/tutrocket2","images/tutrocket1","null","images/tutrocket2","","1","practice","null","2","","",""
"d3-animate-choice","80","455061","0.0-61.0-1.6","746","5439","17","Female","false","true","false","false","""event"",""trial"",""time""
""fullscreenenter"",""5"",""28891""
","
","
","""event"",""trial"",""time""
""fullscreenenter"",""5"",""28891""
","
","732.5999999996275","","48","","","3000","1","","","images/tutyellowplanet.jpg","images/tutalien4","images/tutalien3","images/tutrocket2","images/tutalien4","images/t.png","2","practice","true","2","common","1","2022-12-30 19:47:07.761"
"two-step-fixation","81","456067","0.0-61.0-2.6","746","5439","17","Female","false","true","false","false","""event"",""trial"",""time""
""fullscreenenter"",""5"",""28891""
","
","
","""event"",""trial"",""time""
""fullscreenenter"",""5"",""28891""
","
","","images/earth.jpg","","","","","","","","","","","","","","fixation","","","","","",""
"d3-animate-choice","82","459004","0.0-61.0-0.7","746","5439","17","Female","false","true","false","false","""event"",""trial"",""time""
""fullscreenenter"",""5"",""28891""
","
","
","""event"",""trial"",""time""
""fullscreenenter"",""5"",""28891""
","
","926.5","","48","","","3000","1","","","images/earth.jpg","images/tutrocket2","images/tutrocket1","null","images/tutrocket2","","1","practice","null","2","","",""
"d3-animate-choice","83","462532","0.0-61.0-1.7","746","5439","17","Female","false","true","false","false","""event"",""trial"",""time""
""fullscreenenter"",""5"",""28891""
","
","
","""event"",""trial"",""time""
""fullscreenenter"",""5"",""28891""
","
","1518.5","","48","","","3000","1","","","images/tutyellowplanet.jpg","images/tutalien4","images/tutalien3","images/tutrocket2","images/tutalien4","images/nothing.png","2","practice","true","2","common","0","2022-12-30 19:47:15.232"
"two-step-fixation","84","463540","0.0-61.0-2.7","746","5439","17","Female","false","true","false","false","""event"",""trial"",""time""
""fullscreenenter"",""5"",""28891""
","
","
","""event"",""trial"",""time""
""fullscreenenter"",""5"",""28891""
","
","","images/earth.jpg","","","","","","","","","","","","","","fixation","","","","","",""
"d3-animate-choice","85","466350","0.0-61.0-0.8","746","5439","17","Female","false","true","false","false","""event"",""trial"",""time""
""fullscreenenter"",""5"",""28891""
","
","
","""event"",""trial"",""time""
""fullscreenenter"",""5"",""28891""
","
","798.1000000014901","","48","","","3000","1","","","images/earth.jpg","images/tutrocket2","images/tutrocket1","null","images/tutrocket2","","1","practice","null","2","","",""
"d3-animate-choice","86","469813","0.0-61.0-1.8","746","5439","17","Female","false","true","false","false","""event"",""trial"",""time""
""fullscreenenter"",""5"",""28891""
","
","
","""event"",""trial"",""time""
""fullscreenenter"",""5"",""28891""
","
","1452.300000000745","","49","","","3000","1","","","images/tutyellowplanet.jpg","images/tutalien4","images/tutalien3","images/tutrocket2","images/tutalien3","images/t.png","2","practice","true","1","common","1","2022-12-30 19:47:22.513"
"two-step-fixation","87","470821","0.0-61.0-2.8","746","5439","17","Female","false","true","false","false","""event"",""trial"",""time""
""fullscreenenter"",""5"",""28891""
","
","
","""event"",""trial"",""time""
""fullscreenenter"",""5"",""28891""
","
","","images/earth.jpg","","","","","","","","","","","","","","fixation","","","","","",""
"d3-animate-choice","88","473221","0.0-61.0-0.9","746","5439","17","Female","false","true","false","false","""event"",""trial"",""time""
""fullscreenenter"",""5"",""28891""
","
","
","""event"",""trial"",""time""
""fullscreenenter"",""5"",""28891""
","
","386.09999999962747","","48","","","3000","1","","","images/earth.jpg","images/tutrocket2","images/tutrocket1","null","images/tutrocket2","","1","practice","null","2","","",""
"d3-animate-choice","89","475628","0.0-61.0-1.9","746","5439","17","Female","false","true","false","false","""event"",""trial"",""time""
""fullscreenenter"",""5"",""28891""
","
","
","""event"",""trial"",""time""
""fullscreenenter"",""5"",""28891""
","
","398.8999999985099","","49","","","3000","1","","","images/tutyellowplanet.jpg","images/tutalien4","images/tutalien3","images/tutrocket2","images/tutalien3","images/nothing.png","2","practice","true","1","common","0","2022-12-30 19:47:28.328"
"two-step-fixation","90","476636","0.0-61.0-2.9","746","5439","17","Female","false","true","false","false","""event"",""trial"",""time""
""fullscreenenter"",""5"",""28891""
","
","
","""event"",""trial"",""time""
""fullscreenenter"",""5"",""28891""
","
","","images/earth.jpg","","","","","","","","","","","","","","fixation","","","","","",""
"d3-animate-choice","91","479596","0.0-61.0-0.10","746","5439","17","Female","false","true","false","false","""event"",""trial"",""time""
""fullscreenenter"",""5"",""28891""
","
","
","""event"",""trial"",""time""
""fullscreenenter"",""5"",""28891""
","
","952.5999999996275","","49","","","3000","1","","","images/earth.jpg","images/tutrocket2","images/tutrocket1","null","images/tutrocket1","","1","practice","null","1","","",""
"d3-animate-choice","92","482596","0.0-61.0-1.10","746","5439","17","Female","false","true","false","false","""event"",""trial"",""time""
""fullscreenenter"",""5"",""28891""
","
","
","""event"",""trial"",""time""
""fullscreenenter"",""5"",""28891""
","
","987.9000000003725","","48","","","3000","1","","","images/tutyellowplanet.jpg","images/tutalien4","images/tutalien3","images/tutrocket1","images/tutalien4","images/nothing.png","2","practice","false","2","rare","0","2022-12-30 19:47:35.296"
"two-step-fixation","93","483604","0.0-61.0-2.10","746","5439","17","Female","false","true","false","false","""event"",""trial"",""time""
""fullscreenenter"",""5"",""28891""
","
","
","""event"",""trial"",""time""
""fullscreenenter"",""5"",""28891""
","
","","images/earth.jpg","","","","","","","","","","","","","","fixation","","","","","",""
"d3-animate-choice","94","486116","0.0-61.0-0.11","746","5439","17","Female","false","true","false","false","""event"",""trial"",""time""
""fullscreenenter"",""5"",""28891""
","
","
","""event"",""trial"",""time""
""fullscreenenter"",""5"",""28891""
","
","500.90000000037253","","49","","","3000","1","","","images/earth.jpg","images/tutrocket2","images/tutrocket1","null","images/tutrocket1","","1","practice","null","1","","",""
"d3-animate-choice","95","489084","0.0-61.0-1.11","746","5439","17","Female","false","true","false","false","""event"",""trial"",""time""
""fullscreenenter"",""5"",""28891""
","
","
","""event"",""trial"",""time""
""fullscreenenter"",""5"",""28891""
","
","954.2000000011176","","49","","","3000","1","","","images/tutgreenplanet.jpg","images/tutalien2","images/tutalien1","images/tutrocket1","images/tutalien1","images/nothing.png","2","practice","true","1","common","0","2022-12-30 19:47:41.784"
"two-step-fixation","96","490093","0.0-61.0-2.11","746","5439","17","Female","false","true","false","false","""event"",""trial"",""time""
""fullscreenenter"",""5"",""28891""
","
","
","""event"",""trial"",""time""
""fullscreenenter"",""5"",""28891""
","
","","images/earth.jpg","","","","","","","","","","","","","","fixation","","","","","",""
"d3-animate-choice","97","492483","0.0-61.0-0.12","746","5439","17","Female","false","true","false","false","""event"",""trial"",""time""
""fullscreenenter"",""5"",""28891""
","
","
","""event"",""trial"",""time""
""fullscreenenter"",""5"",""28891""
","
","379.7999999988824","","49","","","3000","1","","","images/earth.jpg","images/tutrocket2","images/tutrocket1","null","images/tutrocket1","","1","practice","null","1","","",""
"d3-animate-choice","98","494996","0.0-61.0-1.12","746","5439","17","Female","false","true","false","false","""event"",""trial"",""time""
""fullscreenenter"",""5"",""28891""
","
","
","""event"",""trial"",""time""
""fullscreenenter"",""5"",""28891""
","
","508.19999999925494","","48","","","3000","1","","","images/tutyellowplanet.jpg","images/tutalien4","images/tutalien3","images/tutrocket1","images/tutalien4","images/nothing.png","2","practice","false","2","rare","0","2022-12-30 19:47:47.696"
"two-step-fixation","99","496005","0.0-61.0-2.12","746","5439","17","Female","false","true","false","false","""event"",""trial"",""time""
""fullscreenenter"",""5"",""28891""
","
","
","""event"",""trial"",""time""
""fullscreenenter"",""5"",""28891""
","
","","images/earth.jpg","","","","","","","","","","","","","","fixation","","","","","",""
"d3-animate-choice","100","498637","0.0-61.0-0.13","746","5439","17","Female","false","true","false","false","""event"",""trial"",""time""
""fullscreenenter"",""5"",""28891""
","
","
","""event"",""trial"",""time""
""fullscreenenter"",""5"",""28891""
","
","618.8000000007451","","49","","","3000","1","","","images/earth.jpg","images/tutrocket2","images/tutrocket1","null","images/tutrocket1","","1","practice","null","1","","",""
"d3-animate-choice","101","502229","0.0-61.0-1.13","746","5439","17","Female","false","true","false","false","""event"",""trial"",""time""
""fullscreenenter"",""5"",""28891""
","
","
","""event"",""trial"",""time""
""fullscreenenter"",""5"",""28891""
","
","1581.5999999996275","","48","","","3000","1","","","images/tutgreenplanet.jpg","images/tutalien2","images/tutalien1","images/tutrocket1","images/tutalien2","images/nothing.png","2","practice","true","2","common","0","2022-12-30 19:47:54.929"
"two-step-fixation","102","503233","0.0-61.0-2.13","746","5439","17","Female","false","true","false","false","""event"",""trial"",""time""
""fullscreenenter"",""5"",""28891""
","
","
","""event"",""trial"",""time""
""fullscreenenter"",""5"",""28891""
","
","","images/earth.jpg","","","","","","","","","","","","","","fixation","","","","","",""
"d3-animate-choice","103","506285","0.0-61.0-0.14","746","5439","17","Female","false","true","false","false","""event"",""trial"",""time""
""fullscreenenter"",""5"",""28891""
","
","
","""event"",""trial"",""time""
""fullscreenenter"",""5"",""28891""
","
","1041.300000000745","","49","","","3000","1","","","images/earth.jpg","images/tutrocket2","images/tutrocket1","null","images/tutrocket1","","1","practice","null","1","","",""
"d3-animate-choice","104","509236","0.0-61.0-1.14","746","5439","17","Female","false","true","false","false","""event"",""trial"",""time""
""fullscreenenter"",""5"",""28891""
","
","
","""event"",""trial"",""time""
""fullscreenenter"",""5"",""28891""
","
","944.2999999988824","","49","","","3000","1","","","images/tutgreenplanet.jpg","images/tutalien2","images/tutalien1","images/tutrocket1","images/tutalien1","images/t.png","2","practice","true","1","common","1","2022-12-30 19:48:01.936"
"two-step-fixation","105","510244","0.0-61.0-2.14","746","5439","17","Female","false","true","false","false","""event"",""trial"",""time""
""fullscreenenter"",""5"",""28891""
","
","
","""event"",""trial"",""time""
""fullscreenenter"",""5"",""28891""
","
","","images/earth.jpg","","","","","","","","","","","","","","fixation","","","","","",""
"d3-animate-choice","106","513124","0.0-61.0-0.15","746","5439","17","Female","false","true","false","false","""event"",""trial"",""time""
""fullscreenenter"",""5"",""28891""
","
","
","""event"",""trial"",""time""
""fullscreenenter"",""5"",""28891""
","
","873","","48","","","3000","1","","","images/earth.jpg","images/tutrocket2","images/tutrocket1","null","images/tutrocket2","","1","practice","null","2","","",""
"d3-animate-choice","107","516335","0.0-61.0-1.15","746","5439","17","Female","false","true","false","false","""event"",""trial"",""time""
""fullscreenenter"",""5"",""28891""
","
","
","""event"",""trial"",""time""
""fullscreenenter"",""5"",""28891""
","
","1196","","49","","","3000","1","","","images/tutyellowplanet.jpg","images/tutalien4","images/tutalien3","images/tutrocket2","images/tutalien3","images/nothing.png","2","practice","true","1","common","0","2022-12-30 19:48:09.035"
"two-step-fixation","108","517353","0.0-61.0-2.15","746","5439","17","Female","false","true","false","false","""event"",""trial"",""time""
""fullscreenenter"",""5"",""28891""
","
","
","""event"",""trial"",""time""
""fullscreenenter"",""5"",""28891""
","
","","images/earth.jpg","","","","","","","","","","","","","","fixation","","","","","",""
"d3-animate-choice","109","519699","0.0-61.0-0.16","746","5439","17","Female","false","true","false","false","""event"",""trial"",""time""
""fullscreenenter"",""5"",""28891""
","
","
","""event"",""trial"",""time""
""fullscreenenter"",""5"",""28891""
","
","337.8999999985099","","48","","","3000","1","","","images/earth.jpg","images/tutrocket2","images/tutrocket1","null","images/tutrocket2","","1","practice","null","2","","",""
"d3-animate-choice","110","522732","0.0-61.0-1.16","746","5439","17","Female","false","true","false","false","""event"",""trial"",""time""
""fullscreenenter"",""5"",""28891""
","
","
","""event"",""trial"",""time""
""fullscreenenter"",""5"",""28891""
","
","1025.9000000003725","","48","","","3000","1","","","images/tutyellowplanet.jpg","images/tutalien4","images/tutalien3","images/tutrocket2","images/tutalien4","images/t.png","2","practice","true","2","common","1","2022-12-30 19:48:15.432"
"two-step-fixation","111","523741","0.0-61.0-2.16","746","5439","17","Female","false","true","false","false","""event"",""trial"",""time""
""fullscreenenter"",""5"",""28891""
","
","
","""event"",""trial"",""time""
""fullscreenenter"",""5"",""28891""
","
","","images/earth.jpg","","","","","","","","","","","","","","fixation","","","","","",""
"d3-animate-choice","112","526083","0.0-61.0-0.17","746","5439","17","Female","false","true","false","false","""event"",""trial"",""time""
""fullscreenenter"",""5"",""28891""
","
","
","""event"",""trial"",""time""
""fullscreenenter"",""5"",""28891""
","
","334.2000000011176","","48","","","3000","1","","","images/earth.jpg","images/tutrocket2","images/tutrocket1","null","images/tutrocket2","","1","practice","null","2","","",""
"d3-animate-choice","113","528828","0.0-61.0-1.17","746","5439","17","Female","false","true","false","false","""event"",""trial"",""time""
""fullscreenenter"",""5"",""28891""
","
","
","""event"",""trial"",""time""
""fullscreenenter"",""5"",""28891""
","
","734","","48","","","3000","1","","","images/tutyellowplanet.jpg","images/tutalien4","images/tutalien3","images/tutrocket2","images/tutalien4","images/t.png","2","practice","true","2","common","1","2022-12-30 19:48:21.528"
"two-step-fixation","114","529836","0.0-61.0-2.17","746","5439","17","Female","false","true","false","false","""event"",""trial"",""time""
""fullscreenenter"",""5"",""28891""
","
","
","""event"",""trial"",""time""
""fullscreenenter"",""5"",""28891""
","
","","images/earth.jpg","","","","","","","","","","","","","","fixation","","","","","",""
"d3-animate-choice","115","532381","0.0-61.0-0.18","746","5439","17","Female","false","true","false","false","""event"",""trial"",""time""
""fullscreenenter"",""5"",""28891""
","
","
","""event"",""trial"",""time""
""fullscreenenter"",""5"",""28891""
","
","531.5999999996275","","48","","","3000","1","","","images/earth.jpg","images/tutrocket2","images/tutrocket1","null","images/tutrocket2","","1","practice","null","2","","",""
"d3-animate-choice","116","534715","0.0-61.0-1.18","746","5439","17","Female","false","true","false","false","""event"",""trial"",""time""
""fullscreenenter"",""5"",""28891""
","
","
","""event"",""trial"",""time""
""fullscreenenter"",""5"",""28891""
","
","321.90000000037253","","48","","","3000","1","","","images/tutyellowplanet.jpg","images/tutalien4","images/tutalien3","images/tutrocket2","images/tutalien4","images/nothing.png","2","practice","true","2","common","0","2022-12-30 19:48:27.415"
"two-step-fixation","117","535724","0.0-61.0-2.18","746","5439","17","Female","false","true","false","false","""event"",""trial"",""time""
""fullscreenenter"",""5"",""28891""
","
","
","""event"",""trial"",""time""
""fullscreenenter"",""5"",""28891""
","
","","images/earth.jpg","","","","","","","","","","","","","","fixation","","","","","",""
"d3-animate-choice","118","538076","0.0-61.0-0.19","746","5439","17","Female","false","true","false","false","""event"",""trial"",""time""
""fullscreenenter"",""5"",""28891""
","
","
","""event"",""trial"",""time""
""fullscreenenter"",""5"",""28891""
","
","344","","48","","","3000","1","","","images/earth.jpg","images/tutrocket2","images/tutrocket1","null","images/tutrocket2","","1","practice","null","2","","",""
"d3-animate-choice","119","540932","0.0-61.0-1.19","746","5439","17","Female","false","true","false","false","""event"",""trial"",""time""
""fullscreenenter"",""5"",""28891""
","
","
","""event"",""trial"",""time""
""fullscreenenter"",""5"",""28891""
","
","843.6000000014901","","48","","","3000","1","","","images/tutyellowplanet.jpg","images/tutalien4","images/tutalien3","images/tutrocket2","images/tutalien4","images/t.png","2","practice","true","2","common","1","2022-12-30 19:48:33.632"
"two-step-fixation","120","541940","0.0-61.0-2.19","746","5439","17","Female","false","true","false","false","""event"",""trial"",""time""
""fullscreenenter"",""5"",""28891""
","
","
","""event"",""trial"",""time""
""fullscreenenter"",""5"",""28891""
","
","","images/earth.jpg","","","","","","","","","","","","","","fixation","","","","","",""
"d3-instructions","121","545811","0.0-62.0","746","5439","17","Female","false","true","false","false","""event"",""trial"",""time""
""fullscreenenter"",""5"",""28891""
","
","
","""event"",""trial"",""time""
""fullscreenenter"",""5"",""28891""
","
","","","","","","","","","","","","","","","","","","","","","",""
"audio-keyboard-response","122","554514","0.0-63.0","746","5439","17","Female","false","true","false","false","""event"",""trial"",""time""
""fullscreenenter"",""5"",""28891""
","
","
","""event"",""trial"",""time""
""fullscreenenter"",""5"",""28891""
","
","8688","audio/instructions/treasure_feedback.wav","32","","","","","","","","","","","","","","","","","","",""
"d3-instructions","123","573894","0.0-64.0","746","5439","17","Female","false","true","false","false","""event"",""trial"",""time""
""fullscreenenter"",""5"",""28891""
","
","
","""event"",""trial"",""time""
""fullscreenenter"",""5"",""28891""
","
","","","","","","","","","","","","","","","","","","","","","",""
"d3-instructions","124","594547","0.0-65.0","746","5439","17","Female","false","true","false","false","""event"",""trial"",""time""
""fullscreenenter"",""5"",""28891""
","
","
","""event"",""trial"",""time""
""fullscreenenter"",""5"",""28891""
","
","","","","","","","","","","","","","","","","","","","","","",""
"d3-instructions","125","633469","0.0-66.0","746","5439","17","Female","false","true","false","false","""event"",""trial"",""time""
""fullscreenenter"",""5"",""28891""
","
","
","""event"",""trial"",""time""
""fullscreenenter"",""5"",""28891""
","
","","","","","","","","","","","","","","","","","","","","","",""
"d3-instructions","126","650156","0.0-67.0","746","5439","17","Female","false","true","false","false","""event"",""trial"",""time""
""fullscreenenter"",""5"",""28891""
","
","
","""event"",""trial"",""time""
""fullscreenenter"",""5"",""28891""
","
","","","","","","","","","","","","","","","","","","","","","",""
"d3-instructions","127","654024","0.0-68.0","746","5439","17","Female","false","true","false","false","""event"",""trial"",""time""
""fullscreenenter"",""5"",""28891""
","
","
","""event"",""trial"",""time""
""fullscreenenter"",""5"",""28891""
","
","","","","","","","","","","","","","","","","","","","","","",""
"instructions-quiz","128","659358","0.0-69.0","746","5439","17","Female","false","true","false","false","""event"",""trial"",""time""
""fullscreenenter"",""5"",""28891""
","
","
","""event"",""trial"",""time""
""fullscreenenter"",""5"",""28891""
","
","5328.299999998882","audio/quiz/Q1_Prompt.wav","","1","","","","","","","","","","","","","","","","","",""
"audio-keyboard-response","129","668534","0.0-70.0","746","5439","17","Female","false","true","false","false","""event"",""trial"",""time""
""fullscreenenter"",""5"",""28891""
","
","
","""event"",""trial"",""time""
""fullscreenenter"",""5"",""28891""
","
","null","audio/quiz/Q1_Correct.wav","null","","","","","","","","","","","","","","","","","","",""
"instructions-quiz","130","677614","0.0-71.0","746","5439","17","Female","false","true","false","false","""event"",""trial"",""time""
""fullscreenenter"",""5"",""28891""
","
","
","""event"",""trial"",""time""
""fullscreenenter"",""5"",""28891""
","
","9075.699999999255","audio/quiz/Q2_Prompt.wav","","0","","","","","","","","","","","","","","","","","",""
"audio-keyboard-response","131","690483","0.0-72.0","746","5439","17","Female","false","true","false","false","""event"",""trial"",""time""
""fullscreenenter"",""5"",""28891""
","
","
","""event"",""trial"",""time""
""fullscreenenter"",""5"",""28891""
","
","null","audio/quiz/Q2_Correct.wav","null","","","","","","","","","","","","","","","","","","",""
"instructions-quiz","132","694164","0.0-73.0","746","5439","17","Female","false","true","false","false","""event"",""trial"",""time""
""fullscreenenter"",""5"",""28891""
","
","
","""event"",""trial"",""time""
""fullscreenenter"",""5"",""28891""
","
","3679.199999999255","audio/quiz/Q3_Prompt.wav","","1","","","","","","","","","","","","","","","","","",""
"audio-keyboard-response","133","699964","0.0-74.0","746","5439","17","Female","false","true","false","false","""event"",""trial"",""time""
""fullscreenenter"",""5"",""28891""
","
","
","""event"",""trial"",""time""
""fullscreenenter"",""5"",""28891""
","
","null","audio/quiz/Q3_Correct.wav","null","","","","","","","","","","","","","","","","","","",""
"d3-instructions","134","713728","0.0-75.0","746","5439","17","Female","false","true","false","false","""event"",""trial"",""time""
""fullscreenenter"",""5"",""28891""
","
","
","""event"",""trial"",""time""
""fullscreenenter"",""5"",""28891""
","
","","","","","","","","","","","","","","","","","","","","","",""
"d3-animate-choice","135","716468","0.0-76.0-0.0","746","5439","17","Female","false","true","false","false","""event"",""trial"",""time""
""fullscreenenter"",""5"",""28891""
","
","
","""event"",""trial"",""time""
""fullscreenenter"",""5"",""28891""
","
","731.5999999996275","","49","","","3000","1","","","images/earth.jpg","images/rocket1","images/rocket2","null","images/rocket2","","1","real","null","1","","",""
"d3-animate-choice","136","719245","0.0-76.0-1.0","746","5439","17","Female","false","true","false","false","""event"",""trial"",""time""
""fullscreenenter"",""5"",""28891""
","
","
","""event"",""trial"",""time""
""fullscreenenter"",""5"",""28891""
","
","769.7999999988824","","49","","","3000","1","","","images/purpleplanet.jpg","images/alien4","images/alien3","images/rocket2","images/alien3","images/t.png","2","real","true","1","common","1","2022-12-30 19:51:31.945"
"two-step-fixation","137","720253","0.0-76.0-2.0","746","5439","17","Female","false","true","false","false","""event"",""trial"",""time""
""fullscreenenter"",""5"",""28891""
","
","
","""event"",""trial"",""time""
""fullscreenenter"",""5"",""28891""
","
","","images/earth.jpg","","","","","","","","","","","","","","fixation","","","","","",""
"d3-animate-choice","138","722765","0.0-76.0-0.1","746","5439","17","Female","false","true","false","false","""event"",""trial"",""time""
""fullscreenenter"",""5"",""28891""
","
","
","""event"",""trial"",""time""
""fullscreenenter"",""5"",""28891""
","
","500","","49","","","3000","1","","","images/earth.jpg","images/rocket1","images/rocket2","null","images/rocket2","","1","real","null","1","","",""
"d3-animate-choice","139","725194","0.0-76.0-1.1","746","5439","17","Female","false","true","false","false","""event"",""trial"",""time""
""fullscreenenter"",""5"",""28891""
","
","
","""event"",""trial"",""time""
""fullscreenenter"",""5"",""28891""
","
","423.2000000011176","","49","","","3000","1","","","images/redplanet1.jpg","images/alien2","images/alien1","images/rocket2","images/alien1","images/nothing.png","2","real","false","1","rare","0","2022-12-30 19:51:37.894"
"two-step-fixation","140","726204","0.0-76.0-2.1","746","5439","17","Female","false","true","false","false","""event"",""trial"",""time""
""fullscreenenter"",""5"",""28891""
","
","
","""event"",""trial"",""time""
""fullscreenenter"",""5"",""28891""
","
","","images/earth.jpg","","","","","","","","","","","","","","fixation","","","","","",""
"d3-animate-choice","141","728550","0.0-76.0-0.2","746","5439","17","Female","false","true","false","false","""event"",""trial"",""time""
""fullscreenenter"",""5"",""28891""
","
","
","""event"",""trial"",""time""
""fullscreenenter"",""5"",""28891""
","
","333.7000000011176","","49","","","3000","1","","","images/earth.jpg","images/rocket1","images/rocket2","null","images/rocket2","","1","real","null","1","","",""
"d3-animate-choice","142","730981","0.0-76.0-1.2","746","5439","17","Female","false","true","false","false","""event"",""trial"",""time""
""fullscreenenter"",""5"",""28891""
","
","
","""event"",""trial"",""time""
""fullscreenenter"",""5"",""28891""
","
","423.40000000037253","","49","","","3000","1","","","images/purpleplanet.jpg","images/alien4","images/alien3","images/rocket2","images/alien3","images/nothing.png","2","real","true","1","common","0","2022-12-30 19:51:43.681"
"two-step-fixation","143","732001","0.0-76.0-2.2","746","5439","17","Female","false","true","false","false","""event"",""trial"",""time""
""fullscreenenter"",""5"",""28891""
","
","
","""event"",""trial"",""time""
""fullscreenenter"",""5"",""28891""
","
","","images/earth.jpg","","","","","","","","","","","","","","fixation","","","","","",""
"d3-animate-choice","144","734638","0.0-76.0-0.3","746","5439","17","Female","false","true","false","false","""event"",""trial"",""time""
""fullscreenenter"",""5"",""28891""
","
","
","""event"",""trial"",""time""
""fullscreenenter"",""5"",""28891""
","
","624.8000000007451","","48","","","3000","1","","","images/earth.jpg","images/rocket1","images/rocket2","null","images/rocket1","","1","real","null","2","","",""
"d3-animate-choice","145","738185","0.0-76.0-1.3","746","5439","17","Female","false","true","false","false","""event"",""trial"",""time""
""fullscreenenter"",""5"",""28891""
","
","
","""event"",""trial"",""time""
""fullscreenenter"",""5"",""28891""
","
","1524.0999999996275","","48","","","3000","1","","","images/purpleplanet.jpg","images/alien4","images/alien3","images/rocket1","images/alien4","images/t.png","2","real","false","2","rare","1","2022-12-30 19:51:50.885"
"two-step-fixation","146","739197","0.0-76.0-2.3","746","5439","17","Female","false","true","false","false","""event"",""trial"",""time""
""fullscreenenter"",""5"",""28891""
","
","
","""event"",""trial"",""time""
""fullscreenenter"",""5"",""28891""
","
","","images/earth.jpg","","","","","","","","","","","","","","fixation","","","","","",""
"d3-animate-choice","147","741749","0.0-76.0-0.4","746","5439","17","Female","false","true","false","false","""event"",""trial"",""time""
""fullscreenenter"",""5"",""28891""
","
","
","""event"",""trial"",""time""
""fullscreenenter"",""5"",""28891""
","
","543.5","","48","","","3000","1","","","images/earth.jpg","images/rocket1","images/rocket2","null","images/rocket1","","1","real","null","2","","",""
"d3-animate-choice","148","744756","0.0-76.0-1.4","746","5439","17","Female","false","true","false","false","""event"",""trial"",""time""
""fullscreenenter"",""5"",""28891""
","
","
","""event"",""trial"",""time""
""fullscreenenter"",""5"",""28891""
","
","994.6999999992549","","48","","","3000","1","","","images/purpleplanet.jpg","images/alien4","images/alien3","images/rocket1","images/alien4","images/t.png","2","real","false","2","rare","1","2022-12-30 19:51:57.456"
"two-step-fixation","149","745765","0.0-76.0-2.4","746","5439","17","Female","false","true","false","false","""event"",""trial"",""time""
""fullscreenenter"",""5"",""28891""
","
","
","""event"",""trial"",""time""
""fullscreenenter"",""5"",""28891""
","
","","images/earth.jpg","","","","","","","","","","","","","","fixation","","","","","",""
"d3-animate-choice","150","748075","0.0-76.0-0.5","746","5439","17","Female","false","true","false","false","""event"",""trial"",""time""
""fullscreenenter"",""5"",""28891""
","
","
","""event"",""trial"",""time""
""fullscreenenter"",""5"",""28891""
","
","299.8999999985099","","48","","","3000","1","","","images/earth.jpg","images/rocket1","images/rocket2","null","images/rocket1","","1","real","null","2","","",""
"d3-animate-choice","151","750462","0.0-76.0-1.5","746","5439","17","Female","false","true","false","false","""event"",""trial"",""time""
""fullscreenenter"",""5"",""28891""
","
","
","""event"",""trial"",""time""
""fullscreenenter"",""5"",""28891""
","
","376.90000000037253","","48","","","3000","1","","","images/purpleplanet.jpg","images/alien4","images/alien3","images/rocket1","images/alien4","images/t.png","2","real","false","2","rare","1","2022-12-30 19:52:03.162"
"two-step-fixation","152","751477","0.0-76.0-2.5","746","5439","17","Female","false","true","false","false","""event"",""trial"",""time""
""fullscreenenter"",""5"",""28891""
","
","
","""event"",""trial"",""time""
""fullscreenenter"",""5"",""28891""
","
","","images/earth.jpg","","","","","","","","","","","","","","fixation","","","","","",""
"d3-animate-choice","153","753782","0.0-76.0-0.6","746","5439","17","Female","false","true","false","false","""event"",""trial"",""time""
""fullscreenenter"",""5"",""28891""
","
","
","""event"",""trial"",""time""
""fullscreenenter"",""5"",""28891""
","
","293","","48","","","3000","1","","","images/earth.jpg","images/rocket1","images/rocket2","null","images/rocket1","","1","real","null","2","","",""
"d3-animate-choice","154","756245","0.0-76.0-1.6","746","5439","17","Female","false","true","false","false","""event"",""trial"",""time""
""fullscreenenter"",""5"",""28891""
","
","
","""event"",""trial"",""time""
""fullscreenenter"",""5"",""28891""
","
","455.7999999988824","","48","","","3000","1","","","images/redplanet1.jpg","images/alien2","images/alien1","images/rocket1","images/alien2","images/t.png","2","real","true","2","common","1","2022-12-30 19:52:08.945"
"two-step-fixation","155","757253","0.0-76.0-2.6","746","5439","17","Female","false","true","false","false","""event"",""trial"",""time""
""fullscreenenter"",""5"",""28891""
","
","
","""event"",""trial"",""time""
""fullscreenenter"",""5"",""28891""
","
","","images/earth.jpg","","","","","","","","","","","","","","fixation","","","","","",""
"d3-animate-choice","156","759933","0.0-76.0-0.7","746","5439","17","Female","false","true","false","false","""event"",""trial"",""time""
""fullscreenenter"",""5"",""28891""
","
","
","""event"",""trial"",""time""
""fullscreenenter"",""5"",""28891""
","
","672","","48","","","3000","1","","","images/earth.jpg","images/rocket1","images/rocket2","null","images/rocket1","","1","real","null","2","","",""
"d3-animate-choice","157","762981","0.0-76.0-1.7","746","5439","17","Female","false","true","false","false","""event"",""trial"",""time""
""fullscreenenter"",""5"",""28891""
","
","
","""event"",""trial"",""time""
""fullscreenenter"",""5"",""28891""
","
","1035.300000000745","","48","","","3000","1","","","images/redplanet1.jpg","images/alien2","images/alien1","images/rocket1","images/alien2","images/t.png","2","real","true","2","common","1","2022-12-30 19:52:15.681"
"two-step-fixation","158","764000","0.0-76.0-2.7","746","5439","17","Female","false","true","false","false","""event"",""trial"",""time""
""fullscreenenter"",""5"",""28891""
","
","
","""event"",""trial"",""time""
""fullscreenenter"",""5"",""28891""
","
","","images/earth.jpg","","","","","","","","","","","","","","fixation","","","","","",""
"d3-animate-choice","159","766390","0.0-76.0-0.8","746","5439","17","Female","false","true","false","false","""event"",""trial"",""time""
""fullscreenenter"",""5"",""28891""
","
","
","""event"",""trial"",""time""
""fullscreenenter"",""5"",""28891""
","
","377.2999999988824","","48","","","3000","1","","","images/earth.jpg","images/rocket1","images/rocket2","null","images/rocket1","","1","real","null","2","","",""
"d3-animate-choice","160","769078","0.0-76.0-1.8","746","5439","17","Female","false","true","false","false","""event"",""trial"",""time""
""fullscreenenter"",""5"",""28891""
","
","
","""event"",""trial"",""time""
""fullscreenenter"",""5"",""28891""
","
","677.7999999988824","","48","","","3000","1","","","images/redplanet1.jpg","images/alien2","images/alien1","images/rocket1","images/alien2","images/t.png","2","real","true","2","common","1","2022-12-30 19:52:21.778"
"two-step-fixation","161","770090","0.0-76.0-2.8","746","5439","17","Female","false","true","false","false","""event"",""trial"",""time""
""fullscreenenter"",""5"",""28891""
","
","
","""event"",""trial"",""time""
""fullscreenenter"",""5"",""28891""
","
","","images/earth.jpg","","","","","","","","","","","","","","fixation","","","","","",""
"d3-animate-choice","162","772405","0.0-76.0-0.9","746","5439","17","Female","false","true","false","false","""event"",""trial"",""time""
""fullscreenenter"",""5"",""28891""
","
","
","""event"",""trial"",""time""
""fullscreenenter"",""5"",""28891""
","
","302.5","","48","","","3000","1","","","images/earth.jpg","images/rocket1","images/rocket2","null","images/rocket1","","1","real","null","2","","",""
"d3-animate-choice","163","775029","0.0-76.0-1.9","746","5439","17","Female","false","true","false","false","""event"",""trial"",""time""
""fullscreenenter"",""5"",""28891""
","
","
","""event"",""trial"",""time""
""fullscreenenter"",""5"",""28891""
","
","616.7000000011176","","48","","","3000","1","","","images/redplanet1.jpg","images/alien2","images/alien1","images/rocket1","images/alien2","images/nothing.png","2","real","true","2","common","0","2022-12-30 19:52:27.729"
"two-step-fixation","164","776037","0.0-76.0-2.9","746","5439","17","Female","false","true","false","false","""event"",""trial"",""time""
""fullscreenenter"",""5"",""28891""
","
","
","""event"",""trial"",""time""
""fullscreenenter"",""5"",""28891""
","
","","images/earth.jpg","","","","","","","","","","","","","","fixation","","","","","",""
"d3-animate-choice","165","778492","0.0-76.0-0.10","746","5439","17","Female","false","true","false","false","""event"",""trial"",""time""
""fullscreenenter"",""5"",""28891""
","
","
","""event"",""trial"",""time""
""fullscreenenter"",""5"",""28891""
","
","448.80000000074506","","48","","","3000","1","","","images/earth.jpg","images/rocket1","images/rocket2","null","images/rocket1","","1","real","null","2","","",""
"d3-animate-choice","166","781693","0.0-76.0-1.10","746","5439","17","Female","false","true","false","false","""event"",""trial"",""time""
""fullscreenenter"",""5"",""28891""
","
","
","""event"",""trial"",""time""
""fullscreenenter"",""5"",""28891""
","
","1191.9000000003725","","49","","","3000","1","","","images/redplanet1.jpg","images/alien2","images/alien1","images/rocket1","images/alien1","images/t.png","2","real","true","1","common","1","2022-12-30 19:52:34.394"
"two-step-fixation","167","782701","0.0-76.0-2.10","746","5439","17","Female","false","true","false","false","""event"",""trial"",""time""
""fullscreenenter"",""5"",""28891""
","
","
","""event"",""trial"",""time""
""fullscreenenter"",""5"",""28891""
","
","","images/earth.jpg","","","","","","","","","","","","","","fixation","","","","","",""
"d3-animate-choice","168","785073","0.0-76.0-0.11","746","5439","17","Female","false","true","false","false","""event"",""trial"",""time""
""fullscreenenter"",""5"",""28891""
","
","
","""event"",""trial"",""time""
""fullscreenenter"",""5"",""28891""
","
","361.40000000037253","","48","","","3000","1","","","images/earth.jpg","images/rocket1","images/rocket2","null","images/rocket1","","1","real","null","2","","",""
"d3-animate-choice","169","787796","0.0-76.0-1.11","746","5439","17","Female","false","true","false","false","""event"",""trial"",""time""
""fullscreenenter"",""5"",""28891""
","
","
","""event"",""trial"",""time""
""fullscreenenter"",""5"",""28891""
","
","716.5999999996275","","49","","","3000","1","","","images/purpleplanet.jpg","images/alien4","images/alien3","images/rocket1","images/alien3","images/t.png","2","real","false","1","rare","1","2022-12-30 19:52:40.496"
"two-step-fixation","170","788806","0.0-76.0-2.11","746","5439","17","Female","false","true","false","false","""event"",""trial"",""time""
""fullscreenenter"",""5"",""28891""
","
","
","""event"",""trial"",""time""
""fullscreenenter"",""5"",""28891""
","
","","images/earth.jpg","","","","","","","","","","","","","","fixation","","","","","",""
"d3-animate-choice","171","791117","0.0-76.0-0.12","746","5439","17","Female","false","true","false","false","""event"",""trial"",""time""
""fullscreenenter"",""5"",""28891""
","
","
","""event"",""trial"",""time""
""fullscreenenter"",""5"",""28891""
","
","299","","48","","","3000","1","","","images/earth.jpg","images/rocket1","images/rocket2","null","images/rocket1","","1","real","null","2","","",""
"d3-animate-choice","172","793653","0.0-76.0-1.12","746","5439","17","Female","false","true","false","false","""event"",""trial"",""time""
""fullscreenenter"",""5"",""28891""
","
","
","""event"",""trial"",""time""
""fullscreenenter"",""5"",""28891""
","
","527.1999999992549","","49","","","3000","1","","","images/redplanet1.jpg","images/alien2","images/alien1","images/rocket1","images/alien1","images/t.png","2","real","true","1","common","1","2022-12-30 19:52:46.353"
"two-step-fixation","173","794661","0.0-76.0-2.12","746","5439","17","Female","false","true","false","false","""event"",""trial"",""time""
""fullscreenenter"",""5"",""28891""
","
","
","""event"",""trial"",""time""
""fullscreenenter"",""5"",""28891""
","
","","images/earth.jpg","","","","","","","","","","","","","","fixation","","","","","",""
"d3-animate-choice","174","797088","0.0-76.0-0.13","746","5439","17","Female","false","true","false","false","""event"",""trial"",""time""
""fullscreenenter"",""5"",""28891""
","
","
","""event"",""trial"",""time""
""fullscreenenter"",""5"",""28891""
","
","423","","48","","","3000","1","","","images/earth.jpg","images/rocket1","images/rocket2","null","images/rocket1","","1","real","null","2","","",""
"d3-animate-choice","175","800060","0.0-76.0-1.13","746","5439","17","Female","false","true","false","false","""event"",""trial"",""time""
""fullscreenenter"",""5"",""28891""
","
","
","""event"",""trial"",""time""
""fullscreenenter"",""5"",""28891""
","
","966.7999999988824","","49","","","3000","1","","","images/purpleplanet.jpg","images/alien4","images/alien3","images/rocket1","images/alien3","images/nothing.png","2","real","false","1","rare","0","2022-12-30 19:52:52.760"
"two-step-fixation","176","801068","0.0-76.0-2.13","746","5439","17","Female","false","true","false","false","""event"",""trial"",""time""
""fullscreenenter"",""5"",""28891""
","
","
","""event"",""trial"",""time""
""fullscreenenter"",""5"",""28891""
","
","","images/earth.jpg","","","","","","","","","","","","","","fixation","","","","","",""
"d3-animate-choice","177","803348","0.0-76.0-0.14","746","5439","17","Female","false","true","false","false","""event"",""trial"",""time""
""fullscreenenter"",""5"",""28891""
","
","
","""event"",""trial"",""time""
""fullscreenenter"",""5"",""28891""
","
","272","","48","","","3000","1","","","images/earth.jpg","images/rocket1","images/rocket2","null","images/rocket1","","1","real","null","2","","",""
"d3-animate-choice","178","806069","0.0-76.0-1.14","746","5439","17","Female","false","true","false","false","""event"",""trial"",""time""
""fullscreenenter"",""5"",""28891""
","
","
","""event"",""trial"",""time""
""fullscreenenter"",""5"",""28891""
","
","708.5","","49","","","3000","1","","","images/purpleplanet.jpg","images/alien4","images/alien3","images/rocket1","images/alien3","images/nothing.png","2","real","false","1","rare","0","2022-12-30 19:52:58.769"
"two-step-fixation","179","807076","0.0-76.0-2.14","746","5439","17","Female","false","true","false","false","""event"",""trial"",""time""
""fullscreenenter"",""5"",""28891""
","
","
","""event"",""trial"",""time""
""fullscreenenter"",""5"",""28891""
","
","","images/earth.jpg","","","","","","","","","","","","","","fixation","","","","","",""
"d3-animate-choice","180","809427","0.0-76.0-0.15","746","5439","17","Female","false","true","false","false","""event"",""trial"",""time""
""fullscreenenter"",""5"",""28891""
","
","
","""event"",""trial"",""time""
""fullscreenenter"",""5"",""28891""
","
","342.09999999962747","","48","","","3000","1","","","images/earth.jpg","images/rocket1","images/rocket2","null","images/rocket1","","1","real","null","2","","",""
"d3-animate-choice","181","812612","0.0-76.0-1.15","746","5439","17","Female","false","true","false","false","""event"",""trial"",""time""
""fullscreenenter"",""5"",""28891""
","
","
","""event"",""trial"",""time""
""fullscreenenter"",""5"",""28891""
","
","1178.5","","48","","","3000","1","","","images/purpleplanet.jpg","images/alien4","images/alien3","images/rocket1","images/alien4","images/nothing.png","2","real","false","2","rare","0","2022-12-30 19:53:05.313"
"two-step-fixation","182","813620","0.0-76.0-2.15","746","5439","17","Female","false","true","false","false","""event"",""trial"",""time""
""fullscreenenter"",""5"",""28891""
","
","
","""event"",""trial"",""time""
""fullscreenenter"",""5"",""28891""
","
","","images/earth.jpg","","","","","","","","","","","","","","fixation","","","","","",""
"d3-animate-choice","183","815940","0.0-76.0-0.16","746","5439","17","Female","false","true","false","false","""event"",""trial"",""time""
""fullscreenenter"",""5"",""28891""
","
","
","""event"",""trial"",""time""
""fullscreenenter"",""5"",""28891""
","
","306.3999999985099","","49","","","3000","1","","","images/earth.jpg","images/rocket1","images/rocket2","null","images/rocket2","","1","real","null","1","","",""
"d3-animate-choice","184","818860","0.0-76.0-1.16","746","5439","17","Female","false","true","false","false","""event"",""trial"",""time""
""fullscreenenter"",""5"",""28891""
","
","
","""event"",""trial"",""time""
""fullscreenenter"",""5"",""28891""
","
","913.5","","49","","","3000","1","","","images/purpleplanet.jpg","images/alien4","images/alien3","images/rocket2","images/alien3","images/nothing.png","2","real","true","1","common","0","2022-12-30 19:53:11.560"
"two-step-fixation","185","819868","0.0-76.0-2.16","746","5439","17","Female","false","true","false","false","""event"",""trial"",""time""
""fullscreenenter"",""5"",""28891""
","
","
","""event"",""trial"",""time""
""fullscreenenter"",""5"",""28891""
","
","","images/earth.jpg","","","","","","","","","","","","","","fixation","","","","","",""
"d3-animate-choice","186","822170","0.0-76.0-0.17","746","5439","17","Female","false","true","false","false","""event"",""trial"",""time""
""fullscreenenter"",""5"",""28891""
","
","
","""event"",""trial"",""time""
""fullscreenenter"",""5"",""28891""
","
","295.7000000011176","","48","","","3000","1","","","images/earth.jpg","images/rocket1","images/rocket2","null","images/rocket1","","1","real","null","2","","",""
"d3-animate-choice","187","824684","0.0-76.0-1.17","746","5439","17","Female","false","true","false","false","""event"",""trial"",""time""
""fullscreenenter"",""5"",""28891""
","
","
","""event"",""trial"",""time""
""fullscreenenter"",""5"",""28891""
","
","504.69999999925494","","49","","","3000","1","","","images/redplanet1.jpg","images/alien2","images/alien1","images/rocket1","images/alien1","images/nothing.png","2","real","true","1","common","0","2022-12-30 19:53:17.384"
"two-step-fixation","188","825692","0.0-76.0-2.17","746","5439","17","Female","false","true","false","false","""event"",""trial"",""time""
""fullscreenenter"",""5"",""28891""
","
","
","""event"",""trial"",""time""
""fullscreenenter"",""5"",""28891""
","
","","images/earth.jpg","","","","","","","","","","","","","","fixation","","","","","",""
"d3-animate-choice","189","827980","0.0-76.0-0.18","746","5439","17","Female","false","true","false","false","""event"",""trial"",""time""
""fullscreenenter"",""5"",""28891""
","
","
","""event"",""trial"",""time""
""fullscreenenter"",""5"",""28891""
","
","281.40000000037253","","48","","","3000","1","","","images/earth.jpg","images/rocket1","images/rocket2","null","images/rocket1","","1","real","null","2","","",""
"d3-animate-choice","190","830556","0.0-76.0-1.18","746","5439","17","Female","false","true","false","false","""event"",""trial"",""time""
""fullscreenenter"",""5"",""28891""
","
","
","""event"",""trial"",""time""
""fullscreenenter"",""5"",""28891""
","
","566.5999999996275","","48","","","3000","1","","","images/redplanet1.jpg","images/alien2","images/alien1","images/rocket1","images/alien2","images/t.png","2","real","true","2","common","1","2022-12-30 19:53:23.256"
"two-step-fixation","191","831564","0.0-76.0-2.18","746","5439","17","Female","false","true","false","false","""event"",""trial"",""time""
""fullscreenenter"",""5"",""28891""
","
","
","""event"",""trial"",""time""
""fullscreenenter"",""5"",""28891""
","
","","images/earth.jpg","","","","","","","","","","","","","","fixation","","","","","",""
"d3-animate-choice","192","833836","0.0-76.0-0.19","746","5439","17","Female","false","true","false","false","""event"",""trial"",""time""
""fullscreenenter"",""5"",""28891""
","
","
","""event"",""trial"",""time""
""fullscreenenter"",""5"",""28891""
","
","267.80000000074506","","48","","","3000","1","","","images/earth.jpg","images/rocket1","images/rocket2","null","images/rocket1","","1","real","null","2","","",""
"d3-animate-choice","193","836227","0.0-76.0-1.19","746","5439","17","Female","false","true","false","false","""event"",""trial"",""time""
""fullscreenenter"",""5"",""28891""
","
","
","""event"",""trial"",""time""
""fullscreenenter"",""5"",""28891""
","
","383.09999999962747","","48","","","3000","1","","","images/redplanet1.jpg","images/alien2","images/alien1","images/rocket1","images/alien2","images/nothing.png","2","real","true","2","common","0","2022-12-30 19:53:28.927"
"two-step-fixation","194","837237","0.0-76.0-2.19","746","5439","17","Female","false","true","false","false","""event"",""trial"",""time""
""fullscreenenter"",""5"",""28891""
","
","
","""event"",""trial"",""time""
""fullscreenenter"",""5"",""28891""
","
","","images/earth.jpg","","","","","","","","","","","","","","fixation","","","","","",""
"d3-animate-choice","195","839780","0.0-76.0-0.20","746","5439","17","Female","false","true","false","false","""event"",""trial"",""time""
""fullscreenenter"",""5"",""28891""
","
","
","""event"",""trial"",""time""
""fullscreenenter"",""5"",""28891""
","
","530.5999999996275","","48","","","3000","1","","","images/earth.jpg","images/rocket1","images/rocket2","null","images/rocket1","","1","real","null","2","","",""
"d3-animate-choice","196","842797","0.0-76.0-1.20","746","5439","17","Female","false","true","false","false","""event"",""trial"",""time""
""fullscreenenter"",""5"",""28891""
","
","
","""event"",""trial"",""time""
""fullscreenenter"",""5"",""28891""
","
","1007.8000000007451","","48","","","3000","1","","","images/redplanet1.jpg","images/alien2","images/alien1","images/rocket1","images/alien2","images/t.png","2","real","true","2","common","1","2022-12-30 19:53:35.497"
"two-step-fixation","197","843805","0.0-76.0-2.20","746","5439","17","Female","false","true","false","false","""event"",""trial"",""time""
""fullscreenenter"",""5"",""28891""
","
","
","""event"",""trial"",""time""
""fullscreenenter"",""5"",""28891""
","
","","images/earth.jpg","","","","","","","","","","","","","","fixation","","","","","",""
"d3-animate-choice","198","846109","0.0-76.0-0.21","746","5439","17","Female","false","true","false","false","""event"",""trial"",""time""
""fullscreenenter"",""5"",""28891""
","
","
","""event"",""trial"",""time""
""fullscreenenter"",""5"",""28891""
","
","295.6000000014901","","48","","","3000","1","","","images/earth.jpg","images/rocket1","images/rocket2","null","images/rocket1","","1","real","null","2","","",""
"d3-animate-choice","199","848548","0.0-76.0-1.21","746","5439","17","Female","false","true","false","false","""event"",""trial"",""time""
""fullscreenenter"",""5"",""28891""
","
","
","""event"",""trial"",""time""
""fullscreenenter"",""5"",""28891""
","
","425.5","","48","","","3000","1","","","images/redplanet1.jpg","images/alien2","images/alien1","images/rocket1","images/alien2","images/t.png","2","real","true","2","common","1","2022-12-30 19:53:41.248"
"two-step-fixation","200","849556","0.0-76.0-2.21","746","5439","17","Female","false","true","false","false","""event"",""trial"",""time""
""fullscreenenter"",""5"",""28891""
","
","
","""event"",""trial"",""time""
""fullscreenenter"",""5"",""28891""
","
","","images/earth.jpg","","","","","","","","","","","","","","fixation","","","","","",""
"d3-animate-choice","201","851797","0.0-76.0-0.22","746","5439","17","Female","false","true","false","false","""event"",""trial"",""time""
""fullscreenenter"",""5"",""28891""
","
","
","""event"",""trial"",""time""
""fullscreenenter"",""5"",""28891""
","
","230.19999999925494","","48","","","3000","1","","","images/earth.jpg","images/rocket1","images/rocket2","null","images/rocket1","","1","real","null","2","","",""
"d3-animate-choice","202","854220","0.0-76.0-1.22","746","5439","17","Female","false","true","false","false","""event"",""trial"",""time""
""fullscreenenter"",""5"",""28891""
","
","
","""event"",""trial"",""time""
""fullscreenenter"",""5"",""28891""
","
","411","","48","","","3000","1","","","images/redplanet1.jpg","images/alien2","images/alien1","images/rocket1","images/alien2","images/t.png","2","real","true","2","common","1","2022-12-30 19:53:46.920"
"two-step-fixation","203","855227","0.0-76.0-2.22","746","5439","17","Female","false","true","false","false","""event"",""trial"",""time""
""fullscreenenter"",""5"",""28891""
","
","
","""event"",""trial"",""time""
""fullscreenenter"",""5"",""28891""
","
","","images/earth.jpg","","","","","","","","","","","","","","fixation","","","","","",""
"d3-animate-choice","204","857492","0.0-76.0-0.23","746","5439","17","Female","false","true","false","false","""event"",""trial"",""time""
""fullscreenenter"",""5"",""28891""
","
","
","""event"",""trial"",""time""
""fullscreenenter"",""5"",""28891""
","
","256.19999999925494","","48","","","3000","1","","","images/earth.jpg","images/rocket1","images/rocket2","null","images/rocket1","","1","real","null","2","","",""
"d3-animate-choice","205","860860","0.0-76.0-1.23","746","5439","17","Female","false","true","false","false","""event"",""trial"",""time""
""fullscreenenter"",""5"",""28891""
","
","
","""event"",""trial"",""time""
""fullscreenenter"",""5"",""28891""
","
","1358.7999999988824","","48","","","3000","1","","","images/purpleplanet.jpg","images/alien4","images/alien3","images/rocket1","images/alien4","images/nothing.png","2","real","false","2","rare","0","2022-12-30 19:53:53.560"
"two-step-fixation","206","861868","0.0-76.0-2.23","746","5439","17","Female","false","true","false","false","""event"",""trial"",""time""
""fullscreenenter"",""5"",""28891""
","
","
","""event"",""trial"",""time""
""fullscreenenter"",""5"",""28891""
","
","","images/earth.jpg","","","","","","","","","","","","","","fixation","","","","","",""
"d3-animate-choice","207","864165","0.0-76.0-0.24","746","5439","17","Female","false","true","false","false","""event"",""trial"",""time""
""fullscreenenter"",""5"",""28891""
","
","
","""event"",""trial"",""time""
""fullscreenenter"",""5"",""28891""
","
","286.7000000011176","","48","","","3000","1","","","images/earth.jpg","images/rocket1","images/rocket2","null","images/rocket1","","1","real","null","2","","",""
"d3-animate-choice","208","866668","0.0-76.0-1.24","746","5439","17","Female","false","true","false","false","""event"",""trial"",""time""
""fullscreenenter"",""5"",""28891""
","
","
","""event"",""trial"",""time""
""fullscreenenter"",""5"",""28891""
","
","497","","48","","","3000","1","","","images/redplanet1.jpg","images/alien2","images/alien1","images/rocket1","images/alien2","images/nothing.png","2","real","true","2","common","0","2022-12-30 19:53:59.369"
"two-step-fixation","209","867676","0.0-76.0-2.24","746","5439","17","Female","false","true","false","false","""event"",""trial"",""time""
""fullscreenenter"",""5"",""28891""
","
","
","""event"",""trial"",""time""
""fullscreenenter"",""5"",""28891""
","
","","images/earth.jpg","","","","","","","","","","","","","","fixation","","","","","",""
"d3-animate-choice","210","870169","0.0-76.0-0.25","746","5439","17","Female","false","true","false","false","""event"",""trial"",""time""
""fullscreenenter"",""5"",""28891""
","
","
","""event"",""trial"",""time""
""fullscreenenter"",""5"",""28891""
","
","486.2999999988824","","48","","","3000","1","","","images/earth.jpg","images/rocket1","images/rocket2","null","images/rocket1","","1","real","null","2","","",""
"d3-animate-choice","211","873397","0.0-76.0-1.25","746","5439","17","Female","false","true","false","false","""event"",""trial"",""time""
""fullscreenenter"",""5"",""28891""
","
","
","""event"",""trial"",""time""
""fullscreenenter"",""5"",""28891""
","
","1220.0999999996275","","49","","","3000","1","","","images/redplanet1.jpg","images/alien2","images/alien1","images/rocket1","images/alien1","images/t.png","2","real","true","1","common","1","2022-12-30 19:54:06.097"
"two-step-fixation","212","874402","0.0-76.0-2.25","746","5439","17","Female","false","true","false","false","""event"",""trial"",""time""
""fullscreenenter"",""5"",""28891""
","
","
","""event"",""trial"",""time""
""fullscreenenter"",""5"",""28891""
","
","","images/earth.jpg","","","","","","","","","","","","","","fixation","","","","","",""
"d3-animate-choice","213","876701","0.0-76.0-0.26","746","5439","17","Female","false","true","false","false","""event"",""trial"",""time""
""fullscreenenter"",""5"",""28891""
","
","
","""event"",""trial"",""time""
""fullscreenenter"",""5"",""28891""
","
","287.7999999988824","","48","","","3000","1","","","images/earth.jpg","images/rocket1","images/rocket2","null","images/rocket1","","1","real","null","2","","",""
"d3-animate-choice","214","879916","0.0-76.0-1.26","746","5439","17","Female","false","true","false","false","""event"",""trial"",""time""
""fullscreenenter"",""5"",""28891""
","
","
","""event"",""trial"",""time""
""fullscreenenter"",""5"",""28891""
","
","1208.2999999988824","","49","","","3000","1","","","images/purpleplanet.jpg","images/alien4","images/alien3","images/rocket1","images/alien3","images/nothing.png","2","real","false","1","rare","0","2022-12-30 19:54:12.616"
"two-step-fixation","215","880924","0.0-76.0-2.26","746","5439","17","Female","false","true","false","false","""event"",""trial"",""time""
""fullscreenenter"",""5"",""28891""
","
","
","""event"",""trial"",""time""
""fullscreenenter"",""5"",""28891""
","
","","images/earth.jpg","","","","","","","","","","","","","","fixation","","","","","",""
"d3-animate-choice","216","883252","0.0-76.0-0.27","746","5439","17","Female","false","true","false","false","""event"",""trial"",""time""
""fullscreenenter"",""5"",""28891""
","
","
","""event"",""trial"",""time""
""fullscreenenter"",""5"",""28891""
","
","317.19999999925494","","48","","","3000","1","","","images/earth.jpg","images/rocket1","images/rocket2","null","images/rocket1","","1","real","null","2","","",""
"d3-animate-choice","217","885805","0.0-76.0-1.27","746","5439","17","Female","false","true","false","false","""event"",""trial"",""time""
""fullscreenenter"",""5"",""28891""
","
","
","""event"",""trial"",""time""
""fullscreenenter"",""5"",""28891""
","
","545.3999999985099","","49","","","3000","1","","","images/redplanet1.jpg","images/alien2","images/alien1","images/rocket1","images/alien1","images/t.png","2","real","true","1","common","1","2022-12-30 19:54:18.505"
"two-step-fixation","218","886812","0.0-76.0-2.27","746","5439","17","Female","false","true","false","false","""event"",""trial"",""time""
""fullscreenenter"",""5"",""28891""
","
","
","""event"",""trial"",""time""
""fullscreenenter"",""5"",""28891""
","
","","images/earth.jpg","","","","","","","","","","","","","","fixation","","","","","",""
"d3-animate-choice","219","889156","0.0-76.0-0.28","746","5439","17","Female","false","true","false","false","""event"",""trial"",""time""
""fullscreenenter"",""5"",""28891""
","
","
","""event"",""trial"",""time""
""fullscreenenter"",""5"",""28891""
","
","336.19999999925494","","48","","","3000","1","","","images/earth.jpg","images/rocket1","images/rocket2","null","images/rocket1","","1","real","null","2","","",""
"d3-animate-choice","220","892602","0.0-76.0-1.28","746","5439","17","Female","false","true","false","false","""event"",""trial"",""time""
""fullscreenenter"",""5"",""28891""
","
","
","""event"",""trial"",""time""
""fullscreenenter"",""5"",""28891""
","
","1439.5","","48","","","3000","1","","","images/purpleplanet.jpg","images/alien4","images/alien3","images/rocket1","images/alien4","images/t.png","2","real","false","2","rare","1","2022-12-30 19:54:25.302"
"two-step-fixation","221","893613","0.0-76.0-2.28","746","5439","17","Female","false","true","false","false","""event"",""trial"",""time""
""fullscreenenter"",""5"",""28891""
","
","
","""event"",""trial"",""time""
""fullscreenenter"",""5"",""28891""
","
","","images/earth.jpg","","","","","","","","","","","","","","fixation","","","","","",""
"d3-animate-choice","222","896020","0.0-76.0-0.29","746","5439","17","Female","false","true","false","false","""event"",""trial"",""time""
""fullscreenenter"",""5"",""28891""
","
","
","""event"",""trial"",""time""
""fullscreenenter"",""5"",""28891""
","
","399.90000000037253","","48","","","3000","1","","","images/earth.jpg","images/rocket1","images/rocket2","null","images/rocket1","","1","real","null","2","","",""
"d3-animate-choice","223","899061","0.0-76.0-1.29","746","5439","17","Female","false","true","false","false","""event"",""trial"",""time""
""fullscreenenter"",""5"",""28891""
","
","
","""event"",""trial"",""time""
""fullscreenenter"",""5"",""28891""
","
","1033.9000000003725","","49","","","3000","1","","","images/purpleplanet.jpg","images/alien4","images/alien3","images/rocket1","images/alien3","images/nothing.png","2","real","false","1","rare","0","2022-12-30 19:54:31.761"
"two-step-fixation","224","900067","0.0-76.0-2.29","746","5439","17","Female","false","true","false","false","""event"",""trial"",""time""
""fullscreenenter"",""5"",""28891""
","
","
","""event"",""trial"",""time""
""fullscreenenter"",""5"",""28891""
","
","","images/earth.jpg","","","","","","","","","","","","","","fixation","","","","","",""
"d3-animate-choice","225","902384","0.0-76.0-0.30","746","5439","17","Female","false","true","false","false","""event"",""trial"",""time""
""fullscreenenter"",""5"",""28891""
","
","
","""event"",""trial"",""time""
""fullscreenenter"",""5"",""28891""
","
","312.19999999925494","","48","","","3000","1","","","images/earth.jpg","images/rocket1","images/rocket2","null","images/rocket1","","1","real","null","2","","",""
"d3-animate-choice","226","905450","0.0-76.0-1.30","746","5439","17","Female","false","true","false","false","""event"",""trial"",""time""
""fullscreenenter"",""5"",""28891""
","
","
","""event"",""trial"",""time""
""fullscreenenter"",""5"",""28891""
","
","1054.7999999988824","","48","","","3000","1","","","images/purpleplanet.jpg","images/alien4","images/alien3","images/rocket1","images/alien4","images/t.png","2","real","false","2","rare","1","2022-12-30 19:54:38.150"
"two-step-fixation","227","906459","0.0-76.0-2.30","746","5439","17","Female","false","true","false","false","""event"",""trial"",""time""
""fullscreenenter"",""5"",""28891""
","
","
","""event"",""trial"",""time""
""fullscreenenter"",""5"",""28891""
","
","","images/earth.jpg","","","","","","","","","","","","","","fixation","","","","","",""
"d3-animate-choice","228","908817","0.0-76.0-0.31","746","5439","17","Female","false","true","false","false","""event"",""trial"",""time""
""fullscreenenter"",""5"",""28891""
","
","
","""event"",""trial"",""time""
""fullscreenenter"",""5"",""28891""
","
","347.5","","48","","","3000","1","","","images/earth.jpg","images/rocket1","images/rocket2","null","images/rocket1","","1","real","null","2","","",""
"d3-animate-choice","229","911620","0.0-76.0-1.31","746","5439","17","Female","false","true","false","false","""event"",""trial"",""time""
""fullscreenenter"",""5"",""28891""
","
","
","""event"",""trial"",""time""
""fullscreenenter"",""5"",""28891""
","
","796.3000000007451","","49","","","3000","1","","","images/redplanet1.jpg","images/alien2","images/alien1","images/rocket1","images/alien1","images/t.png","2","real","true","1","common","1","2022-12-30 19:54:44.320"
"two-step-fixation","230","912627","0.0-76.0-2.31","746","5439","17","Female","false","true","false","false","""event"",""trial"",""time""
""fullscreenenter"",""5"",""28891""
","
","
","""event"",""trial"",""time""
""fullscreenenter"",""5"",""28891""
","
","","images/earth.jpg","","","","","","","","","","","","","","fixation","","","","","",""
"d3-animate-choice","231","914931","0.0-76.0-0.32","746","5439","17","Female","false","true","false","false","""event"",""trial"",""time""
""fullscreenenter"",""5"",""28891""
","
","
","""event"",""trial"",""time""
""fullscreenenter"",""5"",""28891""
","
","298.6000000014901","","48","","","3000","1","","","images/earth.jpg","images/rocket1","images/rocket2","null","images/rocket1","","1","real","null","2","","",""
"d3-animate-choice","232","918617","0.0-76.0-1.32","746","5439","17","Female","false","true","false","false","""event"",""trial"",""time""
""fullscreenenter"",""5"",""28891""
","
","
","""event"",""trial"",""time""
""fullscreenenter"",""5"",""28891""
","
","1679.7999999988824","","49","","","3000","1","","","images/purpleplanet.jpg","images/alien4","images/alien3","images/rocket1","images/alien3","images/nothing.png","2","real","false","1","rare","0","2022-12-30 19:54:51.317"
"two-step-fixation","233","919629","0.0-76.0-2.32","746","5439","17","Female","false","true","false","false","""event"",""trial"",""time""
""fullscreenenter"",""5"",""28891""
","
","
","""event"",""trial"",""time""
""fullscreenenter"",""5"",""28891""
","
","","images/earth.jpg","","","","","","","","","","","","","","fixation","","","","","",""
"d3-animate-choice","234","921956","0.0-76.0-0.33","746","5439","17","Female","false","true","false","false","""event"",""trial"",""time""
""fullscreenenter"",""5"",""28891""
","
","
","""event"",""trial"",""time""
""fullscreenenter"",""5"",""28891""
","
","319.6000000014901","","48","","","3000","1","","","images/earth.jpg","images/rocket1","images/rocket2","null","images/rocket1","","1","real","null","2","","",""
"d3-animate-choice","235","924891","0.0-76.0-1.33","746","5439","17","Female","false","true","false","false","""event"",""trial"",""time""
""fullscreenenter"",""5"",""28891""
","
","
","""event"",""trial"",""time""
""fullscreenenter"",""5"",""28891""
","
","923","","49","","","3000","1","","","images/redplanet1.jpg","images/alien2","images/alien1","images/rocket1","images/alien1","images/t.png","2","real","true","1","common","1","2022-12-30 19:54:57.592"
"two-step-fixation","236","925900","0.0-76.0-2.33","746","5439","17","Female","false","true","false","false","""event"",""trial"",""time""
""fullscreenenter"",""5"",""28891""
","
","
","""event"",""trial"",""time""
""fullscreenenter"",""5"",""28891""
","
","","images/earth.jpg","","","","","","","","","","","","","","fixation","","","","","",""
"d3-animate-choice","237","928200","0.0-76.0-0.34","746","5439","17","Female","false","true","false","false","""event"",""trial"",""time""
""fullscreenenter"",""5"",""28891""
","
","
","""event"",""trial"",""time""
""fullscreenenter"",""5"",""28891""
","
","289.2999999988824","","48","","","3000","1","","","images/earth.jpg","images/rocket1","images/rocket2","null","images/rocket1","","1","real","null","2","","",""
"d3-animate-choice","238","930972","0.0-76.0-1.34","746","5439","17","Female","false","true","false","false","""event"",""trial"",""time""
""fullscreenenter"",""5"",""28891""
","
","
","""event"",""trial"",""time""
""fullscreenenter"",""5"",""28891""
","
","762.6000000014901","","49","","","3000","1","","","images/redplanet1.jpg","images/alien2","images/alien1","images/rocket1","images/alien1","images/t.png","2","real","true","1","common","1","2022-12-30 19:55:03.672"
"two-step-fixation","239","931979","0.0-76.0-2.34","746","5439","17","Female","false","true","false","false","""event"",""trial"",""time""
""fullscreenenter"",""5"",""28891""
","
","
","""event"",""trial"",""time""
""fullscreenenter"",""5"",""28891""
","
","","images/earth.jpg","","","","","","","","","","","","","","fixation","","","","","",""
"d3-animate-choice","240","934349","0.0-76.0-0.35","746","5439","17","Female","false","true","false","false","""event"",""trial"",""time""
""fullscreenenter"",""5"",""28891""
","
","
","""event"",""trial"",""time""
""fullscreenenter"",""5"",""28891""
","
","365.2000000011176","","48","","","3000","1","","","images/earth.jpg","images/rocket1","images/rocket2","null","images/rocket1","","1","real","null","2","","",""
"d3-animate-choice","241","937005","0.0-76.0-1.35","746","5439","17","Female","false","true","false","false","""event"",""trial"",""time""
""fullscreenenter"",""5"",""28891""
","
","
","""event"",""trial"",""time""
""fullscreenenter"",""5"",""28891""
","
","646","","49","","","3000","1","","","images/redplanet1.jpg","images/alien2","images/alien1","images/rocket1","images/alien1","images/t.png","2","real","true","1","common","1","2022-12-30 19:55:09.705"
"two-step-fixation","242","938012","0.0-76.0-2.35","746","5439","17","Female","false","true","false","false","""event"",""trial"",""time""
""fullscreenenter"",""5"",""28891""
","
","
","""event"",""trial"",""time""
""fullscreenenter"",""5"",""28891""
","
","","images/earth.jpg","","","","","","","","","","","","","","fixation","","","","","",""
"d3-animate-choice","243","940541","0.0-76.0-0.36","746","5439","17","Female","false","true","false","false","""event"",""trial"",""time""
""fullscreenenter"",""5"",""28891""
","
","
","""event"",""trial"",""time""
""fullscreenenter"",""5"",""28891""
","
","517","","48","","","3000","1","","","images/earth.jpg","images/rocket1","images/rocket2","null","images/rocket1","","1","real","null","2","","",""
"d3-animate-choice","244","943212","0.0-76.0-1.36","746","5439","17","Female","false","true","false","false","""event"",""trial"",""time""
""fullscreenenter"",""5"",""28891""
","
","
","""event"",""trial"",""time""
""fullscreenenter"",""5"",""28891""
","
