"trial_type","trial_index","time_elapsed","internal_node_id","participant_id","subject_id","age","gender","rocket_sides","red_planet_first_rocket","red_display_order","purple_display_order","interactions","blur_events","focus_events","fullscreenenter_events","fullscreenexit_events","rt","stimulus","key_press","button_pressed","success","duration","valid_pressed","rts","keys","planet_text","right_text","left_text","center_text","chosen_text","reward_text","trial_stage","practice_trial","transition_type","choice","transition","reward","timestamp"
"pavlovia","0","2","0.0-0.0","3956","7267","19","Male","true","true","false","false","
","
","
","
","
","","","","","","","","","","","","","","","","","","","","","",""
"html-keyboard-response","1","7082","0.0-1.0","3956","7267","19","Male","true","true","false","false","
","
","
","
","
","7079","Welcome! Press the space bar to begin.","32","","","","","","","","","","","","","","","","","","",""
"audio-keyboard-response","2","11817","0.0-2.0","3956","7267","19","Male","true","true","false","false","
","
","
","
","
","4741","audio/beep_loop.wav","32","","","","","","","","","","","","","","","","","","",""
"audio-button-response","3","13482","0.0-3.0","3956","7267","19","Male","true","true","false","false","
","
","
","
","
","NaN","audio/fish.mp3","","1","","","","","","","","","","","","","","","","","",""
"audio-button-response","4","16096","0.0-4.0","3956","7267","19","Male","true","true","false","false","""event"",""trial"",""time""
""fullscreenenter"",""5"",""18538""
","
","
","""event"",""trial"",""time""
""fullscreenenter"",""5"",""18538""
","
","NaN","audio/tiger.mp3","","4","","","","","","","","","","","","","","","","","",""
"fullscreen","5","19522","0.0-5.0","3956","7267","19","Male","true","true","false","false","""event"",""trial"",""time""
""fullscreenenter"",""5"",""18538""
","
","
","""event"",""trial"",""time""
""fullscreenenter"",""5"",""18538""
","
","","","","","true","","","","","","","","","","","","","","","","",""
"d3-instructions","6","33130","0.0-6.0","3956","7267","19","Male","true","true","false","false","""event"",""trial"",""time""
""fullscreenenter"",""5"",""18538""
","
","
","""event"",""trial"",""time""
""fullscreenenter"",""5"",""18538""
","
","","","","","","","","","","","","","","","","","","","","","",""
"d3-instructions","7","41540","0.0-7.0","3956","7267","19","Male","true","true","false","false","""event"",""trial"",""time""
""fullscreenenter"",""5"",""18538""
","
","
","""event"",""trial"",""time""
""fullscreenenter"",""5"",""18538""
","
","","","","","","","","","","","","","","","","","","","","","",""
"d3-instructions","8","48185","0.0-8.0","3956","7267","19","Male","true","true","false","false","""event"",""trial"",""time""
""fullscreenenter"",""5"",""18538""
","
","
","""event"",""trial"",""time""
""fullscreenenter"",""5"",""18538""
","
","","","","","","","","","","","","","","","","","","","","","",""
"d3-instructions","9","61530","0.0-9.0","3956","7267","19","Male","true","true","false","false","""event"",""trial"",""time""
""fullscreenenter"",""5"",""18538""
","
","
","""event"",""trial"",""time""
""fullscreenenter"",""5"",""18538""
","
","","","","","","","","","","","","","","","","","","","","","",""
"d3-instructions","10","80972","0.0-10.0","3956","7267","19","Male","true","true","false","false","""event"",""trial"",""time""
""fullscreenenter"",""5"",""18538""
","
","
","""event"",""trial"",""time""
""fullscreenenter"",""5"",""18538""
","
","","","","","","","","","","","","","","","","","","","","","",""
"d3-animate-choice","11","84281","0.0-11.0","3956","7267","19","Male","true","true","false","false","""event"",""trial"",""time""
""fullscreenenter"",""5"",""18538""
","
","
","""event"",""trial"",""time""
""fullscreenenter"",""5"",""18538""
","
","1300","","49","","","3000","1","2375,3205","48,49","images/tutgreenplanet.jpg","images/tutalien1","images/tutalien2","null","images/tutalien2","","NA","practice","null","","","",""
"d3-animate-choice","12","87314","0.0-12.0","3956","7267","19","Male","true","true","false","false","""event"",""trial"",""time""
""fullscreenenter"",""5"",""18538""
","
","
","""event"",""trial"",""time""
""fullscreenenter"",""5"",""18538""
","
","1024","","48","","","3000","1","","","images/tutgreenplanet.jpg","images/tutalien1","images/tutalien2","null","images/tutalien1","","NA","practice","null","","","",""
"d3-animate-choice","13","90174","0.0-13.0","3956","7267","19","Male","true","true","false","false","""event"",""trial"",""time""
""fullscreenenter"",""5"",""18538""
","
","
","""event"",""trial"",""time""
""fullscreenenter"",""5"",""18538""
","
","853","","48","","","3000","1","","","images/tutgreenplanet.jpg","images/tutalien1","images/tutalien2","null","images/tutalien1","","NA","practice","null","","","",""
"d3-animate-choice","14","92525","0.0-14.0","3956","7267","19","Male","true","true","false","false","""event"",""trial"",""time""
""fullscreenenter"",""5"",""18538""
","
","
","""event"",""trial"",""time""
""fullscreenenter"",""5"",""18538""
","
","345","","49","","","3000","1","","","images/tutgreenplanet.jpg","images/tutalien1","images/tutalien2","null","images/tutalien2","","NA","practice","null","","","",""
"d3-instructions","15","99940","0.0-15.0","3956","7267","19","Male","true","true","false","false","""event"",""trial"",""time""
""fullscreenenter"",""5"",""18538""
","
","
","""event"",""trial"",""time""
""fullscreenenter"",""5"",""18538""
","
","","","","","","","","","","","","","","","","","","","","","",""
"d3-instructions","16","106932","0.0-16.0","3956","7267","19","Male","true","true","false","false","""event"",""trial"",""time""
""fullscreenenter"",""5"",""18538""
","
","
","""event"",""trial"",""time""
""fullscreenenter"",""5"",""18538""
","
","","","","","","","","","","","","","","","","","","","","","",""
"d3-instructions","17","115499","0.0-17.0","3956","7267","19","Male","true","true","false","false","""event"",""trial"",""time""
""fullscreenenter"",""5"",""18538""
","
","
","""event"",""trial"",""time""
""fullscreenenter"",""5"",""18538""
","
","","","","","","","","","","","","","","","","","","","","","",""
"d3-instructions","18","129204","0.0-18.0","3956","7267","19","Male","true","true","false","false","""event"",""trial"",""time""
""fullscreenenter"",""5"",""18538""
","
","
","""event"",""trial"",""time""
""fullscreenenter"",""5"",""18538""
","
","","","","","","","","","","","","","","","","","","","","","",""
"d3-instructions","19","143306","0.0-19.0","3956","7267","19","Male","true","true","false","false","""event"",""trial"",""time""
""fullscreenenter"",""5"",""18538""
","
","
","""event"",""trial"",""time""
""fullscreenenter"",""5"",""18538""
","
","","","","","","","","","","","","","","","","","","","","","",""
"d3-animate-choice","20","146223","0.0-20.0","3956","7267","19","Male","true","true","false","false","""event"",""trial"",""time""
""fullscreenenter"",""5"",""18538""
","
","
","""event"",""trial"",""time""
""fullscreenenter"",""5"",""18538""
","
","912","","49","","","3000","1","","","images/tutyellowplanet.jpg","null","images/tutalien3","null","images/tutalien3","images/t.png","NA","practice","null","","","",""
"d3-animate-choice","21","148506","0.0-21.0","3956","7267","19","Male","true","true","false","false","""event"",""trial"",""time""
""fullscreenenter"",""5"",""18538""
","
","
","""event"",""trial"",""time""
""fullscreenenter"",""5"",""18538""
","
","273","","49","","","3000","1","","","images/tutyellowplanet.jpg","null","images/tutalien3","null","images/tutalien3","images/nothing.png","NA","practice","null","","","",""
"d3-animate-choice","22","150779","0.0-22.0","3956","7267","19","Male","true","true","false","false","""event"",""trial"",""time""
""fullscreenenter"",""5"",""18538""
","
","
","""event"",""trial"",""time""
""fullscreenenter"",""5"",""18538""
","
","254","","49","","","3000","1","","","images/tutyellowplanet.jpg","null","images/tutalien3","null","images/tutalien3","images/t.png","NA","practice","null","","","",""
"d3-animate-choice","23","153010","0.0-23.0","3956","7267","19","Male","true","true","false","false","""event"",""trial"",""time""
""fullscreenenter"",""5"",""18538""
","
","
","""event"",""trial"",""time""
""fullscreenenter"",""5"",""18538""
","
","214","","49","","","3000","1","","","images/tutyellowplanet.jpg","null","images/tutalien3","null","images/tutalien3","images/t.png","NA","practice","null","","","",""
"d3-animate-choice","24","155305","0.0-24.0","3956","7267","19","Male","true","true","false","false","""event"",""trial"",""time""
""fullscreenenter"",""5"",""18538""
","
","
","""event"",""trial"",""time""
""fullscreenenter"",""5"",""18538""
","
","286","","49","","","3000","1","","","images/tutyellowplanet.jpg","null","images/tutalien3","null","images/tutalien3","images/t.png","NA","practice","null","","","",""
"d3-animate-choice","25","157586","0.0-25.0","3956","7267","19","Male","true","true","false","false","""event"",""trial"",""time""
""fullscreenenter"",""5"",""18538""
","
","
","""event"",""trial"",""time""
""fullscreenenter"",""5"",""18538""
","
","263","","49","","","3000","1","","","images/tutyellowplanet.jpg","null","images/tutalien3","null","images/tutalien3","images/t.png","NA","practice","null","","","",""
"d3-animate-choice","26","159840","0.0-26.0","3956","7267","19","Male","true","true","false","false","""event"",""trial"",""time""
""fullscreenenter"",""5"",""18538""
","
","
","""event"",""trial"",""time""
""fullscreenenter"",""5"",""18538""
","
","249","","49","","","3000","1","","","images/tutyellowplanet.jpg","null","images/tutalien3","null","images/tutalien3","images/t.png","NA","practice","null","","","",""
"d3-animate-choice","27","162085","0.0-27.0","3956","7267","19","Male","true","true","false","false","""event"",""trial"",""time""
""fullscreenenter"",""5"",""18538""
","
","
","""event"",""trial"",""time""
""fullscreenenter"",""5"",""18538""
","
","234","","49","","","3000","1","","","images/tutyellowplanet.jpg","null","images/tutalien3","null","images/tutalien3","images/t.png","NA","practice","null","","","",""
"d3-animate-choice","28","164458","0.0-28.0","3956","7267","19","Male","true","true","false","false","""event"",""trial"",""time""
""fullscreenenter"",""5"",""18538""
","
","
","""event"",""trial"",""time""
""fullscreenenter"",""5"",""18538""
","
","364","","49","","","3000","1","","","images/tutyellowplanet.jpg","null","images/tutalien3","null","images/tutalien3","images/t.png","NA","practice","null","","","",""
"d3-animate-choice","29","166743","0.0-29.0","3956","7267","19","Male","true","true","false","false","""event"",""trial"",""time""
""fullscreenenter"",""5"",""18538""
","
","
","""event"",""trial"",""time""
""fullscreenenter"",""5"",""18538""
","
","273","","49","","","3000","1","","","images/tutyellowplanet.jpg","null","images/tutalien3","null","images/tutalien3","images/nothing.png","NA","practice","null","","","",""
"d3-instructions","30","173401","0.0-30.0","3956","7267","19","Male","true","true","false","false","""event"",""trial"",""time""
""fullscreenenter"",""5"",""18538""
","
","
","""event"",""trial"",""time""
""fullscreenenter"",""5"",""18538""
","
","","","","","","","","","","","","","","","","","","","","","",""
"d3-instructions","31","183345","0.0-31.0","3956","7267","19","Male","true","true","false","false","""event"",""trial"",""time""
""fullscreenenter"",""5"",""18538""
","
","
","""event"",""trial"",""time""
""fullscreenenter"",""5"",""18538""
","
","","","","","","","","","","","","","","","","","","","","","",""
"d3-instructions","32","190701","0.0-32.0","3956","7267","19","Male","true","true","false","false","""event"",""trial"",""time""
""fullscreenenter"",""5"",""18538""
","
","
","""event"",""trial"",""time""
""fullscreenenter"",""5"",""18538""
","
","","","","","","","","","","","","","","","","","","","","","",""
"d3-instructions","33","198369","0.0-33.0","3956","7267","19","Male","true","true","false","false","""event"",""trial"",""time""
""fullscreenenter"",""5"",""18538""
","
","
","""event"",""trial"",""time""
""fullscreenenter"",""5"",""18538""
","
","","","","","","","","","","","","","","","","","","","","","",""
"d3-animate-choice","34","201304","0.0-34.0","3956","7267","19","Male","true","true","false","false","""event"",""trial"",""time""
""fullscreenenter"",""5"",""18538""
","
","
","""event"",""trial"",""time""
""fullscreenenter"",""5"",""18538""
","
","921","","49","","","3000","1","","","images/tutgreenplanet.jpg","images/tutalien1","images/tutalien2","null","images/tutalien2","images/t.png","NA","practice","null","","","",""
"d3-animate-choice","35","203567","0.0-35.0","3956","7267","19","Male","true","true","false","false","""event"",""trial"",""time""
""fullscreenenter"",""5"",""18538""
","
","
","""event"",""trial"",""time""
""fullscreenenter"",""5"",""18538""
","
","254","","49","","","3000","1","","","images/tutgreenplanet.jpg","images/tutalien1","images/tutalien2","null","images/tutalien2","images/nothing.png","NA","practice","null","","","",""
"d3-animate-choice","36","205779","0.0-36.0","3956","7267","19","Male","true","true","false","false","""event"",""trial"",""time""
""fullscreenenter"",""5"",""18538""
","
","
","""event"",""trial"",""time""
""fullscreenenter"",""5"",""18538""
","
","207","","49","","","3000","1","","","images/tutgreenplanet.jpg","images/tutalien1","images/tutalien2","null","images/tutalien2","images/t.png","NA","practice","null","","","",""
"d3-animate-choice","37","208088","0.0-37.0","3956","7267","19","Male","true","true","false","false","""event"",""trial"",""time""
""fullscreenenter"",""5"",""18538""
","
","
","""event"",""trial"",""time""
""fullscreenenter"",""5"",""18538""
","
","300","","48","","","3000","1","","","images/tutgreenplanet.jpg","images/tutalien1","images/tutalien2","null","images/tutalien1","images/nothing.png","NA","practice","null","","","",""
"d3-animate-choice","38","210343","0.0-38.0","3956","7267","19","Male","true","true","false","false","""event"",""trial"",""time""
""fullscreenenter"",""5"",""18538""
","
","
","""event"",""trial"",""time""
""fullscreenenter"",""5"",""18538""
","
","242","","49","","","3000","1","","","images/tutgreenplanet.jpg","images/tutalien1","images/tutalien2","null","images/tutalien2","images/t.png","NA","practice","null","","","",""
"d3-animate-choice","39","212524","0.0-39.0","3956","7267","19","Male","true","true","false","false","""event"",""trial"",""time""
""fullscreenenter"",""5"",""18538""
","
","
","""event"",""trial"",""time""
""fullscreenenter"",""5"",""18538""
","
","178","","49","","","3000","1","","","images/tutgreenplanet.jpg","images/tutalien1","images/tutalien2","null","images/tutalien2","images/t.png","NA","practice","null","","","",""
"d3-animate-choice","40","214707","0.0-40.0","3956","7267","19","Male","true","true","false","false","""event"",""trial"",""time""
""fullscreenenter"",""5"",""18538""
","
","
","""event"",""trial"",""time""
""fullscreenenter"",""5"",""18538""
","
","180","","49","","","3000","1","","","images/tutgreenplanet.jpg","images/tutalien1","images/tutalien2","null","images/tutalien2","images/t.png","NA","practice","null","","","",""
"d3-animate-choice","41","216924","0.0-41.0","3956","7267","19","Male","true","true","false","false","""event"",""trial"",""time""
""fullscreenenter"",""5"",""18538""
","
","
","""event"",""trial"",""time""
""fullscreenenter"",""5"",""18538""
","
","212","","49","","","3000","1","","","images/tutgreenplanet.jpg","images/tutalien1","images/tutalien2","null","images/tutalien2","images/nothing.png","NA","practice","null","","","",""
"d3-animate-choice","42","218972","0.0-42.0","3956","7267","19","Male","true","true","false","false","""event"",""trial"",""time""
""fullscreenenter"",""5"",""18538""
","
","
","""event"",""trial"",""time""
""fullscreenenter"",""5"",""18538""
","
","34","","49","","","3000","1","","","images/tutgreenplanet.jpg","images/tutalien1","images/tutalien2","null","images/tutalien2","images/t.png","NA","practice","null","","","",""
"d3-animate-choice","43","221173","0.0-43.0","3956","7267","19","Male","true","true","false","false","""event"",""trial"",""time""
""fullscreenenter"",""5"",""18538""
","
","
","""event"",""trial"",""time""
""fullscreenenter"",""5"",""18538""
","
","189","","49","","","3000","1","","","images/tutgreenplanet.jpg","images/tutalien1","images/tutalien2","null","images/tutalien2","images/t.png","NA","practice","null","","","",""
"d3-instructions","44","233947","0.0-44.0","3956","7267","19","Male","true","true","false","false","""event"",""trial"",""time""
""fullscreenenter"",""5"",""18538""
","
","
","""event"",""trial"",""time""
""fullscreenenter"",""5"",""18538""
","
","","","","","","","","","","","","","","","","","","","","","",""
"d3-instructions","45","239651","0.0-45.0","3956","7267","19","Male","true","true","false","false","""event"",""trial"",""time""
""fullscreenenter"",""5"",""18538""
","
","
","""event"",""trial"",""time""
""fullscreenenter"",""5"",""18538""
","
","","","","","","","","","","","","","","","","","","","","","",""
"d3-instructions","46","244594","0.0-46.0","3956","7267","19","Male","true","true","false","false","""event"",""trial"",""time""
""fullscreenenter"",""5"",""18538""
","
","
","""event"",""trial"",""time""
""fullscreenenter"",""5"",""18538""
","
","","","","","","","","","","","","","","","","","","","","","",""
"d3-instructions","47","264331","0.0-47.0","3956","7267","19","Male","true","true","false","false","""event"",""trial"",""time""
""fullscreenenter"",""5"",""18538""
","
","
","""event"",""trial"",""time""
""fullscreenenter"",""5"",""18538""
","
","","","","","","","","","","","","","","","","","","","","","",""
"d3-instructions","48","303929","0.0-48.0","3956","7267","19","Male","true","true","false","false","""event"",""trial"",""time""
""fullscreenenter"",""5"",""18538""
","
","
","""event"",""trial"",""time""
""fullscreenenter"",""5"",""18538""
","
","","","","","","","","","","","","","","","","","","","","","",""
"d3-instructions","49","315488","0.0-49.0","3956","7267","19","Male","true","true","false","false","""event"",""trial"",""time""
""fullscreenenter"",""5"",""18538""
","
","
","""event"",""trial"",""time""
""fullscreenenter"",""5"",""18538""
","
","","","","","","","","","","","","","","","","","","","","","",""
"d3-instructions","50","324352","0.0-50.0","3956","7267","19","Male","true","true","false","false","""event"",""trial"",""time""
""fullscreenenter"",""5"",""18538""
","
","
","""event"",""trial"",""time""
""fullscreenenter"",""5"",""18538""
","
","","","","","","","","","","","","","","","","","","","","","",""
"d3-instructions","51","329137","0.0-51.0","3956","7267","19","Male","true","true","false","false","""event"",""trial"",""time""
""fullscreenenter"",""5"",""18538""
","
","
","""event"",""trial"",""time""
""fullscreenenter"",""5"",""18538""
","
","","","","","","","","","","","","","","","","","","","","","",""
"d3-instructions","52","331723","0.0-52.0","3956","7267","19","Male","true","true","false","false","""event"",""trial"",""time""
""fullscreenenter"",""5"",""18538""
","
","
","""event"",""trial"",""time""
""fullscreenenter"",""5"",""18538""
","
","","","","","","","","","","","","","","","","","","","","","",""
"d3-instructions","53","343539","0.0-53.0","3956","7267","19","Male","true","true","false","false","""event"",""trial"",""time""
""fullscreenenter"",""5"",""18538""
","
","
","""event"",""trial"",""time""
""fullscreenenter"",""5"",""18538""
","
","","","","","","","","","","","","","","","","","","","","","",""
"d3-instructions","54","356443","0.0-54.0","3956","7267","19","Male","true","true","false","false","""event"",""trial"",""time""
""fullscreenenter"",""5"",""18538""
","
","
","""event"",""trial"",""time""
""fullscreenenter"",""5"",""18538""
","
","","","","","","","","","","","","","","","","","","","","","",""
"d3-instructions","55","364441","0.0-55.0","3956","7267","19","Male","true","true","false","false","""event"",""trial"",""time""
""fullscreenenter"",""5"",""18538""
","
","
","""event"",""trial"",""time""
""fullscreenenter"",""5"",""18538""
","
","","","","","","","","","","","","","","","","","","","","","",""
"d3-instructions","56","372667","0.0-56.0","3956","7267","19","Male","true","true","false","false","""event"",""trial"",""time""
""fullscreenenter"",""5"",""18538""
","
","
","""event"",""trial"",""time""
""fullscreenenter"",""5"",""18538""
","
","","","","","","","","","","","","","","","","","","","","","",""
"d3-instructions","57","380803","0.0-57.0","3956","7267","19","Male","true","true","false","false","""event"",""trial"",""time""
""fullscreenenter"",""5"",""18538""
","
","
","""event"",""trial"",""time""
""fullscreenenter"",""5"",""18538""
","
","","","","","","","","","","","","","","","","","","","","","",""
"d3-instructions","58","390024","0.0-58.0","3956","7267","19","Male","true","true","false","false","""event"",""trial"",""time""
""fullscreenenter"",""5"",""18538""
","
","
","""event"",""trial"",""time""
""fullscreenenter"",""5"",""18538""
","
","","","","","","","","","","","","","","","","","","","","","",""
"d3-instructions","59","394052","0.0-59.0","3956","7267","19","Male","true","true","false","false","""event"",""trial"",""time""
""fullscreenenter"",""5"",""18538""
","
","
","""event"",""trial"",""time""
""fullscreenenter"",""5"",""18538""
","
","","","","","","","","","","","","","","","","","","","","","",""
"d3-instructions","60","396720","0.0-60.0","3956","7267","19","Male","true","true","false","false","""event"",""trial"",""time""
""fullscreenenter"",""5"",""18538""
","
","
","""event"",""trial"",""time""
""fullscreenenter"",""5"",""18538""
","
","","","","","","","","","","","","","","","","","","","","","",""
"d3-animate-choice","61","399899","0.0-61.0-0.0","3956","7267","19","Male","true","true","false","false","""event"",""trial"",""time""
""fullscreenenter"",""5"",""18538""
","
","
","""event"",""trial"",""time""
""fullscreenenter"",""5"",""18538""
","
","1177","","49","","","3000","1","","","images/earth.jpg","images/tutrocket2","images/tutrocket1","null","images/tutrocket1","","1","practice","null","1","","",""
"d3-animate-choice","62","402850","0.0-61.0-1.0","3956","7267","19","Male","true","true","false","false","""event"",""trial"",""time""
""fullscreenenter"",""5"",""18538""
","
","
","""event"",""trial"",""time""
""fullscreenenter"",""5"",""18538""
","
","948","","48","","","3000","1","","","images/tutgreenplanet.jpg","images/tutalien2","images/tutalien1","images/tutrocket1","images/tutalien2","images/nothing.png","2","practice","true","2","common","0","2023-03-04 19:01:16.813"
"two-step-fixation","63","403854","0.0-61.0-2.0","3956","7267","19","Male","true","true","false","false","""event"",""trial"",""time""
""fullscreenenter"",""5"",""18538""
","
","
","""event"",""trial"",""time""
""fullscreenenter"",""5"",""18538""
","
","","images/earth.jpg","","","","","","","","","","","","","","fixation","","","","","",""
"d3-animate-choice","64","406683","0.0-61.0-0.1","3956","7267","19","Male","true","true","false","false","""event"",""trial"",""time""
""fullscreenenter"",""5"",""18538""
","
","
","""event"",""trial"",""time""
""fullscreenenter"",""5"",""18538""
","
","825","","48","","","3000","1","","","images/earth.jpg","images/tutrocket2","images/tutrocket1","null","images/tutrocket2","","1","practice","null","2","","",""
"d3-animate-choice","65","409478","0.0-61.0-1.1","3956","7267","19","Male","true","true","false","false","""event"",""trial"",""time""
""fullscreenenter"",""5"",""18538""
","
","
","""event"",""trial"",""time""
""fullscreenenter"",""5"",""18538""
","
","792","","48","","","3000","1","","","images/tutgreenplanet.jpg","images/tutalien2","images/tutalien1","images/tutrocket2","images/tutalien2","images/nothing.png","2","practice","false","2","rare","0","2023-03-04 19:01:23.441"
"two-step-fixation","66","410484","0.0-61.0-2.1","3956","7267","19","Male","true","true","false","false","""event"",""trial"",""time""
""fullscreenenter"",""5"",""18538""
","
","
","""event"",""trial"",""time""
""fullscreenenter"",""5"",""18538""
","
","","images/earth.jpg","","","","","","","","","","","","","","fixation","","","","","",""
"d3-animate-choice","67","412989","0.0-61.0-0.2","3956","7267","19","Male","true","true","false","false","""event"",""trial"",""time""
""fullscreenenter"",""5"",""18538""
","
","
","""event"",""trial"",""time""
""fullscreenenter"",""5"",""18538""
","
","490","","49","","","3000","1","","","images/earth.jpg","images/tutrocket2","images/tutrocket1","null","images/tutrocket1","","1","practice","null","1","","",""
"d3-animate-choice","68","416092","0.0-61.0-1.2","3956","7267","19","Male","true","true","false","false","""event"",""trial"",""time""
""fullscreenenter"",""5"",""18538""
","
","
","""event"",""trial"",""time""
""fullscreenenter"",""5"",""18538""
","
","1099","","49","","","3000","1","","","images/tutyellowplanet.jpg","images/tutalien4","images/tutalien3","images/tutrocket1","images/tutalien3","images/nothing.png","2","practice","false","1","rare","0","2023-03-04 19:01:30.055"
"two-step-fixation","69","417096","0.0-61.0-2.2","3956","7267","19","Male","true","true","false","false","""event"",""trial"",""time""
""fullscreenenter"",""5"",""18538""
","
","
","""event"",""trial"",""time""
""fullscreenenter"",""5"",""18538""
","
","","images/earth.jpg","","","","","","","","","","","","","","fixation","","","","","",""
"d3-animate-choice","70","419571","0.0-61.0-0.3","3956","7267","19","Male","true","true","false","false","""event"",""trial"",""time""
""fullscreenenter"",""5"",""18538""
","
","
","""event"",""trial"",""time""
""fullscreenenter"",""5"",""18538""
","
","472","","49","","","3000","1","","","images/earth.jpg","images/tutrocket2","images/tutrocket1","null","images/tutrocket1","","1","practice","null","1","","",""
"d3-animate-choice","71","422155","0.0-61.0-1.3","3956","7267","19","Male","true","true","false","false","""event"",""trial"",""time""
""fullscreenenter"",""5"",""18538""
","
","
","""event"",""trial"",""time""
""fullscreenenter"",""5"",""18538""
","
","579","","49","","","3000","1","","","images/tutgreenplanet.jpg","images/tutalien2","images/tutalien1","images/tutrocket1","images/tutalien1","images/nothing.png","2","practice","true","1","common","0","2023-03-04 19:01:36.118"
"two-step-fixation","72","423160","0.0-61.0-2.3","3956","7267","19","Male","true","true","false","false","""event"",""trial"",""time""
""fullscreenenter"",""5"",""18538""
","
","
","""event"",""trial"",""time""
""fullscreenenter"",""5"",""18538""
","
","","images/earth.jpg","","","","","","","","","","","","","","fixation","","","","","",""
"d3-animate-choice","73","425491","0.0-61.0-0.4","3956","7267","19","Male","true","true","false","false","""event"",""trial"",""time""
""fullscreenenter"",""5"",""18538""
","
","
","""event"",""trial"",""time""
""fullscreenenter"",""5"",""18538""
","
","319","","48","","","3000","1","","","images/earth.jpg","images/tutrocket2","images/tutrocket1","null","images/tutrocket2","","1","practice","null","2","","",""
"d3-animate-choice","74","428457","0.0-61.0-1.4","3956","7267","19","Male","true","true","false","false","""event"",""trial"",""time""
""fullscreenenter"",""5"",""18538""
","
","
","""event"",""trial"",""time""
""fullscreenenter"",""5"",""18538""
","
","964","","49","","","3000","1","","","images/tutgreenplanet.jpg","images/tutalien2","images/tutalien1","images/tutrocket2","images/tutalien1","images/nothing.png","2","practice","false","1","rare","0","2023-03-04 19:01:42.420"
"two-step-fixation","75","429459","0.0-61.0-2.4","3956","7267","19","Male","true","true","false","false","""event"",""trial"",""time""
""fullscreenenter"",""5"",""18538""
","
","
","""event"",""trial"",""time""
""fullscreenenter"",""5"",""18538""
","
","","images/earth.jpg","","","","","","","","","","","","","","fixation","","","","","",""
"d3-animate-choice","76","431770","0.0-61.0-0.5","3956","7267","19","Male","true","true","false","false","""event"",""trial"",""time""
""fullscreenenter"",""5"",""18538""
","
","
","""event"",""trial"",""time""
""fullscreenenter"",""5"",""18538""
","
","309","","48","","","3000","1","","","images/earth.jpg","images/tutrocket2","images/tutrocket1","null","images/tutrocket2","","1","practice","null","2","","",""
"d3-animate-choice","77","434241","0.0-61.0-1.5","3956","7267","19","Male","true","true","false","false","""event"",""trial"",""time""
""fullscreenenter"",""5"",""18538""
","
","
","""event"",""trial"",""time""
""fullscreenenter"",""5"",""18538""
","
","469","","48","","","3000","1","","","images/tutyellowplanet.jpg","images/tutalien4","images/tutalien3","images/tutrocket2","images/tutalien4","images/nothing.png","2","practice","true","2","common","0","2023-03-04 19:01:48.204"
"two-step-fixation","78","435243","0.0-61.0-2.5","3956","7267","19","Male","true","true","false","false","""event"",""trial"",""time""
""fullscreenenter"",""5"",""18538""
","
","
","""event"",""trial"",""time""
""fullscreenenter"",""5"",""18538""
","
","","images/earth.jpg","","","","","","","","","","","","","","fixation","","","","","",""
"d3-animate-choice","79","437540","0.0-61.0-0.6","3956","7267","19","Male","true","true","false","false","""event"",""trial"",""time""
""fullscreenenter"",""5"",""18538""
","
","
","""event"",""trial"",""time""
""fullscreenenter"",""5"",""18538""
","
","294","","48","","","3000","1","","","images/earth.jpg","images/tutrocket2","images/tutrocket1","null","images/tutrocket2","","1","practice","null","2","","",""
"d3-animate-choice","80","440383","0.0-61.0-1.6","3956","7267","19","Male","true","true","false","false","""event"",""trial"",""time""
""fullscreenenter"",""5"",""18538""
","
","
","""event"",""trial"",""time""
""fullscreenenter"",""5"",""18538""
","
","827","","48","","","3000","1","","","images/tutgreenplanet.jpg","images/tutalien2","images/tutalien1","images/tutrocket2","images/tutalien2","images/t.png","2","practice","false","2","rare","1","2023-03-04 19:01:54.346"
"two-step-fixation","81","441389","0.0-61.0-2.6","3956","7267","19","Male","true","true","false","false","""event"",""trial"",""time""
""fullscreenenter"",""5"",""18538""
","
","
","""event"",""trial"",""time""
""fullscreenenter"",""5"",""18538""
","
","","images/earth.jpg","","","","","","","","","","","","","","fixation","","","","","",""
"d3-animate-choice","82","443658","0.0-61.0-0.7","3956","7267","19","Male","true","true","false","false","""event"",""trial"",""time""
""fullscreenenter"",""5"",""18538""
","
","
","""event"",""trial"",""time""
""fullscreenenter"",""5"",""18538""
","
","258","","48","","","3000","1","","","images/earth.jpg","images/tutrocket2","images/tutrocket1","null","images/tutrocket2","","1","practice","null","2","","",""
"d3-animate-choice","83","446297","0.0-61.0-1.7","3956","7267","19","Male","true","true","false","false","""event"",""trial"",""time""
""fullscreenenter"",""5"",""18538""
","
","
","""event"",""trial"",""time""
""fullscreenenter"",""5"",""18538""
","
","635","","49","","","3000","1","","","images/tutyellowplanet.jpg","images/tutalien4","images/tutalien3","images/tutrocket2","images/tutalien3","images/nothing.png","2","practice","true","1","common","0","2023-03-04 19:02:00.260"
"two-step-fixation","84","447303","0.0-61.0-2.7","3956","7267","19","Male","true","true","false","false","""event"",""trial"",""time""
""fullscreenenter"",""5"",""18538""
","
","
","""event"",""trial"",""time""
""fullscreenenter"",""5"",""18538""
","
","","images/earth.jpg","","","","","","","","","","","","","","fixation","","","","","",""
"d3-animate-choice","85","449637","0.0-61.0-0.8","3956","7267","19","Male","true","true","false","false","""event"",""trial"",""time""
""fullscreenenter"",""5"",""18538""
","
","
","""event"",""trial"",""time""
""fullscreenenter"",""5"",""18538""
","
","331","","48","","","3000","1","","","images/earth.jpg","images/tutrocket2","images/tutrocket1","null","images/tutrocket2","","1","practice","null","2","","",""
"d3-animate-choice","86","452466","0.0-61.0-1.8","3956","7267","19","Male","true","true","false","false","""event"",""trial"",""time""
""fullscreenenter"",""5"",""18538""
","
","
","""event"",""trial"",""time""
""fullscreenenter"",""5"",""18538""
","
","824","","49","","","3000","1","","","images/tutgreenplanet.jpg","images/tutalien2","images/tutalien1","images/tutrocket2","images/tutalien1","images/t.png","2","practice","false","1","rare","1","2023-03-04 19:02:06.429"
"two-step-fixation","87","453468","0.0-61.0-2.8","3956","7267","19","Male","true","true","false","false","""event"",""trial"",""time""
""fullscreenenter"",""5"",""18538""
","
","
","""event"",""trial"",""time""
""fullscreenenter"",""5"",""18538""
","
","","images/earth.jpg","","","","","","","","","","","","","","fixation","","","","","",""
"d3-animate-choice","88","455764","0.0-61.0-0.9","3956","7267","19","Male","true","true","false","false","""event"",""trial"",""time""
""fullscreenenter"",""5"",""18538""
","
","
","""event"",""trial"",""time""
""fullscreenenter"",""5"",""18538""
","
","293","","49","","","3000","1","","","images/earth.jpg","images/tutrocket2","images/tutrocket1","null","images/tutrocket1","","1","practice","null","1","","",""
"d3-animate-choice","89","458859","0.0-61.0-1.9","3956","7267","19","Male","true","true","false","false","""event"",""trial"",""time""
""fullscreenenter"",""5"",""18538""
","
","
","""event"",""trial"",""time""
""fullscreenenter"",""5"",""18538""
","
","1093","","48","","","3000","1","","","images/tutgreenplanet.jpg","images/tutalien2","images/tutalien1","images/tutrocket1","images/tutalien2","images/nothing.png","2","practice","true","2","common","0","2023-03-04 19:02:12.822"
"two-step-fixation","90","459865","0.0-61.0-2.9","3956","7267","19","Male","true","true","false","false","""event"",""trial"",""time""
""fullscreenenter"",""5"",""18538""
","
","
","""event"",""trial"",""time""
""fullscreenenter"",""5"",""18538""
","
","","images/earth.jpg","","","","","","","","","","","","","","fixation","","","","","",""
"d3-animate-choice","91","462154","0.0-61.0-0.10","3956","7267","19","Male","true","true","false","false","""event"",""trial"",""time""
""fullscreenenter"",""5"",""18538""
","
","
","""event"",""trial"",""time""
""fullscreenenter"",""5"",""18538""
","
","284","","48","","","3000","1","","","images/earth.jpg","images/tutrocket2","images/tutrocket1","null","images/tutrocket2","","1","practice","null","2","","",""
"d3-animate-choice","92","464956","0.0-61.0-1.10","3956","7267","19","Male","true","true","false","false","""event"",""trial"",""time""
""fullscreenenter"",""5"",""18538""
","
","
","""event"",""trial"",""time""
""fullscreenenter"",""5"",""18538""
","
","798","","48","","","3000","1","","","images/tutyellowplanet.jpg","images/tutalien4","images/tutalien3","images/tutrocket2","images/tutalien4","images/nothing.png","2","practice","true","2","common","0","2023-03-04 19:02:18.919"
"two-step-fixation","93","465962","0.0-61.0-2.10","3956","7267","19","Male","true","true","false","false","""event"",""trial"",""time""
""fullscreenenter"",""5"",""18538""
","
","
","""event"",""trial"",""time""
""fullscreenenter"",""5"",""18538""
","
","","images/earth.jpg","","","","","","","","","","","","","","fixation","","","","","",""
"d3-animate-choice","94","468226","0.0-61.0-0.11","3956","7267","19","Male","true","true","false","false","""event"",""trial"",""time""
""fullscreenenter"",""5"",""18538""
","
","
","""event"",""trial"",""time""
""fullscreenenter"",""5"",""18538""
","
","260","","48","","","3000","1","","","images/earth.jpg","images/tutrocket2","images/tutrocket1","null","images/tutrocket2","","1","practice","null","2","","",""
"d3-animate-choice","95","471172","0.0-61.0-1.11","3956","7267","19","Male","true","true","false","false","""event"",""trial"",""time""
""fullscreenenter"",""5"",""18538""
","
","
","""event"",""trial"",""time""
""fullscreenenter"",""5"",""18538""
","
","942","","49","","","3000","1","","","images/tutyellowplanet.jpg","images/tutalien4","images/tutalien3","images/tutrocket2","images/tutalien3","images/nothing.png","2","practice","true","1","common","0","2023-03-04 19:02:25.136"
"two-step-fixation","96","472177","0.0-61.0-2.11","3956","7267","19","Male","true","true","false","false","""event"",""trial"",""time""
""fullscreenenter"",""5"",""18538""
","
","
","""event"",""trial"",""time""
""fullscreenenter"",""5"",""18538""
","
","","images/earth.jpg","","","","","","","","","","","","","","fixation","","","","","",""
"d3-animate-choice","97","474525","0.0-61.0-0.12","3956","7267","19","Male","true","true","false","false","""event"",""trial"",""time""
""fullscreenenter"",""5"",""18538""
","
","
","""event"",""trial"",""time""
""fullscreenenter"",""5"",""18538""
","
","344","","48","","","3000","1","","","images/earth.jpg","images/tutrocket2","images/tutrocket1","null","images/tutrocket2","","1","practice","null","2","","",""
"d3-animate-choice","98","477305","0.0-61.0-1.12","3956","7267","19","Male","true","true","false","false","""event"",""trial"",""time""
""fullscreenenter"",""5"",""18538""
","
","
","""event"",""trial"",""time""
""fullscreenenter"",""5"",""18538""
","
","776","","48","","","3000","1","","","images/tutyellowplanet.jpg","images/tutalien4","images/tutalien3","images/tutrocket2","images/tutalien4","images/t.png","2","practice","true","2","common","1","2023-03-04 19:02:31.268"
"two-step-fixation","99","478310","0.0-61.0-2.12","3956","7267","19","Male","true","true","false","false","""event"",""trial"",""time""
""fullscreenenter"",""5"",""18538""
","
","
","""event"",""trial"",""time""
""fullscreenenter"",""5"",""18538""
","
","","images/earth.jpg","","","","","","","","","","","","","","fixation","","","","","",""
"d3-animate-choice","100","480644","0.0-61.0-0.13","3956","7267","19","Male","true","true","false","false","""event"",""trial"",""time""
""fullscreenenter"",""5"",""18538""
","
","
","""event"",""trial"",""time""
""fullscreenenter"",""5"",""18538""
","
","332","","48","","","3000","1","","","images/earth.jpg","images/tutrocket2","images/tutrocket1","null","images/tutrocket2","","1","practice","null","2","","",""
"d3-animate-choice","101","482973","0.0-61.0-1.13","3956","7267","19","Male","true","true","false","false","""event"",""trial"",""time""
""fullscreenenter"",""5"",""18538""
","
","
","""event"",""trial"",""time""
""fullscreenenter"",""5"",""18538""
","
","323","","49","","","3000","1","","","images/tutgreenplanet.jpg","images/tutalien2","images/tutalien1","images/tutrocket2","images/tutalien1","images/t.png","2","practice","false","1","rare","1","2023-03-04 19:02:36.936"
"two-step-fixation","102","483979","0.0-61.0-2.13","3956","7267","19","Male","true","true","false","false","""event"",""trial"",""time""
""fullscreenenter"",""5"",""18538""
","
","
","""event"",""trial"",""time""
""fullscreenenter"",""5"",""18538""
","
","","images/earth.jpg","","","","","","","","","","","","","","fixation","","","","","",""
"d3-animate-choice","103","486225","0.0-61.0-0.14","3956","7267","19","Male","true","true","false","false","""event"",""trial"",""time""
""fullscreenenter"",""5"",""18538""
","
","
","""event"",""trial"",""time""
""fullscreenenter"",""5"",""18538""
","
","243","","48","","","3000","1","","","images/earth.jpg","images/tutrocket2","images/tutrocket1","null","images/tutrocket2","","1","practice","null","2","","",""
"d3-animate-choice","104","488773","0.0-61.0-1.14","3956","7267","19","Male","true","true","false","false","""event"",""trial"",""time""
""fullscreenenter"",""5"",""18538""
","
","
","""event"",""trial"",""time""
""fullscreenenter"",""5"",""18538""
","
","541","","49","","","3000","1","","","images/tutgreenplanet.jpg","images/tutalien2","images/tutalien1","images/tutrocket2","images/tutalien1","images/t.png","2","practice","false","1","rare","1","2023-03-04 19:02:42.736"
"two-step-fixation","105","489778","0.0-61.0-2.14","3956","7267","19","Male","true","true","false","false","""event"",""trial"",""time""
""fullscreenenter"",""5"",""18538""
","
","
","""event"",""trial"",""time""
""fullscreenenter"",""5"",""18538""
","
","","images/earth.jpg","","","","","","","","","","","","","","fixation","","","","","",""
"d3-animate-choice","106","492076","0.0-61.0-0.15","3956","7267","19","Male","true","true","false","false","""event"",""trial"",""time""
""fullscreenenter"",""5"",""18538""
","
","
","""event"",""trial"",""time""
""fullscreenenter"",""5"",""18538""
","
","293","","48","","","3000","1","","","images/earth.jpg","images/tutrocket2","images/tutrocket1","null","images/tutrocket2","","1","practice","null","2","","",""
"d3-animate-choice","107","494739","0.0-61.0-1.15","3956","7267","19","Male","true","true","false","false","""event"",""trial"",""time""
""fullscreenenter"",""5"",""18538""
","
","
","""event"",""trial"",""time""
""fullscreenenter"",""5"",""18538""
","
","660","","49","","","3000","1","","","images/tutyellowplanet.jpg","images/tutalien4","images/tutalien3","images/tutrocket2","images/tutalien3","images/nothing.png","2","practice","true","1","common","0","2023-03-04 19:02:48.702"
"two-step-fixation","108","495744","0.0-61.0-2.15","3956","7267","19","Male","true","true","false","false","""event"",""trial"",""time""
""fullscreenenter"",""5"",""18538""
","
","
","""event"",""trial"",""time""
""fullscreenenter"",""5"",""18538""
","
","","images/earth.jpg","","","","","","","","","","","","","","fixation","","","","","",""
"d3-animate-choice","109","498001","0.0-61.0-0.16","3956","7267","19","Male","true","true","false","false","""event"",""trial"",""time""
""fullscreenenter"",""5"",""18538""
","
","
","""event"",""trial"",""time""
""fullscreenenter"",""5"",""18538""
","
","256","","48","","","3000","1","","","images/earth.jpg","images/tutrocket2","images/tutrocket1","null","images/tutrocket2","","1","practice","null","2","","",""
"d3-animate-choice","110","500477","0.0-61.0-1.16","3956","7267","19","Male","true","true","false","false","""event"",""trial"",""time""
""fullscreenenter"",""5"",""18538""
","
","
","""event"",""trial"",""time""
""fullscreenenter"",""5"",""18538""
","
","472","","49","","","3000","1","","","images/tutyellowplanet.jpg","images/tutalien4","images/tutalien3","images/tutrocket2","images/tutalien3","images/t.png","2","practice","true","1","common","1","2023-03-04 19:02:54.440"
"two-step-fixation","111","501481","0.0-61.0-2.16","3956","7267","19","Male","true","true","false","false","""event"",""trial"",""time""
""fullscreenenter"",""5"",""18538""
","
","
","""event"",""trial"",""time""
""fullscreenenter"",""5"",""18538""
","
","","images/earth.jpg","","","","","","","","","","","","","","fixation","","","","","",""
"d3-animate-choice","112","503849","0.0-61.0-0.17","3956","7267","19","Male","true","true","false","false","""event"",""trial"",""time""
""fullscreenenter"",""5"",""18538""
","
","
","""event"",""trial"",""time""
""fullscreenenter"",""5"",""18538""
","
","364","","48","","","3000","1","","","images/earth.jpg","images/tutrocket2","images/tutrocket1","null","images/tutrocket2","","1","practice","null","2","","",""
"d3-animate-choice","113","506200","0.0-61.0-1.17","3956","7267","19","Male","true","true","false","false","""event"",""trial"",""time""
""fullscreenenter"",""5"",""18538""
","
","
","""event"",""trial"",""time""
""fullscreenenter"",""5"",""18538""
","
","347","","49","","","3000","1","","","images/tutyellowplanet.jpg","images/tutalien4","images/tutalien3","images/tutrocket2","images/tutalien3","images/t.png","2","practice","true","1","common","1","2023-03-04 19:03:00.163"
"two-step-fixation","114","507204","0.0-61.0-2.17","3956","7267","19","Male","true","true","false","false","""event"",""trial"",""time""
""fullscreenenter"",""5"",""18538""
","
","
","""event"",""trial"",""time""
""fullscreenenter"",""5"",""18538""
","
","","images/earth.jpg","","","","","","","","","","","","","","fixation","","","","","",""
"d3-animate-choice","115","509460","0.0-61.0-0.18","3956","7267","19","Male","true","true","false","false","""event"",""trial"",""time""
""fullscreenenter"",""5"",""18538""
","
","
","""event"",""trial"",""time""
""fullscreenenter"",""5"",""18538""
","
","253","","48","","","3000","1","","","images/earth.jpg","images/tutrocket2","images/tutrocket1","null","images/tutrocket2","","1","practice","null","2","","",""
"d3-animate-choice","116","512203","0.0-61.0-1.18","3956","7267","19","Male","true","true","false","false","""event"",""trial"",""time""
""fullscreenenter"",""5"",""18538""
","
","
","""event"",""trial"",""time""
""fullscreenenter"",""5"",""18538""
","
","738","","48","","","3000","1","","","images/tutyellowplanet.jpg","images/tutalien4","images/tutalien3","images/tutrocket2","images/tutalien4","images/nothing.png","2","practice","true","2","common","0","2023-03-04 19:03:06.166"
"two-step-fixation","117","513207","0.0-61.0-2.18","3956","7267","19","Male","true","true","false","false","""event"",""trial"",""time""
""fullscreenenter"",""5"",""18538""
","
","
","""event"",""trial"",""time""
""fullscreenenter"",""5"",""18538""
","
","","images/earth.jpg","","","","","","","","","","","","","","fixation","","","","","",""
"d3-animate-choice","118","515433","0.0-61.0-0.19","3956","7267","19","Male","true","true","false","false","""event"",""trial"",""time""
""fullscreenenter"",""5"",""18538""
","
","
","""event"",""trial"",""time""
""fullscreenenter"",""5"",""18538""
","
","221","","48","","","3000","1","","","images/earth.jpg","images/tutrocket2","images/tutrocket1","null","images/tutrocket2","","1","practice","null","2","","",""
"d3-animate-choice","119","517944","0.0-61.0-1.19","3956","7267","19","Male","true","true","false","false","""event"",""trial"",""time""
""fullscreenenter"",""5"",""18538""
","
","
","""event"",""trial"",""time""
""fullscreenenter"",""5"",""18538""
","
","508","","49","","","3000","1","","","images/tutgreenplanet.jpg","images/tutalien2","images/tutalien1","images/tutrocket2","images/tutalien1","images/nothing.png","2","practice","false","1","rare","0","2023-03-04 19:03:11.908"
"two-step-fixation","120","518950","0.0-61.0-2.19","3956","7267","19","Male","true","true","false","false","""event"",""trial"",""time""
""fullscreenenter"",""5"",""18538""
","
","
","""event"",""trial"",""time""
""fullscreenenter"",""5"",""18538""
","
","","images/earth.jpg","","","","","","","","","","","","","","fixation","","","","","",""
"d3-instructions","121","526074","0.0-62.0","3956","7267","19","Male","true","true","false","false","""event"",""trial"",""time""
""fullscreenenter"",""5"",""18538""
","
","
","""event"",""trial"",""time""
""fullscreenenter"",""5"",""18538""
","
","","","","","","","","","","","","","","","","","","","","","",""
"audio-keyboard-response","122","529567","0.0-63.0","3956","7267","19","Male","true","true","false","false","""event"",""trial"",""time""
""fullscreenenter"",""5"",""18538""
","
","
","""event"",""trial"",""time""
""fullscreenenter"",""5"",""18538""
","
","3491","audio/instructions/treasure_feedback.wav","32","","","","","","","","","","","","","","","","","","",""
"d3-instructions","123","576922","0.0-64.0","3956","7267","19","Male","true","true","false","false","""event"",""trial"",""time""
""fullscreenenter"",""5"",""18538""
","
","
","""event"",""trial"",""time""
""fullscreenenter"",""5"",""18538""
","
","","","","","","","","","","","","","","","","","","","","","",""
"d3-instructions","124","593672","0.0-65.0","3956","7267","19","Male","true","true","false","false","""event"",""trial"",""time""
""fullscreenenter"",""5"",""18538""
","
","
","""event"",""trial"",""time""
""fullscreenenter"",""5"",""18538""
","
","","","","","","","","","","","","","","","","","","","","","",""
"d3-instructions","125","618864","0.0-66.0","3956","7267","19","Male","true","true","false","false","""event"",""trial"",""time""
""fullscreenenter"",""5"",""18538""
","
","
","""event"",""trial"",""time""
""fullscreenenter"",""5"",""18538""
","
","","","","","","","","","","","","","","","","","","","","","",""
"d3-instructions","126","633296","0.0-67.0","3956","7267","19","Male","true","true","false","false","""event"",""trial"",""time""
""fullscreenenter"",""5"",""18538""
","
","
","""event"",""trial"",""time""
""fullscreenenter"",""5"",""18538""
","
","","","","","","","","","","","","","","","","","","","","","",""
"d3-instructions","127","635249","0.0-68.0","3956","7267","19","Male","true","true","false","false","""event"",""trial"",""time""
""fullscreenenter"",""5"",""18538""
","
","
","""event"",""trial"",""time""
""fullscreenenter"",""5"",""18538""
","
","","","","","","","","","","","","","","","","","","","","","",""
"instructions-quiz","128","639623","0.0-69.0","3956","7267","19","Male","true","true","false","false","""event"",""trial"",""time""
""fullscreenenter"",""5"",""18538""
","
","
","""event"",""trial"",""time""
""fullscreenenter"",""5"",""18538""
","
","4373","audio/quiz/Q1_Prompt.wav","","1","","","","","","","","","","","","","","","","","",""
"audio-keyboard-response","129","642912","0.0-70.0","3956","7267","19","Male","true","true","false","false","""event"",""trial"",""time""
""fullscreenenter"",""5"",""18538""
","
","
","""event"",""trial"",""time""
""fullscreenenter"",""5"",""18538""
","
","3280","audio/quiz/Q1_Correct.wav","32","","","","","","","","","","","","","","","","","","",""
"instructions-quiz","130","651963","0.0-71.0","3956","7267","19","Male","true","true","false","false","""event"",""trial"",""time""
""fullscreenenter"",""5"",""18538""
","
","
","""event"",""trial"",""time""
""fullscreenenter"",""5"",""18538""
","
","9051","audio/quiz/Q2_Prompt.wav","","0","","","","","","","","","","","","","","","","","",""
"audio-keyboard-response","131","654192","0.0-72.0","3956","7267","19","Male","true","true","false","false","""event"",""trial"",""time""
""fullscreenenter"",""5"",""18538""
","
","
","""event"",""trial"",""time""
""fullscreenenter"",""5"",""18538""
","
","2219","audio/quiz/Q2_Correct.wav","32","","","","","","","","","","","","","","","","","","",""
"instructions-quiz","132","657588","0.0-73.0","3956","7267","19","Male","true","true","false","false","""event"",""trial"",""time""
""fullscreenenter"",""5"",""18538""
","
","
","""event"",""trial"",""time""
""fullscreenenter"",""5"",""18538""
","
","3397","audio/quiz/Q3_Prompt.wav","","1","","","","","","","","","","","","","","","","","",""
"audio-keyboard-response","133","658971","0.0-74.0","3956","7267","19","Male","true","true","false","false","""event"",""trial"",""time""
""fullscreenenter"",""5"",""18538""
","
","
","""event"",""trial"",""time""
""fullscreenenter"",""5"",""18538""
","
","1381","audio/quiz/Q3_Correct.wav","32","","","","","","","","","","","","","","","","","","",""
"d3-instructions","134","661136","0.0-75.0","3956","7267","19","Male","true","true","false","false","""event"",""trial"",""time""
""fullscreenenter"",""5"",""18538""
","
","
","""event"",""trial"",""time""
""fullscreenenter"",""5"",""18538""
","
","","","","","","","","","","","","","","","","","","","","","",""
"pavlovia","135","661137","0.0-76.0","3956","7267","19","Male","true","true","false","false","""event"",""trial"",""time""
""fullscreenenter"",""5"",""18538""
","
","
","""event"",""trial"",""time""
""fullscreenenter"",""5"",""18538""
","
","","","","","","","","","","","","","","","","","","","","","",""
"d3-animate-choice","136","664216","0.0-77.0-0.0","3956","7267","19","Male","true","true","false","false","""event"",""trial"",""time""
""fullscreenenter"",""5"",""18538""
","
","
","""event"",""trial"",""time""
""fullscreenenter"",""5"",""18538""
","
","1078","","49","","","3000","1","","","images/earth.jpg","images/rocket2","images/rocket1","null","images/rocket1","","1","real","null","1","","",""
"d3-animate-choice","137","666738","0.0-77.0-1.0","3956","7267","19","Male","true","true","false","false","""event"",""trial"",""time""
""fullscreenenter"",""5"",""18538""
","
","
","""event"",""trial"",""time""
""fullscreenenter"",""5"",""18538""
","
","512","","48","","","3000","1","","","images/redplanet1.jpg","images/alien2","images/alien1","images/rocket1","images/alien2","images/t.png","2","real","true","2","common","1","2023-03-04 19:05:40.701"
"two-step-fixation","138","667755","0.0-77.0-2.0","3956","7267","19","Male","true","true","false","false","""event"",""trial"",""time""
""fullscreenenter"",""5"",""18538""
","
","
","""event"",""trial"",""time""
""fullscreenenter"",""5"",""18538""
","
","","images/earth.jpg","","","","","","","","","","","","","","fixation","","","","","",""
"d3-animate-choice","139","670033","0.0-77.0-0.1","3956","7267","19","Male","true","true","false","false","""event"",""trial"",""time""
""fullscreenenter"",""5"",""18538""
","
","
","""event"",""trial"",""time""
""fullscreenenter"",""5"",""18538""
","
","275","","49","","","3000","1","","","images/earth.jpg","images/rocket2","images/rocket1","null","images/rocket1","","1","real","null","1","","",""
"d3-animate-choice","140","672448","0.0-77.0-1.1","3956","7267","19","Male","true","true","false","false","""event"",""trial"",""time""
""fullscreenenter"",""5"",""18538""
","
","
","""event"",""trial"",""time""
""fullscreenenter"",""5"",""18538""
","
","412","","48","","","3000","1","","","images/redplanet1.jpg","images/alien2","images/alien1","images/rocket1","images/alien2","images/t.png","2","real","true","2","common","1","2023-03-04 19:05:46.411"
"two-step-fixation","141","673450","0.0-77.0-2.1","3956","7267","19","Male","true","true","false","false","""event"",""trial"",""time""
""fullscreenenter"",""5"",""18538""
","
","
","""event"",""trial"",""time""
""fullscreenenter"",""5"",""18538""
","
","","images/earth.jpg","","","","","","","","","","","","","","fixation","","","","","",""
"d3-animate-choice","142","675783","0.0-77.0-0.2","3956","7267","19","Male","true","true","false","false","""event"",""trial"",""time""
""fullscreenenter"",""5"",""18538""
","
","
","""event"",""trial"",""time""
""fullscreenenter"",""5"",""18538""
","
","318","","49","","","3000","1","","","images/earth.jpg","images/rocket2","images/rocket1","null","images/rocket1","","1","real","null","1","","",""
"d3-animate-choice","143","678137","0.0-77.0-1.2","3956","7267","19","Male","true","true","false","false","""event"",""trial"",""time""
""fullscreenenter"",""5"",""18538""
","
","
","""event"",""trial"",""time""
""fullscreenenter"",""5"",""18538""
","
","351","","48","","","3000","1","","","images/redplanet1.jpg","images/alien2","images/alien1","images/rocket1","images/alien2","images/nothing.png","2","real","true","2","common","0","2023-03-04 19:05:52.100"
"two-step-fixation","144","679141","0.0-77.0-2.2","3956","7267","19","Male","true","true","false","false","""event"",""trial"",""time""
""fullscreenenter"",""5"",""18538""
","
","
","""event"",""trial"",""time""
""fullscreenenter"",""5"",""18538""
","
","","images/earth.jpg","","","","","","","","","","","","","","fixation","","","","","",""
"d3-animate-choice","145","681401","0.0-77.0-0.3","3956","7267","19","Male","true","true","false","false","""event"",""trial"",""time""
""fullscreenenter"",""5"",""18538""
","
","
","""event"",""trial"",""time""
""fullscreenenter"",""5"",""18538""
","
","258","","49","","","3000","1","","","images/earth.jpg","images/rocket2","images/rocket1","null","images/rocket1","","1","real","null","1","","",""
"d3-animate-choice","146","684273","0.0-77.0-1.3","3956","7267","19","Male","true","true","false","false","""event"",""trial"",""time""
""fullscreenenter"",""5"",""18538""
","
","
","""event"",""trial"",""time""
""fullscreenenter"",""5"",""18538""
","
","869","","49","","","3000","1","","","images/purpleplanet.jpg","images/alien4","images/alien3","images/rocket1","images/alien3","images/nothing.png","2","real","false","1","rare","0","2023-03-04 19:05:58.236"
"two-step-fixation","147","685276","0.0-77.0-2.3","3956","7267","19","Male","true","true","false","false","""event"",""trial"",""time""
""fullscreenenter"",""5"",""18538""
","
","
","""event"",""trial"",""time""
""fullscreenenter"",""5"",""18538""
","
","","images/earth.jpg","","","","","","","","","","","","","","fixation","","","","","",""
"d3-animate-choice","148","687577","0.0-77.0-0.4","3956","7267","19","Male","true","true","false","false","""event"",""trial"",""time""
""fullscreenenter"",""5"",""18538""
","
","
","""event"",""trial"",""time""
""fullscreenenter"",""5"",""18538""
","
","298","","49","","","3000","1","","","images/earth.jpg","images/rocket2","images/rocket1","null","images/rocket1","","1","real","null","1","","",""
"d3-animate-choice","149","689973","0.0-77.0-1.4","3956","7267","19","Male","true","true","false","false","""event"",""trial"",""time""
""fullscreenenter"",""5"",""18538""
","
","
","""event"",""trial"",""time""
""fullscreenenter"",""5"",""18538""
","
","384","","48","","","3000","1","","","images/redplanet1.jpg","images/alien2","images/alien1","images/rocket1","images/alien2","images/t.png","2","real","true","2","common","1","2023-03-04 19:06:03.937"
"two-step-fixation","150","690987","0.0-77.0-2.4","3956","7267","19","Male","true","true","false","false","""event"",""trial"",""time""
""fullscreenenter"",""5"",""18538""
","
","
","""event"",""trial"",""time""
""fullscreenenter"",""5"",""18538""
","
","","images/earth.jpg","","","","","","","","","","","","","","fixation","","","","","",""
"d3-animate-choice","151","693240","0.0-77.0-0.5","3956","7267","19","Male","true","true","false","false","""event"",""trial"",""time""
""fullscreenenter"",""5"",""18538""
","
","
","""event"",""trial"",""time""
""fullscreenenter"",""5"",""18538""
","
","249","","49","","","3000","1","","","images/earth.jpg","images/rocket2","images/rocket1","null","images/rocket1","","1","real","null","1","","",""
"d3-animate-choice","152","695659","0.0-77.0-1.5","3956","7267","19","Male","true","true","false","false","""event"",""trial"",""time""
""fullscreenenter"",""5"",""18538""
","
","
","""event"",""trial"",""time""
""fullscreenenter"",""5"",""18538""
","
","415","","48","","","3000","1","","","images/redplanet1.jpg","images/alien2","images/alien1","images/rocket1","images/alien2","images/t.png","2","real","true","2","common","1","2023-03-04 19:06:09.622"
"two-step-fixation","153","696665","0.0-77.0-2.5","3956","7267","19","Male","true","true","false","false","""event"",""trial"",""time""
""fullscreenenter"",""5"",""18538""
","
","
","""event"",""trial"",""time""
""fullscreenenter"",""5"",""18538""
","
","","images/earth.jpg","","","","","","","","","","","","","","fixation","","","","","",""
"d3-animate-choice","154","698968","0.0-77.0-0.6","3956","7267","19","Male","true","true","false","false","""event"",""trial"",""time""
""fullscreenenter"",""5"",""18538""
","
","
","""event"",""trial"",""time""
""fullscreenenter"",""5"",""18538""
","
","299","","49","","","3000","1","","","images/earth.jpg","images/rocket2","images/rocket1","null","images/rocket1","","1","real","null","1","","",""
"d3-animate-choice","155","701331","0.0-77.0-1.6","3956","7267","19","Male","true","true","false","false","""event"",""trial"",""time""
""fullscreenenter"",""5"",""18538""
","
","
","""event"",""trial"",""time""
""fullscreenenter"",""5"",""18538""
","
","359","","48","","","3000","1","","","images/redplanet1.jpg","images/alien2","images/alien1","images/rocket1","images/alien2","images/t.png","2","real","true","2","common","1","2023-03-04 19:06:15.294"
"two-step-fixation","156","702335","0.0-77.0-2.6","3956","7267","19","Male","true","true","false","false","""event"",""trial"",""time""
""fullscreenenter"",""5"",""18538""
","
","
","""event"",""trial"",""time""
""fullscreenenter"",""5"",""18538""
","
","","images/earth.jpg","","","","","","","","","","","","","","fixation","","","","","",""
"d3-animate-choice","157","704627","0.0-77.0-0.7","3956","7267","19","Male","true","true","false","false","""event"",""trial"",""time""
""fullscreenenter"",""5"",""18538""
","
","
","""event"",""trial"",""time""
""fullscreenenter"",""5"",""18538""
","
","286","","49","","","3000","1","","","images/earth.jpg","images/rocket2","images/rocket1","null","images/rocket1","","1","real","null","1","","",""
"d3-animate-choice","158","706883","0.0-77.0-1.7","3956","7267","19","Male","true","true","false","false","""event"",""trial"",""time""
""fullscreenenter"",""5"",""18538""
","
","
","""event"",""trial"",""time""
""fullscreenenter"",""5"",""18538""
","
","252","","48","","","3000","1","","","images/redplanet1.jpg","images/alien2","images/alien1","images/rocket1","images/alien2","images/t.png","2","real","true","2","common","1","2023-03-04 19:06:20.846"
"two-step-fixation","159","707887","0.0-77.0-2.7","3956","7267","19","Male","true","true","false","false","""event"",""trial"",""time""
""fullscreenenter"",""5"",""18538""
","
","
","""event"",""trial"",""time""
""fullscreenenter"",""5"",""18538""
","
","","images/earth.jpg","","","","","","","","","","","","","","fixation","","","","","",""
"d3-animate-choice","160","710193","0.0-77.0-0.8","3956","7267","19","Male","true","true","false","false","""event"",""trial"",""time""
""fullscreenenter"",""5"",""18538""
","
","
","""event"",""trial"",""time""
""fullscreenenter"",""5"",""18538""
","
","304","","49","","","3000","1","","","images/earth.jpg","images/rocket2","images/rocket1","null","images/rocket1","","1","real","null","1","","",""
"d3-animate-choice","161","712515","0.0-77.0-1.8","3956","7267","19","Male","true","true","false","false","""event"",""trial"",""time""
""fullscreenenter"",""5"",""18538""
","
","
","""event"",""trial"",""time""
""fullscreenenter"",""5"",""18538""
","
","317","","48","","","3000","1","","","images/redplanet1.jpg","images/alien2","images/alien1","images/rocket1","images/alien2","images/t.png","2","real","true","2","common","1","2023-03-04 19:06:26.478"
"two-step-fixation","162","713517","0.0-77.0-2.8","3956","7267","19","Male","true","true","false","false","""event"",""trial"",""time""
""fullscreenenter"",""5"",""18538""
","
","
","""event"",""trial"",""time""
""fullscreenenter"",""5"",""18538""
","
","","images/earth.jpg","","","","","","","","","","","","","","fixation","","","","","",""
"d3-animate-choice","163","715795","0.0-77.0-0.9","3956","7267","19","Male","true","true","false","false","""event"",""trial"",""time""
""fullscreenenter"",""5"",""18538""
","
","
","""event"",""trial"",""time""
""fullscreenenter"",""5"",""18538""
","
","275","","49","","","3000","1","","","images/earth.jpg","images/rocket2","images/rocket1","null","images/rocket1","","1","real","null","1","","",""
"d3-animate-choice","164","718080","0.0-77.0-1.9","3956","7267","19","Male","true","true","false","false","""event"",""trial"",""time""
""fullscreenenter"",""5"",""18538""
","
","
","""event"",""trial"",""time""
""fullscreenenter"",""5"",""18538""
","
","281","","48","","","3000","1","","","images/redplanet1.jpg","images/alien2","images/alien1","images/rocket1","images/alien2","images/nothing.png","2","real","true","2","common","0","2023-03-04 19:06:32.043"
"two-step-fixation","165","719086","0.0-77.0-2.9","3956","7267","19","Male","true","true","false","false","""event"",""trial"",""time""
""fullscreenenter"",""5"",""18538""
","
","
","""event"",""trial"",""time""
""fullscreenenter"",""5"",""18538""
","
","","images/earth.jpg","","","","","","","","","","","","","","fixation","","","","","",""
"d3-animate-choice","166","721323","0.0-77.0-0.10","3956","7267","19","Male","true","true","false","false","""event"",""trial"",""time""
""fullscreenenter"",""5"",""18538""
","
","
","""event"",""trial"",""time""
""fullscreenenter"",""5"",""18538""
","
","235","","49","","","3000","1","","","images/earth.jpg","images/rocket2","images/rocket1","null","images/rocket1","","1","real","null","1","","",""
"d3-animate-choice","167","723595","0.0-77.0-1.10","3956","7267","19","Male","true","true","false","false","""event"",""trial"",""time""
""fullscreenenter"",""5"",""18538""
","
","
","""event"",""trial"",""time""
""fullscreenenter"",""5"",""18538""
","
","269","","48","","","3000","1","","","images/purpleplanet.jpg","images/alien4","images/alien3","images/rocket1","images/alien4","images/t.png","2","real","false","2","rare","1","2023-03-04 19:06:37.559"
"two-step-fixation","168","724600","0.0-77.0-2.10","3956","7267","19","Male","true","true","false","false","""event"",""trial"",""time""
""fullscreenenter"",""5"",""18538""
","
","
","""event"",""trial"",""time""
""fullscreenenter"",""5"",""18538""
","
","","images/earth.jpg","","","","","","","","","","","","","","fixation","","","","","",""
"d3-animate-choice","169","726981","0.0-77.0-0.11","3956","7267","19","Male","true","true","false","false","""event"",""trial"",""time""
""fullscreenenter"",""5"",""18538""
","
","
","""event"",""trial"",""time""
""fullscreenenter"",""5"",""18538""
","
","374","","49","","","3000","1","","","images/earth.jpg","images/rocket2","images/rocket1","null","images/rocket1","","1","real","null","1","","",""
"d3-animate-choice","170","729332","0.0-77.0-1.11","3956","7267","19","Male","true","true","false","false","""event"",""trial"",""time""
""fullscreenenter"",""5"",""18538""
","
","
","""event"",""trial"",""time""
""fullscreenenter"",""5"",""18538""
","
","347","","48","","","3000","1","","","images/redplanet1.jpg","images/alien2","images/alien1","images/rocket1","images/alien2","images/nothing.png","2","real","true","2","common","0","2023-03-04 19:06:43.296"
"two-step-fixation","171","730337","0.0-77.0-2.11","3956","7267","19","Male","true","true","false","false","""event"",""trial"",""time""
""fullscreenenter"",""5"",""18538""
","
","
","""event"",""trial"",""time""
""fullscreenenter"",""5"",""18538""
","
","","images/earth.jpg","","","","","","","","","","","","","","fixation","","","","","",""
"d3-animate-choice","172","732619","0.0-77.0-0.12","3956","7267","19","Male","true","true","false","false","""event"",""trial"",""time""
""fullscreenenter"",""5"",""18538""
","
","
","""event"",""trial"",""time""
""fullscreenenter"",""5"",""18538""
","
","279","","48","","","3000","1","","","images/earth.jpg","images/rocket2","images/rocket1","null","images/rocket2","","1","real","null","2","","",""
"d3-animate-choice","173","734848","0.0-77.0-1.12","3956","7267","19","Male","true","true","false","false","""event"",""trial"",""time""
""fullscreenenter"",""5"",""18538""
","
","
","""event"",""trial"",""time""
""fullscreenenter"",""5"",""18538""
","
","227","","48","","","3000","1","","","images/purpleplanet.jpg","images/alien4","images/alien3","images/rocket2","images/alien4","images/t.png","2","real","true","2","common","1","2023-03-04 19:06:48.811"
"two-step-fixation","174","735853","0.0-77.0-2.12","3956","7267","19","Male","true","true","false","false","""event"",""trial"",""time""
""fullscreenenter"",""5"",""18538""
","
","
","""event"",""trial"",""time""
""fullscreenenter"",""5"",""18538""
","
","","images/earth.jpg","","","","","","","","","","","","","","fixation","","","","","",""
"d3-animate-choice","175","738121","0.0-77.0-0.13","3956","7267","19","Male","true","true","false","false","""event"",""trial"",""time""
""fullscreenenter"",""5"",""18538""
","
","
","""event"",""trial"",""time""
""fullscreenenter"",""5"",""18538""
","
","264","","48","","","3000","1","","","images/earth.jpg","images/rocket2","images/rocket1","null","images/rocket2","","1","real","null","2","","",""
"d3-animate-choice","176","740506","0.0-77.0-1.13","3956","7267","19","Male","true","true","false","false","""event"",""trial"",""time""
""fullscreenenter"",""5"",""18538""
","
","
","""event"",""trial"",""time""
""fullscreenenter"",""5"",""18538""
","
","382","","48","","","3000","1","","","images/purpleplanet.jpg","images/alien4","images/alien3","images/rocket2","images/alien4","images/t.png","2","real","true","2","common","1","2023-03-04 19:06:54.469"
"two-step-fixation","177","741508","0.0-77.0-2.13","3956","7267","19","Male","true","true","false","false","""event"",""trial"",""time""
""fullscreenenter"",""5"",""18538""
","
","
","""event"",""trial"",""time""
""fullscreenenter"",""5"",""18538""
","
","","images/earth.jpg","","","","","","","","","","","","","","fixation","","","","","",""
"d3-animate-choice","178","743737","0.0-77.0-0.14","3956","7267","19","Male","true","true","false","false","""event"",""trial"",""time""
""fullscreenenter"",""5"",""18538""
","
","
","""event"",""trial"",""time""
""fullscreenenter"",""5"",""18538""
","
","226","","48","","","3000","1","","","images/earth.jpg","images/rocket2","images/rocket1","null","images/rocket2","","1","real","null","2","","",""
"d3-animate-choice","179","746134","0.0-77.0-1.14","3956","7267","19","Male","true","true","false","false","""event"",""trial"",""time""
""fullscreenenter"",""5"",""18538""
","
","
","""event"",""trial"",""time""
""fullscreenenter"",""5"",""18538""
","
","392","","48","","","3000","1","","","images/redplanet1.jpg","images/alien2","images/alien1","images/rocket2","images/alien2","images/t.png","2","real","false","2","rare","1","2023-03-04 19:07:00.097"
"two-step-fixation","180","747137","0.0-77.0-2.14","3956","7267","19","Male","true","true","false","false","""event"",""trial"",""time""
""fullscreenenter"",""5"",""18538""
","
","
","""event"",""trial"",""time""
""fullscreenenter"",""5"",""18538""
","
","","images/earth.jpg","","","","","","","","","","","","","","fixation","","","","","",""
"d3-animate-choice","181","749396","0.0-77.0-0.15","3956","7267","19","Male","true","true","false","false","""event"",""trial"",""time""
""fullscreenenter"",""5"",""18538""
","
","
","""event"",""trial"",""time""
""fullscreenenter"",""5"",""18538""
","
","255","","48","","","3000","1","","","images/earth.jpg","images/rocket2","images/rocket1","null","images/rocket2","","1","real","null","2","","",""
"d3-animate-choice","182","751704","0.0-77.0-1.15","3956","7267","19","Male","true","true","false","false","""event"",""trial"",""time""
""fullscreenenter"",""5"",""18538""
","
","
","""event"",""trial"",""time""
""fullscreenenter"",""5"",""18538""
","
","305","","48","","","3000","1","","","images/purpleplanet.jpg","images/alien4","images/alien3","images/rocket2","images/alien4","images/nothing.png","2","real","true","2","common","0","2023-03-04 19:07:05.667"
"two-step-fixation","183","752708","0.0-77.0-2.15","3956","7267","19","Male","true","true","false","false","""event"",""trial"",""time""
""fullscreenenter"",""5"",""18538""
","
","
","""event"",""trial"",""time""
""fullscreenenter"",""5"",""18538""
","
","","images/earth.jpg","","","","","","","","","","","","","","fixation","","","","","",""
"d3-animate-choice","184","754922","0.0-77.0-0.16","3956","7267","19","Male","true","true","false","false","""event"",""trial"",""time""
""fullscreenenter"",""5"",""18538""
","
","
","""event"",""trial"",""time""
""fullscreenenter"",""5"",""18538""
","
","212","","48","","","3000","1","","","images/earth.jpg","images/rocket2","images/rocket1","null","images/rocket2","","1","real","null","2","","",""
"d3-animate-choice","185","757169","0.0-77.0-1.16","3956","7267","19","Male","true","true","false","false","""event"",""trial"",""time""
""fullscreenenter"",""5"",""18538""
","
","
","""event"",""trial"",""time""
""fullscreenenter"",""5"",""18538""
","
","243","","48","","","3000","1","","","images/redplanet1.jpg","images/alien2","images/alien1","images/rocket2","images/alien2","images/nothing.png","2","real","false","2","rare","0","2023-03-04 19:07:11.132"
"two-step-fixation","186","758173","0.0-77.0-2.16","3956","7267","19","Male","true","true","false","false","""event"",""trial"",""time""
""fullscreenenter"",""5"",""18538""
","
","
","""event"",""trial"",""time""
""fullscreenenter"",""5"",""18538""
","
","","images/earth.jpg","","","","","","","","","","","","","","fixation","","","","","",""
"d3-animate-choice","187","760395","0.0-77.0-0.17","3956","7267","19","Male","true","true","false","false","""event"",""trial"",""time""
""fullscreenenter"",""5"",""18538""
","
","
","""event"",""trial"",""time""
""fullscreenenter"",""5"",""18538""
","
","217","","48","","","3000","1","","","images/earth.jpg","images/rocket2","images/rocket1","null","images/rocket2","","1","real","null","2","","",""
"d3-animate-choice","188","762714","0.0-77.0-1.17","3956","7267","19","Male","true","true","false","false","""event"",""trial"",""time""
""fullscreenenter"",""5"",""18538""
","
","
","""event"",""trial"",""time""
""fullscreenenter"",""5"",""18538""
","
","318","","48","","","3000","1","","","images/redplanet1.jpg","images/alien2","images/alien1","images/rocket2","images/alien2","images/t.png","2","real","false","2","rare","1","2023-03-04 19:07:16.677"
"two-step-fixation","189","763719","0.0-77.0-2.17","3956","7267","19","Male","true","true","false","false","""event"",""trial"",""time""
""fullscreenenter"",""5"",""18538""
","
","
","""event"",""trial"",""time""
""fullscreenenter"",""5"",""18538""
","
","","images/earth.jpg","","","","","","","","","","","","","","fixation","","","","","",""
"d3-animate-choice","190","765976","0.0-77.0-0.18","3956","7267","19","Male","true","true","false","false","""event"",""trial"",""time""
""fullscreenenter"",""5"",""18538""
","
","
","""event"",""trial"",""time""
""fullscreenenter"",""5"",""18538""
","
","252","","48","","","3000","1","","","images/earth.jpg","images/rocket2","images/rocket1","null","images/rocket2","","1","real","null","2","","",""
"d3-animate-choice","191","768357","0.0-77.0-1.18","3956","7267","19","Male","true","true","false","false","""event"",""trial"",""time""
""fullscreenenter"",""5"",""18538""
","
","
","""event"",""trial"",""time""
""fullscreenenter"",""5"",""18538""
","
","378","","48","","","3000","1","","","images/purpleplanet.jpg","images/alien4","images/alien3","images/rocket2","images/alien4","images/nothing.png","2","real","true","2","common","0","2023-03-04 19:07:22.320"
"two-step-fixation","192","769361","0.0-77.0-2.18","3956","7267","19","Male","true","true","false","false","""event"",""trial"",""time""
""fullscreenenter"",""5"",""18538""
","
","
","""event"",""trial"",""time""
""fullscreenenter"",""5"",""18538""
","
","","images/earth.jpg","","","","","","","","","","","","","","fixation","","","","","",""
"d3-animate-choice","193","771607","0.0-77.0-0.19","3956","7267","19","Male","true","true","false","false","""event"",""trial"",""time""
""fullscreenenter"",""5"",""18538""
","
","
","""event"",""trial"",""time""
""fullscreenenter"",""5"",""18538""
","
","242","","48","","","3000","1","","","images/earth.jpg","images/rocket2","images/rocket1","null","images/rocket2","","1","real","null","2","","",""
"d3-animate-choice","194","773930","0.0-77.0-1.19","3956","7267","19","Male","true","true","false","false","""event"",""trial"",""time""
""fullscreenenter"",""5"",""18538""
","
","
","""event"",""trial"",""time""
""fullscreenenter"",""5"",""18538""
","
","320","","48","","","3000","1","","","images/redplanet1.jpg","images/alien2","images/alien1","images/rocket2","images/alien2","images/nothing.png","2","real","false","2","rare","0","2023-03-04 19:07:27.893"
"two-step-fixation","195","774934","0.0-77.0-2.19","3956","7267","19","Male","true","true","false","false","""event"",""trial"",""time""
""fullscreenenter"",""5"",""18538""
","
","
","""event"",""trial"",""time""
""fullscreenenter"",""5"",""18538""
","
","","images/earth.jpg","","","","","","","","","","","","","","fixation","","","","","",""
"d3-animate-choice","196","777282","0.0-77.0-0.20","3956","7267","19","Male","true","true","false","false","""event"",""trial"",""time""
""fullscreenenter"",""5"",""18538""
","
","
","""event"",""trial"",""time""
""fullscreenenter"",""5"",""18538""
","
","343","","48","","","3000","1","","","images/earth.jpg","images/rocket2","images/rocket1","null","images/rocket2","","1","real","null","2","","",""
"d3-animate-choice","197","779581","0.0-77.0-1.20","3956","7267","19","Male","true","true","false","false","""event"",""trial"",""time""
""fullscreenenter"",""5"",""18538""
","
","
","""event"",""trial"",""time""
""fullscreenenter"",""5"",""18538""
","
","295","","49","","","3000","1","","","images/purpleplanet.jpg","images/alien4","images/alien3","images/rocket2","images/alien3","images/nothing.png","2","real","true","1","common","0","2023-03-04 19:07:33.544"
"two-step-fixation","198","780586","0.0-77.0-2.20","3956","7267","19","Male","true","true","false","false","""event"",""trial"",""time""
""fullscreenenter"",""5"",""18538""
","
","
","""event"",""trial"",""time""
""fullscreenenter"",""5"",""18538""
","
","","images/earth.jpg","","","","","","","","","","","","","","fixation","","","","","",""
"d3-animate-choice","199","782919","0.0-77.0-0.21","3956","7267","19","Male","true","true","false","false","""event"",""trial"",""time""
""fullscreenenter"",""5"",""18538""
","
","
","""event"",""trial"",""time""
""fullscreenenter"",""5"",""18538""
","
","331","","49","","","3000","1","","","images/earth.jpg","images/rocket2","images/rocket1","null","images/rocket1","","1","real","null","1","","",""
"d3-animate-choice","200","785347","0.0-77.0-1.21","3956","7267","19","Male","true","true","false","false","""event"",""trial"",""time""
""fullscreenenter"",""5"",""18538""
","
","
","""event"",""trial"",""time""
""fullscreenenter"",""5"",""18538""
","
","423","","49","","","3000","1","","","images/purpleplanet.jpg","images/alien4","images/alien3","images/rocket1","images/alien3","images/t.png","2","real","false","1","rare","1","2023-03-04 19:07:39.310"
"two-step-fixation","201","786351","0.0-77.0-2.21","3956","7267","19","Male","true","true","false","false","""event"",""trial"",""time""
""fullscreenenter"",""5"",""18538""
","
","
","""event"",""trial"",""time""
""fullscreenenter"",""5"",""18538""
","
","","images/earth.jpg","","","","","","","","","","","","","","fixation","","","","","",""
"d3-animate-choice","202","788716","0.0-77.0-0.22","3956","7267","19","Male","true","true","false","false","""event"",""trial"",""time""
""fullscreenenter"",""5"",""18538""
","
","
","""event"",""trial"",""time""
""fullscreenenter"",""5"",""18538""
","
","360","","49","","","3000","1","","","images/earth.jpg","images/rocket2","images/rocket1","null","images/rocket1","","1","real","null","1","","",""
"d3-animate-choice","203","791121","0.0-77.0-1.22","3956","7267","19","Male","true","true","false","false","""event"",""trial"",""time""
""fullscreenenter"",""5"",""18538""
","
","
","""event"",""trial"",""time""
""fullscreenenter"",""5"",""18538""
","
","401","","49","","","3000","1","","","images/redplanet1.jpg","images/alien2","images/alien1","images/rocket1","images/alien1","images/t.png","2","real","true","1","common","1","2023-03-04 19:07:45.084"
"two-step-fixation","204","792123","0.0-77.0-2.22","3956","7267","19","Male","true","true","false","false","""event"",""trial"",""time""
""fullscreenenter"",""5"",""18538""
","
","
","""event"",""trial"",""time""
""fullscreenenter"",""5"",""18538""
","
","","images/earth.jpg","","","","","","","","","","","","","","fixation","","","","","",""
"d3-animate-choice","205","794397","0.0-77.0-0.23","3956","7267","19","Male","true","true","false","false","""event"",""trial"",""time""
""fullscreenenter"",""5"",""18538""
","
","
","""event"",""trial"",""time""
""fullscreenenter"",""5"",""18538""
","
","268","","49","","","3000","1","","","images/earth.jpg","images/rocket2","images/rocket1","null","images/rocket1","","1","real","null","1","","",""
"d3-animate-choice","206","796786","0.0-77.0-1.23","3956","7267","19","Male","true","true","false","false","""event"",""trial"",""time""
""fullscreenenter"",""5"",""18538""
","
","
","""event"",""trial"",""time""
""fullscreenenter"",""5"",""18538""
","
","384","","49","","","3000","1","","","images/purpleplanet.jpg","images/alien4","images/alien3","images/rocket1","images/alien3","images/nothing.png","2","real","false","1","rare","0","2023-03-04 19:07:50.749"
"two-step-fixation","207","797792","0.0-77.0-2.23","3956","7267","19","Male","true","true","false","false","""event"",""trial"",""time""
""fullscreenenter"",""5"",""18538""
","
","
","""event"",""trial"",""time""
""fullscreenenter"",""5"",""18538""
","
","","images/earth.jpg","","","","","","","","","","","","","","fixation","","","","","",""
"d3-animate-choice","208","799988","0.0-77.0-0.24","3956","7267","19","Male","true","true","false","false","""event"",""trial"",""time""
""fullscreenenter"",""5"",""18538""
","
","
","""event"",""trial"",""time""
""fullscreenenter"",""5"",""18538""
","
","193","","49","","","3000","1","","","images/earth.jpg","images/rocket2","images/rocket1","null","images/rocket1","","1","real","null","1","","",""
"d3-animate-choice","209","802418","0.0-77.0-1.24","3956","7267","19","Male","true","true","false","false","""event"",""trial"",""time""
""fullscreenenter"",""5"",""18538""
","
","
","""event"",""trial"",""time""
""fullscreenenter"",""5"",""18538""
","
","428","","49","","","3000","1","","","images/redplanet1.jpg","images/alien2","images/alien1","images/rocket1","images/alien1","images/nothing.png","2","real","true","1","common","0","2023-03-04 19:07:56.381"
"two-step-fixation","210","803423","0.0-77.0-2.24","3956","7267","19","Male","true","true","false","false","""event"",""trial"",""time""
""fullscreenenter"",""5"",""18538""
","
","
","""event"",""trial"",""time""
""fullscreenenter"",""5"",""18538""
","
","","images/earth.jpg","","","","","","","","","","","","","","fixation","","","","","",""
"d3-animate-choice","211","805563","0.0-77.0-0.25","3956","7267","19","Male","true","true","false","false","""event"",""trial"",""time""
""fullscreenenter"",""5"",""18538""
","
","
","""event"",""trial"",""time""
""fullscreenenter"",""5"",""18538""
","
","134","","49","","","3000","1","","","images/earth.jpg","images/rocket2","images/rocket1","null","images/rocket1","","1","real","null","1","","",""
"d3-animate-choice","212","807964","0.0-77.0-1.25","3956","7267","19","Male","true","true","false","false","""event"",""trial"",""time""
""fullscreenenter"",""5"",""18538""
","
","
","""event"",""trial"",""time""
""fullscreenenter"",""5"",""18538""
","
","396","","49","","","3000","1","","","images/redplanet1.jpg","images/alien2","images/alien1","images/rocket1","images/alien1","images/t.png","2","real","true","1","common","1","2023-03-04 19:08:01.927"
"two-step-fixation","213","808969","0.0-77.0-2.25","3956","7267","19","Male","true","true","false","false","""event"",""trial"",""time""
""fullscreenenter"",""5"",""18538""
","
","
","""event"",""trial"",""time""
""fullscreenenter"",""5"",""18538""
","
","","images/earth.jpg","","","","","","","","","","","","","","fixation","","","","","",""
"d3-animate-choice","214","811269","0.0-77.0-0.26","3956","7267","19","Male","true","true","false","false","""event"",""trial"",""time""
""fullscreenenter"",""5"",""18538""
","
","
","""event"",""trial"",""time""
""fullscreenenter"",""5"",""18538""
","
","298","","49","","","3000","1","","","images/earth.jpg","images/rocket2","images/rocket1","null","images/rocket1","","1","real","null","1","","",""
"d3-animate-choice","215","813598","0.0-77.0-1.26","3956","7267","19","Male","true","true","false","false","""event"",""trial"",""time""
""fullscreenenter"",""5"",""18538""
","
","
","""event"",""trial"",""time""
""fullscreenenter"",""5"",""18538""
","
","325","","49","","","3000","1","","","images/redplanet1.jpg","images/alien2","images/alien1","images/rocket1","images/alien1","images/t.png","2","real","true","1","common","1","2023-03-04 19:08:07.561"
"two-step-fixation","216","814600","0.0-77.0-2.26","3956","7267","19","Male","true","true","false","false","""event"",""trial"",""time""
""fullscreenenter"",""5"",""18538""
","
","
","""event"",""trial"",""time""
""fullscreenenter"",""5"",""18538""
","
","","images/earth.jpg","","","","","","","","","","","","","","fixation","","","","","",""
"d3-animate-choice","217","816881","0.0-77.0-0.27","3956","7267","19","Male","true","true","false","false","""event"",""trial"",""time""
""fullscreenenter"",""5"",""18538""
","
","
","""event"",""trial"",""time""
""fullscreenenter"",""5"",""18538""
","
","277","","49","","","3000","1","","","images/earth.jpg","images/rocket2","images/rocket1","null","images/rocket1","","1","real","null","1","","",""
"d3-animate-choice","218","819188","0.0-77.0-1.27","3956","7267","19","Male","true","true","false","false","""event"",""trial"",""time""
""fullscreenenter"",""5"",""18538""
","
","
","""event"",""trial"",""time""
""fullscreenenter"",""5"",""18538""
","
","301","","49","","","3000","1","","","images/redplanet1.jpg","images/alien2","images/alien1","images/rocket1","images/alien1","images/t.png","2","real","true","1","common","1","2023-03-04 19:08:13.151"
"two-step-fixation","219","820193","0.0-77.0-2.27","3956","7267","19","Male","true","true","false","false","""event"",""trial"",""time""
""fullscreenenter"",""5"",""18538""
","
","
","""event"",""trial"",""time""
""fullscreenenter"",""5"",""18538""
","
","","images/earth.jpg","","","","","","","","","","","","","","fixation","","","","","",""
"d3-animate-choice","220","822467","0.0-77.0-0.28","3956","7267","19","Male","true","true","false","false","""event"",""trial"",""time""
""fullscreenenter"",""5"",""18538""
","
","
","""event"",""trial"",""time""
""fullscreenenter"",""5"",""18538""
","
","270","","49","","","3000","1","","","images/earth.jpg","images/rocket2","images/rocket1","null","images/rocket1","","1","real","null","1","","",""
"d3-animate-choice","221","824877","0.0-77.0-1.28","3956","7267","19","Male","true","true","false","false","""event"",""trial"",""time""
""fullscreenenter"",""5"",""18538""
","
","
","""event"",""trial"",""time""
""fullscreenenter"",""5"",""18538""
","
","407","","49","","","3000","1","","","images/redplanet1.jpg","images/alien2","images/alien1","images/rocket1","images/alien1","images/t.png","2","real","true","1","common","1","2023-03-04 19:08:18.840"
"two-step-fixation","222","825882","0.0-77.0-2.28","3956","7267","19","Male","true","true","false","false","""event"",""trial"",""time""
""fullscreenenter"",""5"",""18538""
","
","
","""event"",""trial"",""time""
""fullscreenenter"",""5"",""18538""
","
","","images/earth.jpg","","","","","","","","","","","","","","fixation","","","","","",""
"d3-animate-choice","223","828195","0.0-77.0-0.29","3956","7267","19","Male","true","true","false","false","""event"",""trial"",""time""
""fullscreenenter"",""5"",""18538""
","
","
","""event"",""trial"",""time""
""fullscreenenter"",""5"",""18538""
","
","310","","49","","","3000","1","","","images/earth.jpg","images/rocket2","images/rocket1","null","images/rocket1","","1","real","null","1","","",""
"d3-animate-choice","224","830531","0.0-77.0-1.29","3956","7267","19","Male","true","true","false","false","""event"",""trial"",""time""
""fullscreenenter"",""5"",""18538""
","
","
","""event"",""trial"",""time""
""fullscreenenter"",""5"",""18538""
","
","334","","49","","","3000","1","","","images/redplanet1.jpg","images/alien2","images/alien1","images/rocket1","images/alien1","images/t.png","2","real","true","1","common","1","2023-03-04 19:08:24.494"
"two-step-fixation","225","831535","0.0-77.0-2.29","3956","7267","19","Male","true","true","false","false","""event"",""trial"",""time""
""fullscreenenter"",""5"",""18538""
","
","
","""event"",""trial"",""time""
""fullscreenenter"",""5"",""18538""
","
","","images/earth.jpg","","","","","","","","","","","","","","fixation","","","","","",""
"d3-animate-choice","226","833844","0.0-77.0-0.30","3956","7267","19","Male","true","true","false","false","""event"",""trial"",""time""
""fullscreenenter"",""5"",""18538""
","
","
","""event"",""trial"",""time""
""fullscreenenter"",""5"",""18538""
","
","303","","49","","","3000","1","","","images/earth.jpg","images/rocket2","images/rocket1","null","images/rocket1","","1","real","null","1","","",""
"d3-animate-choice","227","836161","0.0-77.0-1.30","3956","7267","19","Male","true","true","false","false","""event"",""trial"",""time""
""fullscreenenter"",""5"",""18538""
","
","
","""event"",""trial"",""time""
""fullscreenenter"",""5"",""18538""
","
","313","","49","","","3000","1","","","images/redplanet1.jpg","images/alien2","images/alien1","images/rocket1","images/alien1","images/t.png","2","real","true","1","common","1","2023-03-04 19:08:30.124"
"two-step-fixation","228","837165","0.0-77.0-2.30","3956","7267","19","Male","true","true","false","false","""event"",""trial"",""time""
""fullscreenenter"",""5"",""18538""
","
","
","""event"",""trial"",""time""
""fullscreenenter"",""5"",""18538""
","
","","images/earth.jpg","","","","","","","","","","","","","","fixation","","","","","",""
"d3-animate-choice","229","839458","0.0-77.0-0.31","3956","7267","19","Male","true","true","false","false","""event"",""trial"",""time""
""fullscreenenter"",""5"",""18538""
","
","
","""event"",""trial"",""time""
""fullscreenenter"",""5"",""18538""
","
","290","","49","","","3000","1","","","images/earth.jpg","images/rocket2","images/rocket1","null","images/rocket1","","1","real","null","1","","",""
"d3-animate-choice","230","841778","0.0-77.0-1.31","3956","7267","19","Male","true","true","false","false","""event"",""trial"",""time""
""fullscreenenter"",""5"",""18538""
","
","
","""event"",""trial"",""time""
""fullscreenenter"",""5"",""18538""
","
","316","","49","","","3000","1","","","images/purpleplanet.jpg","images/alien4","images/alien3","images/rocket1","images/alien3","images/nothing.png","2","real","false","1","rare","0","2023-03-04 19:08:35.742"
"two-step-fixation","231","842782","0.0-77.0-2.31","3956","7267","19","Male","true","true","false","false","""event"",""trial"",""time""
""fullscreenenter"",""5"",""18538""
","
","
","""event"",""trial"",""time""
""fullscreenenter"",""5"",""18538""
","
","","images/earth.jpg","","","","","","","","","","","","","","fixation","","","","","",""
"d3-animate-choice","232","845024","0.0-77.0-0.32","3956","7267","19","Male","true","true","false","false","""event"",""trial"",""time""
""fullscreenenter"",""5"",""18538""
","
","
","""event"",""trial"",""time""
""fullscreenenter"",""5"",""18538""
","
","236","","49","","","3000","1","","","images/earth.jpg","images/rocket2","images/rocket1","null","images/rocket1","","1","real","null","1","","",""
"d3-animate-choice","233","847547","0.0-77.0-1.32","3956","7267","19","Male","true","true","false","false","""event"",""trial"",""time""
""fullscreenenter"",""5"",""18538""
","
","
","""event"",""trial"",""time""
""fullscreenenter"",""5"",""18538""
","
","522","","48","","","3000","1","","","images/purpleplanet.jpg","images/alien4","images/alien3","images/rocket1","images/alien4","images/t.png","2","real","false","2","rare","1","2023-03-04 19:08:41.510"
"two-step-fixation","234","848550","0.0-77.0-2.32","3956","7267","19","Male","true","true","false","false","""event"",""trial"",""time""
""fullscreenenter"",""5"",""18538""
","
","
","""event"",""trial"",""time""
""fullscreenenter"",""5"",""18538""
","
","","images/earth.jpg","","","","","","","","","","","","","","fixation","","","","","",""
"d3-animate-choice","235","850875","0.0-77.0-0.33","3956","7267","19","Male","true","true","false","false","""event"",""trial"",""time""
""fullscreenenter"",""5"",""18538""
","
","
","""event"",""trial"",""time""
""fullscreenenter"",""5"",""18538""
","
","320","","49","","","3000","1","","","images/earth.jpg","images/rocket2","images/rocket1","null","images/rocket1","","1","real","null","1","","",""
"d3-animate-choice","236","853578","0.0-77.0-1.33","3956","7267","19","Male","true","true","false","false","""event"",""trial"",""time""
""fullscreenenter"",""5"",""18538""
","
","
","""event"",""trial"",""time""
""fullscreenenter"",""5"",""18538""
","
","699","","48","","","3000","1","","","images/purpleplanet.jpg","images/alien4","images/alien3","images/rocket1","images/alien4","images/t.png","2","real","false","2","rare","1","2023-03-04 19:08:47.542"
"two-step-fixation","237","854583","0.0-77.0-2.33","3956","7267","19","Male","true","true","false","false","""event"",""trial"",""time""
""fullscreenenter"",""5"",""18538""
","
","
","""event"",""trial"",""time""
""fullscreenenter"",""5"",""18538""
","
","","images/earth.jpg","","","","","","","","","","","","","","fixation","","","","","",""
"d3-animate-choice","238","856858","0.0-77.0-0.34","3956","7267","19","Male","true","true","false","false","""event"",""trial"",""time""
""fullscreenenter"",""5"",""18538""
","
","
","""event"",""trial"",""time""
""fullscreenenter"",""5"",""18538""
","
","270","","49","","","3000","1","","","images/earth.jpg","images/rocket2","images/rocket1","null","images/rocket1","","1","real","null","1","","",""
"d3-animate-choice","239","859289","0.0-77.0-1.34","3956","7267","19","Male","true","true","false","false","""event"",""trial"",""time""
""fullscreenenter"",""5"",""18538""
","
","
","""event"",""trial"",""time""
""fullscreenenter"",""5"",""18538""
","
","426","","49","","","3000","1","","","images/redplanet1.jpg","images/alien2","images/alien1","images/rocket1","images/alien1","images/t.png","2","real","true","1","common","1","2023-03-04 19:08:53.252"
"two-step-fixation","240","860293","0.0-77.0-2.34","3956","7267","19","Male","true","true","false","false","""event"",""trial"",""time""
""fullscreenenter"",""5"",""18538""
","
","
","""event"",""trial"",""time""
""fullscreenenter"",""5"",""18538""
","
","","images/earth.jpg","","","","","","","","","","","","","","fixation","","","","","",""
"d3-animate-choice","241","862587","0.0-77.0-0.35","3956","7267","19","Male","true","true","false","false","""event"",""trial"",""time""
""fullscreenenter"",""5"",""18538""
","
","
","""event"",""trial"",""time""
""fullscreenenter"",""5"",""18538""
","
","291","","49","","","3000","1","","","images/earth.jpg","images/rocket2","images/rocket1","null","images/rocket1","","1","real","null","1","","",""
"d3-animate-choice","242","865007","0.0-77.0-1.35","3956","7267","19","Male","true","true","false","false","""event"",""trial"",""time""
""fullscreenenter"",""5"",""18538""
","
","
","""event"",""trial"",""time""
""fullscreenenter"",""5"",""18538""
","
","416","","48","","","3000","1","","","images/purpleplanet.jpg","images/alien4","images/alien3","images/rocket1","images/alien4","images/nothing.png","2","real","false","2","rare","0","2023-03-04 19:08:58.970"
"two-step-fixation","243","866009","0.0-77.0-2.35","3956","7267","19","Male","true","true","false","false","""event"",""trial"",""time""
""fullscreenenter"",""5"",""18538""
","
","
","""event"",""trial"",""time""
""fullscreenenter"",""5"",""18538""
","
","","images/earth.jpg","","","","","","","","","","","","","","fixation","","","","","",""
"d3-animate-choice","244","868307","0.0-77.0-0.36","3956","7267","19","Male","true","true","false","false","""event"",""trial"",""time""
""fullscreenenter"",""5"",""18538""
","
","
","""event"",""trial"",""time""
""fullscreenenter"",""5"",""18538""
","
","293","","49","","","3000","1","","","images/earth.jpg","images/rocket2","images/rocket1","null","images/rocket1","","1","real","null","1","","",""
"d3-animate-choice","245","870691","0.0-77.0-1.36","3956","7267","19","Male","true","true","false","false","""event"",""trial"",""time""
""fullscreenenter"",""5"",""18538""
","
","
","""event"",""trial"",""time""
""fullscreenenter"",""5"",""18538""
","
","380","","49","","","3000","1","","","images/redplanet1.jpg","images/alien2","images/alien1","images/rocket1","images/alien1","images/t.png","2","real","true","1","common","1","2023-03-04 19:09:04.654"
"two-step-fixation","246","871696","0.0-77.0-2.36","3956","7267","19","Male","true","true","false","false","""event"",""trial"",""time""
""fullscreenenter"",""5"",""18538""
","
","
","""event"",""trial"",""time""
""fullscreenenter"",""5"",""18538""
","
","","images/earth.jpg","","","","","","","","","","","","","","fixation","","","","","",""
"d3-animate-choice","247","873978","0.0-77.0-0.37","3956","7267","19","Male","true","true","false","false","""event"",""trial"",""time""
""fullscreenenter"",""5"",""18538""
","
","
","""event"",""trial"",""time""
""fullscreenenter"",""5"",""18538""
","
","280","","49","","","3000","1","","","images/earth.jpg","images/rocket2","images/rocket1","null","images/rocket1","","1","real","null","1","","",""
"d3-animate-choice","248","877003","0.0-77.0-1.37","3956","7267","19","Male","true","true","false","false","""event"",""trial"",""time""
""fullscreenenter"",""5"",""18538""
","
","
","""event"",""trial"",""time""
""fullscreenenter"",""5"",""18538""
","
","1022","","49","","","3000","1","","","images/redplanet1.jpg","images/alien2","images/alien1","images/rocket1","images/alien1","images/t.png","2","real","true","1","common","1","2023-03-04 19:09:10.966"
"two-step-fixation","249","878007","0.0-77.0-2.37","3956","7267","19","Male","true","true","false","false","""event"",""trial"",""time""
""fullscreenenter"",""5"",""18538""
","
","
","""event"",""trial"",""time""
""fullscreenenter"",""5"",""18538""
","
","","images/earth.jpg","","","","","","","","","","","","","","fixation","","","","","",""
"d3-animate-choice","250","880371","0.0-77.0-0.38","3956","7267","19","Male","true","true","false","false","""event"",""trial"",""time""
""fullscreenenter"",""5"",""18538""
","
","
","""event"",""trial"",""time""
""fullscreenenter"",""5"",""18538""
","
","359","","49","","","3000","1","","","images/earth.jpg","images/rocket2","images/rocket1","null","images/rocket1","","1","real","null","1","","",""
"d3-animate-choice","251","882801","0.0-77.0-1.38","3956","7267","19","Male","true","true","false","false","""event"",""trial"",""time""
