"trial_type","trial_index","time_elapsed","internal_node_id","participant_id","subject_id","age","gender","rocket_sides","red_planet_first_rocket","red_display_order","purple_display_order","interactions","blur_events","focus_events","fullscreenenter_events","fullscreenexit_events","rt","stimulus","key_press","button_pressed","success","duration","valid_pressed","rts","keys","planet_text","right_text","left_text","center_text","chosen_text","reward_text","trial_stage","practice_trial","transition_type","choice","transition","reward","timestamp"
"pavlovia","0","7","0.0-0.0","1182","1124","17","Female","true","false","true","false","
","
","
","
","
","","","","","","","","","","","","","","","","","","","","","",""
"html-keyboard-response","1","43426","0.0-1.0","1182","1124","17","Female","true","false","true","false","
","
","
","
","
","43415.5","Welcome! Press the space bar to begin.","32","","","","","","","","","","","","","","","","","","",""
"audio-keyboard-response","2","51196","0.0-2.0","1182","1124","17","Female","true","false","true","false","
","
","
","
","
","7680","audio/beep_loop.wav","32","","","","","","","","","","","","","","","","","","",""
"audio-button-response","3","60037","0.0-3.0","1182","1124","17","Female","true","false","true","false","
","
","
","
","
","NaN","audio/fish.mp3","","1","","","","","","","","","","","","","","","","","",""
"audio-button-response","4","62515","0.0-4.0","1182","1124","17","Female","true","false","true","false","""event"",""trial"",""time""
""fullscreenenter"",""5"",""66827""
","
","
","""event"",""trial"",""time""
""fullscreenenter"",""5"",""66827""
","
","NaN","audio/tiger.mp3","","4","","","","","","","","","","","","","","","","","",""
"fullscreen","5","67808","0.0-5.0","1182","1124","17","Female","true","false","true","false","""event"",""trial"",""time""
""fullscreenenter"",""5"",""66827""
","
","
","""event"",""trial"",""time""
""fullscreenenter"",""5"",""66827""
","
","","","","","true","","","","","","","","","","","","","","","","",""
"d3-instructions","6","87373","0.0-6.0","1182","1124","17","Female","true","false","true","false","""event"",""trial"",""time""
""fullscreenenter"",""5"",""66827""
","
","
","""event"",""trial"",""time""
""fullscreenenter"",""5"",""66827""
","
","","","","","","","","","","","","","","","","","","","","","",""
"d3-instructions","7","104991","0.0-7.0","1182","1124","17","Female","true","false","true","false","""event"",""trial"",""time""
""fullscreenenter"",""5"",""66827""
","
","
","""event"",""trial"",""time""
""fullscreenenter"",""5"",""66827""
","
","","","","","","","","","","","","","","","","","","","","","",""
"d3-instructions","8","113151","0.0-8.0","1182","1124","17","Female","true","false","true","false","""event"",""trial"",""time""
""fullscreenenter"",""5"",""66827""
","
","
","""event"",""trial"",""time""
""fullscreenenter"",""5"",""66827""
","
","","","","","","","","","","","","","","","","","","","","","",""
"d3-instructions","9","124081","0.0-9.0","1182","1124","17","Female","true","false","true","false","""event"",""trial"",""time""
""fullscreenenter"",""5"",""66827""
","
","
","""event"",""trial"",""time""
""fullscreenenter"",""5"",""66827""
","
","","","","","","","","","","","","","","","","","","","","","",""
"d3-instructions","10","145178","0.0-10.0","1182","1124","17","Female","true","false","true","false","""event"",""trial"",""time""
""fullscreenenter"",""5"",""66827""
","
","
","""event"",""trial"",""time""
""fullscreenenter"",""5"",""66827""
","
","","","","","","","","","","","","","","","","","","","","","",""
"d3-animate-choice","11","150288","0.0-11.0","1182","1124","17","Female","true","false","true","false","""event"",""trial"",""time""
""fullscreenenter"",""5"",""66827""
","
","
","""event"",""trial"",""time""
""fullscreenenter"",""5"",""66827""
","
","3098.399999999441","","49","","","3000","1","","","images/tutgreenplanet.jpg","images/tutalien1","images/tutalien2","null","images/tutalien2","","NA","practice","null","","","",""
"d3-animate-choice","12","153631","0.0-12.0","1182","1124","17","Female","true","false","true","false","""event"",""trial"",""time""
""fullscreenenter"",""5"",""66827""
","
","
","""event"",""trial"",""time""
""fullscreenenter"",""5"",""66827""
","
","1338","","48","","","3000","1","","","images/tutgreenplanet.jpg","images/tutalien1","images/tutalien2","null","images/tutalien1","","NA","practice","null","","","",""
"d3-animate-choice","13","157472","0.0-13.0","1182","1124","17","Female","true","false","true","false","""event"",""trial"",""time""
""fullscreenenter"",""5"",""66827""
","
","
","""event"",""trial"",""time""
""fullscreenenter"",""5"",""66827""
","
","1836.7000000001863","","48","","","3000","1","","","images/tutgreenplanet.jpg","images/tutalien1","images/tutalien2","null","images/tutalien1","","NA","practice","null","","","",""
"d3-animate-choice","14","160615","0.0-14.0","1182","1124","17","Female","true","false","true","false","""event"",""trial"",""time""
""fullscreenenter"",""5"",""66827""
","
","
","""event"",""trial"",""time""
""fullscreenenter"",""5"",""66827""
","
","1138.199999999255","","49","","","3000","1","","","images/tutgreenplanet.jpg","images/tutalien1","images/tutalien2","null","images/tutalien2","","NA","practice","null","","","",""
"d3-instructions","15","168684","0.0-15.0","1182","1124","17","Female","true","false","true","false","""event"",""trial"",""time""
""fullscreenenter"",""5"",""66827""
","
","
","""event"",""trial"",""time""
""fullscreenenter"",""5"",""66827""
","
","","","","","","","","","","","","","","","","","","","","","",""
"d3-instructions","16","176282","0.0-16.0","1182","1124","17","Female","true","false","true","false","""event"",""trial"",""time""
""fullscreenenter"",""5"",""66827""
","
","
","""event"",""trial"",""time""
""fullscreenenter"",""5"",""66827""
","
","","","","","","","","","","","","","","","","","","","","","",""
"d3-instructions","17","185113","0.0-17.0","1182","1124","17","Female","true","false","true","false","""event"",""trial"",""time""
""fullscreenenter"",""5"",""66827""
","
","
","""event"",""trial"",""time""
""fullscreenenter"",""5"",""66827""
","
","","","","","","","","","","","","","","","","","","","","","",""
"d3-instructions","18","198749","0.0-18.0","1182","1124","17","Female","true","false","true","false","""event"",""trial"",""time""
""fullscreenenter"",""5"",""66827""
","
","
","""event"",""trial"",""time""
""fullscreenenter"",""5"",""66827""
","
","","","","","","","","","","","","","","","","","","","","","",""
"d3-instructions","19","214426","0.0-19.0","1182","1124","17","Female","true","false","true","false","""event"",""trial"",""time""
""fullscreenenter"",""5"",""66827""
","
","
","""event"",""trial"",""time""
""fullscreenenter"",""5"",""66827""
","
","","","","","","","","","","","","","","","","","","","","","",""
"d3-animate-choice","20","217614","0.0-20.0","1182","1124","17","Female","true","false","true","false","""event"",""trial"",""time""
""fullscreenenter"",""5"",""66827""
","
","
","""event"",""trial"",""time""
""fullscreenenter"",""5"",""66827""
","
","1182.7000000001863","","49","","","3000","1","1708.5","49","images/tutyellowplanet.jpg","null","images/tutalien3","null","images/tutalien3","images/t.png","NA","practice","null","","","",""
"d3-animate-choice","21","220164","0.0-21.0","1182","1124","17","Female","true","false","true","false","""event"",""trial"",""time""
""fullscreenenter"",""5"",""66827""
","
","
","""event"",""trial"",""time""
""fullscreenenter"",""5"",""66827""
","
","546.6000000005588","","49","","","3000","1","","","images/tutyellowplanet.jpg","null","images/tutalien3","null","images/tutalien3","images/nothing.png","NA","practice","null","","","",""
"d3-animate-choice","22","222530","0.0-22.0","1182","1124","17","Female","true","false","true","false","""event"",""trial"",""time""
""fullscreenenter"",""5"",""66827""
","
","
","""event"",""trial"",""time""
""fullscreenenter"",""5"",""66827""
","
","362","","49","","","3000","1","","","images/tutyellowplanet.jpg","null","images/tutalien3","null","images/tutalien3","images/t.png","NA","practice","null","","","",""
"d3-animate-choice","23","224889","0.0-23.0","1182","1124","17","Female","true","false","true","false","""event"",""trial"",""time""
""fullscreenenter"",""5"",""66827""
","
","
","""event"",""trial"",""time""
""fullscreenenter"",""5"",""66827""
","
","354","","49","","","3000","1","","","images/tutyellowplanet.jpg","null","images/tutalien3","null","images/tutalien3","images/t.png","NA","practice","null","","","",""
"d3-animate-choice","24","227191","0.0-24.0","1182","1124","17","Female","true","false","true","false","""event"",""trial"",""time""
""fullscreenenter"",""5"",""66827""
","
","
","""event"",""trial"",""time""
""fullscreenenter"",""5"",""66827""
","
","298","","49","","","3000","1","2228.2999999998137","49","images/tutyellowplanet.jpg","null","images/tutalien3","null","images/tutalien3","images/t.png","NA","practice","null","","","",""
"d3-animate-choice","25","229949","0.0-25.0","1182","1124","17","Female","true","false","true","false","""event"",""trial"",""time""
""fullscreenenter"",""5"",""66827""
","
","
","""event"",""trial"",""time""
""fullscreenenter"",""5"",""66827""
","
","754.3999999994412","","49","","","3000","1","","","images/tutyellowplanet.jpg","null","images/tutalien3","null","images/tutalien3","images/t.png","NA","practice","null","","","",""
"d3-animate-choice","26","232570","0.0-26.0","1182","1124","17","Female","true","false","true","false","""event"",""trial"",""time""
""fullscreenenter"",""5"",""66827""
","
","
","""event"",""trial"",""time""
""fullscreenenter"",""5"",""66827""
","
","617.1999999992549","","49","","","3000","1","","","images/tutyellowplanet.jpg","null","images/tutalien3","null","images/tutalien3","images/t.png","NA","practice","null","","","",""
"d3-animate-choice","27","235056","0.0-27.0","1182","1124","17","Female","true","false","true","false","""event"",""trial"",""time""
""fullscreenenter"",""5"",""66827""
","
","
","""event"",""trial"",""time""
""fullscreenenter"",""5"",""66827""
","
","481.70000000018626","","49","","","3000","1","","","images/tutyellowplanet.jpg","null","images/tutalien3","null","images/tutalien3","images/t.png","NA","practice","null","","","",""
"d3-animate-choice","28","238035","0.0-28.0","1182","1124","17","Female","true","false","true","false","""event"",""trial"",""time""
""fullscreenenter"",""5"",""66827""
","
","
","""event"",""trial"",""time""
""fullscreenenter"",""5"",""66827""
","
","974","","49","","","3000","1","","","images/tutyellowplanet.jpg","null","images/tutalien3","null","images/tutalien3","images/t.png","NA","practice","null","","","",""
"d3-animate-choice","29","240417","0.0-29.0","1182","1124","17","Female","true","false","true","false","""event"",""trial"",""time""
""fullscreenenter"",""5"",""66827""
","
","
","""event"",""trial"",""time""
""fullscreenenter"",""5"",""66827""
","
","378.5","","49","","","3000","1","","","images/tutyellowplanet.jpg","null","images/tutalien3","null","images/tutalien3","images/t.png","NA","practice","null","","","",""
"d3-instructions","30","254637","0.0-30.0","1182","1124","17","Female","true","false","true","false","""event"",""trial"",""time""
""fullscreenenter"",""5"",""66827""
","
","
","""event"",""trial"",""time""
""fullscreenenter"",""5"",""66827""
","
","","","","","","","","","","","","","","","","","","","","","",""
"d3-instructions","31","267474","0.0-31.0","1182","1124","17","Female","true","false","true","false","""event"",""trial"",""time""
""fullscreenenter"",""5"",""66827""
","
","
","""event"",""trial"",""time""
""fullscreenenter"",""5"",""66827""
","
","","","","","","","","","","","","","","","","","","","","","",""
"d3-instructions","32","279334","0.0-32.0","1182","1124","17","Female","true","false","true","false","""event"",""trial"",""time""
""fullscreenenter"",""5"",""66827""
","
","
","""event"",""trial"",""time""
""fullscreenenter"",""5"",""66827""
","
","","","","","","","","","","","","","","","","","","","","","",""
"d3-instructions","33","308382","0.0-33.0","1182","1124","17","Female","true","false","true","false","""event"",""trial"",""time""
""fullscreenenter"",""5"",""66827""
","
","
","""event"",""trial"",""time""
""fullscreenenter"",""5"",""66827""
","
","","","","","","","","","","","","","","","","","","","","","",""
"d3-animate-choice","34","311808","0.0-34.0","1182","1124","17","Female","true","false","true","false","""event"",""trial"",""time""
""fullscreenenter"",""5"",""66827""
","
","
","""event"",""trial"",""time""
""fullscreenenter"",""5"",""66827""
","
","1421.5","","48","","","3000","1","","","images/tutgreenplanet.jpg","images/tutalien1","images/tutalien2","null","images/tutalien1","images/nothing.png","NA","practice","null","","","",""
"d3-animate-choice","35","315528","0.0-35.0","1182","1124","17","Female","true","false","true","false","""event"",""trial"",""time""
""fullscreenenter"",""5"",""66827""
","
","
","""event"",""trial"",""time""
""fullscreenenter"",""5"",""66827""
","
","1716.4000000003725","","48","","","3000","1","","","images/tutgreenplanet.jpg","images/tutalien1","images/tutalien2","null","images/tutalien1","images/nothing.png","NA","practice","null","","","",""
"d3-animate-choice","36","318374","0.0-36.0","1182","1124","17","Female","true","false","true","false","""event"",""trial"",""time""
""fullscreenenter"",""5"",""66827""
","
","
","""event"",""trial"",""time""
""fullscreenenter"",""5"",""66827""
","
","840.8999999994412","","49","","","3000","1","","","images/tutgreenplanet.jpg","images/tutalien1","images/tutalien2","null","images/tutalien2","images/t.png","NA","practice","null","","","",""
"d3-animate-choice","37","321392","0.0-37.0","1182","1124","17","Female","true","false","true","false","""event"",""trial"",""time""
""fullscreenenter"",""5"",""66827""
","
","
","""event"",""trial"",""time""
""fullscreenenter"",""5"",""66827""
","
","1014.2999999998137","","49","","","3000","1","","","images/tutgreenplanet.jpg","images/tutalien1","images/tutalien2","null","images/tutalien2","images/t.png","NA","practice","null","","","",""
"d3-animate-choice","38","323784","0.0-38.0","1182","1124","17","Female","true","false","true","false","""event"",""trial"",""time""
""fullscreenenter"",""5"",""66827""
","
","
","""event"",""trial"",""time""
""fullscreenenter"",""5"",""66827""
","
","388.09999999962747","","49","","","3000","1","","","images/tutgreenplanet.jpg","images/tutalien1","images/tutalien2","null","images/tutalien2","images/t.png","NA","practice","null","","","",""
"d3-animate-choice","39","326329","0.0-39.0","1182","1124","17","Female","true","false","true","false","""event"",""trial"",""time""
""fullscreenenter"",""5"",""66827""
","
","
","""event"",""trial"",""time""
""fullscreenenter"",""5"",""66827""
","
","540.5999999996275","","49","","","3000","1","","","images/tutgreenplanet.jpg","images/tutalien1","images/tutalien2","null","images/tutalien2","images/t.png","NA","practice","null","","","",""
"d3-animate-choice","40","328893","0.0-40.0","1182","1124","17","Female","true","false","true","false","""event"",""trial"",""time""
""fullscreenenter"",""5"",""66827""
","
","
","""event"",""trial"",""time""
""fullscreenenter"",""5"",""66827""
","
","559.4000000003725","","49","","","3000","1","","","images/tutgreenplanet.jpg","images/tutalien1","images/tutalien2","null","images/tutalien2","images/t.png","NA","practice","null","","","",""
"d3-animate-choice","41","331331","0.0-41.0","1182","1124","17","Female","true","false","true","false","""event"",""trial"",""time""
""fullscreenenter"",""5"",""66827""
","
","
","""event"",""trial"",""time""
""fullscreenenter"",""5"",""66827""
","
","433.90000000037253","","48","","","3000","1","","","images/tutgreenplanet.jpg","images/tutalien1","images/tutalien2","null","images/tutalien1","images/nothing.png","NA","practice","null","","","",""
"d3-animate-choice","42","333679","0.0-42.0","1182","1124","17","Female","true","false","true","false","""event"",""trial"",""time""
""fullscreenenter"",""5"",""66827""
","
","
","""event"",""trial"",""time""
""fullscreenenter"",""5"",""66827""
","
","344.6000000005588","","49","","","3000","1","","","images/tutgreenplanet.jpg","images/tutalien1","images/tutalien2","null","images/tutalien2","images/t.png","NA","practice","null","","","",""
"d3-animate-choice","43","336217","0.0-43.0","1182","1124","17","Female","true","false","true","false","""event"",""trial"",""time""
""fullscreenenter"",""5"",""66827""
","
","
","""event"",""trial"",""time""
""fullscreenenter"",""5"",""66827""
","
","533.5999999996275","","49","","","3000","1","","","images/tutgreenplanet.jpg","images/tutalien1","images/tutalien2","null","images/tutalien2","images/nothing.png","NA","practice","null","","","",""
"d3-instructions","44","350397","0.0-44.0","1182","1124","17","Female","true","false","true","false","""event"",""trial"",""time""
""fullscreenenter"",""5"",""66827""
","
","
","""event"",""trial"",""time""
""fullscreenenter"",""5"",""66827""
","
","","","","","","","","","","","","","","","","","","","","","",""
"d3-instructions","45","364531","0.0-45.0","1182","1124","17","Female","true","false","true","false","""event"",""trial"",""time""
""fullscreenenter"",""5"",""66827""
","
","
","""event"",""trial"",""time""
""fullscreenenter"",""5"",""66827""
","
","","","","","","","","","","","","","","","","","","","","","",""
"d3-instructions","46","371149","0.0-46.0","1182","1124","17","Female","true","false","true","false","""event"",""trial"",""time""
""fullscreenenter"",""5"",""66827""
","
","
","""event"",""trial"",""time""
""fullscreenenter"",""5"",""66827""
","
","","","","","","","","","","","","","","","","","","","","","",""
"d3-instructions","47","391900","0.0-47.0","1182","1124","17","Female","true","false","true","false","""event"",""trial"",""time""
""fullscreenenter"",""5"",""66827""
","
","
","""event"",""trial"",""time""
""fullscreenenter"",""5"",""66827""
","
","","","","","","","","","","","","","","","","","","","","","",""
"d3-instructions","48","405134","0.0-48.0","1182","1124","17","Female","true","false","true","false","""event"",""trial"",""time""
""fullscreenenter"",""5"",""66827""
","
","
","""event"",""trial"",""time""
""fullscreenenter"",""5"",""66827""
","
","","","","","","","","","","","","","","","","","","","","","",""
"d3-instructions","49","420923","0.0-49.0","1182","1124","17","Female","true","false","true","false","""event"",""trial"",""time""
""fullscreenenter"",""5"",""66827""
","
","
","""event"",""trial"",""time""
""fullscreenenter"",""5"",""66827""
","
","","","","","","","","","","","","","","","","","","","","","",""
"d3-instructions","50","438150","0.0-50.0","1182","1124","17","Female","true","false","true","false","""event"",""trial"",""time""
""fullscreenenter"",""5"",""66827""
","
","
","""event"",""trial"",""time""
""fullscreenenter"",""5"",""66827""
","
","","","","","","","","","","","","","","","","","","","","","",""
"d3-instructions","51","448244","0.0-51.0","1182","1124","17","Female","true","false","true","false","""event"",""trial"",""time""
""fullscreenenter"",""5"",""66827""
","
","
","""event"",""trial"",""time""
""fullscreenenter"",""5"",""66827""
","
","","","","","","","","","","","","","","","","","","","","","",""
"d3-instructions","52","451542","0.0-52.0","1182","1124","17","Female","true","false","true","false","""event"",""trial"",""time""
""fullscreenenter"",""5"",""66827""
","
","
","""event"",""trial"",""time""
""fullscreenenter"",""5"",""66827""
","
","","","","","","","","","","","","","","","","","","","","","",""
"d3-instructions","53","465719","0.0-53.0","1182","1124","17","Female","true","false","true","false","""event"",""trial"",""time""
""fullscreenenter"",""5"",""66827""
","
","
","""event"",""trial"",""time""
""fullscreenenter"",""5"",""66827""
","
","","","","","","","","","","","","","","","","","","","","","",""
"d3-instructions","54","530332","0.0-54.0","1182","1124","17","Female","true","false","true","false","""event"",""trial"",""time""
""fullscreenenter"",""5"",""66827""
","
","
","""event"",""trial"",""time""
""fullscreenenter"",""5"",""66827""
","
","","","","","","","","","","","","","","","","","","","","","",""
"d3-instructions","55","543886","0.0-55.0","1182","1124","17","Female","true","false","true","false","""event"",""trial"",""time""
""fullscreenenter"",""5"",""66827""
","
","
","""event"",""trial"",""time""
""fullscreenenter"",""5"",""66827""
","
","","","","","","","","","","","","","","","","","","","","","",""
"d3-instructions","56","558052","0.0-56.0","1182","1124","17","Female","true","false","true","false","""event"",""trial"",""time""
""fullscreenenter"",""5"",""66827""
","
","
","""event"",""trial"",""time""
""fullscreenenter"",""5"",""66827""
","
","","","","","","","","","","","","","","","","","","","","","",""
"d3-instructions","57","568853","0.0-57.0","1182","1124","17","Female","true","false","true","false","""event"",""trial"",""time""
""fullscreenenter"",""5"",""66827""
","
","
","""event"",""trial"",""time""
""fullscreenenter"",""5"",""66827""
","
","","","","","","","","","","","","","","","","","","","","","",""
"d3-instructions","58","580431","0.0-58.0","1182","1124","17","Female","true","false","true","false","""event"",""trial"",""time""
""fullscreenenter"",""5"",""66827""
","
","
","""event"",""trial"",""time""
""fullscreenenter"",""5"",""66827""
","
","","","","","","","","","","","","","","","","","","","","","",""
"d3-instructions","59","586616","0.0-59.0","1182","1124","17","Female","true","false","true","false","""event"",""trial"",""time""
""fullscreenenter"",""5"",""66827""
","
","
","""event"",""trial"",""time""
""fullscreenenter"",""5"",""66827""
","
","","","","","","","","","","","","","","","","","","","","","",""
"d3-instructions","60","594236","0.0-60.0","1182","1124","17","Female","true","false","true","false","""event"",""trial"",""time""
""fullscreenenter"",""5"",""66827""
","
","
","""event"",""trial"",""time""
""fullscreenenter"",""5"",""66827""
","
","","","","","","","","","","","","","","","","","","","","","",""
"d3-animate-choice","61","596916","0.0-61.0-0.0","1182","1124","17","Female","true","false","true","false","""event"",""trial"",""time""
""fullscreenenter"",""5"",""66827""
","
","
","""event"",""trial"",""time""
""fullscreenenter"",""5"",""66827""
","
","672.8999999994412","","49","","","3000","1","","","images/earth.jpg","images/tutrocket1","images/tutrocket2","null","images/tutrocket2","","1","practice","null","1","","",""
"d3-animate-choice","62","600287","0.0-61.0-1.0","1182","1124","17","Female","true","false","true","false","""event"",""trial"",""time""
""fullscreenenter"",""5"",""66827""
","
","
","""event"",""trial"",""time""
""fullscreenenter"",""5"",""66827""
","
","1361.7999999998137","","49","","","3000","1","","","images/tutgreenplanet.jpg","images/tutalien2","images/tutalien1","images/tutrocket2","images/tutalien1","images/nothing.png","2","practice","true","1","common","0","2022-03-22 17:09:29.011"
"two-step-fixation","63","601293","0.0-61.0-2.0","1182","1124","17","Female","true","false","true","false","""event"",""trial"",""time""
""fullscreenenter"",""5"",""66827""
","
","
","""event"",""trial"",""time""
""fullscreenenter"",""5"",""66827""
","
","","images/earth.jpg","","","","","","","","","","","","","","fixation","","","","","",""
"d3-animate-choice","64","603882","0.0-61.0-0.1","1182","1124","17","Female","true","false","true","false","""event"",""trial"",""time""
""fullscreenenter"",""5"",""66827""
","
","
","""event"",""trial"",""time""
""fullscreenenter"",""5"",""66827""
","
","569.5","","48","","","3000","1","","","images/earth.jpg","images/tutrocket1","images/tutrocket2","null","images/tutrocket1","","1","practice","null","2","","",""
"d3-animate-choice","65","606500","0.0-61.0-1.1","1182","1124","17","Female","true","false","true","false","""event"",""trial"",""time""
""fullscreenenter"",""5"",""66827""
","
","
","""event"",""trial"",""time""
""fullscreenenter"",""5"",""66827""
","
","611.8000000007451","","49","","","3000","1","","","images/tutyellowplanet.jpg","images/tutalien4","images/tutalien3","images/tutrocket1","images/tutalien3","images/t.png","2","practice","true","1","common","1","2022-03-22 17:09:35.224"
"two-step-fixation","66","607505","0.0-61.0-2.1","1182","1124","17","Female","true","false","true","false","""event"",""trial"",""time""
""fullscreenenter"",""5"",""66827""
","
","
","""event"",""trial"",""time""
""fullscreenenter"",""5"",""66827""
","
","","images/earth.jpg","","","","","","","","","","","","","","fixation","","","","","",""
"d3-animate-choice","67","609896","0.0-61.0-0.2","1182","1124","17","Female","true","false","true","false","""event"",""trial"",""time""
""fullscreenenter"",""5"",""66827""
","
","
","""event"",""trial"",""time""
""fullscreenenter"",""5"",""66827""
","
","384.79999999981374","","48","","","3000","1","","","images/earth.jpg","images/tutrocket1","images/tutrocket2","null","images/tutrocket1","","1","practice","null","2","","",""
"d3-animate-choice","68","612291","0.0-61.0-1.2","1182","1124","17","Female","true","false","true","false","""event"",""trial"",""time""
""fullscreenenter"",""5"",""66827""
","
","
","""event"",""trial"",""time""
""fullscreenenter"",""5"",""66827""
","
","388.09999999962747","","49","","","3000","1","","","images/tutyellowplanet.jpg","images/tutalien4","images/tutalien3","images/tutrocket1","images/tutalien3","images/t.png","2","practice","true","1","common","1","2022-03-22 17:09:41.015"
"two-step-fixation","69","613295","0.0-61.0-2.2","1182","1124","17","Female","true","false","true","false","""event"",""trial"",""time""
""fullscreenenter"",""5"",""66827""
","
","
","""event"",""trial"",""time""
""fullscreenenter"",""5"",""66827""
","
","","images/earth.jpg","","","","","","","","","","","","","","fixation","","","","","",""
"d3-animate-choice","70","615823","0.0-61.0-0.3","1182","1124","17","Female","true","false","true","false","""event"",""trial"",""time""
""fullscreenenter"",""5"",""66827""
","
","
","""event"",""trial"",""time""
""fullscreenenter"",""5"",""66827""
","
","522.0999999996275","","49","","","3000","1","","","images/earth.jpg","images/tutrocket1","images/tutrocket2","null","images/tutrocket2","","1","practice","null","1","","",""
"d3-animate-choice","71","618083","0.0-61.0-1.3","1182","1124","17","Female","true","false","true","false","""event"",""trial"",""time""
""fullscreenenter"",""5"",""66827""
","
","
","""event"",""trial"",""time""
""fullscreenenter"",""5"",""66827""
","
","254.8999999994412","","48","","","3000","1","","","images/tutyellowplanet.jpg","images/tutalien4","images/tutalien3","images/tutrocket2","images/tutalien4","images/nothing.png","2","practice","false","2","rare","0","2022-03-22 17:09:46.807"
"two-step-fixation","72","619087","0.0-61.0-2.3","1182","1124","17","Female","true","false","true","false","""event"",""trial"",""time""
""fullscreenenter"",""5"",""66827""
","
","
","""event"",""trial"",""time""
""fullscreenenter"",""5"",""66827""
","
","","images/earth.jpg","","","","","","","","","","","","","","fixation","","","","","",""
"d3-animate-choice","73","621229","0.0-61.0-0.4","1182","1124","17","Female","true","false","true","false","""event"",""trial"",""time""
""fullscreenenter"",""5"",""66827""
","
","
","""event"",""trial"",""time""
""fullscreenenter"",""5"",""66827""
","
","136.59999999962747","","48","","","3000","1","461","48","images/earth.jpg","images/tutrocket1","images/tutrocket2","null","images/tutrocket1","","1","practice","null","2","","",""
"d3-animate-choice","74","623654","0.0-61.0-1.4","1182","1124","17","Female","true","false","true","false","""event"",""trial"",""time""
""fullscreenenter"",""5"",""66827""
","
","
","""event"",""trial"",""time""
""fullscreenenter"",""5"",""66827""
","
","419.90000000037253","","49","","","3000","1","","","images/tutyellowplanet.jpg","images/tutalien4","images/tutalien3","images/tutrocket1","images/tutalien3","images/nothing.png","2","practice","true","1","common","0","2022-03-22 17:09:52.379"
"two-step-fixation","75","624658","0.0-61.0-2.4","1182","1124","17","Female","true","false","true","false","""event"",""trial"",""time""
""fullscreenenter"",""5"",""66827""
","
","
","""event"",""trial"",""time""
""fullscreenenter"",""5"",""66827""
","
","","images/earth.jpg","","","","","","","","","","","","","","fixation","","","","","",""
"d3-animate-choice","76","627027","0.0-61.0-0.5","1182","1124","17","Female","true","false","true","false","""event"",""trial"",""time""
""fullscreenenter"",""5"",""66827""
","
","
","""event"",""trial"",""time""
""fullscreenenter"",""5"",""66827""
","
","365","","49","","","3000","1","","","images/earth.jpg","images/tutrocket1","images/tutrocket2","null","images/tutrocket2","","1","practice","null","1","","",""
"d3-animate-choice","77","629594","0.0-61.0-1.5","1182","1124","17","Female","true","false","true","false","""event"",""trial"",""time""
""fullscreenenter"",""5"",""66827""
","
","
","""event"",""trial"",""time""
""fullscreenenter"",""5"",""66827""
","
","562.2999999998137","","48","","","3000","1","","","images/tutyellowplanet.jpg","images/tutalien4","images/tutalien3","images/tutrocket2","images/tutalien4","images/t.png","2","practice","false","2","rare","1","2022-03-22 17:09:58.318"
"two-step-fixation","78","630598","0.0-61.0-2.5","1182","1124","17","Female","true","false","true","false","""event"",""trial"",""time""
""fullscreenenter"",""5"",""66827""
","
","
","""event"",""trial"",""time""
""fullscreenenter"",""5"",""66827""
","
","","images/earth.jpg","","","","","","","","","","","","","","fixation","","","","","",""
"d3-animate-choice","79","633125","0.0-61.0-0.6","1182","1124","17","Female","true","false","true","false","""event"",""trial"",""time""
""fullscreenenter"",""5"",""66827""
","
","
","""event"",""trial"",""time""
""fullscreenenter"",""5"",""66827""
","
","522.8999999994412","","49","","","3000","1","","","images/earth.jpg","images/tutrocket1","images/tutrocket2","null","images/tutrocket2","","1","practice","null","1","","",""
"d3-animate-choice","80","635790","0.0-61.0-1.6","1182","1124","17","Female","true","false","true","false","""event"",""trial"",""time""
""fullscreenenter"",""5"",""66827""
","
","
","""event"",""trial"",""time""
""fullscreenenter"",""5"",""66827""
","
","659.2999999998137","","49","","","3000","1","","","images/tutgreenplanet.jpg","images/tutalien2","images/tutalien1","images/tutrocket2","images/tutalien1","images/t.png","2","practice","true","1","common","1","2022-03-22 17:10:04.514"
"two-step-fixation","81","636793","0.0-61.0-2.6","1182","1124","17","Female","true","false","true","false","""event"",""trial"",""time""
""fullscreenenter"",""5"",""66827""
","
","
","""event"",""trial"",""time""
""fullscreenenter"",""5"",""66827""
","
","","images/earth.jpg","","","","","","","","","","","","","","fixation","","","","","",""
"d3-animate-choice","82","639285","0.0-61.0-0.7","1182","1124","17","Female","true","false","true","false","""event"",""trial"",""time""
""fullscreenenter"",""5"",""66827""
","
","
","""event"",""trial"",""time""
""fullscreenenter"",""5"",""66827""
","
","487.69999999925494","","49","","","3000","1","","","images/earth.jpg","images/tutrocket1","images/tutrocket2","null","images/tutrocket2","","1","practice","null","1","","",""
"d3-animate-choice","83","641653","0.0-61.0-1.7","1182","1124","17","Female","true","false","true","false","""event"",""trial"",""time""
""fullscreenenter"",""5"",""66827""
","
","
","""event"",""trial"",""time""
""fullscreenenter"",""5"",""66827""
","
","363.30000000074506","","49","","","3000","1","","","images/tutgreenplanet.jpg","images/tutalien2","images/tutalien1","images/tutrocket2","images/tutalien1","images/nothing.png","2","practice","true","1","common","0","2022-03-22 17:10:10.377"
"two-step-fixation","84","642656","0.0-61.0-2.7","1182","1124","17","Female","true","false","true","false","""event"",""trial"",""time""
""fullscreenenter"",""5"",""66827""
","
","
","""event"",""trial"",""time""
""fullscreenenter"",""5"",""66827""
","
","","images/earth.jpg","","","","","","","","","","","","","","fixation","","","","","",""
"d3-animate-choice","85","645098","0.0-61.0-0.8","1182","1124","17","Female","true","false","true","false","""event"",""trial"",""time""
""fullscreenenter"",""5"",""66827""
","
","
","""event"",""trial"",""time""
""fullscreenenter"",""5"",""66827""
","
","437","","48","","","3000","1","","","images/earth.jpg","images/tutrocket1","images/tutrocket2","null","images/tutrocket1","","1","practice","null","2","","",""
"d3-animate-choice","86","647614","0.0-61.0-1.8","1182","1124","17","Female","true","false","true","false","""event"",""trial"",""time""
""fullscreenenter"",""5"",""66827""
","
","
","""event"",""trial"",""time""
""fullscreenenter"",""5"",""66827""
","
","509.70000000018626","","49","","","3000","1","","","images/tutyellowplanet.jpg","images/tutalien4","images/tutalien3","images/tutrocket1","images/tutalien3","images/t.png","2","practice","true","1","common","1","2022-03-22 17:10:16.338"
"two-step-fixation","87","648618","0.0-61.0-2.8","1182","1124","17","Female","true","false","true","false","""event"",""trial"",""time""
""fullscreenenter"",""5"",""66827""
","
","
","""event"",""trial"",""time""
""fullscreenenter"",""5"",""66827""
","
","","images/earth.jpg","","","","","","","","","","","","","","fixation","","","","","",""
"d3-animate-choice","88","651068","0.0-61.0-0.9","1182","1124","17","Female","true","false","true","false","""event"",""trial"",""time""
""fullscreenenter"",""5"",""66827""
","
","
","""event"",""trial"",""time""
""fullscreenenter"",""5"",""66827""
","
","445.3999999994412","","48","","","3000","1","","","images/earth.jpg","images/tutrocket1","images/tutrocket2","null","images/tutrocket1","","1","practice","null","2","","",""
"d3-animate-choice","89","653574","0.0-61.0-1.9","1182","1124","17","Female","true","false","true","false","""event"",""trial"",""time""
""fullscreenenter"",""5"",""66827""
","
","
","""event"",""trial"",""time""
""fullscreenenter"",""5"",""66827""
","
","501.90000000037253","","49","","","3000","1","","","images/tutgreenplanet.jpg","images/tutalien2","images/tutalien1","images/tutrocket1","images/tutalien1","images/nothing.png","2","practice","false","1","rare","0","2022-03-22 17:10:22.298"
"two-step-fixation","90","654578","0.0-61.0-2.9","1182","1124","17","Female","true","false","true","false","""event"",""trial"",""time""
""fullscreenenter"",""5"",""66827""
","
","
","""event"",""trial"",""time""
""fullscreenenter"",""5"",""66827""
","
","","images/earth.jpg","","","","","","","","","","","","","","fixation","","","","","",""
"d3-animate-choice","91","657648","0.0-61.0-0.10","1182","1124","17","Female","true","false","true","false","""event"",""trial"",""time""
""fullscreenenter"",""5"",""66827""
","
","
","""event"",""trial"",""time""
""fullscreenenter"",""5"",""66827""
","
","1065.8999999994412","","48","","","3000","1","","","images/earth.jpg","images/tutrocket1","images/tutrocket2","null","images/tutrocket1","","1","practice","null","2","","",""
"d3-animate-choice","92","660006","0.0-61.0-1.10","1182","1124","17","Female","true","false","true","false","""event"",""trial"",""time""
""fullscreenenter"",""5"",""66827""
","
","
","""event"",""trial"",""time""
""fullscreenenter"",""5"",""66827""
","
","353.1000000005588","","49","","","3000","1","","","images/tutgreenplanet.jpg","images/tutalien2","images/tutalien1","images/tutrocket1","images/tutalien1","images/nothing.png","2","practice","false","1","rare","0","2022-03-22 17:10:28.730"
"two-step-fixation","93","661009","0.0-61.0-2.10","1182","1124","17","Female","true","false","true","false","""event"",""trial"",""time""
""fullscreenenter"",""5"",""66827""
","
","
","""event"",""trial"",""time""
""fullscreenenter"",""5"",""66827""
","
","","images/earth.jpg","","","","","","","","","","","","","","fixation","","","","","",""
"d3-animate-choice","94","663423","0.0-61.0-0.11","1182","1124","17","Female","true","false","true","false","""event"",""trial"",""time""
""fullscreenenter"",""5"",""66827""
","
","
","""event"",""trial"",""time""
""fullscreenenter"",""5"",""66827""
","
","408","","48","","","3000","1","","","images/earth.jpg","images/tutrocket1","images/tutrocket2","null","images/tutrocket1","","1","practice","null","2","","",""
"d3-animate-choice","95","665837","0.0-61.0-1.11","1182","1124","17","Female","true","false","true","false","""event"",""trial"",""time""
""fullscreenenter"",""5"",""66827""
","
","
","""event"",""trial"",""time""
""fullscreenenter"",""5"",""66827""
","
","409.59999999962747","","49","","","3000","1","","","images/tutyellowplanet.jpg","images/tutalien4","images/tutalien3","images/tutrocket1","images/tutalien3","images/nothing.png","2","practice","true","1","common","0","2022-03-22 17:10:34.562"
"two-step-fixation","96","666841","0.0-61.0-2.11","1182","1124","17","Female","true","false","true","false","""event"",""trial"",""time""
""fullscreenenter"",""5"",""66827""
","
","
","""event"",""trial"",""time""
""fullscreenenter"",""5"",""66827""
","
","","images/earth.jpg","","","","","","","","","","","","","","fixation","","","","","",""
"d3-animate-choice","97","669300","0.0-61.0-0.12","1182","1124","17","Female","true","false","true","false","""event"",""trial"",""time""
""fullscreenenter"",""5"",""66827""
","
","
","""event"",""trial"",""time""
""fullscreenenter"",""5"",""66827""
","
","453.8999999994412","","48","","","3000","1","","","images/earth.jpg","images/tutrocket1","images/tutrocket2","null","images/tutrocket1","","1","practice","null","2","","",""
"d3-animate-choice","98","671751","0.0-61.0-1.12","1182","1124","17","Female","true","false","true","false","""event"",""trial"",""time""
""fullscreenenter"",""5"",""66827""
","
","
","""event"",""trial"",""time""
""fullscreenenter"",""5"",""66827""
","
","446.29999999981374","","48","","","3000","1","","","images/tutyellowplanet.jpg","images/tutalien4","images/tutalien3","images/tutrocket1","images/tutalien4","images/t.png","2","practice","true","2","common","1","2022-03-22 17:10:40.475"
"two-step-fixation","99","672755","0.0-61.0-2.12","1182","1124","17","Female","true","false","true","false","""event"",""trial"",""time""
""fullscreenenter"",""5"",""66827""
","
","
","""event"",""trial"",""time""
""fullscreenenter"",""5"",""66827""
","
","","images/earth.jpg","","","","","","","","","","","","","","fixation","","","","","",""
"d3-animate-choice","100","674902","0.0-61.0-0.13","1182","1124","17","Female","true","false","true","false","""event"",""trial"",""time""
""fullscreenenter"",""5"",""66827""
","
","
","""event"",""trial"",""time""
""fullscreenenter"",""5"",""66827""
","
","143.8999999994412","","48","","","3000","1","","","images/earth.jpg","images/tutrocket1","images/tutrocket2","null","images/tutrocket1","","1","practice","null","2","","",""
"d3-animate-choice","101","677236","0.0-61.0-1.13","1182","1124","17","Female","true","false","true","false","""event"",""trial"",""time""
""fullscreenenter"",""5"",""66827""
","
","
","""event"",""trial"",""time""
""fullscreenenter"",""5"",""66827""
","
","328.5","","48","","","3000","1","","","images/tutyellowplanet.jpg","images/tutalien4","images/tutalien3","images/tutrocket1","images/tutalien4","images/nothing.png","2","practice","true","2","common","0","2022-03-22 17:10:45.960"
"two-step-fixation","102","678239","0.0-61.0-2.13","1182","1124","17","Female","true","false","true","false","""event"",""trial"",""time""
""fullscreenenter"",""5"",""66827""
","
","
","""event"",""trial"",""time""
""fullscreenenter"",""5"",""66827""
","
","","images/earth.jpg","","","","","","","","","","","","","","fixation","","","","","",""
"d3-animate-choice","103","680663","0.0-61.0-0.14","1182","1124","17","Female","true","false","true","false","""event"",""trial"",""time""
""fullscreenenter"",""5"",""66827""
","
","
","""event"",""trial"",""time""
""fullscreenenter"",""5"",""66827""
","
","420.29999999981374","","48","","","3000","1","1969.5999999996275","49","images/earth.jpg","images/tutrocket1","images/tutrocket2","null","images/tutrocket1","","1","practice","null","2","","",""
"d3-animate-choice","104","683037","0.0-61.0-1.14","1182","1124","17","Female","true","false","true","false","""event"",""trial"",""time""
""fullscreenenter"",""5"",""66827""
","
","
","""event"",""trial"",""time""
""fullscreenenter"",""5"",""66827""
","
","368.09999999962747","","49","","","3000","1","","","images/tutyellowplanet.jpg","images/tutalien4","images/tutalien3","images/tutrocket1","images/tutalien3","images/nothing.png","2","practice","true","1","common","0","2022-03-22 17:10:51.762"
"two-step-fixation","105","684041","0.0-61.0-2.14","1182","1124","17","Female","true","false","true","false","""event"",""trial"",""time""
""fullscreenenter"",""5"",""66827""
","
","
","""event"",""trial"",""time""
""fullscreenenter"",""5"",""66827""
","
","","images/earth.jpg","","","","","","","","","","","","","","fixation","","","","","",""
"d3-animate-choice","106","686465","0.0-61.0-0.15","1182","1124","17","Female","true","false","true","false","""event"",""trial"",""time""
""fullscreenenter"",""5"",""66827""
","
","
","""event"",""trial"",""time""
""fullscreenenter"",""5"",""66827""
","
","418.90000000037253","","48","","","3000","1","","","images/earth.jpg","images/tutrocket1","images/tutrocket2","null","images/tutrocket1","","1","practice","null","2","","",""
"d3-animate-choice","107","688908","0.0-61.0-1.15","1182","1124","17","Female","true","false","true","false","""event"",""trial"",""time""
""fullscreenenter"",""5"",""66827""
","
","
","""event"",""trial"",""time""
""fullscreenenter"",""5"",""66827""
","
","439","","49","","","3000","1","","","images/tutyellowplanet.jpg","images/tutalien4","images/tutalien3","images/tutrocket1","images/tutalien3","images/nothing.png","2","practice","true","1","common","0","2022-03-22 17:10:57.632"
"two-step-fixation","108","689911","0.0-61.0-2.15","1182","1124","17","Female","true","false","true","false","""event"",""trial"",""time""
""fullscreenenter"",""5"",""66827""
","
","
","""event"",""trial"",""time""
""fullscreenenter"",""5"",""66827""
","
","","images/earth.jpg","","","","","","","","","","","","","","fixation","","","","","",""
"d3-animate-choice","109","691916","0.0-61.0-0.16","1182","1124","17","Female","true","false","true","false","""event"",""trial"",""time""
""fullscreenenter"",""5"",""66827""
","
","
","""event"",""trial"",""time""
""fullscreenenter"",""5"",""66827""
","
","0.40000000037252903","","48","","","3000","1","1792.1000000005588","49","images/earth.jpg","images/tutrocket1","images/tutrocket2","null","images/tutrocket1","","1","practice","null","2","","",""
"d3-animate-choice","110","694615","0.0-61.0-1.16","1182","1124","17","Female","true","false","true","false","""event"",""trial"",""time""
""fullscreenenter"",""5"",""66827""
","
","
","""event"",""trial"",""time""
""fullscreenenter"",""5"",""66827""
","
","694.6000000005588","","49","","","3000","1","","","images/tutgreenplanet.jpg","images/tutalien2","images/tutalien1","images/tutrocket1","images/tutalien1","images/nothing.png","2","practice","false","1","rare","0","2022-03-22 17:11:03.339"
"two-step-fixation","111","695619","0.0-61.0-2.16","1182","1124","17","Female","true","false","true","false","""event"",""trial"",""time""
""fullscreenenter"",""5"",""66827""
","
","
","""event"",""trial"",""time""
""fullscreenenter"",""5"",""66827""
","
","","images/earth.jpg","","","","","","","","","","","","","","fixation","","","","","",""
"d3-animate-choice","112","698210","0.0-61.0-0.17","1182","1124","17","Female","true","false","true","false","""event"",""trial"",""time""
""fullscreenenter"",""5"",""66827""
","
","
","""event"",""trial"",""time""
""fullscreenenter"",""5"",""66827""
","
","586.5","","48","","","3000","1","","","images/earth.jpg","images/tutrocket1","images/tutrocket2","null","images/tutrocket1","","1","practice","null","2","","",""
"d3-animate-choice","113","701450","0.0-61.0-1.17","1182","1124","17","Female","true","false","true","false","""event"",""trial"",""time""
""fullscreenenter"",""5"",""66827""
","
","
","""event"",""trial"",""time""
""fullscreenenter"",""5"",""66827""
","
","1235.6000000005588","","49","","","3000","1","","","images/tutyellowplanet.jpg","images/tutalien4","images/tutalien3","images/tutrocket1","images/tutalien3","images/nothing.png","2","practice","true","1","common","0","2022-03-22 17:11:10.174"
"two-step-fixation","114","702454","0.0-61.0-2.17","1182","1124","17","Female","true","false","true","false","""event"",""trial"",""time""
""fullscreenenter"",""5"",""66827""
","
","
","""event"",""trial"",""time""
""fullscreenenter"",""5"",""66827""
","
","","images/earth.jpg","","","","","","","","","","","","","","fixation","","","","","",""
"d3-animate-choice","115","705075","0.0-61.0-0.18","1182","1124","17","Female","true","false","true","false","""event"",""trial"",""time""
""fullscreenenter"",""5"",""66827""
","
","
","""event"",""trial"",""time""
""fullscreenenter"",""5"",""66827""
","
","616.6000000005588","","49","","","3000","1","","","images/earth.jpg","images/tutrocket1","images/tutrocket2","null","images/tutrocket2","","1","practice","null","1","","",""
"d3-animate-choice","116","707471","0.0-61.0-1.18","1182","1124","17","Female","true","false","true","false","""event"",""trial"",""time""
""fullscreenenter"",""5"",""66827""
","
","
","""event"",""trial"",""time""
""fullscreenenter"",""5"",""66827""
","
","391.59999999962747","","49","","","3000","1","","","images/tutgreenplanet.jpg","images/tutalien2","images/tutalien1","images/tutrocket2","images/tutalien1","images/nothing.png","2","practice","true","1","common","0","2022-03-22 17:11:16.195"
"two-step-fixation","117","708474","0.0-61.0-2.18","1182","1124","17","Female","true","false","true","false","""event"",""trial"",""time""
""fullscreenenter"",""5"",""66827""
","
","
","""event"",""trial"",""time""
""fullscreenenter"",""5"",""66827""
","
","","images/earth.jpg","","","","","","","","","","","","","","fixation","","","","","",""
"d3-animate-choice","118","711142","0.0-61.0-0.19","1182","1124","17","Female","true","false","true","false","""event"",""trial"",""time""
""fullscreenenter"",""5"",""66827""
","
","
","""event"",""trial"",""time""
""fullscreenenter"",""5"",""66827""
","
","662.7999999998137","","49","","","3000","1","","","images/earth.jpg","images/tutrocket1","images/tutrocket2","null","images/tutrocket2","","1","practice","null","1","","",""
"d3-animate-choice","119","713574","0.0-61.0-1.19","1182","1124","17","Female","true","false","true","false","""event"",""trial"",""time""
""fullscreenenter"",""5"",""66827""
","
","
","""event"",""trial"",""time""
""fullscreenenter"",""5"",""66827""
","
","427.29999999981374","","48","","","3000","1","","","images/tutgreenplanet.jpg","images/tutalien2","images/tutalien1","images/tutrocket2","images/tutalien2","images/nothing.png","2","practice","true","2","common","0","2022-03-22 17:11:22.298"
"two-step-fixation","120","714578","0.0-61.0-2.19","1182","1124","17","Female","true","false","true","false","""event"",""trial"",""time""
""fullscreenenter"",""5"",""66827""
","
","
","""event"",""trial"",""time""
""fullscreenenter"",""5"",""66827""
","
","","images/earth.jpg","","","","","","","","","","","","","","fixation","","","","","",""
"d3-instructions","121","722649","0.0-62.0","1182","1124","17","Female","true","false","true","false","""event"",""trial"",""time""
""fullscreenenter"",""5"",""66827""
","
","
","""event"",""trial"",""time""
""fullscreenenter"",""5"",""66827""
","
","","","","","","","","","","","","","","","","","","","","","",""
"audio-keyboard-response","122","727264","0.0-63.0","1182","1124","17","Female","true","false","true","false","""event"",""trial"",""time""
""fullscreenenter"",""5"",""66827""
","
","
","""event"",""trial"",""time""
""fullscreenenter"",""5"",""66827""
","
","4619","audio/instructions/treasure_feedback.wav","32","","","","","","","","","","","","","","","","","","",""
"d3-instructions","123","748026","0.0-64.0","1182","1124","17","Female","true","false","true","false","""event"",""trial"",""time""
""fullscreenenter"",""5"",""66827""
","
","
","""event"",""trial"",""time""
""fullscreenenter"",""5"",""66827""
","
","","","","","","","","","","","","","","","","","","","","","",""
"d3-instructions","124","765049","0.0-65.0","1182","1124","17","Female","true","false","true","false","""event"",""trial"",""time""
""fullscreenenter"",""5"",""66827""
","
","
","""event"",""trial"",""time""
""fullscreenenter"",""5"",""66827""
","
","","","","","","","","","","","","","","","","","","","","","",""
"d3-instructions","125","790989","0.0-66.0","1182","1124","17","Female","true","false","true","false","""event"",""trial"",""time""
""fullscreenenter"",""5"",""66827""
","
","
","""event"",""trial"",""time""
""fullscreenenter"",""5"",""66827""
","
","","","","","","","","","","","","","","","","","","","","","",""
"d3-instructions","126","942730","0.0-67.0","1182","1124","17","Female","true","false","true","false","""event"",""trial"",""time""
""fullscreenenter"",""5"",""66827""
","
","
","""event"",""trial"",""time""
""fullscreenenter"",""5"",""66827""
","
","","","","","","","","","","","","","","","","","","","","","",""
"d3-instructions","127","949187","0.0-68.0","1182","1124","17","Female","true","false","true","false","""event"",""trial"",""time""
""fullscreenenter"",""5"",""66827""
","
","
","""event"",""trial"",""time""
""fullscreenenter"",""5"",""66827""
","
","","","","","","","","","","","","","","","","","","","","","",""
"instructions-quiz","128","954129","0.0-69.0","1182","1124","17","Female","true","false","true","false","""event"",""trial"",""time""
""fullscreenenter"",""5"",""66827""
","
","
","""event"",""trial"",""time""
""fullscreenenter"",""5"",""66827""
","
","4939.299999999814","audio/quiz/Q1_Prompt.wav","","1","","","","","","","","","","","","","","","","","",""
"audio-keyboard-response","129","963299","0.0-70.0","1182","1124","17","Female","true","false","true","false","""event"",""trial"",""time""
""fullscreenenter"",""5"",""66827""
","
","
","""event"",""trial"",""time""
""fullscreenenter"",""5"",""66827""
","
","null","audio/quiz/Q1_Correct.wav","null","","","","","","","","","","","","","","","","","","",""
"instructions-quiz","130","968529","0.0-71.0","1182","1124","17","Female","true","false","true","false","""event"",""trial"",""time""
""fullscreenenter"",""5"",""66827""
","
","
","""event"",""trial"",""time""
""fullscreenenter"",""5"",""66827""
","
","5227.899999999441","audio/quiz/Q2_Prompt.wav","","1","","","","","","","","","","","","","","","","","",""
"audio-keyboard-response","131","982605","0.0-72.0","1182","1124","17","Female","true","false","true","false","""event"",""trial"",""time""
""fullscreenenter"",""5"",""66827""
","
","
","""event"",""trial"",""time""
""fullscreenenter"",""5"",""66827""
","
","null","audio/quiz/Q2_Incorrect.wav","null","","","","","","","","","","","","","","","","","","",""
"instructions-quiz","132","986829","0.0-73.0","1182","1124","17","Female","true","false","true","false","""event"",""trial"",""time""
""fullscreenenter"",""5"",""66827""
","
","
","""event"",""trial"",""time""
""fullscreenenter"",""5"",""66827""
","
","4220.899999999441","audio/quiz/Q3_Prompt.wav","","1","","","","","","","","","","","","","","","","","",""
"audio-keyboard-response","133","992632","0.0-74.0","1182","1124","17","Female","true","false","true","false","""event"",""trial"",""time""
""fullscreenenter"",""5"",""66827""
","
","
","""event"",""trial"",""time""
""fullscreenenter"",""5"",""66827""
","
","null","audio/quiz/Q3_Correct.wav","null","","","","","","","","","","","","","","","","","","",""
"d3-instructions","134","1003216","0.0-75.0","1182","1124","17","Female","true","false","true","false","""event"",""trial"",""time""
""fullscreenenter"",""5"",""66827""
","
","
","""event"",""trial"",""time""
""fullscreenenter"",""5"",""66827""
","
","","","","","","","","","","","","","","","","","","","","","",""
"d3-animate-choice","135","1005960","0.0-76.0-0.0","1182","1124","17","Female","true","false","true","false","""event"",""trial"",""time""
""fullscreenenter"",""5"",""66827""
","
","
","""event"",""trial"",""time""
""fullscreenenter"",""5"",""66827""
","
","737.7999999998137","","49","","","3000","1","","","images/earth.jpg","images/rocket2","images/rocket1","null","images/rocket1","","1","real","null","1","","",""
"d3-animate-choice","136","1008338","0.0-76.0-1.0","1182","1124","17","Female","true","false","true","false","""event"",""trial"",""time""
""fullscreenenter"",""5"",""66827""
","
","
","""event"",""trial"",""time""
""fullscreenenter"",""5"",""66827""
","
","371.70000000018626","","49","","","3000","1","","","images/purpleplanet.jpg","images/alien4","images/alien3","images/rocket1","images/alien3","images/nothing.png","2","real","true","1","common","0","2022-03-22 17:16:17.062"
"two-step-fixation","137","1009343","0.0-76.0-2.0","1182","1124","17","Female","true","false","true","false","""event"",""trial"",""time""
""fullscreenenter"",""5"",""66827""
","
","
","""event"",""trial"",""time""
""fullscreenenter"",""5"",""66827""
","
","","images/earth.jpg","","","","","","","","","","","","","","fixation","","","","","",""
"d3-animate-choice","138","1012308","0.0-76.0-0.1","1182","1124","17","Female","true","false","true","false","""event"",""trial"",""time""
""fullscreenenter"",""5"",""66827""
","
","
","""event"",""trial"",""time""
""fullscreenenter"",""5"",""66827""
","
","959","","48","","","3000","1","","","images/earth.jpg","images/rocket2","images/rocket1","null","images/rocket2","","1","real","null","2","","",""
"d3-animate-choice","139","1014600","0.0-76.0-1.1","1182","1124","17","Female","true","false","true","false","""event"",""trial"",""time""
""fullscreenenter"",""5"",""66827""
","
","
","""event"",""trial"",""time""
""fullscreenenter"",""5"",""66827""
","
","285.70000000018626","","49","","","3000","1","","","images/purpleplanet.jpg","images/alien4","images/alien3","images/rocket2","images/alien3","images/nothing.png","2","real","false","1","rare","0","2022-03-22 17:16:23.324"
"two-step-fixation","140","1015604","0.0-76.0-2.1","1182","1124","17","Female","true","false","true","false","""event"",""trial"",""time""
""fullscreenenter"",""5"",""66827""
","
","
","""event"",""trial"",""time""
""fullscreenenter"",""5"",""66827""
","
","","images/earth.jpg","","","","","","","","","","","","","","fixation","","","","","",""
"d3-animate-choice","141","1017912","0.0-76.0-0.2","1182","1124","17","Female","true","false","true","false","""event"",""trial"",""time""
""fullscreenenter"",""5"",""66827""
","
","
","""event"",""trial"",""time""
""fullscreenenter"",""5"",""66827""
","
","302","","48","","","3000","1","","","images/earth.jpg","images/rocket2","images/rocket1","null","images/rocket2","","1","real","null","2","","",""
"d3-animate-choice","142","1020653","0.0-76.0-1.2","1182","1124","17","Female","true","false","true","false","""event"",""trial"",""time""
""fullscreenenter"",""5"",""66827""
","
","
","""event"",""trial"",""time""
""fullscreenenter"",""5"",""66827""
","
","736.3999999994412","","48","","","3000","1","","","images/redplanet1.jpg","images/alien2","images/alien1","images/rocket2","images/alien2","images/t.png","2","real","true","2","common","1","2022-03-22 17:16:29.377"
"two-step-fixation","143","1021658","0.0-76.0-2.2","1182","1124","17","Female","true","false","true","false","""event"",""trial"",""time""
""fullscreenenter"",""5"",""66827""
","
","
","""event"",""trial"",""time""
""fullscreenenter"",""5"",""66827""
","
","","images/earth.jpg","","","","","","","","","","","","","","fixation","","","","","",""
"d3-animate-choice","144","1023999","0.0-76.0-0.3","1182","1124","17","Female","true","false","true","false","""event"",""trial"",""time""
""fullscreenenter"",""5"",""66827""
","
","
","""event"",""trial"",""time""
""fullscreenenter"",""5"",""66827""
","
","336.30000000074506","","49","","","3000","1","","","images/earth.jpg","images/rocket2","images/rocket1","null","images/rocket1","","1","real","null","1","","",""
"d3-animate-choice","145","1026911","0.0-76.0-1.3","1182","1124","17","Female","true","false","true","false","""event"",""trial"",""time""
""fullscreenenter"",""5"",""66827""
","
","
","""event"",""trial"",""time""
""fullscreenenter"",""5"",""66827""
","
","905.7000000001863","","48","","","3000","1","","","images/purpleplanet.jpg","images/alien4","images/alien3","images/rocket1","images/alien4","images/t.png","2","real","true","2","common","1","2022-03-22 17:16:35.635"
"two-step-fixation","146","1027916","0.0-76.0-2.3","1182","1124","17","Female","true","false","true","false","""event"",""trial"",""time""
""fullscreenenter"",""5"",""66827""
","
","
","""event"",""trial"",""time""
""fullscreenenter"",""5"",""66827""
","
","","images/earth.jpg","","","","","","","","","","","","","","fixation","","","","","",""
"d3-animate-choice","147","1030271","0.0-76.0-0.4","1182","1124","17","Female","true","false","true","false","""event"",""trial"",""time""
""fullscreenenter"",""5"",""66827""
","
","
","""event"",""trial"",""time""
""fullscreenenter"",""5"",""66827""
","
","349.70000000018626","","49","","","3000","1","","","images/earth.jpg","images/rocket2","images/rocket1","null","images/rocket1","","1","real","null","1","","",""
"d3-animate-choice","148","1032730","0.0-76.0-1.4","1182","1124","17","Female","true","false","true","false","""event"",""trial"",""time""
""fullscreenenter"",""5"",""66827""
","
","
","""event"",""trial"",""time""
""fullscreenenter"",""5"",""66827""
","
","453.70000000018626","","48","","","3000","1","","","images/purpleplanet.jpg","images/alien4","images/alien3","images/rocket1","images/alien4","images/t.png","2","real","true","2","common","1","2022-03-22 17:16:41.454"
"two-step-fixation","149","1033734","0.0-76.0-2.4","1182","1124","17","Female","true","false","true","false","""event"",""trial"",""time""
""fullscreenenter"",""5"",""66827""
","
","
","""event"",""trial"",""time""
""fullscreenenter"",""5"",""66827""
","
","","images/earth.jpg","","","","","","","","","","","","","","fixation","","","","","",""
"d3-animate-choice","150","1036686","0.0-76.0-0.5","1182","1124","17","Female","true","false","true","false","""event"",""trial"",""time""
""fullscreenenter"",""5"",""66827""
","
","
","""event"",""trial"",""time""
""fullscreenenter"",""5"",""66827""
","
","946.5999999996275","","49","","","3000","1","","","images/earth.jpg","images/rocket2","images/rocket1","null","images/rocket1","","1","real","null","1","","",""
"d3-animate-choice","151","1039028","0.0-76.0-1.5","1182","1124","17","Female","true","false","true","false","""event"",""trial"",""time""
""fullscreenenter"",""5"",""66827""
","
","
","""event"",""trial"",""time""
""fullscreenenter"",""5"",""66827""
","
","337.8999999994412","","48","","","3000","1","","","images/purpleplanet.jpg","images/alien4","images/alien3","images/rocket1","images/alien4","images/t.png","2","real","true","2","common","1","2022-03-22 17:16:47.753"
"two-step-fixation","152","1040033","0.0-76.0-2.5","1182","1124","17","Female","true","false","true","false","""event"",""trial"",""time""
""fullscreenenter"",""5"",""66827""
","
","
","""event"",""trial"",""time""
""fullscreenenter"",""5"",""66827""
","
","","images/earth.jpg","","","","","","","","","","","","","","fixation","","","","","",""
"d3-animate-choice","153","1042440","0.0-76.0-0.6","1182","1124","17","Female","true","false","true","false","""event"",""trial"",""time""
""fullscreenenter"",""5"",""66827""
","
","
","""event"",""trial"",""time""
""fullscreenenter"",""5"",""66827""
","
","402.1000000005588","","49","","","3000","1","","","images/earth.jpg","images/rocket2","images/rocket1","null","images/rocket1","","1","real","null","1","","",""
"d3-animate-choice","154","1044840","0.0-76.0-1.6","1182","1124","17","Female","true","false","true","false","""event"",""trial"",""time""
""fullscreenenter"",""5"",""66827""
","
","
","""event"",""trial"",""time""
""fullscreenenter"",""5"",""66827""
","
","394.29999999981374","","48","","","3000","1","","","images/purpleplanet.jpg","images/alien4","images/alien3","images/rocket1","images/alien4","images/t.png","2","real","true","2","common","1","2022-03-22 17:16:53.564"
"two-step-fixation","155","1045844","0.0-76.0-2.6","1182","1124","17","Female","true","false","true","false","""event"",""trial"",""time""
""fullscreenenter"",""5"",""66827""
","
","
","""event"",""trial"",""time""
""fullscreenenter"",""5"",""66827""
","
","","images/earth.jpg","","","","","","","","","","","","","","fixation","","","","","",""
"d3-animate-choice","156","1048406","0.0-76.0-0.7","1182","1124","17","Female","true","false","true","false","""event"",""trial"",""time""
""fullscreenenter"",""5"",""66827""
","
","
","""event"",""trial"",""time""
""fullscreenenter"",""5"",""66827""
","
","555.7999999998137","","49","","","3000","1","","","images/earth.jpg","images/rocket2","images/rocket1","null","images/rocket1","","1","real","null","1","","",""
"d3-animate-choice","157","1050761","0.0-76.0-1.7","1182","1124","17","Female","true","false","true","false","""event"",""trial"",""time""
""fullscreenenter"",""5"",""66827""
","
","
","""event"",""trial"",""time""
""fullscreenenter"",""5"",""66827""
","
","349.80000000074506","","48","","","3000","1","","","images/redplanet1.jpg","images/alien2","images/alien1","images/rocket1","images/alien2","images/t.png","2","real","false","2","rare","1","2022-03-22 17:16:59.485"
"two-step-fixation","158","1051766","0.0-76.0-2.7","1182","1124","17","Female","true","false","true","false","""event"",""trial"",""time""
""fullscreenenter"",""5"",""66827""
","
","
","""event"",""trial"",""time""
""fullscreenenter"",""5"",""66827""
","
","","images/earth.jpg","","","","","","","","","","","","","","fixation","","","","","",""
"d3-animate-choice","159","1054208","0.0-76.0-0.8","1182","1124","17","Female","true","false","true","false","""event"",""trial"",""time""
""fullscreenenter"",""5"",""66827""
","
","
","""event"",""trial"",""time""
""fullscreenenter"",""5"",""66827""
","
","436.69999999925494","","49","","","3000","1","","","images/earth.jpg","images/rocket2","images/rocket1","null","images/rocket1","","1","real","null","1","","",""
"d3-animate-choice","160","1056586","0.0-76.0-1.8","1182","1124","17","Female","true","false","true","false","""event"",""trial"",""time""
""fullscreenenter"",""5"",""66827""
","
","
","""event"",""trial"",""time""
""fullscreenenter"",""5"",""66827""
","
","372","","48","","","3000","1","","","images/redplanet1.jpg","images/alien2","images/alien1","images/rocket1","images/alien2","images/t.png","2","real","false","2","rare","1","2022-03-22 17:17:05.310"
"two-step-fixation","161","1057591","0.0-76.0-2.8","1182","1124","17","Female","true","false","true","false","""event"",""trial"",""time""
""fullscreenenter"",""5"",""66827""
","
","
","""event"",""trial"",""time""
""fullscreenenter"",""5"",""66827""
","
","","images/earth.jpg","","","","","","","","","","","","","","fixation","","","","","",""
"d3-animate-choice","162","1060003","0.0-76.0-0.9","1182","1124","17","Female","true","false","true","false","""event"",""trial"",""time""
""fullscreenenter"",""5"",""66827""
","
","
","""event"",""trial"",""time""
""fullscreenenter"",""5"",""66827""
","
","406.29999999981374","","49","","","3000","1","","","images/earth.jpg","images/rocket2","images/rocket1","null","images/rocket1","","1","real","null","1","","",""
"d3-animate-choice","163","1062276","0.0-76.0-1.9","1182","1124","17","Female","true","false","true","false","""event"",""trial"",""time""
""fullscreenenter"",""5"",""66827""
","
","
","""event"",""trial"",""time""
""fullscreenenter"",""5"",""66827""
","
","267.20000000018626","","48","","","3000","1","","","images/purpleplanet.jpg","images/alien4","images/alien3","images/rocket1","images/alien4","images/t.png","2","real","true","2","common","1","2022-03-22 17:17:11.000"
"two-step-fixation","164","1063281","0.0-76.0-2.9","1182","1124","17","Female","true","false","true","false","""event"",""trial"",""time""
""fullscreenenter"",""5"",""66827""
","
","
","""event"",""trial"",""time""
""fullscreenenter"",""5"",""66827""
","
","","images/earth.jpg","","","","","","","","","","","","","","fixation","","","","","",""
"d3-animate-choice","165","1065604","0.0-76.0-0.10","1182","1124","17","Female","true","false","true","false","""event"",""trial"",""time""
""fullscreenenter"",""5"",""66827""
","
","
","""event"",""trial"",""time""
""fullscreenenter"",""5"",""66827""
","
","318.3999999994412","","49","","","3000","1","","","images/earth.jpg","images/rocket2","images/rocket1","null","images/rocket1","","1","real","null","1","","",""
"d3-animate-choice","166","1067877","0.0-76.0-1.10","1182","1124","17","Female","true","false","true","false","""event"",""trial"",""time""
""fullscreenenter"",""5"",""66827""
","
","
","""event"",""trial"",""time""
""fullscreenenter"",""5"",""66827""
","
","267.1000000005588","","48","","","3000","1","","","images/purpleplanet.jpg","images/alien4","images/alien3","images/rocket1","images/alien4","images/t.png","2","real","true","2","common","1","2022-03-22 17:17:16.601"
"two-step-fixation","167","1068882","0.0-76.0-2.10","1182","1124","17","Female","true","false","true","false","""event"",""trial"",""time""
""fullscreenenter"",""5"",""66827""
","
","
","""event"",""trial"",""time""
""fullscreenenter"",""5"",""66827""
","
","","images/earth.jpg","","","","","","","","","","","","","","fixation","","","","","",""
"d3-animate-choice","168","1071040","0.0-76.0-0.11","1182","1124","17","Female","true","false","true","false","""event"",""trial"",""time""
""fullscreenenter"",""5"",""66827""
","
","
","""event"",""trial"",""time""
""fullscreenenter"",""5"",""66827""
","
","153.19999999925494","","49","","","3000","1","","","images/earth.jpg","images/rocket2","images/rocket1","null","images/rocket1","","1","real","null","1","","",""
"d3-animate-choice","169","1073318","0.0-76.0-1.11","1182","1124","17","Female","true","false","true","false","""event"",""trial"",""time""
""fullscreenenter"",""5"",""66827""
","
","
","""event"",""trial"",""time""
""fullscreenenter"",""5"",""66827""
","
","271.90000000037253","","48","","","3000","1","","","images/purpleplanet.jpg","images/alien4","images/alien3","images/rocket1","images/alien4","images/nothing.png","2","real","true","2","common","0","2022-03-22 17:17:22.042"
"two-step-fixation","170","1074322","0.0-76.0-2.11","1182","1124","17","Female","true","false","true","false","""event"",""trial"",""time""
""fullscreenenter"",""5"",""66827""
","
","
","""event"",""trial"",""time""
""fullscreenenter"",""5"",""66827""
","
","","images/earth.jpg","","","","","","","","","","","","","","fixation","","","","","",""
"d3-animate-choice","171","1076789","0.0-76.0-0.12","1182","1124","17","Female","true","false","true","false","""event"",""trial"",""time""
""fullscreenenter"",""5"",""66827""
","
","
","""event"",""trial"",""time""
""fullscreenenter"",""5"",""66827""
","
","461.90000000037253","","48","","","3000","1","","","images/earth.jpg","images/rocket2","images/rocket1","null","images/rocket2","","1","real","null","2","","",""
"d3-animate-choice","172","1079214","0.0-76.0-1.12","1182","1124","17","Female","true","false","true","false","""event"",""trial"",""time""
""fullscreenenter"",""5"",""66827""
","
","
","""event"",""trial"",""time""
""fullscreenenter"",""5"",""66827""
","
","419.3999999994412","","48","","","3000","1","","","images/redplanet1.jpg","images/alien2","images/alien1","images/rocket2","images/alien2","images/t.png","2","real","true","2","common","1","2022-03-22 17:17:27.939"
"two-step-fixation","173","1080219","0.0-76.0-2.12","1182","1124","17","Female","true","false","true","false","""event"",""trial"",""time""
""fullscreenenter"",""5"",""66827""
","
","
","""event"",""trial"",""time""
""fullscreenenter"",""5"",""66827""
","
","","images/earth.jpg","","","","","","","","","","","","","","fixation","","","","","",""
"d3-animate-choice","174","1082570","0.0-76.0-0.13","1182","1124","17","Female","true","false","true","false","""event"",""trial"",""time""
""fullscreenenter"",""5"",""66827""
","
","
","""event"",""trial"",""time""
""fullscreenenter"",""5"",""66827""
","
","344.29999999981374","","48","","","3000","1","","","images/earth.jpg","images/rocket2","images/rocket1","null","images/rocket2","","1","real","null","2","","",""
"d3-animate-choice","175","1084915","0.0-76.0-1.13","1182","1124","17","Female","true","false","true","false","""event"",""trial"",""time""
""fullscreenenter"",""5"",""66827""
","
","
","""event"",""trial"",""time""
""fullscreenenter"",""5"",""66827""
","
","336.90000000037253","","49","","","3000","1","","","images/redplanet1.jpg","images/alien2","images/alien1","images/rocket2","images/alien1","images/t.png","2","real","true","1","common","1","2022-03-22 17:17:33.639"
"two-step-fixation","176","1085919","0.0-76.0-2.13","1182","1124","17","Female","true","false","true","false","""event"",""trial"",""time""
""fullscreenenter"",""5"",""66827""
","
","
","""event"",""trial"",""time""
""fullscreenenter"",""5"",""66827""
","
","","images/earth.jpg","","","","","","","","","","","","","","fixation","","","","","",""
"d3-animate-choice","177","1088230","0.0-76.0-0.14","1182","1124","17","Female","true","false","true","false","""event"",""trial"",""time""
""fullscreenenter"",""5"",""66827""
","
","
","""event"",""trial"",""time""
""fullscreenenter"",""5"",""66827""
","
","305.5","","48","","","3000","1","","","images/earth.jpg","images/rocket2","images/rocket1","null","images/rocket2","","1","real","null","2","","",""
"d3-animate-choice","178","1090541","0.0-76.0-1.14","1182","1124","17","Female","true","false","true","false","""event"",""trial"",""time""
""fullscreenenter"",""5"",""66827""
","
","
","""event"",""trial"",""time""
""fullscreenenter"",""5"",""66827""
","
","305.5","","49","","","3000","1","","","images/redplanet1.jpg","images/alien2","images/alien1","images/rocket2","images/alien1","images/nothing.png","2","real","true","1","common","0","2022-03-22 17:17:39.265"
"two-step-fixation","179","1091546","0.0-76.0-2.14","1182","1124","17","Female","true","false","true","false","""event"",""trial"",""time""
""fullscreenenter"",""5"",""66827""
","
","
","""event"",""trial"",""time""
""fullscreenenter"",""5"",""66827""
","
","","images/earth.jpg","","","","","","","","","","","","","","fixation","","","","","",""
"d3-animate-choice","180","1093931","0.0-76.0-0.15","1182","1124","17","Female","true","false","true","false","""event"",""trial"",""time""
""fullscreenenter"",""5"",""66827""
","
","
","""event"",""trial"",""time""
""fullscreenenter"",""5"",""66827""
","
","378.90000000037253","","48","","","3000","1","","","images/earth.jpg","images/rocket2","images/rocket1","null","images/rocket2","","1","real","null","2","","",""
"d3-animate-choice","181","1096097","0.0-76.0-1.15","1182","1124","17","Female","true","false","true","false","""event"",""trial"",""time""
""fullscreenenter"",""5"",""66827""
","
","
","""event"",""trial"",""time""
""fullscreenenter"",""5"",""66827""
","
","159.59999999962747","","48","","","3000","1","","","images/purpleplanet.jpg","images/alien4","images/alien3","images/rocket2","images/alien4","images/t.png","2","real","false","2","rare","1","2022-03-22 17:17:44.821"
"two-step-fixation","182","1097101","0.0-76.0-2.15","1182","1124","17","Female","true","false","true","false","""event"",""trial"",""time""
""fullscreenenter"",""5"",""66827""
","
","
","""event"",""trial"",""time""
""fullscreenenter"",""5"",""66827""
","
","","images/earth.jpg","","","","","","","","","","","","","","fixation","","","","","",""
"d3-animate-choice","183","1099645","0.0-76.0-0.16","1182","1124","17","Female","true","false","true","false","""event"",""trial"",""time""
""fullscreenenter"",""5"",""66827""
","
","
","""event"",""trial"",""time""
""fullscreenenter"",""5"",""66827""
","
","538.2000000001863","","48","","","3000","1","","","images/earth.jpg","images/rocket2","images/rocket1","null","images/rocket2","","1","real","null","2","","",""
"d3-animate-choice","184","1101951","0.0-76.0-1.16","1182","1124","17","Female","true","false","true","false","""event"",""trial"",""time""
""fullscreenenter"",""5"",""66827""
","
","
","""event"",""trial"",""time""
""fullscreenenter"",""5"",""66827""
","
","300.40000000037253","","48","","","3000","1","","","images/purpleplanet.jpg","images/alien4","images/alien3","images/rocket2","images/alien4","images/nothing.png","2","real","false","2","rare","0","2022-03-22 17:17:50.675"
"two-step-fixation","185","1102955","0.0-76.0-2.16","1182","1124","17","Female","true","false","true","false","""event"",""trial"",""time""
""fullscreenenter"",""5"",""66827""
","
","
","""event"",""trial"",""time""
""fullscreenenter"",""5"",""66827""
","
","","images/earth.jpg","","","","","","","","","","","","","","fixation","","","","","",""
"d3-animate-choice","186","1105404","0.0-76.0-0.17","1182","1124","17","Female","true","false","true","false","""event"",""trial"",""time""
""fullscreenenter"",""5"",""66827""
","
","
","""event"",""trial"",""time""
""fullscreenenter"",""5"",""66827""
","
","443.19999999925494","","48","","","3000","1","","","images/earth.jpg","images/rocket2","images/rocket1","null","images/rocket2","","1","real","null","2","","",""
"d3-animate-choice","187","1107997","0.0-76.0-1.17","1182","1124","17","Female","true","false","true","false","""event"",""trial"",""time""
""fullscreenenter"",""5"",""66827""
","
","
","""event"",""trial"",""time""
""fullscreenenter"",""5"",""66827""
","
","587.7999999998137","","48","","","3000","1","","","images/redplanet1.jpg","images/alien2","images/alien1","images/rocket2","images/alien2","images/t.png","2","real","true","2","common","1","2022-03-22 17:17:56.721"
"two-step-fixation","188","1109001","0.0-76.0-2.17","1182","1124","17","Female","true","false","true","false","""event"",""trial"",""time""
""fullscreenenter"",""5"",""66827""
","
","
","""event"",""trial"",""time""
""fullscreenenter"",""5"",""66827""
","
","","images/earth.jpg","","","","","","","","","","","","","","fixation","","","","","",""
"d3-animate-choice","189","1111749","0.0-76.0-0.18","1182","1124","17","Female","true","false","true","false","""event"",""trial"",""time""
""fullscreenenter"",""5"",""66827""
","
","
","""event"",""trial"",""time""
""fullscreenenter"",""5"",""66827""
","
","742","","48","","","3000","1","","","images/earth.jpg","images/rocket2","images/rocket1","null","images/rocket2","","1","real","null","2","","",""
"d3-animate-choice","190","1114339","0.0-76.0-1.18","1182","1124","17","Female","true","false","true","false","""event"",""trial"",""time""
""fullscreenenter"",""5"",""66827""
","
","
","""event"",""trial"",""time""
""fullscreenenter"",""5"",""66827""
","
","584.4000000003725","","49","","","3000","1","","","images/purpleplanet.jpg","images/alien4","images/alien3","images/rocket2","images/alien3","images/nothing.png","2","real","false","1","rare","0","2022-03-22 17:18:03.064"
"two-step-fixation","191","1115344","0.0-76.0-2.18","1182","1124","17","Female","true","false","true","false","""event"",""trial"",""time""
""fullscreenenter"",""5"",""66827""
","
","
","""event"",""trial"",""time""
""fullscreenenter"",""5"",""66827""
","
","","images/earth.jpg","","","","","","","","","","","","","","fixation","","","","","",""
"d3-animate-choice","192","1117419","0.0-76.0-0.19","1182","1124","17","Female","true","false","true","false","""event"",""trial"",""time""
""fullscreenenter"",""5"",""66827""
","
","
","""event"",""trial"",""time""
""fullscreenenter"",""5"",""66827""
","
","67.79999999981374","","48","","","3000","1","","","images/earth.jpg","images/rocket2","images/rocket1","null","images/rocket2","","1","real","null","2","","",""
"d3-animate-choice","193","1120081","0.0-76.0-1.19","1182","1124","17","Female","true","false","true","false","""event"",""trial"",""time""
""fullscreenenter"",""5"",""66827""
","
","
","""event"",""trial"",""time""
""fullscreenenter"",""5"",""66827""
","
","656.4000000003725","","48","","","3000","1","","","images/redplanet1.jpg","images/alien2","images/alien1","images/rocket2","images/alien2","images/nothing.png","2","real","true","2","common","0","2022-03-22 17:18:08.805"
"two-step-fixation","194","1121085","0.0-76.0-2.19","1182","1124","17","Female","true","false","true","false","""event"",""trial"",""time""
""fullscreenenter"",""5"",""66827""
","
","
","""event"",""trial"",""time""
""fullscreenenter"",""5"",""66827""
","
","","images/earth.jpg","","","","","","","","","","","","","","fixation","","","","","",""
"d3-animate-choice","195","1123432","0.0-76.0-0.20","1182","1124","17","Female","true","false","true","false","""event"",""trial"",""time""
""fullscreenenter"",""5"",""66827""
","
","
","""event"",""trial"",""time""
""fullscreenenter"",""5"",""66827""
","
","342.6000000005588","","48","","","3000","1","","","images/earth.jpg","images/rocket2","images/rocket1","null","images/rocket2","","1","real","null","2","","",""
"d3-animate-choice","196","1125517","0.0-76.0-1.20","1182","1124","17","Female","true","false","true","false","""event"",""trial"",""time""
""fullscreenenter"",""5"",""66827""
","
","
","""event"",""trial"",""time""
""fullscreenenter"",""5"",""66827""
","
","79","","49","","","3000","1","","","images/redplanet1.jpg","images/alien2","images/alien1","images/rocket2","images/alien1","images/nothing.png","2","real","true","1","common","0","2022-03-22 17:18:14.241"
"two-step-fixation","197","1126520","0.0-76.0-2.20","1182","1124","17","Female","true","false","true","false","""event"",""trial"",""time""
""fullscreenenter"",""5"",""66827""
","
","
","""event"",""trial"",""time""
""fullscreenenter"",""5"",""66827""
","
","","images/earth.jpg","","","","","","","","","","","","","","fixation","","","","","",""
"d3-animate-choice","198","1128818","0.0-76.0-0.21","1182","1124","17","Female","true","false","true","false","""event"",""trial"",""time""
""fullscreenenter"",""5"",""66827""
","
","
","""event"",""trial"",""time""
""fullscreenenter"",""5"",""66827""
","
","293.40000000037253","","48","","","3000","1","","","images/earth.jpg","images/rocket2","images/rocket1","null","images/rocket2","","1","real","null","2","","",""
"d3-animate-choice","199","1131274","0.0-76.0-1.21","1182","1124","17","Female","true","false","true","false","""event"",""trial"",""time""
""fullscreenenter"",""5"",""66827""
","
","
","""event"",""trial"",""time""
""fullscreenenter"",""5"",""66827""
","
","451.90000000037253","","49","","","3000","1","","","images/purpleplanet.jpg","images/alien4","images/alien3","images/rocket2","images/alien3","images/t.png","2","real","false","1","rare","1","2022-03-22 17:18:19.998"
"two-step-fixation","200","1132278","0.0-76.0-2.21","1182","1124","17","Female","true","false","true","false","""event"",""trial"",""time""
""fullscreenenter"",""5"",""66827""
","
","
","""event"",""trial"",""time""
""fullscreenenter"",""5"",""66827""
","
","","images/earth.jpg","","","","","","","","","","","","","","fixation","","","","","",""
"d3-animate-choice","201","1134790","0.0-76.0-0.22","1182","1124","17","Female","true","false","true","false","""event"",""trial"",""time""
""fullscreenenter"",""5"",""66827""
","
","
","""event"",""trial"",""time""
""fullscreenenter"",""5"",""66827""
","
","507","","48","","","3000","1","","","images/earth.jpg","images/rocket2","images/rocket1","null","images/rocket2","","1","real","null","2","","",""
"d3-animate-choice","202","1137181","0.0-76.0-1.22","1182","1124","17","Female","true","false","true","false","""event"",""trial"",""time""
""fullscreenenter"",""5"",""66827""
","
","
","""event"",""trial"",""time""
""fullscreenenter"",""5"",""66827""
","
","386.3999999994412","","49","","","3000","1","","","images/purpleplanet.jpg","images/alien4","images/alien3","images/rocket2","images/alien3","images/t.png","2","real","false","1","rare","1","2022-03-22 17:18:25.905"
"two-step-fixation","203","1138184","0.0-76.0-2.22","1182","1124","17","Female","true","false","true","false","""event"",""trial"",""time""
""fullscreenenter"",""5"",""66827""
","
","
","""event"",""trial"",""time""
""fullscreenenter"",""5"",""66827""
","
","","images/earth.jpg","","","","","","","","","","","","","","fixation","","","","","",""
"d3-animate-choice","204","1140590","0.0-76.0-0.23","1182","1124","17","Female","true","false","true","false","""event"",""trial"",""time""
""fullscreenenter"",""5"",""66827""
","
","
","""event"",""trial"",""time""
""fullscreenenter"",""5"",""66827""
","
","402.09999999962747","","48","","","3000","1","","","images/earth.jpg","images/rocket2","images/rocket1","null","images/rocket2","","1","real","null","2","","",""
"d3-animate-choice","205","1143501","0.0-76.0-1.23","1182","1124","17","Female","true","false","true","false","""event"",""trial"",""time""
""fullscreenenter"",""5"",""66827""
","
","
","""event"",""trial"",""time""
""fullscreenenter"",""5"",""66827""
","
","906.2999999998137","","48","","","3000","1","","","images/redplanet1.jpg","images/alien2","images/alien1","images/rocket2","images/alien2","images/nothing.png","2","real","true","2","common","0","2022-03-22 17:18:32.225"
"two-step-fixation","206","1144505","0.0-76.0-2.23","1182","1124","17","Female","true","false","true","false","""event"",""trial"",""time""
""fullscreenenter"",""5"",""66827""
","
","
","""event"",""trial"",""time""
""fullscreenenter"",""5"",""66827""
","
","","images/earth.jpg","","","","","","","","","","","","","","fixation","","","","","",""
"d3-animate-choice","207","1146954","0.0-76.0-0.24","1182","1124","17","Female","true","false","true","false","""event"",""trial"",""time""
""fullscreenenter"",""5"",""66827""
","
","
","""event"",""trial"",""time""
""fullscreenenter"",""5"",""66827""
","
","445.40000000037253","","48","","","3000","1","","","images/earth.jpg","images/rocket2","images/rocket1","null","images/rocket2","","1","real","null","2","","",""
"d3-animate-choice","208","1149435","0.0-76.0-1.24","1182","1124","17","Female","true","false","true","false","""event"",""trial"",""time""
""fullscreenenter"",""5"",""66827""
","
","
","""event"",""trial"",""time""
""fullscreenenter"",""5"",""66827""
","
","476","","49","","","3000","1","","","images/redplanet1.jpg","images/alien2","images/alien1","images/rocket2","images/alien1","images/t.png","2","real","true","1","common","1","2022-03-22 17:18:38.160"
"two-step-fixation","209","1150439","0.0-76.0-2.24","1182","1124","17","Female","true","false","true","false","""event"",""trial"",""time""
""fullscreenenter"",""5"",""66827""
","
","
","""event"",""trial"",""time""
""fullscreenenter"",""5"",""66827""
","
","","images/earth.jpg","","","","","","","","","","","","","","fixation","","","","","",""
"d3-animate-choice","210","1152838","0.0-76.0-0.25","1182","1124","17","Female","true","false","true","false","""event"",""trial"",""time""
""fullscreenenter"",""5"",""66827""
","
","
","""event"",""trial"",""time""
""fullscreenenter"",""5"",""66827""
","
","394.79999999981374","","48","","","3000","1","","","images/earth.jpg","images/rocket2","images/rocket1","null","images/rocket2","","1","real","null","2","","",""
"d3-animate-choice","211","1155508","0.0-76.0-1.25","1182","1124","17","Female","true","false","true","false","""event"",""trial"",""time""
""fullscreenenter"",""5"",""66827""
","
","
","""event"",""trial"",""time""
""fullscreenenter"",""5"",""66827""
","
","665","","49","","","3000","1","","","images/redplanet1.jpg","images/alien2","images/alien1","images/rocket2","images/alien1","images/t.png","2","real","true","1","common","1","2022-03-22 17:18:44.232"
"two-step-fixation","212","1156512","0.0-76.0-2.25","1182","1124","17","Female","true","false","true","false","""event"",""trial"",""time""
""fullscreenenter"",""5"",""66827""
","
","
","""event"",""trial"",""time""
""fullscreenenter"",""5"",""66827""
","
","","images/earth.jpg","","","","","","","","","","","","","","fixation","","","","","",""
"d3-animate-choice","213","1158833","0.0-76.0-0.26","1182","1124","17","Female","true","false","true","false","""event"",""trial"",""time""
""fullscreenenter"",""5"",""66827""
","
","
","""event"",""trial"",""time""
""fullscreenenter"",""5"",""66827""
","
","316.90000000037253","","48","","","3000","1","2080","49","images/earth.jpg","images/rocket2","images/rocket1","null","images/rocket2","","1","real","null","2","","",""
"d3-animate-choice","214","1161345","0.0-76.0-1.26","1182","1124","17","Female","true","false","true","false","""event"",""trial"",""time""
""fullscreenenter"",""5"",""66827""
","
","
","""event"",""trial"",""time""
""fullscreenenter"",""5"",""66827""
","
","508","","49","","","3000","1","","","images/redplanet1.jpg","images/alien2","images/alien1","images/rocket2","images/alien1","images/t.png","2","real","true","1","common","1","2022-03-22 17:18:50.069"
"two-step-fixation","215","1162349","0.0-76.0-2.26","1182","1124","17","Female","true","false","true","false","""event"",""trial"",""time""
""fullscreenenter"",""5"",""66827""
","
","
","""event"",""trial"",""time""
""fullscreenenter"",""5"",""66827""
","
","","images/earth.jpg","","","","","","","","","","","","","","fixation","","","","","",""
"d3-animate-choice","216","1164449","0.0-76.0-0.27","1182","1124","17","Female","true","false","true","false","""event"",""trial"",""time""
""fullscreenenter"",""5"",""66827""
","
","
","""event"",""trial"",""time""
""fullscreenenter"",""5"",""66827""
","
","95.8999999994412","","48","","","3000","1","","","images/earth.jpg","images/rocket2","images/rocket1","null","images/rocket2","","1","real","null","2","","",""
"d3-animate-choice","217","1167158","0.0-76.0-1.27","1182","1124","17","Female","true","false","true","false","""event"",""trial"",""time""
""fullscreenenter"",""5"",""66827""
","
","
","""event"",""trial"",""time""
""fullscreenenter"",""5"",""66827""
","
","705.3999999994412","","49","","","3000","1","","","images/redplanet1.jpg","images/alien2","images/alien1","images/rocket2","images/alien1","images/t.png","2","real","true","1","common","1","2022-03-22 17:18:55.883"
"two-step-fixation","218","1168162","0.0-76.0-2.27","1182","1124","17","Female","true","false","true","false","""event"",""trial"",""time""
""fullscreenenter"",""5"",""66827""
","
","
","""event"",""trial"",""time""
""fullscreenenter"",""5"",""66827""
","
","","images/earth.jpg","","","","","","","","","","","","","","fixation","","","","","",""
"d3-animate-choice","219","1170649","0.0-76.0-0.28","1182","1124","17","Female","true","false","true","false","""event"",""trial"",""time""
""fullscreenenter"",""5"",""66827""
","
","
","""event"",""trial"",""time""
""fullscreenenter"",""5"",""66827""
","
","482.79999999981374","","48","","","3000","1","","","images/earth.jpg","images/rocket2","images/rocket1","null","images/rocket2","","1","real","null","2","","",""
"d3-animate-choice","220","1173017","0.0-76.0-1.28","1182","1124","17","Female","true","false","true","false","""event"",""trial"",""time""
""fullscreenenter"",""5"",""66827""
","
","
","""event"",""trial"",""time""
""fullscreenenter"",""5"",""66827""
","
","363.29999999981374","","49","","","3000","1","","","images/redplanet1.jpg","images/alien2","images/alien1","images/rocket2","images/alien1","images/nothing.png","2","real","true","1","common","0","2022-03-22 17:19:01.741"
"two-step-fixation","221","1174021","0.0-76.0-2.28","1182","1124","17","Female","true","false","true","false","""event"",""trial"",""time""
""fullscreenenter"",""5"",""66827""
","
","
","""event"",""trial"",""time""
""fullscreenenter"",""5"",""66827""
","
","","images/earth.jpg","","","","","","","","","","","","","","fixation","","","","","",""
"d3-animate-choice","222","1176366","0.0-76.0-0.29","1182","1124","17","Female","true","false","true","false","""event"",""trial"",""time""
""fullscreenenter"",""5"",""66827""
","
","
","""event"",""trial"",""time""
""fullscreenenter"",""5"",""66827""
","
","341.40000000037253","","48","","","3000","1","2105","48","images/earth.jpg","images/rocket2","images/rocket1","null","images/rocket2","","1","real","null","2","","",""
"d3-animate-choice","223","1178965","0.0-76.0-1.29","1182","1124","17","Female","true","false","true","false","""event"",""trial"",""time""
""fullscreenenter"",""5"",""66827""
","
","
","""event"",""trial"",""time""
""fullscreenenter"",""5"",""66827""
","
","593.4000000003725","","48","","","3000","1","","","images/redplanet1.jpg","images/alien2","images/alien1","images/rocket2","images/alien2","images/t.png","2","real","true","2","common","1","2022-03-22 17:19:07.689"
"two-step-fixation","224","1179968","0.0-76.0-2.29","1182","1124","17","Female","true","false","true","false","""event"",""trial"",""time""
""fullscreenenter"",""5"",""66827""
","
","
","""event"",""trial"",""time""
""fullscreenenter"",""5"",""66827""
","
","","images/earth.jpg","","","","","","","","","","","","","","fixation","","","","","",""
"d3-animate-choice","225","1183478","0.0-76.0-0.30","1182","1124","17","Female","true","false","true","false","""event"",""trial"",""time""
""fullscreenenter"",""5"",""66827""
","
","
","""event"",""trial"",""time""
""fullscreenenter"",""5"",""66827""
","
","1504.8999999994412","","48","","","3000","1","3428","48","images/earth.jpg","images/rocket2","images/rocket1","null","images/rocket2","","1","real","null","2","","",""
"d3-animate-choice","226","1186230","0.0-76.0-1.30","1182","1124","17","Female","true","false","true","false","""event"",""trial"",""time""
""fullscreenenter"",""5"",""66827""
","
","
","""event"",""trial"",""time""
""fullscreenenter"",""5"",""66827""
","
","747.5999999996275","","49","","","3000","1","2480.4000000003725","48","images/purpleplanet.jpg","images/alien4","images/alien3","images/rocket2","images/alien3","images/nothing.png","2","real","false","1","rare","0","2022-03-22 17:19:14.954"
"two-step-fixation","227","1187233","0.0-76.0-2.30","1182","1124","17","Female","true","false","true","false","""event"",""trial"",""time""
""fullscreenenter"",""5"",""66827""
","
","
","""event"",""trial"",""time""
""fullscreenenter"",""5"",""66827""
","
","","images/earth.jpg","","","","","","","","","","","","","","fixation","","","","","",""
"d3-animate-choice","228","1191237","0.0-76.0-0.31","1182","1124","17","Female","true","false","true","false","""event"",""trial"",""time""
""fullscreenenter"",""5"",""66827""
","
","
","""event"",""trial"",""time""
""fullscreenenter"",""5"",""66827""
","
","2105.0999999996275","","48","","","3000","1","","","images/earth.jpg","images/rocket2","images/rocket1","null","images/rocket2","","1","real","null","2","","",""
"d3-animate-choice","229","1193388","0.0-76.0-1.31","1182","1124","17","Female","true","false","true","false","""event"",""trial"",""time""
""fullscreenenter"",""5"",""66827""
","
","
","""event"",""trial"",""time""
""fullscreenenter"",""5"",""66827""
","
","146.29999999981374","","48","","","3000","1","","","images/purpleplanet.jpg","images/alien4","images/alien3","images/rocket2","images/alien4","images/t.png","2","real","false","2","rare","1","2022-03-22 17:19:22.112"
"two-step-fixation","230","1194392","0.0-76.0-2.31","1182","1124","17","Female","true","false","true","false","""event"",""trial"",""time""
""fullscreenenter"",""5"",""66827""
","
","
","""event"",""trial"",""time""
""fullscreenenter"",""5"",""66827""
","
","","images/earth.jpg","","","","","","","","","","","","","","fixation","","","","","",""
"d3-animate-choice","231","1198398","0.0-76.0-0.32","1182","1124","17","Female","true","false","true","false","""event"",""trial"",""time""
""fullscreenenter"",""5"",""66827""
","
","
","""event"",""trial"",""time""
""fullscreenenter"",""5"",""66827""
","
","3556.9000000003725","","48","","","3000","0","","","images/earth.jpg","images/rocket2","images/rocket1","null","","","1","real","null","2","","",""
"d3-animate-choice","232","1199406","0.0-76.0-1.32","1182","1124","17","Female","true","false","true","false","""event"",""trial"",""time""
""fullscreenenter"",""5"",""66827""
","
","
","""event"",""trial"",""time""
""fullscreenenter"",""5"",""66827""
","
","null","","null","","","0","0","","","images/earth.jpg","images/rocket2","images/rocket1","null","","","2","real","null","","","0","2022-03-22 17:19:28.130"
"two-step-fixation","233","1200408","0.0-76.0-2.32","1182","1124","17","Female","true","false","true","false","""event"",""trial"",""time""
""fullscreenenter"",""5"",""66827""
","
","
","""event"",""trial"",""time""
""fullscreenenter"",""5"",""66827""
","
","","images/earth.jpg","","","","","","","","","","","","","","fixation","","","","","",""
"d3-animate-choice","234","1203931","0.0-76.0-0.33","1182","1124","17","Female","true","false","true","false","""event"",""trial"",""time""
""fullscreenenter"",""5"",""66827""
","
","
","""event"",""trial"",""time""
""fullscreenenter"",""5"",""66827""
","
","1517.7000000001863","","49","","","3000","1","","","images/earth.jpg","images/rocket2","images/rocket1","null","images/rocket1","","1","real","null","1","","",""
"d3-animate-choice","235","1206630","0.0-76.0-1.33","1182","1124","17","Female","true","false","true","false","""event"",""trial"",""time""
""fullscreenenter"",""5"",""66827""
","
","
","""event"",""trial"",""time""
""fullscreenenter"",""5"",""66827""
","
","693.9000000003725","","48","","","3000","1","","","images/purpleplanet.jpg","images/alien4","images/alien3","images/rocket1","images/alien4","images/nothing.png","2","real","true","2","common","0","2022-03-22 17:19:35.354"
"two-step-fixation","236","1207634","0.0-76.0-2.33","1182","1124","17","Female","true","false","true","false","""event"",""trial"",""time""
""fullscreenenter"",""5"",""66827""
","
","
","""event"",""trial"",""time""
""fullscreenenter"",""5"",""66827""
","
","","images/earth.jpg","","","","","","","","","","","","","","fixation","","","","","",""
"d3-animate-choice","237","1211638","0.0-76.0-0.34","1182","1124","17","Female","true","false","true","false","""event"",""trial"",""time""
""fullscreenenter"",""5"",""66827""
","
","
","""event"",""trial"",""time""
""fullscreenenter"",""5"",""66827""
","
","2846.5999999996275","","48","","","3000","1","","","images/earth.jpg","images/rocket2","images/rocket1","null","images/rocket2","","1","real","null","2","","",""
"d3-animate-choice","238","1215643","0.0-76.0-1.34","1182","1124","17","Female","true","false","true","false","""event"",""trial"",""time""
""fullscreenenter"",""5"",""66827""
","
","
","""event"",""trial"",""time""
""fullscreenenter"",""5"",""66827""
","
","2708.5999999996275","","49","","","3000","1","","","images/redplanet1.jpg","images/alien2","images/alien1","images/rocket2","images/alien1","","2","real","true","1","common","0","2022-03-22 17:19:44.367"
"two-step-fixation","239","1216651","0.0-76.0-2.34","1182","1124","17","Female","true","false","true","false","""event"",""trial"",""time""
""fullscreenenter"",""5"",""66827""
","
","
","""event"",""trial"",""time""
""fullscreenenter"",""5"",""66827""
","
","","images/earth.jpg","","","","","","","","","","","","","","fixation","","","","","",""
"d3-animate-choice","240","1219250","0.0-76.0-0.35","1182","1124","17","Female","true","false","true","false","""event"",""trial"",""time""
""fullscreenenter"",""5"",""66827""
","
","
","""event"",""trial"",""time""
""fullscreenenter"",""5"",""66827""
","
","593.9000000003725","","48","","","3000","1","","","images/earth.jpg","images/rocket2","images/rocket1","null","images/rocket2","","1","real","null","2","","",""
"d3-animate-choice","241","1222100","0.0-76.0-1.35","1182","1124","17","Female","true","false","true","false","""event"",""trial"",""time""
""fullscreenenter"",""5"",""66827""
","
","
","""event"",""trial"",""time""
""fullscreenenter"",""5"",""66827""
","
","846","","49","","","3000","1","","","images/redplanet1.jpg","images/alien2","images/alien1","images/rocket2","images/alien1","images/nothing.png","2","real","true","1","common","0","2022-03-22 17:19:50.825"
"two-step-fixation","242","1223105","0.0-76.0-2.35","1182","1124","17","Female","true","false","true","false","""event"",""trial"",""time""
""fullscreenenter"",""5"",""66827""
","
","
","""event"",""trial"",""time""
""fullscreenenter"",""5"",""66827""
","
","","images/earth.jpg","","","","","","","","","","","","","","fixation","","","","","",""
"d3-animate-choice","243","1225722","0.0-76.0-0.36","1182","1124","17","Female","true","false","true","false","""event"",""trial"",""time""
""fullscreenenter"",""5"",""66827""
","
","
","""event"",""trial"",""time""
""fullscreenenter"",""5"",""66827""
","
","612.0999999996275","","48","","","3000","1","","","images/earth.jpg","images/rocket2","images/rocket1","null","images/rocket2","","1","real","null","2","","",""
"d3-animate-choice","244","1228681","0.0-76.0-1.36","1182","1124","17","Female","true","false","true","false","""event"",""trial"",""time""
""fullscreenenter"",""5"",""66827""
","
","
","""event"",""trial"",""time""
""fullscreenenter"",""5"",""66827""
","
","281.19999999925494","","50","","","3000","1","955.2999999998137","48","images/purpleplanet.jpg","images/alien4","images/alien3","images/rocket2","images/alien4","images/t.png","2","real","false","","rare","1","2022-03-22 17:19:57.405"
