"trial_type","trial_index","time_elapsed","internal_node_id","participant_id","subject_id","age","gender","rocket_sides","red_planet_first_rocket","red_display_order","purple_display_order","interactions","blur_events","focus_events","fullscreenenter_events","fullscreenexit_events","rt","stimulus","key_press","button_pressed","success","duration","valid_pressed","rts","keys","planet_text","right_text","left_text","center_text","chosen_text","reward_text","trial_stage","practice_trial","transition_type","choice","transition","reward","timestamp"
"pavlovia","0","3","0.0-0.0","957","861","14","Male","false","true","true","true","
","
","
","
","
","","","","","","","","","","","","","","","","","","","","","",""
"html-keyboard-response","1","923","0.0-1.0","957","861","14","Male","false","true","true","true","
","
","
","
","
","918.5","Welcome! Press the space bar to begin.","32","","","","","","","","","","","","","","","","","","",""
"audio-keyboard-response","2","3836","0.0-2.0","957","861","14","Male","false","true","true","true","
","
","
","
","
","2746","audio/beep_loop.wav","32","","","","","","","","","","","","","","","","","","",""
"audio-button-response","3","6556","0.0-3.0","957","861","14","Male","false","true","true","true","
","
","
","
","
","NaN","audio/fish.mp3","","1","","","","","","","","","","","","","","","","","",""
"audio-button-response","4","9114","0.0-4.0","957","861","14","Male","false","true","true","true","""event"",""trial"",""time""
""fullscreenenter"",""5"",""12094""
","
","
","""event"",""trial"",""time""
""fullscreenenter"",""5"",""12094""
","
","NaN","audio/tiger.mp3","","4","","","","","","","","","","","","","","","","","",""
"fullscreen","5","13044","0.0-5.0","957","861","14","Male","false","true","true","true","""event"",""trial"",""time""
""fullscreenenter"",""5"",""12094""
","
","
","""event"",""trial"",""time""
""fullscreenenter"",""5"",""12094""
","
","","","","","true","","","","","","","","","","","","","","","","",""
"d3-instructions","6","27039","0.0-6.0","957","861","14","Male","false","true","true","true","""event"",""trial"",""time""
""fullscreenenter"",""5"",""12094""
","
","
","""event"",""trial"",""time""
""fullscreenenter"",""5"",""12094""
","
","","","","","","","","","","","","","","","","","","","","","",""
"d3-instructions","7","36295","0.0-7.0","957","861","14","Male","false","true","true","true","""event"",""trial"",""time""
""fullscreenenter"",""5"",""12094""
","
","
","""event"",""trial"",""time""
""fullscreenenter"",""5"",""12094""
","
","","","","","","","","","","","","","","","","","","","","","",""
"d3-instructions","8","43179","0.0-8.0","957","861","14","Male","false","true","true","true","""event"",""trial"",""time""
""fullscreenenter"",""5"",""12094""
","
","
","""event"",""trial"",""time""
""fullscreenenter"",""5"",""12094""
","
","","","","","","","","","","","","","","","","","","","","","",""
"d3-instructions","9","54207","0.0-9.0","957","861","14","Male","false","true","true","true","""event"",""trial"",""time""
""fullscreenenter"",""5"",""12094""
","
","
","""event"",""trial"",""time""
""fullscreenenter"",""5"",""12094""
","
","","","","","","","","","","","","","","","","","","","","","",""
"d3-instructions","10","71791","0.0-10.0","957","861","14","Male","false","true","true","true","""event"",""trial"",""time""
""fullscreenenter"",""5"",""12094""
","
","
","""event"",""trial"",""time""
""fullscreenenter"",""5"",""12094""
","
","","","","","","","","","","","","","","","","","","","","","",""
"d3-animate-choice","11","74609","0.0-11.0","957","861","14","Male","false","true","true","true","""event"",""trial"",""time""
""fullscreenenter"",""5"",""12094""
","
","
","""event"",""trial"",""time""
""fullscreenenter"",""5"",""12094""
","
","807.1999999880791","","48","","","3000","1","2276.3999999910593","49","images/tutgreenplanet.jpg","images/tutalien1","images/tutalien2","null","images/tutalien1","","NA","practice","null","","","",""
"d3-animate-choice","12","77169","0.0-12.0","957","861","14","Male","false","true","true","true","""event"",""trial"",""time""
""fullscreenenter"",""5"",""12094""
","
","
","""event"",""trial"",""time""
""fullscreenenter"",""5"",""12094""
","
","555.2000000029802","","49","","","3000","1","","","images/tutgreenplanet.jpg","images/tutalien1","images/tutalien2","null","images/tutalien2","","NA","practice","null","","","",""
"d3-animate-choice","13","79464","0.0-13.0","957","861","14","Male","false","true","true","true","""event"",""trial"",""time""
""fullscreenenter"",""5"",""12094""
","
","
","""event"",""trial"",""time""
""fullscreenenter"",""5"",""12094""
","
","288.5","","48","","","3000","1","","","images/tutgreenplanet.jpg","images/tutalien1","images/tutalien2","null","images/tutalien1","","NA","practice","null","","","",""
"d3-animate-choice","14","81563","0.0-14.0","957","861","14","Male","false","true","true","true","""event"",""trial"",""time""
""fullscreenenter"",""5"",""12094""
","
","
","""event"",""trial"",""time""
""fullscreenenter"",""5"",""12094""
","
","92.29999999701977","","49","","","3000","1","","","images/tutgreenplanet.jpg","images/tutalien1","images/tutalien2","null","images/tutalien2","","NA","practice","null","","","",""
"d3-instructions","15","88236","0.0-15.0","957","861","14","Male","false","true","true","true","""event"",""trial"",""time""
""fullscreenenter"",""5"",""12094""
","
","
","""event"",""trial"",""time""
""fullscreenenter"",""5"",""12094""
","
","","","","","","","","","","","","","","","","","","","","","",""
"d3-instructions","16","94838","0.0-16.0","957","861","14","Male","false","true","true","true","""event"",""trial"",""time""
""fullscreenenter"",""5"",""12094""
","
","
","""event"",""trial"",""time""
""fullscreenenter"",""5"",""12094""
","
","","","","","","","","","","","","","","","","","","","","","",""
"d3-instructions","17","103440","0.0-17.0","957","861","14","Male","false","true","true","true","""event"",""trial"",""time""
""fullscreenenter"",""5"",""12094""
","
","
","""event"",""trial"",""time""
""fullscreenenter"",""5"",""12094""
","
","","","","","","","","","","","","","","","","","","","","","",""
"d3-instructions","18","116211","0.0-18.0","957","861","14","Male","false","true","true","true","""event"",""trial"",""time""
""fullscreenenter"",""5"",""12094""
","
","
","""event"",""trial"",""time""
""fullscreenenter"",""5"",""12094""
","
","","","","","","","","","","","","","","","","","","","","","",""
"d3-instructions","19","126989","0.0-19.0","957","861","14","Male","false","true","true","true","""event"",""trial"",""time""
""fullscreenenter"",""5"",""12094""
","
","
","""event"",""trial"",""time""
""fullscreenenter"",""5"",""12094""
","
","","","","","","","","","","","","","","","","","","","","","",""
"d3-animate-choice","20","129577","0.0-20.0","957","861","14","Male","false","true","true","true","""event"",""trial"",""time""
""fullscreenenter"",""5"",""12094""
","
","
","""event"",""trial"",""time""
""fullscreenenter"",""5"",""12094""
","
","583.2999999970198","","49","","","3000","1","1047.5,2135.8999999910593","49,49","images/tutyellowplanet.jpg","null","images/tutalien3","null","images/tutalien3","images/t.png","NA","practice","null","","","",""
"d3-animate-choice","21","131945","0.0-21.0","957","861","14","Male","false","true","true","true","""event"",""trial"",""time""
""fullscreenenter"",""5"",""12094""
","
","
","""event"",""trial"",""time""
""fullscreenenter"",""5"",""12094""
","
","365.20000000298023","","49","","","3000","1","1881.6000000089407","49","images/tutyellowplanet.jpg","null","images/tutalien3","null","images/tutalien3","images/t.png","NA","practice","null","","","",""
"d3-animate-choice","22","134256","0.0-22.0","957","861","14","Male","false","true","true","true","""event"",""trial"",""time""
""fullscreenenter"",""5"",""12094""
","
","
","""event"",""trial"",""time""
""fullscreenenter"",""5"",""12094""
","
","305","","49","","","3000","1","1772.2000000029802","49","images/tutyellowplanet.jpg","null","images/tutalien3","null","images/tutalien3","images/t.png","NA","practice","null","","","",""
"d3-animate-choice","23","136400","0.0-23.0","957","861","14","Male","false","true","true","true","""event"",""trial"",""time""
""fullscreenenter"",""5"",""12094""
","
","
","""event"",""trial"",""time""
""fullscreenenter"",""5"",""12094""
","
","137.59999999403954","","49","","","3000","1","1612,2008.7999999970198","49,49","images/tutyellowplanet.jpg","null","images/tutalien3","null","images/tutalien3","images/t.png","NA","practice","null","","","",""
"d3-animate-choice","24","138688","0.0-24.0","957","861","14","Male","false","true","true","true","""event"",""trial"",""time""
""fullscreenenter"",""5"",""12094""
","
","
","""event"",""trial"",""time""
""fullscreenenter"",""5"",""12094""
","
","282.5","","49","","","3000","1","","","images/tutyellowplanet.jpg","null","images/tutalien3","null","images/tutalien3","images/nothing.png","NA","practice","null","","","",""
"d3-animate-choice","25","140739","0.0-25.0","957","861","14","Male","false","true","true","true","""event"",""trial"",""time""
""fullscreenenter"",""5"",""12094""
","
","
","""event"",""trial"",""time""
""fullscreenenter"",""5"",""12094""
","
","46.5","","49","","","3000","1","282.20000000298023,1556.2999999970198","49,49","images/tutyellowplanet.jpg","null","images/tutalien3","null","images/tutalien3","images/t.png","NA","practice","null","","","",""
"d3-animate-choice","26","142745","0.0-26.0","957","861","14","Male","false","true","true","true","""event"",""trial"",""time""
""fullscreenenter"",""5"",""12094""
","
","
","""event"",""trial"",""time""
""fullscreenenter"",""5"",""12094""
","
","0.09999999403953552","","49","","","3000","1","249.79999999701977,1845.0999999940395","49,49","images/tutyellowplanet.jpg","null","images/tutalien3","null","images/tutalien3","images/nothing.png","NA","practice","null","","","",""
"d3-animate-choice","27","144870","0.0-27.0","957","861","14","Male","false","true","true","true","""event"",""trial"",""time""
""fullscreenenter"",""5"",""12094""
","
","
","""event"",""trial"",""time""
""fullscreenenter"",""5"",""12094""
","
","118.59999999403954","","49","","","3000","1","368.40000000596046,1708.7999999970198,2008.5","49,49,49","images/tutyellowplanet.jpg","null","images/tutalien3","null","images/tutalien3","images/nothing.png","NA","practice","null","","","",""
"d3-animate-choice","28","147007","0.0-28.0","957","861","14","Male","false","true","true","true","""event"",""trial"",""time""
""fullscreenenter"",""5"",""12094""
","
","
","""event"",""trial"",""time""
""fullscreenenter"",""5"",""12094""
","
","128.79999999701977","","49","","","3000","1","","","images/tutyellowplanet.jpg","null","images/tutalien3","null","images/tutalien3","images/t.png","NA","practice","null","","","",""
"d3-animate-choice","29","149024","0.0-29.0","957","861","14","Male","false","true","true","true","""event"",""trial"",""time""
""fullscreenenter"",""5"",""12094""
","
","
","""event"",""trial"",""time""
""fullscreenenter"",""5"",""12094""
","
","11.299999997019768","","49","","","3000","1","1668.0999999940395","49","images/tutyellowplanet.jpg","null","images/tutalien3","null","images/tutalien3","images/t.png","NA","practice","null","","","",""
"d3-instructions","30","153544","0.0-30.0","957","861","14","Male","false","true","true","true","""event"",""trial"",""time""
""fullscreenenter"",""5"",""12094""
","
","
","""event"",""trial"",""time""
""fullscreenenter"",""5"",""12094""
","
","","","","","","","","","","","","","","","","","","","","","",""
"d3-instructions","31","158922","0.0-31.0","957","861","14","Male","false","true","true","true","""event"",""trial"",""time""
""fullscreenenter"",""5"",""12094""
","
","
","""event"",""trial"",""time""
""fullscreenenter"",""5"",""12094""
","
","","","","","","","","","","","","","","","","","","","","","",""
"d3-instructions","32","163041","0.0-32.0","957","861","14","Male","false","true","true","true","""event"",""trial"",""time""
""fullscreenenter"",""5"",""12094""
","
","
","""event"",""trial"",""time""
""fullscreenenter"",""5"",""12094""
","
","","","","","","","","","","","","","","","","","","","","","",""
"d3-instructions","33","166738","0.0-33.0","957","861","14","Male","false","true","true","true","""event"",""trial"",""time""
""fullscreenenter"",""5"",""12094""
","
","
","""event"",""trial"",""time""
""fullscreenenter"",""5"",""12094""
","
","","","","","","","","","","","","","","","","","","","","","",""
"d3-animate-choice","34","169661","0.0-34.0","957","861","14","Male","false","true","true","true","""event"",""trial"",""time""
""fullscreenenter"",""5"",""12094""
","
","
","""event"",""trial"",""time""
""fullscreenenter"",""5"",""12094""
","
","915.1000000089407","","49","","","3000","1","","","images/tutgreenplanet.jpg","images/tutalien1","images/tutalien2","null","images/tutalien2","images/t.png","NA","practice","null","","","",""
"d3-animate-choice","35","173939","0.0-35.0","957","861","14","Male","false","true","true","true","""event"",""trial"",""time""
""fullscreenenter"",""5"",""12094""
","
","
","""event"",""trial"",""time""
""fullscreenenter"",""5"",""12094""
","
","814.7000000029802","","50","","","3000","1","2271","48","images/tutgreenplanet.jpg","images/tutalien1","images/tutalien2","null","images/tutalien1","images/t.png","NA","practice","null","","","",""
"d3-animate-choice","36","177369","0.0-36.0","957","861","14","Male","false","true","true","true","""event"",""trial"",""time""
""fullscreenenter"",""5"",""12094""
","
","
","""event"",""trial"",""time""
""fullscreenenter"",""5"",""12094""
","
","1424.9000000059605","","48","","","3000","1","","","images/tutgreenplanet.jpg","images/tutalien1","images/tutalien2","null","images/tutalien1","images/nothing.png","NA","practice","null","","","",""
"d3-animate-choice","37","179895","0.0-37.0","957","861","14","Male","false","true","true","true","""event"",""trial"",""time""
""fullscreenenter"",""5"",""12094""
","
","
","""event"",""trial"",""time""
""fullscreenenter"",""5"",""12094""
","
","520.5999999940395","","49","","","3000","1","","","images/tutgreenplanet.jpg","images/tutalien1","images/tutalien2","null","images/tutalien2","images/nothing.png","NA","practice","null","","","",""
"d3-animate-choice","38","182170","0.0-38.0","957","861","14","Male","false","true","true","true","""event"",""trial"",""time""
""fullscreenenter"",""5"",""12094""
","
","
","""event"",""trial"",""time""
""fullscreenenter"",""5"",""12094""
","
","270.19999998807907","","49","","","3000","1","","","images/tutgreenplanet.jpg","images/tutalien1","images/tutalien2","null","images/tutalien2","images/t.png","NA","practice","null","","","",""
"d3-animate-choice","39","184950","0.0-39.0","957","861","14","Male","false","true","true","true","""event"",""trial"",""time""
""fullscreenenter"",""5"",""12094""
","
","
","""event"",""trial"",""time""
""fullscreenenter"",""5"",""12094""
","
","774.7000000029802","","48","","","3000","1","","","images/tutgreenplanet.jpg","images/tutalien1","images/tutalien2","null","images/tutalien1","images/nothing.png","NA","practice","null","","","",""
"d3-animate-choice","40","187506","0.0-40.0","957","861","14","Male","false","true","true","true","""event"",""trial"",""time""
""fullscreenenter"",""5"",""12094""
","
","
","""event"",""trial"",""time""
""fullscreenenter"",""5"",""12094""
","
","548.8999999910593","","49","","","3000","1","","","images/tutgreenplanet.jpg","images/tutalien1","images/tutalien2","null","images/tutalien2","images/t.png","NA","practice","null","","","",""
"d3-animate-choice","41","189555","0.0-41.0","957","861","14","Male","false","true","true","true","""event"",""trial"",""time""
""fullscreenenter"",""5"",""12094""
","
","
","""event"",""trial"",""time""
""fullscreenenter"",""5"",""12094""
","
","42.29999999701977","","49","","","3000","1","1509.199999988079","49","images/tutgreenplanet.jpg","images/tutalien1","images/tutalien2","null","images/tutalien2","images/t.png","NA","practice","null","","","",""
"d3-animate-choice","42","191844","0.0-42.0","957","861","14","Male","false","true","true","true","""event"",""trial"",""time""
""fullscreenenter"",""5"",""12094""
","
","
","""event"",""trial"",""time""
""fullscreenenter"",""5"",""12094""
","
","285.59999999403954","","49","","","3000","1","2287","49","images/tutgreenplanet.jpg","images/tutalien1","images/tutalien2","null","images/tutalien2","images/t.png","NA","practice","null","","","",""
"d3-animate-choice","43","194689","0.0-43.0","957","861","14","Male","false","true","true","true","""event"",""trial"",""time""
""fullscreenenter"",""5"",""12094""
","
","
","""event"",""trial"",""time""
""fullscreenenter"",""5"",""12094""
","
","840.9000000059605","","49","","","3000","1","2437.5,2777.1000000089407","49,49","images/tutgreenplanet.jpg","images/tutalien1","images/tutalien2","null","images/tutalien2","images/t.png","NA","practice","null","","","",""
"d3-instructions","44","200541","0.0-44.0","957","861","14","Male","false","true","true","true","""event"",""trial"",""time""
""fullscreenenter"",""5"",""12094""
","
","
","""event"",""trial"",""time""
""fullscreenenter"",""5"",""12094""
","
","","","","","","","","","","","","","","","","","","","","","",""
"d3-instructions","45","203986","0.0-45.0","957","861","14","Male","false","true","true","true","""event"",""trial"",""time""
""fullscreenenter"",""5"",""12094""
","
","
","""event"",""trial"",""time""
""fullscreenenter"",""5"",""12094""
","
","","","","","","","","","","","","","","","","","","","","","",""
"d3-instructions","46","206661","0.0-46.0","957","861","14","Male","false","true","true","true","""event"",""trial"",""time""
""fullscreenenter"",""5"",""12094""
","
","
","""event"",""trial"",""time""
""fullscreenenter"",""5"",""12094""
","
","","","","","","","","","","","","","","","","","","","","","",""
"d3-instructions","47","216218","0.0-47.0","957","861","14","Male","false","true","true","true","""event"",""trial"",""time""
""fullscreenenter"",""5"",""12094""
","
","
","""event"",""trial"",""time""
""fullscreenenter"",""5"",""12094""
","
","","","","","","","","","","","","","","","","","","","","","",""
"d3-instructions","48","224821","0.0-48.0","957","861","14","Male","false","true","true","true","""event"",""trial"",""time""
""fullscreenenter"",""5"",""12094""
","
","
","""event"",""trial"",""time""
""fullscreenenter"",""5"",""12094""
","
","","","","","","","","","","","","","","","","","","","","","",""
"d3-instructions","49","232241","0.0-49.0","957","861","14","Male","false","true","true","true","""event"",""trial"",""time""
""fullscreenenter"",""5"",""12094""
","
","
","""event"",""trial"",""time""
""fullscreenenter"",""5"",""12094""
","
","","","","","","","","","","","","","","","","","","","","","",""
"d3-instructions","50","235298","0.0-50.0","957","861","14","Male","false","true","true","true","""event"",""trial"",""time""
""fullscreenenter"",""5"",""12094""
","
","
","""event"",""trial"",""time""
""fullscreenenter"",""5"",""12094""
","
","","","","","","","","","","","","","","","","","","","","","",""
"d3-instructions","51","237400","0.0-51.0","957","861","14","Male","false","true","true","true","""event"",""trial"",""time""
""fullscreenenter"",""5"",""12094""
","
","
","""event"",""trial"",""time""
""fullscreenenter"",""5"",""12094""
","
","","","","","","","","","","","","","","","","","","","","","",""
"d3-instructions","52","239079","0.0-52.0","957","861","14","Male","false","true","true","true","""event"",""trial"",""time""
""fullscreenenter"",""5"",""12094""
","
","
","""event"",""trial"",""time""
""fullscreenenter"",""5"",""12094""
","
","","","","","","","","","","","","","","","","","","","","","",""
"d3-instructions","53","246149","0.0-53.0","957","861","14","Male","false","true","true","true","""event"",""trial"",""time""
""fullscreenenter"",""5"",""12094""
","
","
","""event"",""trial"",""time""
""fullscreenenter"",""5"",""12094""
","
","","","","","","","","","","","","","","","","","","","","","",""
"d3-instructions","54","258110","0.0-54.0","957","861","14","Male","false","true","true","true","""event"",""trial"",""time""
""fullscreenenter"",""5"",""12094""
","
","
","""event"",""trial"",""time""
""fullscreenenter"",""5"",""12094""
","
","","","","","","","","","","","","","","","","","","","","","",""
"d3-instructions","55","260323","0.0-55.0","957","861","14","Male","false","true","true","true","""event"",""trial"",""time""
""fullscreenenter"",""5"",""12094""
","
","
","""event"",""trial"",""time""
""fullscreenenter"",""5"",""12094""
","
","","","","","","","","","","","","","","","","","","","","","",""
"d3-instructions","56","264152","0.0-56.0","957","861","14","Male","false","true","true","true","""event"",""trial"",""time""
""fullscreenenter"",""5"",""12094""
","
","
","""event"",""trial"",""time""
""fullscreenenter"",""5"",""12094""
","
","","","","","","","","","","","","","","","","","","","","","",""
"d3-instructions","57","266470","0.0-57.0","957","861","14","Male","false","true","true","true","""event"",""trial"",""time""
""fullscreenenter"",""5"",""12094""
","
","
","""event"",""trial"",""time""
""fullscreenenter"",""5"",""12094""
","
","","","","","","","","","","","","","","","","","","","","","",""
"d3-instructions","58","268657","0.0-58.0","957","861","14","Male","false","true","true","true","""event"",""trial"",""time""
""fullscreenenter"",""5"",""12094""
","
","
","""event"",""trial"",""time""
""fullscreenenter"",""5"",""12094""
","
","","","","","","","","","","","","","","","","","","","","","",""
"d3-instructions","59","272919","0.0-59.0","957","861","14","Male","false","true","true","true","""event"",""trial"",""time""
""fullscreenenter"",""5"",""12094""
","
","
","""event"",""trial"",""time""
""fullscreenenter"",""5"",""12094""
","
","","","","","","","","","","","","","","","","","","","","","",""
"d3-instructions","60","275283","0.0-60.0","957","861","14","Male","false","true","true","true","""event"",""trial"",""time""
""fullscreenenter"",""5"",""12094""
","
","
","""event"",""trial"",""time""
""fullscreenenter"",""5"",""12094""
","
","","","","","","","","","","","","","","","","","","","","","",""
"d3-animate-choice","61","277758","0.0-61.0-0.0","957","861","14","Male","false","true","true","true","""event"",""trial"",""time""
""fullscreenenter"",""5"",""12094""
","
","
","""event"",""trial"",""time""
""fullscreenenter"",""5"",""12094""
","
","468.6000000089407","","48","","","3000","1","","","images/earth.jpg","images/tutrocket1","images/tutrocket2","null","images/tutrocket1","","1","practice","null","2","","",""
"d3-animate-choice","62","280428","0.0-61.0-1.0","957","861","14","Male","false","true","true","true","""event"",""trial"",""time""
""fullscreenenter"",""5"",""12094""
","
","
","""event"",""trial"",""time""
""fullscreenenter"",""5"",""12094""
","
","663.5","","48","","","3000","1","","","images/tutgreenplanet.jpg","images/tutalien2","images/tutalien1","images/tutrocket1","images/tutalien2","images/nothing.png","2","practice","true","2","common","0","2022-02-21 22:27:40.954"
"two-step-fixation","63","281432","0.0-61.0-2.0","957","861","14","Male","false","true","true","true","""event"",""trial"",""time""
""fullscreenenter"",""5"",""12094""
","
","
","""event"",""trial"",""time""
""fullscreenenter"",""5"",""12094""
","
","","images/earth.jpg","","","","","","","","","","","","","","fixation","","","","","",""
"d3-animate-choice","64","283859","0.0-61.0-0.1","957","861","14","Male","false","true","true","true","""event"",""trial"",""time""
""fullscreenenter"",""5"",""12094""
","
","
","""event"",""trial"",""time""
""fullscreenenter"",""5"",""12094""
","
","422.59999999403954","","48","","","3000","1","","","images/earth.jpg","images/tutrocket1","images/tutrocket2","null","images/tutrocket1","","1","practice","null","2","","",""
"d3-animate-choice","65","286844","0.0-61.0-1.1","957","861","14","Male","false","true","true","true","""event"",""trial"",""time""
""fullscreenenter"",""5"",""12094""
","
","
","""event"",""trial"",""time""
""fullscreenenter"",""5"",""12094""
","
","981.1000000089407","","49","","","3000","1","","","images/tutyellowplanet.jpg","images/tutalien4","images/tutalien3","images/tutrocket1","images/tutalien3","images/t.png","2","practice","false","1","rare","1","2022-02-21 22:27:47.370"
"two-step-fixation","66","287849","0.0-61.0-2.1","957","861","14","Male","false","true","true","true","""event"",""trial"",""time""
""fullscreenenter"",""5"",""12094""
","
","
","""event"",""trial"",""time""
""fullscreenenter"",""5"",""12094""
","
","","images/earth.jpg","","","","","","","","","","","","","","fixation","","","","","",""
"d3-animate-choice","67","290256","0.0-61.0-0.2","957","861","14","Male","false","true","true","true","""event"",""trial"",""time""
""fullscreenenter"",""5"",""12094""
","
","
","""event"",""trial"",""time""
""fullscreenenter"",""5"",""12094""
","
","401.5","","49","","","3000","1","","","images/earth.jpg","images/tutrocket1","images/tutrocket2","null","images/tutrocket2","","1","practice","null","1","","",""
"d3-animate-choice","68","292537","0.0-61.0-1.2","957","861","14","Male","false","true","true","true","""event"",""trial"",""time""
""fullscreenenter"",""5"",""12094""
","
","
","""event"",""trial"",""time""
""fullscreenenter"",""5"",""12094""
","
","276.79999999701977","","48","","","3000","1","","","images/tutgreenplanet.jpg","images/tutalien2","images/tutalien1","images/tutrocket2","images/tutalien2","images/nothing.png","2","practice","false","2","rare","0","2022-02-21 22:27:53.063"
"two-step-fixation","69","293542","0.0-61.0-2.2","957","861","14","Male","false","true","true","true","""event"",""trial"",""time""
""fullscreenenter"",""5"",""12094""
","
","
","""event"",""trial"",""time""
""fullscreenenter"",""5"",""12094""
","
","","images/earth.jpg","","","","","","","","","","","","","","fixation","","","","","",""
"d3-animate-choice","70","296756","0.0-61.0-0.3","957","861","14","Male","false","true","true","true","""event"",""trial"",""time""
""fullscreenenter"",""5"",""12094""
","
","
","""event"",""trial"",""time""
""fullscreenenter"",""5"",""12094""
","
","1206.7000000029802","","49","","","3000","1","","","images/earth.jpg","images/tutrocket1","images/tutrocket2","null","images/tutrocket2","","1","practice","null","1","","",""
"d3-animate-choice","71","300305","0.0-61.0-1.3","957","861","14","Male","false","true","true","true","""event"",""trial"",""time""
""fullscreenenter"",""5"",""12094""
","
","
","""event"",""trial"",""time""
""fullscreenenter"",""5"",""12094""
","
","1543.6000000089407","","48","","","3000","1","","","images/tutyellowplanet.jpg","images/tutalien4","images/tutalien3","images/tutrocket2","images/tutalien4","images/t.png","2","practice","true","2","common","1","2022-02-21 22:28:00.831"
"two-step-fixation","72","301310","0.0-61.0-2.3","957","861","14","Male","false","true","true","true","""event"",""trial"",""time""
""fullscreenenter"",""5"",""12094""
","
","
","""event"",""trial"",""time""
""fullscreenenter"",""5"",""12094""
","
","","images/earth.jpg","","","","","","","","","","","","","","fixation","","","","","",""
"d3-animate-choice","73","303956","0.0-61.0-0.4","957","861","14","Male","false","true","true","true","""event"",""trial"",""time""
""fullscreenenter"",""5"",""12094""
","
","
","""event"",""trial"",""time""
""fullscreenenter"",""5"",""12094""
","
","638.5","","48","","","3000","1","","","images/earth.jpg","images/tutrocket1","images/tutrocket2","null","images/tutrocket1","","1","practice","null","2","","",""
"d3-animate-choice","74","306854","0.0-61.0-1.4","957","861","14","Male","false","true","true","true","""event"",""trial"",""time""
""fullscreenenter"",""5"",""12094""
","
","
","""event"",""trial"",""time""
""fullscreenenter"",""5"",""12094""
","
","894","","48","","","3000","1","","","images/tutyellowplanet.jpg","images/tutalien4","images/tutalien3","images/tutrocket1","images/tutalien4","images/nothing.png","2","practice","false","2","rare","0","2022-02-21 22:28:07.380"
"two-step-fixation","75","307858","0.0-61.0-2.4","957","861","14","Male","false","true","true","true","""event"",""trial"",""time""
""fullscreenenter"",""5"",""12094""
","
","
","""event"",""trial"",""time""
""fullscreenenter"",""5"",""12094""
","
","","images/earth.jpg","","","","","","","","","","","","","","fixation","","","","","",""
"d3-animate-choice","76","310486","0.0-61.0-0.5","957","861","14","Male","false","true","true","true","""event"",""trial"",""time""
""fullscreenenter"",""5"",""12094""
","
","
","""event"",""trial"",""time""
""fullscreenenter"",""5"",""12094""
","
","622.7999999970198","","49","","","3000","1","","","images/earth.jpg","images/tutrocket1","images/tutrocket2","null","images/tutrocket2","","1","practice","null","1","","",""
"d3-animate-choice","77","313657","0.0-61.0-1.5","957","861","14","Male","false","true","true","true","""event"",""trial"",""time""
""fullscreenenter"",""5"",""12094""
","
","
","""event"",""trial"",""time""
""fullscreenenter"",""5"",""12094""
","
","1164.9000000059605","","48","","","3000","1","","","images/tutgreenplanet.jpg","images/tutalien2","images/tutalien1","images/tutrocket2","images/tutalien2","images/t.png","2","practice","false","2","rare","1","2022-02-21 22:28:14.183"
"two-step-fixation","78","314662","0.0-61.0-2.5","957","861","14","Male","false","true","true","true","""event"",""trial"",""time""
""fullscreenenter"",""5"",""12094""
","
","
","""event"",""trial"",""time""
""fullscreenenter"",""5"",""12094""
","
","","images/earth.jpg","","","","","","","","","","","","","","fixation","","","","","",""
"d3-animate-choice","79","317419","0.0-61.0-0.6","957","861","14","Male","false","true","true","true","""event"",""trial"",""time""
""fullscreenenter"",""5"",""12094""
","
","
","""event"",""trial"",""time""
""fullscreenenter"",""5"",""12094""
","
","749.5999999940395","","49","","","3000","1","","","images/earth.jpg","images/tutrocket1","images/tutrocket2","null","images/tutrocket2","","1","practice","null","1","","",""
"d3-animate-choice","80","320409","0.0-61.0-1.6","957","861","14","Male","false","true","true","true","""event"",""trial"",""time""
""fullscreenenter"",""5"",""12094""
","
","
","""event"",""trial"",""time""
""fullscreenenter"",""5"",""12094""
","
","981.8999999910593","","48","","","3000","1","","","images/tutgreenplanet.jpg","images/tutalien2","images/tutalien1","images/tutrocket2","images/tutalien2","images/nothing.png","2","practice","false","2","rare","0","2022-02-21 22:28:20.935"
"two-step-fixation","81","321413","0.0-61.0-2.6","957","861","14","Male","false","true","true","true","""event"",""trial"",""time""
""fullscreenenter"",""5"",""12094""
","
","
","""event"",""trial"",""time""
""fullscreenenter"",""5"",""12094""
","
","","images/earth.jpg","","","","","","","","","","","","","","fixation","","","","","",""
"d3-animate-choice","82","323681","0.0-61.0-0.7","957","861","14","Male","false","true","true","true","""event"",""trial"",""time""
""fullscreenenter"",""5"",""12094""
","
","
","""event"",""trial"",""time""
""fullscreenenter"",""5"",""12094""
","
","263.1000000089407","","48","","","3000","1","","","images/earth.jpg","images/tutrocket1","images/tutrocket2","null","images/tutrocket1","","1","practice","null","2","","",""
"d3-animate-choice","83","326131","0.0-61.0-1.7","957","861","14","Male","false","true","true","true","""event"",""trial"",""time""
""fullscreenenter"",""5"",""12094""
","
","
","""event"",""trial"",""time""
""fullscreenenter"",""5"",""12094""
","
","446.1000000089407","","49","","","3000","1","","","images/tutgreenplanet.jpg","images/tutalien2","images/tutalien1","images/tutrocket1","images/tutalien1","images/t.png","2","practice","true","1","common","1","2022-02-21 22:28:26.657"
"two-step-fixation","84","327136","0.0-61.0-2.7","957","861","14","Male","false","true","true","true","""event"",""trial"",""time""
""fullscreenenter"",""5"",""12094""
","
","
","""event"",""trial"",""time""
""fullscreenenter"",""5"",""12094""
","
","","images/earth.jpg","","","","","","","","","","","","","","fixation","","","","","",""
"d3-animate-choice","85","329534","0.0-61.0-0.8","957","861","14","Male","false","true","true","true","""event"",""trial"",""time""
""fullscreenenter"",""5"",""12094""
","
","
","""event"",""trial"",""time""
""fullscreenenter"",""5"",""12094""
","
","393.5","","48","","","3000","1","","","images/earth.jpg","images/tutrocket1","images/tutrocket2","null","images/tutrocket1","","1","practice","null","2","","",""
"d3-animate-choice","86","332235","0.0-61.0-1.8","957","861","14","Male","false","true","true","true","""event"",""trial"",""time""
""fullscreenenter"",""5"",""12094""
","
","
","""event"",""trial"",""time""
""fullscreenenter"",""5"",""12094""
","
","695.9000000059605","","49","","","3000","1","","","images/tutgreenplanet.jpg","images/tutalien2","images/tutalien1","images/tutrocket1","images/tutalien1","images/t.png","2","practice","true","1","common","1","2022-02-21 22:28:32.761"
"two-step-fixation","87","333241","0.0-61.0-2.8","957","861","14","Male","false","true","true","true","""event"",""trial"",""time""
""fullscreenenter"",""5"",""12094""
","
","
","""event"",""trial"",""time""
""fullscreenenter"",""5"",""12094""
","
","","images/earth.jpg","","","","","","","","","","","","","","fixation","","","","","",""
"d3-animate-choice","88","335879","0.0-61.0-0.9","957","861","14","Male","false","true","true","true","""event"",""trial"",""time""
""fullscreenenter"",""5"",""12094""
","
","
","""event"",""trial"",""time""
""fullscreenenter"",""5"",""12094""
","
","632.2999999970198","","48","","","3000","1","","","images/earth.jpg","images/tutrocket1","images/tutrocket2","null","images/tutrocket1","","1","practice","null","2","","",""
"d3-animate-choice","89","339473","0.0-61.0-1.9","957","861","14","Male","false","true","true","true","""event"",""trial"",""time""
""fullscreenenter"",""5"",""12094""
","
","
","""event"",""trial"",""time""
""fullscreenenter"",""5"",""12094""
","
","1585.2000000029802","","48","","","3000","1","","","images/tutgreenplanet.jpg","images/tutalien2","images/tutalien1","images/tutrocket1","images/tutalien2","images/t.png","2","practice","true","2","common","1","2022-02-21 22:28:39.999"
"two-step-fixation","90","340477","0.0-61.0-2.9","957","861","14","Male","false","true","true","true","""event"",""trial"",""time""
""fullscreenenter"",""5"",""12094""
","
","
","""event"",""trial"",""time""
""fullscreenenter"",""5"",""12094""
","
","","images/earth.jpg","","","","","","","","","","","","","","fixation","","","","","",""
"d3-animate-choice","91","343728","0.0-61.0-0.10","957","861","14","Male","false","true","true","true","""event"",""trial"",""time""
""fullscreenenter"",""5"",""12094""
","
","
","""event"",""trial"",""time""
""fullscreenenter"",""5"",""12094""
","
","1246.2000000029802","","49","","","3000","1","","","images/earth.jpg","images/tutrocket1","images/tutrocket2","null","images/tutrocket2","","1","practice","null","1","","",""
"d3-animate-choice","92","347112","0.0-61.0-1.10","957","861","14","Male","false","true","true","true","""event"",""trial"",""time""
""fullscreenenter"",""5"",""12094""
","
","
","""event"",""trial"",""time""
""fullscreenenter"",""5"",""12094""
","
","1376.2000000029802","","49","","","3000","1","","","images/tutgreenplanet.jpg","images/tutalien2","images/tutalien1","images/tutrocket2","images/tutalien1","images/nothing.png","2","practice","false","1","rare","0","2022-02-21 22:28:47.638"
"two-step-fixation","93","348116","0.0-61.0-2.10","957","861","14","Male","false","true","true","true","""event"",""trial"",""time""
""fullscreenenter"",""5"",""12094""
","
","
","""event"",""trial"",""time""
""fullscreenenter"",""5"",""12094""
","
","","images/earth.jpg","","","","","","","","","","","","","","fixation","","","","","",""
"d3-animate-choice","94","350183","0.0-61.0-0.11","957","861","14","Male","false","true","true","true","""event"",""trial"",""time""
""fullscreenenter"",""5"",""12094""
","
","
","""event"",""trial"",""time""
""fullscreenenter"",""5"",""12094""
","
","61.20000000298023","","48","","","3000","1","1298.2999999970198","48","images/earth.jpg","images/tutrocket1","images/tutrocket2","null","images/tutrocket1","","1","practice","null","2","","",""
"d3-animate-choice","95","353434","0.0-61.0-1.11","957","861","14","Male","false","true","true","true","""event"",""trial"",""time""
""fullscreenenter"",""5"",""12094""
","
","
","""event"",""trial"",""time""
""fullscreenenter"",""5"",""12094""
","
","1243","","48","","","3000","1","","","images/tutyellowplanet.jpg","images/tutalien4","images/tutalien3","images/tutrocket1","images/tutalien4","images/nothing.png","2","practice","false","2","rare","0","2022-02-21 22:28:53.960"
"two-step-fixation","96","354438","0.0-61.0-2.11","957","861","14","Male","false","true","true","true","""event"",""trial"",""time""
""fullscreenenter"",""5"",""12094""
","
","
","""event"",""trial"",""time""
""fullscreenenter"",""5"",""12094""
","
","","images/earth.jpg","","","","","","","","","","","","","","fixation","","","","","",""
"d3-animate-choice","97","356463","0.0-61.0-0.12","957","861","14","Male","false","true","true","true","""event"",""trial"",""time""
""fullscreenenter"",""5"",""12094""
","
","
","""event"",""trial"",""time""
""fullscreenenter"",""5"",""12094""
","
","16.900000005960464","","48","","","3000","1","","","images/earth.jpg","images/tutrocket1","images/tutrocket2","null","images/tutrocket1","","1","practice","null","2","","",""
"d3-animate-choice","98","358856","0.0-61.0-1.12","957","861","14","Male","false","true","true","true","""event"",""trial"",""time""
""fullscreenenter"",""5"",""12094""
","
","
","""event"",""trial"",""time""
""fullscreenenter"",""5"",""12094""
","
","387","","49","","","3000","1","","","images/tutyellowplanet.jpg","images/tutalien4","images/tutalien3","images/tutrocket1","images/tutalien3","images/nothing.png","2","practice","false","1","rare","0","2022-02-21 22:28:59.382"
"two-step-fixation","99","359860","0.0-61.0-2.12","957","861","14","Male","false","true","true","true","""event"",""trial"",""time""
""fullscreenenter"",""5"",""12094""
","
","
","""event"",""trial"",""time""
""fullscreenenter"",""5"",""12094""
","
","","images/earth.jpg","","","","","","","","","","","","","","fixation","","","","","",""
"d3-animate-choice","100","362816","0.0-61.0-0.13","957","861","14","Male","false","true","true","true","""event"",""trial"",""time""
""fullscreenenter"",""5"",""12094""
","
","
","""event"",""trial"",""time""
""fullscreenenter"",""5"",""12094""
","
","951.5999999940395","","48","","","3000","1","","","images/earth.jpg","images/tutrocket1","images/tutrocket2","null","images/tutrocket1","","1","practice","null","2","","",""
"d3-animate-choice","101","365305","0.0-61.0-1.13","957","861","14","Male","false","true","true","true","""event"",""trial"",""time""
""fullscreenenter"",""5"",""12094""
","
","
","""event"",""trial"",""time""
""fullscreenenter"",""5"",""12094""
","
","480.1000000089407","","49","","","3000","1","","","images/tutyellowplanet.jpg","images/tutalien4","images/tutalien3","images/tutrocket1","images/tutalien3","images/nothing.png","2","practice","false","1","rare","0","2022-02-21 22:29:05.832"
"two-step-fixation","102","366310","0.0-61.0-2.13","957","861","14","Male","false","true","true","true","""event"",""trial"",""time""
""fullscreenenter"",""5"",""12094""
","
","
","""event"",""trial"",""time""
""fullscreenenter"",""5"",""12094""
","
","","images/earth.jpg","","","","","","","","","","","","","","fixation","","","","","",""
"d3-animate-choice","103","368712","0.0-61.0-0.14","957","861","14","Male","false","true","true","true","""event"",""trial"",""time""
""fullscreenenter"",""5"",""12094""
","
","
","""event"",""trial"",""time""
""fullscreenenter"",""5"",""12094""
","
","394.8999999910593","","49","","","3000","1","","","images/earth.jpg","images/tutrocket1","images/tutrocket2","null","images/tutrocket2","","1","practice","null","1","","",""
"d3-animate-choice","104","371294","0.0-61.0-1.14","957","861","14","Male","false","true","true","true","""event"",""trial"",""time""
""fullscreenenter"",""5"",""12094""
","
","
","""event"",""trial"",""time""
""fullscreenenter"",""5"",""12094""
","
","574.9000000059605","","48","","","3000","1","","","images/tutyellowplanet.jpg","images/tutalien4","images/tutalien3","images/tutrocket2","images/tutalien4","images/t.png","2","practice","true","2","common","1","2022-02-21 22:29:11.820"
"two-step-fixation","105","372301","0.0-61.0-2.14","957","861","14","Male","false","true","true","true","""event"",""trial"",""time""
""fullscreenenter"",""5"",""12094""
","
","
","""event"",""trial"",""time""
""fullscreenenter"",""5"",""12094""
","
","","images/earth.jpg","","","","","","","","","","","","","","fixation","","","","","",""
"d3-animate-choice","106","374767","0.0-61.0-0.15","957","861","14","Male","false","true","true","true","""event"",""trial"",""time""
""fullscreenenter"",""5"",""12094""
","
","
","""event"",""trial"",""time""
""fullscreenenter"",""5"",""12094""
","
","461.3999999910593","","48","","","3000","1","","","images/earth.jpg","images/tutrocket1","images/tutrocket2","null","images/tutrocket1","","1","practice","null","2","","",""
"d3-animate-choice","107","378320","0.0-61.0-1.15","957","861","14","Male","false","true","true","true","""event"",""trial"",""time""
""fullscreenenter"",""5"",""12094""
","
","
","""event"",""trial"",""time""
""fullscreenenter"",""5"",""12094""
","
","1548.7000000029802","","48","","","3000","1","","","images/tutgreenplanet.jpg","images/tutalien2","images/tutalien1","images/tutrocket1","images/tutalien2","images/t.png","2","practice","true","2","common","1","2022-02-21 22:29:18.847"
"two-step-fixation","108","379325","0.0-61.0-2.15","957","861","14","Male","false","true","true","true","""event"",""trial"",""time""
""fullscreenenter"",""5"",""12094""
","
","
","""event"",""trial"",""time""
""fullscreenenter"",""5"",""12094""
","
","","images/earth.jpg","","","","","","","","","","","","","","fixation","","","","","",""
"d3-animate-choice","109","381861","0.0-61.0-0.16","957","861","14","Male","false","true","true","true","""event"",""trial"",""time""
""fullscreenenter"",""5"",""12094""
","
","
","""event"",""trial"",""time""
""fullscreenenter"",""5"",""12094""
","
","528.7999999970198","","49","","","3000","1","","","images/earth.jpg","images/tutrocket1","images/tutrocket2","null","images/tutrocket2","","1","practice","null","1","","",""
"d3-animate-choice","110","384913","0.0-61.0-1.16","957","861","14","Male","false","true","true","true","""event"",""trial"",""time""
""fullscreenenter"",""5"",""12094""
","
","
","""event"",""trial"",""time""
""fullscreenenter"",""5"",""12094""
","
","1046.9000000059605","","48","","","3000","1","","","images/tutyellowplanet.jpg","images/tutalien4","images/tutalien3","images/tutrocket2","images/tutalien4","images/nothing.png","2","practice","true","2","common","0","2022-02-21 22:29:25.439"
"two-step-fixation","111","385919","0.0-61.0-2.16","957","861","14","Male","false","true","true","true","""event"",""trial"",""time""
""fullscreenenter"",""5"",""12094""
","
","
","""event"",""trial"",""time""
""fullscreenenter"",""5"",""12094""
","
","","images/earth.jpg","","","","","","","","","","","","","","fixation","","","","","",""
"d3-animate-choice","112","388006","0.0-61.0-0.17","957","861","14","Male","false","true","true","true","""event"",""trial"",""time""
""fullscreenenter"",""5"",""12094""
","
","
","""event"",""trial"",""time""
""fullscreenenter"",""5"",""12094""
","
","82","","48","","","3000","1","","","images/earth.jpg","images/tutrocket1","images/tutrocket2","null","images/tutrocket1","","1","practice","null","2","","",""
"d3-animate-choice","113","391190","0.0-61.0-1.17","957","861","14","Male","false","true","true","true","""event"",""trial"",""time""
""fullscreenenter"",""5"",""12094""
","
","
","""event"",""trial"",""time""
""fullscreenenter"",""5"",""12094""
","
","1180.2999999970198","","48","","","3000","1","","","images/tutgreenplanet.jpg","images/tutalien2","images/tutalien1","images/tutrocket1","images/tutalien2","images/nothing.png","2","practice","true","2","common","0","2022-02-21 22:29:31.716"
"two-step-fixation","114","392195","0.0-61.0-2.17","957","861","14","Male","false","true","true","true","""event"",""trial"",""time""
""fullscreenenter"",""5"",""12094""
","
","
","""event"",""trial"",""time""
""fullscreenenter"",""5"",""12094""
","
","","images/earth.jpg","","","","","","","","","","","","","","fixation","","","","","",""
"d3-animate-choice","115","394527","0.0-61.0-0.18","957","861","14","Male","false","true","true","true","""event"",""trial"",""time""
""fullscreenenter"",""5"",""12094""
","
","
","""event"",""trial"",""time""
""fullscreenenter"",""5"",""12094""
","
","325.29999999701977","","49","","","3000","1","","","images/earth.jpg","images/tutrocket1","images/tutrocket2","null","images/tutrocket2","","1","practice","null","1","","",""
"d3-animate-choice","116","397460","0.0-61.0-1.18","957","861","14","Male","false","true","true","true","""event"",""trial"",""time""
""fullscreenenter"",""5"",""12094""
","
","
","""event"",""trial"",""time""
""fullscreenenter"",""5"",""12094""
","
","926","","49","","","3000","1","","","images/tutyellowplanet.jpg","images/tutalien4","images/tutalien3","images/tutrocket2","images/tutalien3","images/nothing.png","2","practice","true","1","common","0","2022-02-21 22:29:37.986"
"two-step-fixation","117","398464","0.0-61.0-2.18","957","861","14","Male","false","true","true","true","""event"",""trial"",""time""
""fullscreenenter"",""5"",""12094""
","
","
","""event"",""trial"",""time""
""fullscreenenter"",""5"",""12094""
","
","","images/earth.jpg","","","","","","","","","","","","","","fixation","","","","","",""
"d3-animate-choice","118","400551","0.0-61.0-0.19","957","861","14","Male","false","true","true","true","""event"",""trial"",""time""
""fullscreenenter"",""5"",""12094""
","
","
","""event"",""trial"",""time""
""fullscreenenter"",""5"",""12094""
","
","81.8999999910593","","48","","","3000","1","","","images/earth.jpg","images/tutrocket1","images/tutrocket2","null","images/tutrocket1","","1","practice","null","2","","",""
"d3-animate-choice","119","404049","0.0-61.0-1.19","957","861","14","Male","false","true","true","true","""event"",""trial"",""time""
""fullscreenenter"",""5"",""12094""
","
","
","""event"",""trial"",""time""
""fullscreenenter"",""5"",""12094""
","
","1493.2999999970198","","49","","","3000","1","","","images/tutgreenplanet.jpg","images/tutalien2","images/tutalien1","images/tutrocket1","images/tutalien1","images/nothing.png","2","practice","true","1","common","0","2022-02-21 22:29:44.575"
"two-step-fixation","120","405053","0.0-61.0-2.19","957","861","14","Male","false","true","true","true","""event"",""trial"",""time""
""fullscreenenter"",""5"",""12094""
","
","
","""event"",""trial"",""time""
""fullscreenenter"",""5"",""12094""
","
","","images/earth.jpg","","","","","","","","","","","","","","fixation","","","","","",""
"d3-instructions","121","408281","0.0-62.0","957","861","14","Male","false","true","true","true","""event"",""trial"",""time""
""fullscreenenter"",""5"",""12094""
","
","
","""event"",""trial"",""time""
""fullscreenenter"",""5"",""12094""
","
","","","","","","","","","","","","","","","","","","","","","",""
"audio-keyboard-response","122","411047","0.0-63.0","957","861","14","Male","false","true","true","true","""event"",""trial"",""time""
""fullscreenenter"",""5"",""12094""
","
","
","""event"",""trial"",""time""
""fullscreenenter"",""5"",""12094""
","
","2763","audio/instructions/treasure_feedback.wav","32","","","","","","","","","","","","","","","","","","",""
"d3-instructions","123","425059","0.0-64.0","957","861","14","Male","false","true","true","true","""event"",""trial"",""time""
""fullscreenenter"",""5"",""12094""
","
","
","""event"",""trial"",""time""
""fullscreenenter"",""5"",""12094""
","
","","","","","","","","","","","","","","","","","","","","","",""
"d3-instructions","124","437704","0.0-65.0","957","861","14","Male","false","true","true","true","""event"",""trial"",""time""
""fullscreenenter"",""5"",""12094""
","
","
","""event"",""trial"",""time""
""fullscreenenter"",""5"",""12094""
","
","","","","","","","","","","","","","","","","","","","","","",""
"d3-instructions","125","461415","0.0-66.0","957","861","14","Male","false","true","true","true","""event"",""trial"",""time""
""fullscreenenter"",""5"",""12094""
","
","
","""event"",""trial"",""time""
""fullscreenenter"",""5"",""12094""
","
","","","","","","","","","","","","","","","","","","","","","",""
"d3-instructions","126","473764","0.0-67.0","957","861","14","Male","false","true","true","true","""event"",""trial"",""time""
""fullscreenenter"",""5"",""12094""
","
","
","""event"",""trial"",""time""
""fullscreenenter"",""5"",""12094""
","
","","","","","","","","","","","","","","","","","","","","","",""
"d3-instructions","127","477248","0.0-68.0","957","861","14","Male","false","true","true","true","""event"",""trial"",""time""
""fullscreenenter"",""5"",""12094""
","
","
","""event"",""trial"",""time""
""fullscreenenter"",""5"",""12094""
","
","","","","","","","","","","","","","","","","","","","","","",""
"instructions-quiz","128","481672","0.0-69.0","957","861","14","Male","false","true","true","true","""event"",""trial"",""time""
""fullscreenenter"",""5"",""12094""
","
","
","""event"",""trial"",""time""
""fullscreenenter"",""5"",""12094""
","
","4420.9000000059605","audio/quiz/Q1_Prompt.wav","","1","","","","","","","","","","","","","","","","","",""
"audio-keyboard-response","129","482395","0.0-70.0","957","861","14","Male","false","true","true","true","""event"",""trial"",""time""
""fullscreenenter"",""5"",""12094""
","
","
","""event"",""trial"",""time""
""fullscreenenter"",""5"",""12094""
","
","720","audio/quiz/Q1_Correct.wav","32","","","","","","","","","","","","","","","","","","",""
"instructions-quiz","130","486646","0.0-71.0","957","861","14","Male","false","true","true","true","""event"",""trial"",""time""
""fullscreenenter"",""5"",""12094""
","
","
","""event"",""trial"",""time""
""fullscreenenter"",""5"",""12094""
","
","4249.5999999940395","audio/quiz/Q2_Prompt.wav","","1","","","","","","","","","","","","","","","","","",""
"audio-keyboard-response","131","489229","0.0-72.0","957","861","14","Male","false","true","true","true","""event"",""trial"",""time""
""fullscreenenter"",""5"",""12094""
","
","
","""event"",""trial"",""time""
""fullscreenenter"",""5"",""12094""
","
","2577","audio/quiz/Q2_Incorrect.wav","32","","","","","","","","","","","","","","","","","","",""
"instructions-quiz","132","491294","0.0-73.0","957","861","14","Male","false","true","true","true","""event"",""trial"",""time""
""fullscreenenter"",""5"",""12094""
","
","
","""event"",""trial"",""time""
""fullscreenenter"",""5"",""12094""
","
","2062.0999999940395","audio/quiz/Q3_Prompt.wav","","1","","","","","","","","","","","","","","","","","",""
"audio-keyboard-response","133","491627","0.0-74.0","957","861","14","Male","false","true","true","true","""event"",""trial"",""time""
""fullscreenenter"",""5"",""12094""
","
","
","""event"",""trial"",""time""
""fullscreenenter"",""5"",""12094""
","
","331","audio/quiz/Q3_Correct.wav","32","","","","","","","","","","","","","","","","","","",""
"d3-instructions","134","493805","0.0-75.0","957","861","14","Male","false","true","true","true","""event"",""trial"",""time""
""fullscreenenter"",""5"",""12094""
","
","
","""event"",""trial"",""time""
""fullscreenenter"",""5"",""12094""
","
","","","","","","","","","","","","","","","","","","","","","",""
"d3-animate-choice","135","496682","0.0-76.0-0.0","957","861","14","Male","false","true","true","true","""event"",""trial"",""time""
""fullscreenenter"",""5"",""12094""
","
","
","""event"",""trial"",""time""
""fullscreenenter"",""5"",""12094""
","
","871.7999999970198","","49","","","3000","1","","","images/earth.jpg","images/rocket1","images/rocket2","null","images/rocket2","","1","real","null","1","","",""
"d3-animate-choice","136","499684","0.0-76.0-1.0","957","861","14","Male","false","true","true","true","""event"",""trial"",""time""
""fullscreenenter"",""5"",""12094""
","
","
","""event"",""trial"",""time""
""fullscreenenter"",""5"",""12094""
","
","997.5999999940395","","49","","","3000","1","","","images/purpleplanet.jpg","images/alien4","images/alien3","images/rocket2","images/alien3","images/t.png","2","real","true","1","common","1","2022-02-21 22:31:20.210"
"two-step-fixation","137","500691","0.0-76.0-2.0","957","861","14","Male","false","true","true","true","""event"",""trial"",""time""
""fullscreenenter"",""5"",""12094""
","
","
","""event"",""trial"",""time""
""fullscreenenter"",""5"",""12094""
","
","","images/earth.jpg","","","","","","","","","","","","","","fixation","","","","","",""
"d3-animate-choice","138","503497","0.0-76.0-0.1","957","861","14","Male","false","true","true","true","""event"",""trial"",""time""
""fullscreenenter"",""5"",""12094""
","
","
","""event"",""trial"",""time""
""fullscreenenter"",""5"",""12094""
","
","801.9000000059605","","49","","","3000","1","","","images/earth.jpg","images/rocket1","images/rocket2","null","images/rocket2","","1","real","null","1","","",""
"d3-animate-choice","139","506009","0.0-76.0-1.1","957","861","14","Male","false","true","true","true","""event"",""trial"",""time""
""fullscreenenter"",""5"",""12094""
","
","
","""event"",""trial"",""time""
""fullscreenenter"",""5"",""12094""
","
","503.3999999910593","","49","","","3000","1","","","images/purpleplanet.jpg","images/alien4","images/alien3","images/rocket2","images/alien3","images/t.png","2","real","true","1","common","1","2022-02-21 22:31:26.535"
"two-step-fixation","140","507013","0.0-76.0-2.1","957","861","14","Male","false","true","true","true","""event"",""trial"",""time""
""fullscreenenter"",""5"",""12094""
","
","
","""event"",""trial"",""time""
""fullscreenenter"",""5"",""12094""
","
","","images/earth.jpg","","","","","","","","","","","","","","fixation","","","","","",""
"d3-animate-choice","141","509041","0.0-76.0-0.2","957","861","14","Male","false","true","true","true","""event"",""trial"",""time""
""fullscreenenter"",""5"",""12094""
","
","
","""event"",""trial"",""time""
""fullscreenenter"",""5"",""12094""
","
","23.30000001192093","","49","","","3000","1","","","images/earth.jpg","images/rocket1","images/rocket2","null","images/rocket2","","1","real","null","1","","",""
"d3-animate-choice","142","511373","0.0-76.0-1.2","957","861","14","Male","false","true","true","true","""event"",""trial"",""time""
""fullscreenenter"",""5"",""12094""
","
","
","""event"",""trial"",""time""
""fullscreenenter"",""5"",""12094""
","
","328.1000000089407","","49","","","3000","1","","","images/redplanet1.jpg","images/alien2","images/alien1","images/rocket2","images/alien1","images/nothing.png","2","real","false","1","rare","0","2022-02-21 22:31:31.899"
"two-step-fixation","143","512376","0.0-76.0-2.2","957","861","14","Male","false","true","true","true","""event"",""trial"",""time""
""fullscreenenter"",""5"",""12094""
","
","
","""event"",""trial"",""time""
""fullscreenenter"",""5"",""12094""
","
","","images/earth.jpg","","","","","","","","","","","","","","fixation","","","","","",""
"d3-animate-choice","144","515028","0.0-76.0-0.3","957","861","14","Male","false","true","true","true","""event"",""trial"",""time""
""fullscreenenter"",""5"",""12094""
","
","
","""event"",""trial"",""time""
""fullscreenenter"",""5"",""12094""
","
","645.9000000059605","","49","","","3000","1","","","images/earth.jpg","images/rocket1","images/rocket2","null","images/rocket2","","1","real","null","1","","",""
"d3-animate-choice","145","517491","0.0-76.0-1.3","957","861","14","Male","false","true","true","true","""event"",""trial"",""time""
""fullscreenenter"",""5"",""12094""
","
","
","""event"",""trial"",""time""
""fullscreenenter"",""5"",""12094""
","
","455.1000000089407","","49","","","3000","1","","","images/purpleplanet.jpg","images/alien4","images/alien3","images/rocket2","images/alien3","images/nothing.png","2","real","true","1","common","0","2022-02-21 22:31:38.017"
"two-step-fixation","146","518495","0.0-76.0-2.3","957","861","14","Male","false","true","true","true","""event"",""trial"",""time""
""fullscreenenter"",""5"",""12094""
","
","
","""event"",""trial"",""time""
""fullscreenenter"",""5"",""12094""
","
","","images/earth.jpg","","","","","","","","","","","","","","fixation","","","","","",""
"d3-animate-choice","147","521113","0.0-76.0-0.4","957","861","14","Male","false","true","true","true","""event"",""trial"",""time""
""fullscreenenter"",""5"",""12094""
","
","
","""event"",""trial"",""time""
""fullscreenenter"",""5"",""12094""
","
","611.7999999970198","","48","","","3000","1","1217.0999999940395","48","images/earth.jpg","images/rocket1","images/rocket2","null","images/rocket1","","1","real","null","2","","",""
"d3-animate-choice","148","523755","0.0-76.0-1.4","957","861","14","Male","false","true","true","true","""event"",""trial"",""time""
""fullscreenenter"",""5"",""12094""
","
","
","""event"",""trial"",""time""
""fullscreenenter"",""5"",""12094""
","
","636.6999999880791","","49","","","3000","1","","","images/redplanet1.jpg","images/alien2","images/alien1","images/rocket1","images/alien1","images/nothing.png","2","real","true","1","common","0","2022-02-21 22:31:44.281"
"two-step-fixation","149","524760","0.0-76.0-2.4","957","861","14","Male","false","true","true","true","""event"",""trial"",""time""
""fullscreenenter"",""5"",""12094""
","
","
","""event"",""trial"",""time""
""fullscreenenter"",""5"",""12094""
","
","","images/earth.jpg","","","","","","","","","","","","","","fixation","","","","","",""
"d3-animate-choice","150","526992","0.0-76.0-0.5","957","861","14","Male","false","true","true","true","""event"",""trial"",""time""
""fullscreenenter"",""5"",""12094""
","
","
","""event"",""trial"",""time""
""fullscreenenter"",""5"",""12094""
","
","225.90000000596046","","48","","","3000","1","","","images/earth.jpg","images/rocket1","images/rocket2","null","images/rocket1","","1","real","null","2","","",""
"d3-animate-choice","151","529397","0.0-76.0-1.5","957","861","14","Male","false","true","true","true","""event"",""trial"",""time""
""fullscreenenter"",""5"",""12094""
","
","
","""event"",""trial"",""time""
""fullscreenenter"",""5"",""12094""
","
","396.70000000298023","","49","","","3000","1","","","images/redplanet1.jpg","images/alien2","images/alien1","images/rocket1","images/alien1","images/nothing.png","2","real","true","1","common","0","2022-02-21 22:31:49.923"
"two-step-fixation","152","530403","0.0-76.0-2.5","957","861","14","Male","false","true","true","true","""event"",""trial"",""time""
""fullscreenenter"",""5"",""12094""
","
","
","""event"",""trial"",""time""
""fullscreenenter"",""5"",""12094""
","
","","images/earth.jpg","","","","","","","","","","","","","","fixation","","","","","",""
"d3-animate-choice","153","533295","0.0-76.0-0.6","957","861","14","Male","false","true","true","true","""event"",""trial"",""time""
""fullscreenenter"",""5"",""12094""
","
","
","""event"",""trial"",""time""
""fullscreenenter"",""5"",""12094""
","
","887.4000000059605","","49","","","3000","1","","","images/earth.jpg","images/rocket1","images/rocket2","null","images/rocket2","","1","real","null","1","","",""
"d3-animate-choice","154","536429","0.0-76.0-1.6","957","861","14","Male","false","true","true","true","""event"",""trial"",""time""
""fullscreenenter"",""5"",""12094""
","
","
","""event"",""trial"",""time""
""fullscreenenter"",""5"",""12094""
","
","1127.8999999910593","","48","","","3000","1","","","images/redplanet1.jpg","images/alien2","images/alien1","images/rocket2","images/alien2","images/t.png","2","real","false","2","rare","1","2022-02-21 22:31:56.955"
"two-step-fixation","155","537433","0.0-76.0-2.6","957","861","14","Male","false","true","true","true","""event"",""trial"",""time""
""fullscreenenter"",""5"",""12094""
","
","
","""event"",""trial"",""time""
""fullscreenenter"",""5"",""12094""
","
","","images/earth.jpg","","","","","","","","","","","","","","fixation","","","","","",""
"d3-animate-choice","156","540055","0.0-76.0-0.7","957","861","14","Male","false","true","true","true","""event"",""trial"",""time""
""fullscreenenter"",""5"",""12094""
","
","
","""event"",""trial"",""time""
""fullscreenenter"",""5"",""12094""
","
","614.6000000089407","","49","","","3000","1","","","images/earth.jpg","images/rocket1","images/rocket2","null","images/rocket2","","1","real","null","1","","",""
"d3-animate-choice","157","542993","0.0-76.0-1.7","957","861","14","Male","false","true","true","true","""event"",""trial"",""time""
""fullscreenenter"",""5"",""12094""
","
","
","""event"",""trial"",""time""
""fullscreenenter"",""5"",""12094""
","
","934.2000000029802","","48","","","3000","1","","","images/purpleplanet.jpg","images/alien4","images/alien3","images/rocket2","images/alien4","images/nothing.png","2","real","true","2","common","0","2022-02-21 22:32:03.519"
"two-step-fixation","158","543998","0.0-76.0-2.7","957","861","14","Male","false","true","true","true","""event"",""trial"",""time""
""fullscreenenter"",""5"",""12094""
","
","
","""event"",""trial"",""time""
""fullscreenenter"",""5"",""12094""
","
","","images/earth.jpg","","","","","","","","","","","","","","fixation","","","","","",""
"d3-animate-choice","159","546315","0.0-76.0-0.8","957","861","14","Male","false","true","true","true","""event"",""trial"",""time""
""fullscreenenter"",""5"",""12094""
","
","
","""event"",""trial"",""time""
""fullscreenenter"",""5"",""12094""
","
","308.79999999701977","","49","","","3000","1","","","images/earth.jpg","images/rocket1","images/rocket2","null","images/rocket2","","1","real","null","1","","",""
"d3-animate-choice","160","548985","0.0-76.0-1.8","957","861","14","Male","false","true","true","true","""event"",""trial"",""time""
""fullscreenenter"",""5"",""12094""
","
","
","""event"",""trial"",""time""
""fullscreenenter"",""5"",""12094""
","
","664.7000000029802","","48","","","3000","1","","","images/redplanet1.jpg","images/alien2","images/alien1","images/rocket2","images/alien2","images/nothing.png","2","real","false","2","rare","0","2022-02-21 22:32:09.511"
"two-step-fixation","161","549989","0.0-76.0-2.8","957","861","14","Male","false","true","true","true","""event"",""trial"",""time""
""fullscreenenter"",""5"",""12094""
","
","
","""event"",""trial"",""time""
""fullscreenenter"",""5"",""12094""
","
","","images/earth.jpg","","","","","","","","","","","","","","fixation","","","","","",""
"d3-animate-choice","162","552340","0.0-76.0-0.9","957","861","14","Male","false","true","true","true","""event"",""trial"",""time""
""fullscreenenter"",""5"",""12094""
","
","
","""event"",""trial"",""time""
""fullscreenenter"",""5"",""12094""
","
","341.40000000596046","","49","","","3000","1","","","images/earth.jpg","images/rocket1","images/rocket2","null","images/rocket2","","1","real","null","1","","",""
"d3-animate-choice","163","555532","0.0-76.0-1.9","957","861","14","Male","false","true","true","true","""event"",""trial"",""time""
""fullscreenenter"",""5"",""12094""
","
","
","""event"",""trial"",""time""
""fullscreenenter"",""5"",""12094""
","
","1187","","48","","","3000","1","","","images/redplanet1.jpg","images/alien2","images/alien1","images/rocket2","images/alien2","images/t.png","2","real","false","2","rare","1","2022-02-21 22:32:16.058"
"two-step-fixation","164","556537","0.0-76.0-2.9","957","861","14","Male","false","true","true","true","""event"",""trial"",""time""
""fullscreenenter"",""5"",""12094""
","
","
","""event"",""trial"",""time""
""fullscreenenter"",""5"",""12094""
","
","","images/earth.jpg","","","","","","","","","","","","","","fixation","","","","","",""
"d3-animate-choice","165","559388","0.0-76.0-0.10","957","861","14","Male","false","true","true","true","""event"",""trial"",""time""
""fullscreenenter"",""5"",""12094""
","
","
","""event"",""trial"",""time""
""fullscreenenter"",""5"",""12094""
","
","846.1000000089407","","49","","","3000","1","","","images/earth.jpg","images/rocket1","images/rocket2","null","images/rocket2","","1","real","null","1","","",""
"d3-animate-choice","166","561948","0.0-76.0-1.10","957","861","14","Male","false","true","true","true","""event"",""trial"",""time""
""fullscreenenter"",""5"",""12094""
","
","
","""event"",""trial"",""time""
""fullscreenenter"",""5"",""12094""
","
","551.7999999970198","","48","","","3000","1","","","images/purpleplanet.jpg","images/alien4","images/alien3","images/rocket2","images/alien4","images/nothing.png","2","real","true","2","common","0","2022-02-21 22:32:22.474"
"two-step-fixation","167","562956","0.0-76.0-2.10","957","861","14","Male","false","true","true","true","""event"",""trial"",""time""
""fullscreenenter"",""5"",""12094""
","
","
","""event"",""trial"",""time""
""fullscreenenter"",""5"",""12094""
","
","","images/earth.jpg","","","","","","","","","","","","","","fixation","","","","","",""
"d3-animate-choice","168","565349","0.0-76.0-0.11","957","861","14","Male","false","true","true","true","""event"",""trial"",""time""
""fullscreenenter"",""5"",""12094""
","
","
","""event"",""trial"",""time""
""fullscreenenter"",""5"",""12094""
","
","387.70000000298023","","49","","","3000","1","","","images/earth.jpg","images/rocket1","images/rocket2","null","images/rocket2","","1","real","null","1","","",""
"d3-animate-choice","169","567399","0.0-76.0-1.11","957","861","14","Male","false","true","true","true","""event"",""trial"",""time""
""fullscreenenter"",""5"",""12094""
","
","
","""event"",""trial"",""time""
""fullscreenenter"",""5"",""12094""
","
","45","","49","","","3000","1","338.40000000596046,1901.5999999940395","49,49","images/purpleplanet.jpg","images/alien4","images/alien3","images/rocket2","images/alien3","images/t.png","2","real","true","1","common","1","2022-02-21 22:32:27.925"
"two-step-fixation","170","568403","0.0-76.0-2.11","957","861","14","Male","false","true","true","true","""event"",""trial"",""time""
""fullscreenenter"",""5"",""12094""
","
","
","""event"",""trial"",""time""
""fullscreenenter"",""5"",""12094""
","
","","images/earth.jpg","","","","","","","","","","","","","","fixation","","","","","",""
"d3-animate-choice","171","570754","0.0-76.0-0.12","957","861","14","Male","false","true","true","true","""event"",""trial"",""time""
""fullscreenenter"",""5"",""12094""
","
","
","""event"",""trial"",""time""
""fullscreenenter"",""5"",""12094""
","
","346.79999999701977","","49","","","3000","1","","","images/earth.jpg","images/rocket1","images/rocket2","null","images/rocket2","","1","real","null","1","","",""
"d3-animate-choice","172","573142","0.0-76.0-1.12","957","861","14","Male","false","true","true","true","""event"",""trial"",""time""
""fullscreenenter"",""5"",""12094""
","
","
","""event"",""trial"",""time""
""fullscreenenter"",""5"",""12094""
","
","382","","49","","","3000","1","","","images/purpleplanet.jpg","images/alien4","images/alien3","images/rocket2","images/alien3","images/nothing.png","2","real","true","1","common","0","2022-02-21 22:32:33.668"
"two-step-fixation","173","574150","0.0-76.0-2.12","957","861","14","Male","false","true","true","true","""event"",""trial"",""time""
""fullscreenenter"",""5"",""12094""
","
","
","""event"",""trial"",""time""
""fullscreenenter"",""5"",""12094""
","
","","images/earth.jpg","","","","","","","","","","","","","","fixation","","","","","",""
"d3-animate-choice","174","576193","0.0-76.0-0.13","957","861","14","Male","false","true","true","true","""event"",""trial"",""time""
""fullscreenenter"",""5"",""12094""
","
","
","""event"",""trial"",""time""
""fullscreenenter"",""5"",""12094""
","
","33.900000005960464","","48","","","3000","1","","","images/earth.jpg","images/rocket1","images/rocket2","null","images/rocket1","","1","real","null","2","","",""
"d3-animate-choice","175","579136","0.0-76.0-1.13","957","861","14","Male","false","true","true","true","""event"",""trial"",""time""
""fullscreenenter"",""5"",""12094""
","
","
","""event"",""trial"",""time""
""fullscreenenter"",""5"",""12094""
","
","937.5","","49","","","3000","1","","","images/purpleplanet.jpg","images/alien4","images/alien3","images/rocket1","images/alien3","images/nothing.png","2","real","false","1","rare","0","2022-02-21 22:32:39.663"
"two-step-fixation","176","580141","0.0-76.0-2.13","957","861","14","Male","false","true","true","true","""event"",""trial"",""time""
""fullscreenenter"",""5"",""12094""
","
","
","""event"",""trial"",""time""
""fullscreenenter"",""5"",""12094""
","
","","images/earth.jpg","","","","","","","","","","","","","","fixation","","","","","",""
"d3-animate-choice","177","582271","0.0-76.0-0.14","957","861","14","Male","false","true","true","true","""event"",""trial"",""time""
""fullscreenenter"",""5"",""12094""
","
","
","""event"",""trial"",""time""
""fullscreenenter"",""5"",""12094""
","
","125.29999999701977","","48","","","3000","1","","","images/earth.jpg","images/rocket1","images/rocket2","null","images/rocket1","","1","real","null","2","","",""
"d3-animate-choice","178","585562","0.0-76.0-1.14","957","861","14","Male","false","true","true","true","""event"",""trial"",""time""
""fullscreenenter"",""5"",""12094""
","
","
","""event"",""trial"",""time""
""fullscreenenter"",""5"",""12094""
","
","1285.2000000029802","","48","","","3000","1","","","images/purpleplanet.jpg","images/alien4","images/alien3","images/rocket1","images/alien4","images/nothing.png","2","real","false","2","rare","0","2022-02-21 22:32:46.088"
"two-step-fixation","179","586567","0.0-76.0-2.14","957","861","14","Male","false","true","true","true","""event"",""trial"",""time""
""fullscreenenter"",""5"",""12094""
","
","
","""event"",""trial"",""time""
""fullscreenenter"",""5"",""12094""
","
","","images/earth.jpg","","","","","","","","","","","","","","fixation","","","","","",""
"d3-animate-choice","180","589141","0.0-76.0-0.15","957","861","14","Male","false","true","true","true","""event"",""trial"",""time""
""fullscreenenter"",""5"",""12094""
","
","
","""event"",""trial"",""time""
""fullscreenenter"",""5"",""12094""
","
","569.1999999880791","","48","","","3000","1","","","images/earth.jpg","images/rocket1","images/rocket2","null","images/rocket1","","1","real","null","2","","",""
"d3-animate-choice","181","591952","0.0-76.0-1.15","957","861","14","Male","false","true","true","true","""event"",""trial"",""time""
""fullscreenenter"",""5"",""12094""
","
","
","""event"",""trial"",""time""
""fullscreenenter"",""5"",""12094""
","
","805.5999999940395","","49","","","3000","1","","","images/purpleplanet.jpg","images/alien4","images/alien3","images/rocket1","images/alien3","images/nothing.png","2","real","false","1","rare","0","2022-02-21 22:32:52.478"
"two-step-fixation","182","592958","0.0-76.0-2.15","957","861","14","Male","false","true","true","true","""event"",""trial"",""time""
""fullscreenenter"",""5"",""12094""
","
","
","""event"",""trial"",""time""
""fullscreenenter"",""5"",""12094""
","
","","images/earth.jpg","","","","","","","","","","","","","","fixation","","","","","",""
"d3-animate-choice","183","595743","0.0-76.0-0.16","957","861","14","Male","false","true","true","true","""event"",""trial"",""time""
""fullscreenenter"",""5"",""12094""
","
","
","""event"",""trial"",""time""
""fullscreenenter"",""5"",""12094""
","
","778.9000000059605","","49","","","3000","1","","","images/earth.jpg","images/rocket1","images/rocket2","null","images/rocket2","","1","real","null","1","","",""
"d3-animate-choice","184","598404","0.0-76.0-1.16","957","861","14","Male","false","true","true","true","""event"",""trial"",""time""
""fullscreenenter"",""5"",""12094""
","
","
","""event"",""trial"",""time""
""fullscreenenter"",""5"",""12094""
","
","653.8999999910593","","49","","","3000","1","","","images/purpleplanet.jpg","images/alien4","images/alien3","images/rocket2","images/alien3","images/nothing.png","2","real","true","1","common","0","2022-02-21 22:32:58.930"
"two-step-fixation","185","599408","0.0-76.0-2.16","957","861","14","Male","false","true","true","true","""event"",""trial"",""time""
""fullscreenenter"",""5"",""12094""
","
","
","""event"",""trial"",""time""
""fullscreenenter"",""5"",""12094""
","
","","images/earth.jpg","","","","","","","","","","","","","","fixation","","","","","",""
"d3-animate-choice","186","601794","0.0-76.0-0.17","957","861","14","Male","false","true","true","true","""event"",""trial"",""time""
""fullscreenenter"",""5"",""12094""
","
","
","""event"",""trial"",""time""
""fullscreenenter"",""5"",""12094""
","
","381.79999999701977","","48","","","3000","1","","","images/earth.jpg","images/rocket1","images/rocket2","null","images/rocket1","","1","real","null","2","","",""
"d3-animate-choice","187","604811","0.0-76.0-1.17","957","861","14","Male","false","true","true","true","""event"",""trial"",""time""
""fullscreenenter"",""5"",""12094""
","
","
","""event"",""trial"",""time""
""fullscreenenter"",""5"",""12094""
","
","1012.2999999970198","","48","","","3000","1","","","images/redplanet1.jpg","images/alien2","images/alien1","images/rocket1","images/alien2","images/t.png","2","real","true","2","common","1","2022-02-21 22:33:05.337"
"two-step-fixation","188","605817","0.0-76.0-2.17","957","861","14","Male","false","true","true","true","""event"",""trial"",""time""
""fullscreenenter"",""5"",""12094""
","
","
","""event"",""trial"",""time""
""fullscreenenter"",""5"",""12094""
","
","","images/earth.jpg","","","","","","","","","","","","","","fixation","","","","","",""
"d3-animate-choice","189","608010","0.0-76.0-0.18","957","861","14","Male","false","true","true","true","""event"",""trial"",""time""
""fullscreenenter"",""5"",""12094""
","
","
","""event"",""trial"",""time""
""fullscreenenter"",""5"",""12094""
","
","188.70000000298023","","48","","","3000","1","","","images/earth.jpg","images/rocket1","images/rocket2","null","images/rocket1","","1","real","null","2","","",""
"d3-animate-choice","190","610924","0.0-76.0-1.18","957","861","14","Male","false","true","true","true","""event"",""trial"",""time""
""fullscreenenter"",""5"",""12094""
","
","
","""event"",""trial"",""time""
""fullscreenenter"",""5"",""12094""
","
","906.2000000029802","","49","","","3000","1","","","images/redplanet1.jpg","images/alien2","images/alien1","images/rocket1","images/alien1","images/t.png","2","real","true","1","common","1","2022-02-21 22:33:11.450"
"two-step-fixation","191","611930","0.0-76.0-2.18","957","861","14","Male","false","true","true","true","""event"",""trial"",""time""
""fullscreenenter"",""5"",""12094""
","
","
","""event"",""trial"",""time""
""fullscreenenter"",""5"",""12094""
","
","","images/earth.jpg","","","","","","","","","","","","","","fixation","","","","","",""
"d3-animate-choice","192","614548","0.0-76.0-0.19","957","861","14","Male","false","true","true","true","""event"",""trial"",""time""
""fullscreenenter"",""5"",""12094""
","
","
","""event"",""trial"",""time""
""fullscreenenter"",""5"",""12094""
","
","610.5999999940395","","48","","","3000","1","","","images/earth.jpg","images/rocket1","images/rocket2","null","images/rocket1","","1","real","null","2","","",""
"d3-animate-choice","193","617028","0.0-76.0-1.19","957","861","14","Male","false","true","true","true","""event"",""trial"",""time""
""fullscreenenter"",""5"",""12094""
","
","
","""event"",""trial"",""time""
""fullscreenenter"",""5"",""12094""
","
","475.29999999701977","","48","","","3000","1","","","images/purpleplanet.jpg","images/alien4","images/alien3","images/rocket1","images/alien4","images/nothing.png","2","real","false","2","rare","0","2022-02-21 22:33:17.554"
"two-step-fixation","194","618036","0.0-76.0-2.19","957","861","14","Male","false","true","true","true","""event"",""trial"",""time""
""fullscreenenter"",""5"",""12094""
","
","
","""event"",""trial"",""time""
""fullscreenenter"",""5"",""12094""
","
","","images/earth.jpg","","","","","","","","","","","","","","fixation","","","","","",""
"d3-animate-choice","195","621752","0.0-76.0-0.20","957","861","14","Male","false","true","true","true","""event"",""trial"",""time""
""fullscreenenter"",""5"",""12094""
","
","
","""event"",""trial"",""time""
""fullscreenenter"",""5"",""12094""
","
","1711.1000000089407","","48","","","3000","1","","","images/earth.jpg","images/rocket1","images/rocket2","null","images/rocket1","","1","real","null","2","","",""
"d3-animate-choice","196","624723","0.0-76.0-1.20","957","861","14","Male","false","true","true","true","""event"",""trial"",""time""
""fullscreenenter"",""5"",""12094""
","
","
","""event"",""trial"",""time""
""fullscreenenter"",""5"",""12094""
","
","964.6000000089407","","48","","","3000","1","","","images/redplanet1.jpg","images/alien2","images/alien1","images/rocket1","images/alien2","images/t.png","2","real","true","2","common","1","2022-02-21 22:33:25.249"
"two-step-fixation","197","625728","0.0-76.0-2.20","957","861","14","Male","false","true","true","true","""event"",""trial"",""time""
""fullscreenenter"",""5"",""12094""
","
","
","""event"",""trial"",""time""
""fullscreenenter"",""5"",""12094""
","
","","images/earth.jpg","","","","","","","","","","","","","","fixation","","","","","",""
"d3-animate-choice","198","628642","0.0-76.0-0.21","957","861","14","Male","false","true","true","true","""event"",""trial"",""time""
""fullscreenenter"",""5"",""12094""
","
","
","""event"",""trial"",""time""
""fullscreenenter"",""5"",""12094""
","
","908.5","","49","","","3000","1","","","images/earth.jpg","images/rocket1","images/rocket2","null","images/rocket2","","1","real","null","1","","",""
"d3-animate-choice","199","630979","0.0-76.0-1.21","957","861","14","Male","false","true","true","true","""event"",""trial"",""time""
""fullscreenenter"",""5"",""12094""
","
","
","""event"",""trial"",""time""
""fullscreenenter"",""5"",""12094""
","
","331.70000000298023","","49","","","3000","1","","","images/purpleplanet.jpg","images/alien4","images/alien3","images/rocket2","images/alien3","images/t.png","2","real","true","1","common","1","2022-02-21 22:33:31.505"
"two-step-fixation","200","631984","0.0-76.0-2.21","957","861","14","Male","false","true","true","true","""event"",""trial"",""time""
""fullscreenenter"",""5"",""12094""
","
","
","""event"",""trial"",""time""
""fullscreenenter"",""5"",""12094""
","
","","images/earth.jpg","","","","","","","","","","","","","","fixation","","","","","",""
"d3-animate-choice","201","634679","0.0-76.0-0.22","957","861","14","Male","false","true","true","true","""event"",""trial"",""time""
""fullscreenenter"",""5"",""12094""
","
","
","""event"",""trial"",""time""
""fullscreenenter"",""5"",""12094""
","
","691.0999999940395","","49","","","3000","1","","","images/earth.jpg","images/rocket1","images/rocket2","null","images/rocket2","","1","real","null","1","","",""
"d3-animate-choice","202","637406","0.0-76.0-1.22","957","861","14","Male","false","true","true","true","""event"",""trial"",""time""
""fullscreenenter"",""5"",""12094""
","
","
","""event"",""trial"",""time""
""fullscreenenter"",""5"",""12094""
","
","720.1999999880791","","49","","","3000","1","","","images/purpleplanet.jpg","images/alien4","images/alien3","images/rocket2","images/alien3","images/nothing.png","2","real","true","1","common","0","2022-02-21 22:33:37.932"
"two-step-fixation","203","638410","0.0-76.0-2.22","957","861","14","Male","false","true","true","true","""event"",""trial"",""time""
""fullscreenenter"",""5"",""12094""
","
","
","""event"",""trial"",""time""
""fullscreenenter"",""5"",""12094""
","
","","images/earth.jpg","","","","","","","","","","","","","","fixation","","","","","",""
"d3-animate-choice","204","642414","0.0-76.0-0.23","957","861","14","Male","false","true","true","true","""event"",""trial"",""time""
""fullscreenenter"",""5"",""12094""
","
","
","""event"",""trial"",""time""
""fullscreenenter"",""5"",""12094""
","
","2271","","49","","","3000","1","","","images/earth.jpg","images/rocket1","images/rocket2","null","images/rocket2","","1","real","null","1","","",""
"d3-animate-choice","205","645094","0.0-76.0-1.23","957","861","14","Male","false","true","true","true","""event"",""trial"",""time""
""fullscreenenter"",""5"",""12094""
","
","
","""event"",""trial"",""time""
""fullscreenenter"",""5"",""12094""
","
","675.5","","48","","","3000","1","","","images/purpleplanet.jpg","images/alien4","images/alien3","images/rocket2","images/alien4","images/t.png","2","real","true","2","common","1","2022-02-21 22:33:45.620"
"two-step-fixation","206","646098","0.0-76.0-2.23","957","861","14","Male","false","true","true","true","""event"",""trial"",""time""
""fullscreenenter"",""5"",""12094""
","
","
","""event"",""trial"",""time""
""fullscreenenter"",""5"",""12094""
","
","","images/earth.jpg","","","","","","","","","","","","","","fixation","","","","","",""
"d3-animate-choice","207","648629","0.0-76.0-0.24","957","861","14","Male","false","true","true","true","""event"",""trial"",""time""
""fullscreenenter"",""5"",""12094""
","
","
","""event"",""trial"",""time""
""fullscreenenter"",""5"",""12094""
","
","523","","49","","","3000","1","","","images/earth.jpg","images/rocket1","images/rocket2","null","images/rocket2","","1","real","null","1","","",""
"d3-animate-choice","208","651264","0.0-76.0-1.24","957","861","14","Male","false","true","true","true","""event"",""trial"",""time""
""fullscreenenter"",""5"",""12094""
","
","
","""event"",""trial"",""time""
""fullscreenenter"",""5"",""12094""
","
","631.2999999970198","","48","","","3000","1","","","images/purpleplanet.jpg","images/alien4","images/alien3","images/rocket2","images/alien4","images/t.png","2","real","true","2","common","1","2022-02-21 22:33:51.791"
"two-step-fixation","209","652269","0.0-76.0-2.24","957","861","14","Male","false","true","true","true","""event"",""trial"",""time""
""fullscreenenter"",""5"",""12094""
","
","
","""event"",""trial"",""time""
""fullscreenenter"",""5"",""12094""
","
","","images/earth.jpg","","","","","","","","","","","","","","fixation","","","","","",""
"d3-animate-choice","210","655135","0.0-76.0-0.25","957","861","14","Male","false","true","true","true","""event"",""trial"",""time""
""fullscreenenter"",""5"",""12094""
","
","
","""event"",""trial"",""time""
""fullscreenenter"",""5"",""12094""
","
","859.8000000119209","","48","","","3000","1","","","images/earth.jpg","images/rocket1","images/rocket2","null","images/rocket1","","1","real","null","2","","",""
"d3-animate-choice","211","657647","0.0-76.0-1.25","957","861","14","Male","false","true","true","true","""event"",""trial"",""time""
""fullscreenenter"",""5"",""12094""
","
","
","""event"",""trial"",""time""
""fullscreenenter"",""5"",""12094""
","
","506.20000000298023","","49","","","3000","1","","","images/redplanet1.jpg","images/alien2","images/alien1","images/rocket1","images/alien1","images/t.png","2","real","true","1","common","1","2022-02-21 22:33:58.173"
"two-step-fixation","212","658650","0.0-76.0-2.25","957","861","14","Male","false","true","true","true","""event"",""trial"",""time""
""fullscreenenter"",""5"",""12094""
","
","
","""event"",""trial"",""time""
""fullscreenenter"",""5"",""12094""
","
","","images/earth.jpg","","","","","","","","","","","","","","fixation","","","","","",""
"d3-animate-choice","213","661201","0.0-76.0-0.26","957","861","14","Male","false","true","true","true","""event"",""trial"",""time""
""fullscreenenter"",""5"",""12094""
","
","
","""event"",""trial"",""time""
""fullscreenenter"",""5"",""12094""
","
","545.0999999940395","","49","","","3000","1","","","images/earth.jpg","images/rocket1","images/rocket2","null","images/rocket2","","1","real","null","1","","",""
"d3-animate-choice","214","663885","0.0-76.0-1.26","957","861","14","Male","false","true","true","true","""event"",""trial"",""time""
""fullscreenenter"",""5"",""12094""
","
","
","""event"",""trial"",""time""
""fullscreenenter"",""5"",""12094""
","
","675.6000000089407","","48","","","3000","1","","","images/redplanet1.jpg","images/alien2","images/alien1","images/rocket2","images/alien2","images/t.png","2","real","false","2","rare","1","2022-02-21 22:34:04.411"
"two-step-fixation","215","664889","0.0-76.0-2.26","957","861","14","Male","false","true","true","true","""event"",""trial"",""time""
""fullscreenenter"",""5"",""12094""
","
","
","""event"",""trial"",""time""
""fullscreenenter"",""5"",""12094""
","
","","images/earth.jpg","","","","","","","","","","","","","","fixation","","","","","",""
"d3-animate-choice","216","667867","0.0-76.0-0.27","957","861","14","Male","false","true","true","true","""event"",""trial"",""time""
""fullscreenenter"",""5"",""12094""
","
","
","""event"",""trial"",""time""
""fullscreenenter"",""5"",""12094""
","
","972.0999999940395","","48","","","3000","1","","","images/earth.jpg","images/rocket1","images/rocket2","null","images/rocket1","","1","real","null","2","","",""
"d3-animate-choice","217","670872","0.0-76.0-1.27","957","861","14","Male","false","true","true","true","""event"",""trial"",""time""
""fullscreenenter"",""5"",""12094""
","
","
","""event"",""trial"",""time""
""fullscreenenter"",""5"",""12094""
","
","998.2999999970198","","49","","","3000","1","","","images/redplanet1.jpg","images/alien2","images/alien1","images/rocket1","images/alien1","images/t.png","2","real","true","1","common","1","2022-02-21 22:34:11.398"
"two-step-fixation","218","671878","0.0-76.0-2.27","957","861","14","Male","false","true","true","true","""event"",""trial"",""time""
""fullscreenenter"",""5"",""12094""
","
","
","""event"",""trial"",""time""
""fullscreenenter"",""5"",""12094""
","
","","images/earth.jpg","","","","","","","","","","","","","","fixation","","","","","",""
"d3-animate-choice","219","675251","0.0-76.0-0.28","957","861","14","Male","false","true","true","true","""event"",""trial"",""time""
""fullscreenenter"",""5"",""12094""
","
","
","""event"",""trial"",""time""
""fullscreenenter"",""5"",""12094""
","
","1365.9000000059605","","49","","","3000","1","","","images/earth.jpg","images/rocket1","images/rocket2","null","images/rocket2","","1","real","null","1","","",""
"d3-animate-choice","220","679256","0.0-76.0-1.28","957","861","14","Male","false","true","true","true","""event"",""trial"",""time""
""fullscreenenter"",""5"",""12094""
","
","
","""event"",""trial"",""time""
""fullscreenenter"",""5"",""12094""
","
","2378.7999999970198","","48","","","3000","1","","","images/purpleplanet.jpg","images/alien4","images/alien3","images/rocket2","images/alien4","images/t.png","2","real","true","2","common","1","2022-02-21 22:34:19.782"
"two-step-fixation","221","680261","0.0-76.0-2.28","957","861","14","Male","false","true","true","true","""event"",""trial"",""time""
""fullscreenenter"",""5"",""12094""
","
","
","""event"",""trial"",""time""
""fullscreenenter"",""5"",""12094""
","
","","images/earth.jpg","","","","","","","","","","","","","","fixation","","","","","",""
"d3-animate-choice","222","683853","0.0-76.0-0.29","957","861","14","Male","false","true","true","true","""event"",""trial"",""time""
""fullscreenenter"",""5"",""12094""
","
","
","""event"",""trial"",""time""
""fullscreenenter"",""5"",""12094""
","
","1585.5","","48","","","3000","1","","","images/earth.jpg","images/rocket1","images/rocket2","null","images/rocket1","","1","real","null","2","","",""
"d3-animate-choice","223","687192","0.0-76.0-1.29","957","861","14","Male","false","true","true","true","""event"",""trial"",""time""
""fullscreenenter"",""5"",""12094""
","
","
","""event"",""trial"",""time""
""fullscreenenter"",""5"",""12094""
","
","1331.5999999940395","","49","","","3000","1","","","images/redplanet1.jpg","images/alien2","images/alien1","images/rocket1","images/alien1","images/nothing.png","2","real","true","1","common","0","2022-02-21 22:34:27.719"
"two-step-fixation","224","688196","0.0-76.0-2.29","957","861","14","Male","false","true","true","true","""event"",""trial"",""time""
""fullscreenenter"",""5"",""12094""
","
","
","""event"",""trial"",""time""
""fullscreenenter"",""5"",""12094""
","
","","images/earth.jpg","","","","","","","","","","","","","","fixation","","","","","",""
"d3-animate-choice","225","690656","0.0-76.0-0.30","957","861","14","Male","false","true","true","true","""event"",""trial"",""time""
""fullscreenenter"",""5"",""12094""
","
","
","""event"",""trial"",""time""
""fullscreenenter"",""5"",""12094""
","
","453.70000000298023","","49","","","3000","1","","","images/earth.jpg","images/rocket1","images/rocket2","null","images/rocket2","","1","real","null","1","","",""
"d3-animate-choice","226","693279","0.0-76.0-1.30","957","861","14","Male","false","true","true","true","""event"",""trial"",""time""
""fullscreenenter"",""5"",""12094""
","
","
","""event"",""trial"",""time""
""fullscreenenter"",""5"",""12094""
","
","617.2000000029802","","49","","","3000","1","","","images/redplanet1.jpg","images/alien2","images/alien1","images/rocket2","images/alien1","images/t.png","2","real","false","1","rare","1","2022-02-21 22:34:33.805"
"two-step-fixation","227","694285","0.0-76.0-2.30","957","861","14","Male","false","true","true","true","""event"",""trial"",""time""
""fullscreenenter"",""5"",""12094""
","
","
","""event"",""trial"",""time""
""fullscreenenter"",""5"",""12094""
","
","","images/earth.jpg","","","","","","","","","","","","","","fixation","","","","","",""
"d3-animate-choice","228","696942","0.0-76.0-0.31","957","861","14","Male","false","true","true","true","""event"",""trial"",""time""
""fullscreenenter"",""5"",""12094""
","
","
","""event"",""trial"",""time""
""fullscreenenter"",""5"",""12094""
","
","651.6000000089407","","49","","","3000","1","","","images/earth.jpg","images/rocket1","images/rocket2","null","images/rocket2","","1","real","null","1","","",""
"d3-animate-choice","229","699504","0.0-76.0-1.31","957","861","14","Male","false","true","true","true","""event"",""trial"",""time""
""fullscreenenter"",""5"",""12094""
","
","
","""event"",""trial"",""time""
""fullscreenenter"",""5"",""12094""
","
","558","","49","","","3000","1","","","images/purpleplanet.jpg","images/alien4","images/alien3","images/rocket2","images/alien3","images/t.png","2","real","true","1","common","1","2022-02-21 22:34:40.031"
"two-step-fixation","230","700509","0.0-76.0-2.31","957","861","14","Male","false","true","true","true","""event"",""trial"",""time""
""fullscreenenter"",""5"",""12094""
","
","
","""event"",""trial"",""time""
""fullscreenenter"",""5"",""12094""
","
","","images/earth.jpg","","","","","","","","","","","","","","fixation","","","","","",""
"d3-animate-choice","231","703708","0.0-76.0-0.32","957","861","14","Male","false","true","true","true","""event"",""trial"",""time""
""fullscreenenter"",""5"",""12094""
","
","
","""event"",""trial"",""time""
""fullscreenenter"",""5"",""12094""
","
","1194.4000000059605","","48","","","3000","1","","","images/earth.jpg","images/rocket1","images/rocket2","null","images/rocket1","","1","real","null","2","","",""
"d3-animate-choice","232","706722","0.0-76.0-1.32","957","861","14","Male","false","true","true","true","""event"",""trial"",""time""
""fullscreenenter"",""5"",""12094""
","
","
","""event"",""trial"",""time""
""fullscreenenter"",""5"",""12094""
","
","1009.6000000089407","","49","","","3000","1","","","images/redplanet1.jpg","images/alien2","images/alien1","images/rocket1","images/alien1","images/t.png","2","real","true","1","common","1","2022-02-21 22:34:47.249"
"two-step-fixation","233","707731","0.0-76.0-2.32","957","861","14","Male","false","true","true","true","""event"",""trial"",""time""
""fullscreenenter"",""5"",""12094""
","
","
","""event"",""trial"",""time""
""fullscreenenter"",""5"",""12094""
","
","","images/earth.jpg","","","","","","","","","","","","","","fixation","","","","","",""
"d3-animate-choice","234","710499","0.0-76.0-0.33","957","861","14","Male","false","true","true","true","""event"",""trial"",""time""
""fullscreenenter"",""5"",""12094""
","
","
","""event"",""trial"",""time""
""fullscreenenter"",""5"",""12094""
","
","762.1000000089407","","48","","","3000","1","","","images/earth.jpg","images/rocket1","images/rocket2","null","images/rocket1","","1","real","null","2","","",""
"d3-animate-choice","235","713655","0.0-76.0-1.33","957","861","14","Male","false","true","true","true","""event"",""trial"",""time""
""fullscreenenter"",""5"",""12094""
","
","
","""event"",""trial"",""time""
""fullscreenenter"",""5"",""12094""
","
","1149.6000000089407","","48","","","3000","1","","","images/purpleplanet.jpg","images/alien4","images/alien3","images/rocket1","images/alien4","images/t.png","2","real","false","2","rare","1","2022-02-21 22:34:54.181"
"two-step-fixation","236","714660","0.0-76.0-2.33","957","861","14","Male","false","true","true","true","""event"",""trial"",""time""
""fullscreenenter"",""5"",""12094""
","
","
","""event"",""trial"",""time""
""fullscreenenter"",""5"",""12094""
","
","","images/earth.jpg","","","","","","","","","","","","","","fixation","","","","","",""
"d3-animate-choice","237","718087","0.0-76.0-0.34","957","861","14","Male","false","true","true","true","""event"",""trial"",""time""
""fullscreenenter"",""5"",""12094""
","
","
","""event"",""trial"",""time""
""fullscreenenter"",""5"",""12094""
","
","1423.5999999940395","","48","","","3000","1","","","images/earth.jpg","images/rocket1","images/rocket2","null","images/rocket1","","1","real","null","2","","",""
"d3-animate-choice","238","720786","0.0-76.0-1.34","957","861","14","Male","false","true","true","true","""event"",""trial"",""time""
""fullscreenenter"",""5"",""12094""
","
","
","""event"",""trial"",""time""
""fullscreenenter"",""5"",""12094""
","
","694.0999999940395","","48","","","3000","1","","","images/redplanet1.jpg","images/alien2","images/alien1","images/rocket1","images/alien2","images/t.png","2","real","true","2","common","1","2022-02-21 22:35:01.313"
"two-step-fixation","239","721791","0.0-76.0-2.34","957","861","14","Male","false","true","true","true","""event"",""trial"",""time""
""fullscreenenter"",""5"",""12094""
","
","
","""event"",""trial"",""time""
""fullscreenenter"",""5"",""12094""
","
","","images/earth.jpg","","","","","","","","","","","","","","fixation","","","","","",""
"d3-animate-choice","240","724182","0.0-76.0-0.35","957","861","14","Male","false","true","true","true","""event"",""trial"",""time""
""fullscreenenter"",""5"",""12094""
","
","
","""event"",""trial"",""time""
""fullscreenenter"",""5"",""12094""
","
","383.70000000298023","","49","","","3000","1","","","images/earth.jpg","images/rocket1","images/rocket2","null","images/rocket2","","1","real","null","1","","",""
"d3-animate-choice","241","726256","0.0-76.0-1.35","957","861","14","Male","false","true","true","true","""event"",""trial"",""time""
""fullscreenenter"",""5"",""12094""
","
","
","""event"",""trial"",""time""
""fullscreenenter"",""5"",""12094""
","
","69.29999999701977","","48","","","3000","1","","","images/purpleplanet.jpg","images/alien4","images/alien3","images/rocket2","images/alien4","images/t.png","2","real","true","2","common","1","2022-02-21 22:35:06.782"
"two-step-fixation","242","727261","0.0-76.0-2.35","957","861","14","Male","false","true","true","true","""event"",""trial"",""time""
""fullscreenenter"",""5"",""12094""
","
","
","""event"",""trial"",""time""
""fullscreenenter"",""5"",""12094""
","
","","images/earth.jpg","","","","","","","","","","","","","","fixation","","","","","",""
"d3-animate-choice","243","729931","0.0-76.0-0.36","957","861","14","Male","false","true","true","true","""event"",""trial"",""time""
""fullscreenenter"",""5"",""12094""
","
","
","""event"",""trial"",""time""
""fullscreenenter"",""5"",""12094""
","
","664.7000000029802","","49","","","3000","1","","","images/earth.jpg","images/rocket1","images/rocket2","null","images/rocket2","","1","real","null","1","","",""
"d3-animate-choice","244","733601","0.0-76.0-1.36","957","861","14","Male","false","true","true","true","""event"",""trial"",""time""
""fullscreenenter"",""5"",""12094""
","
","
","""event"",""trial"",""time""
""fullscreenenter"",""5"",""12094""
","
","1450","","50","","","3000","1","1664.5","49","images/purpleplanet.jpg","images/alien4","images/alien3","images/rocket2","images/alien3","images/nothing.png","2","real","true","","common","0","2022-02-21 22:35:14.127"
"two-step-fixation","245","734605","0.0-76.0-2.36","957","861","14","Male","false","true","true","true","""event"",""trial"",""time""
""fullscreenenter"",""5"",""12094""
","
","
","""event"",""trial"",""time""
""fullscreenenter"",""5"",""12094""
","
","","images/earth.jpg","","","","","","","","","","","","","","fixation","","","","","",""
"d3-animate-choice","246","737329","0.0-76.0-0.37","957","861","14","Male","false","true","true","true","""event"",""trial"",""time""
""fullscreenenter"",""5"",""12094""
","
","
","""event"",""trial"",""time""
""fullscreenenter"",""5"",""12094""
","
","717.8999999910593","","49","","","3000","1","","","images/earth.jpg","images/rocket1","images/rocket2","null","images/rocket2","","1","real","null","1","","",""
"d3-animate-choice","247","739908","0.0-76.0-1.37","957","861","14","Male","false","true","true","true","""event"",""trial"",""time""
""fullscreenenter"",""5"",""12094""
","
","
","""event"",""trial"",""time""
""fullscreenenter"",""5"",""12094""
","
