"trial_type","trial_index","time_elapsed","internal_node_id","participant_id","subject_id","age","gender","rocket_sides","red_planet_first_rocket","red_display_order","purple_display_order","interactions","blur_events","focus_events","fullscreenenter_events","fullscreenexit_events","rt","stimulus","key_press","button_pressed","success","duration","valid_pressed","rts","keys","planet_text","right_text","left_text","center_text","chosen_text","reward_text","trial_stage","practice_trial","transition_type","choice","transition","reward","timestamp"
"pavlovia","0","81","0.0-0.0","234","651","10","Female","false","true","false","true","
","
","
","
","
","","","","","","","","","","","","","","","","","","","","","",""
"html-keyboard-response","1","1921","0.0-1.0","234","651","10","Female","false","true","false","true","
","
","
","
","
","1810.9000000059605","Welcome! Press the space bar to begin.","32","","","","","","","","","","","","","","","","","","",""
"audio-keyboard-response","2","5631","0.0-2.0","234","651","10","Female","false","true","false","true","
","
","
","
","
","3467","audio/beep_loop.wav","32","","","","","","","","","","","","","","","","","","",""
"audio-button-response","3","15360","0.0-3.0","234","651","10","Female","false","true","false","true","
","
","
","
","
","NaN","audio/fish.mp3","","1","","","","","","","","","","","","","","","","","",""
"audio-button-response","4","19064","0.0-4.0","234","651","10","Female","false","true","false","true","""event"",""trial"",""time""
""fullscreenenter"",""5"",""23726""
","
","
","""event"",""trial"",""time""
""fullscreenenter"",""5"",""23726""
","
","NaN","audio/tiger.mp3","","4","","","","","","","","","","","","","","","","","",""
"fullscreen","5","24419","0.0-5.0","234","651","10","Female","false","true","false","true","""event"",""trial"",""time""
""fullscreenenter"",""5"",""23726""
""fullscreenexit"",""6"",""25752""
","
","
","""event"",""trial"",""time""
""fullscreenenter"",""5"",""23726""
","""event"",""trial"",""time""
""fullscreenexit"",""6"",""25752""
","","","","","true","","","","","","","","","","","","","","","","",""
"d3-instructions","6","42832","0.0-6.0","234","651","10","Female","false","true","false","true","""event"",""trial"",""time""
""fullscreenenter"",""5"",""23726""
""fullscreenexit"",""6"",""25752""
","
","
","""event"",""trial"",""time""
""fullscreenenter"",""5"",""23726""
","""event"",""trial"",""time""
""fullscreenexit"",""6"",""25752""
","","","","","","","","","","","","","","","","","","","","","",""
"d3-instructions","7","50062","0.0-7.0","234","651","10","Female","false","true","false","true","""event"",""trial"",""time""
""fullscreenenter"",""5"",""23726""
""fullscreenexit"",""6"",""25752""
","
","
","""event"",""trial"",""time""
""fullscreenenter"",""5"",""23726""
","""event"",""trial"",""time""
""fullscreenexit"",""6"",""25752""
","","","","","","","","","","","","","","","","","","","","","",""
"d3-instructions","8","56337","0.0-8.0","234","651","10","Female","false","true","false","true","""event"",""trial"",""time""
""fullscreenenter"",""5"",""23726""
""fullscreenexit"",""6"",""25752""
","
","
","""event"",""trial"",""time""
""fullscreenenter"",""5"",""23726""
","""event"",""trial"",""time""
""fullscreenexit"",""6"",""25752""
","","","","","","","","","","","","","","","","","","","","","",""
"d3-instructions","9","68819","0.0-9.0","234","651","10","Female","false","true","false","true","""event"",""trial"",""time""
""fullscreenenter"",""5"",""23726""
""fullscreenexit"",""6"",""25752""
","
","
","""event"",""trial"",""time""
""fullscreenenter"",""5"",""23726""
","""event"",""trial"",""time""
""fullscreenexit"",""6"",""25752""
","","","","","","","","","","","","","","","","","","","","","",""
"d3-instructions","10","91195","0.0-10.0","234","651","10","Female","false","true","false","true","""event"",""trial"",""time""
""fullscreenenter"",""5"",""23726""
""fullscreenexit"",""6"",""25752""
","
","
","""event"",""trial"",""time""
""fullscreenenter"",""5"",""23726""
","""event"",""trial"",""time""
""fullscreenexit"",""6"",""25752""
","","","","","","","","","","","","","","","","","","","","","",""
"d3-animate-choice","11","94007","0.0-11.0","234","651","10","Female","false","true","false","true","""event"",""trial"",""time""
""fullscreenenter"",""5"",""23726""
""fullscreenexit"",""6"",""25752""
","
","
","""event"",""trial"",""time""
""fullscreenenter"",""5"",""23726""
","""event"",""trial"",""time""
""fullscreenexit"",""6"",""25752""
","802.2999999970198","","49","","","3000","1","","","images/tutgreenplanet.jpg","images/tutalien1","images/tutalien2","null","images/tutalien2","","NA","practice","null","","","",""
"d3-animate-choice","12","97181","0.0-12.0","234","651","10","Female","false","true","false","true","""event"",""trial"",""time""
""fullscreenenter"",""5"",""23726""
""fullscreenexit"",""6"",""25752""
","
","
","""event"",""trial"",""time""
""fullscreenenter"",""5"",""23726""
","""event"",""trial"",""time""
""fullscreenexit"",""6"",""25752""
","1168.7999999970198","","48","","","3000","1","1998.5,2284.5,2290.7999999970198,2499.2999999970198,2585.5,2716.89999999851,2855.1999999955297,2938.39999999851,3088.39999999851,3127","49,49,48,48,49,48,49,48,49,48","images/tutgreenplanet.jpg","images/tutalien1","images/tutalien2","null","images/tutalien1","","NA","practice","null","","","",""
"d3-animate-choice","13","99312","0.0-13.0","234","651","10","Female","false","true","false","true","""event"",""trial"",""time""
""fullscreenenter"",""5"",""23726""
""fullscreenexit"",""6"",""25752""
","
","
","""event"",""trial"",""time""
""fullscreenenter"",""5"",""23726""
","""event"",""trial"",""time""
""fullscreenexit"",""6"",""25752""
","126.80000000447035","","48","","","3000","1","203.89999999850988,347.5,447.30000000447035,546.8000000044703,707.3000000044703,772.1000000014901,950.2000000029802,982.2000000029802,1155.2000000029802,1235.5,1357.5,1485.7000000029802,1578.5,1745.6000000014901,1768.3999999985099,1949.3000000044703,2003.5","49,48,49,48,49,48,48,49,48,49,48,49,48,49,48,48,49","images/tutgreenplanet.jpg","images/tutalien1","images/tutalien2","null","images/tutalien1","","NA","practice","null","","","",""
"d3-animate-choice","14","101343","0.0-14.0","234","651","10","Female","false","true","false","true","""event"",""trial"",""time""
""fullscreenenter"",""5"",""23726""
""fullscreenexit"",""6"",""25752""
","
","
","""event"",""trial"",""time""
""fullscreenenter"",""5"",""23726""
","""event"",""trial"",""time""
""fullscreenexit"",""6"",""25752""
","26","","48","","","3000","1","77.39999999850988,228.39999999850988,311.79999999701977,421,535.6000000014901,613.1000000014901,744.3999999985099,834.2999999970198,975.3999999985099,1049.1999999955297,1199.8999999985099,1401.8999999985099,1433.7999999970198,1632.6999999955297,1883.6999999955297","49,48,49,48,49,48,49,48,49,48,49,48,49,49,49","images/tutgreenplanet.jpg","images/tutalien1","images/tutalien2","null","images/tutalien1","","NA","practice","null","","","",""
"d3-instructions","15","109533","0.0-15.0","234","651","10","Female","false","true","false","true","""event"",""trial"",""time""
""fullscreenenter"",""5"",""23726""
""fullscreenexit"",""6"",""25752""
""blur"",""16"",""113537""
""focus"",""16"",""388053""
","""event"",""trial"",""time""
""blur"",""16"",""113537""
","""event"",""trial"",""time""
""focus"",""16"",""388053""
","""event"",""trial"",""time""
""fullscreenenter"",""5"",""23726""
","""event"",""trial"",""time""
""fullscreenexit"",""6"",""25752""
","","","","","","","","","","","","","","","","","","","","","",""
"d3-instructions","16","394507","0.0-16.0","234","651","10","Female","false","true","false","true","""event"",""trial"",""time""
""fullscreenenter"",""5"",""23726""
""fullscreenexit"",""6"",""25752""
""blur"",""16"",""113537""
""focus"",""16"",""388053""
""blur"",""17"",""403048""
""focus"",""17"",""516849""
""blur"",""17"",""517754""
""focus"",""17"",""523815""
","""event"",""trial"",""time""
""blur"",""16"",""113537""
""blur"",""17"",""403048""
""blur"",""17"",""517754""
","""event"",""trial"",""time""
""focus"",""16"",""388053""
""focus"",""17"",""516849""
""focus"",""17"",""523815""
","""event"",""trial"",""time""
""fullscreenenter"",""5"",""23726""
","""event"",""trial"",""time""
""fullscreenexit"",""6"",""25752""
","","","","","","","","","","","","","","","","","","","","","",""
"d3-instructions","17","526394","0.0-17.0","234","651","10","Female","false","true","false","true","""event"",""trial"",""time""
""fullscreenenter"",""5"",""23726""
""fullscreenexit"",""6"",""25752""
""blur"",""16"",""113537""
""focus"",""16"",""388053""
""blur"",""17"",""403048""
""focus"",""17"",""516849""
""blur"",""17"",""517754""
""focus"",""17"",""523815""
","""event"",""trial"",""time""
""blur"",""16"",""113537""
""blur"",""17"",""403048""
""blur"",""17"",""517754""
","""event"",""trial"",""time""
""focus"",""16"",""388053""
""focus"",""17"",""516849""
""focus"",""17"",""523815""
","""event"",""trial"",""time""
""fullscreenenter"",""5"",""23726""
","""event"",""trial"",""time""
""fullscreenexit"",""6"",""25752""
","","","","","","","","","","","","","","","","","","","","","",""
"d3-instructions","18","540065","0.0-18.0","234","651","10","Female","false","true","false","true","""event"",""trial"",""time""
""fullscreenenter"",""5"",""23726""
""fullscreenexit"",""6"",""25752""
""blur"",""16"",""113537""
""focus"",""16"",""388053""
""blur"",""17"",""403048""
""focus"",""17"",""516849""
""blur"",""17"",""517754""
""focus"",""17"",""523815""
","""event"",""trial"",""time""
""blur"",""16"",""113537""
""blur"",""17"",""403048""
""blur"",""17"",""517754""
","""event"",""trial"",""time""
""focus"",""16"",""388053""
""focus"",""17"",""516849""
""focus"",""17"",""523815""
","""event"",""trial"",""time""
""fullscreenenter"",""5"",""23726""
","""event"",""trial"",""time""
""fullscreenexit"",""6"",""25752""
","","","","","","","","","","","","","","","","","","","","","",""
"d3-instructions","19","553128","0.0-19.0","234","651","10","Female","false","true","false","true","""event"",""trial"",""time""
""fullscreenenter"",""5"",""23726""
""fullscreenexit"",""6"",""25752""
""blur"",""16"",""113537""
""focus"",""16"",""388053""
""blur"",""17"",""403048""
""focus"",""17"",""516849""
""blur"",""17"",""517754""
""focus"",""17"",""523815""
","""event"",""trial"",""time""
""blur"",""16"",""113537""
""blur"",""17"",""403048""
""blur"",""17"",""517754""
","""event"",""trial"",""time""
""focus"",""16"",""388053""
""focus"",""17"",""516849""
""focus"",""17"",""523815""
","""event"",""trial"",""time""
""fullscreenenter"",""5"",""23726""
","""event"",""trial"",""time""
""fullscreenexit"",""6"",""25752""
","","","","","","","","","","","","","","","","","","","","","",""
"d3-animate-choice","20","556623","0.0-20.0","234","651","10","Female","false","true","false","true","""event"",""trial"",""time""
""fullscreenenter"",""5"",""23726""
""fullscreenexit"",""6"",""25752""
""blur"",""16"",""113537""
""focus"",""16"",""388053""
""blur"",""17"",""403048""
""focus"",""17"",""516849""
""blur"",""17"",""517754""
""focus"",""17"",""523815""
","""event"",""trial"",""time""
""blur"",""16"",""113537""
""blur"",""17"",""403048""
""blur"",""17"",""517754""
","""event"",""trial"",""time""
""focus"",""16"",""388053""
""focus"",""17"",""516849""
""focus"",""17"",""523815""
","""event"",""trial"",""time""
""fullscreenenter"",""5"",""23726""
","""event"",""trial"",""time""
""fullscreenexit"",""6"",""25752""
","1490.3999999985099","","49","","","3000","1","","","images/tutyellowplanet.jpg","null","images/tutalien3","null","images/tutalien3","images/t.png","NA","practice","null","","","",""
"d3-animate-choice","21","559365","0.0-21.0","234","651","10","Female","false","true","false","true","""event"",""trial"",""time""
""fullscreenenter"",""5"",""23726""
""fullscreenexit"",""6"",""25752""
""blur"",""16"",""113537""
""focus"",""16"",""388053""
""blur"",""17"",""403048""
""focus"",""17"",""516849""
""blur"",""17"",""517754""
""focus"",""17"",""523815""
","""event"",""trial"",""time""
""blur"",""16"",""113537""
""blur"",""17"",""403048""
""blur"",""17"",""517754""
","""event"",""trial"",""time""
""focus"",""16"",""388053""
""focus"",""17"",""516849""
""focus"",""17"",""523815""
","""event"",""trial"",""time""
""fullscreenenter"",""5"",""23726""
","""event"",""trial"",""time""
""fullscreenexit"",""6"",""25752""
","736.3000000044703","","49","","","3000","1","2178","49","images/tutyellowplanet.jpg","null","images/tutalien3","null","images/tutalien3","images/t.png","NA","practice","null","","","",""
"d3-animate-choice","22","561540","0.0-22.0","234","651","10","Female","false","true","false","true","""event"",""trial"",""time""
""fullscreenenter"",""5"",""23726""
""fullscreenexit"",""6"",""25752""
""blur"",""16"",""113537""
""focus"",""16"",""388053""
""blur"",""17"",""403048""
""focus"",""17"",""516849""
""blur"",""17"",""517754""
""focus"",""17"",""523815""
","""event"",""trial"",""time""
""blur"",""16"",""113537""
""blur"",""17"",""403048""
""blur"",""17"",""517754""
","""event"",""trial"",""time""
""focus"",""16"",""388053""
""focus"",""17"",""516849""
""focus"",""17"",""523815""
","""event"",""trial"",""time""
""fullscreenenter"",""5"",""23726""
","""event"",""trial"",""time""
""fullscreenexit"",""6"",""25752""
","171.69999999552965","","49","","","3000","1","","","images/tutyellowplanet.jpg","null","images/tutalien3","null","images/tutalien3","images/nothing.png","NA","practice","null","","","",""
"d3-animate-choice","23","564333","0.0-23.0","234","651","10","Female","false","true","false","true","""event"",""trial"",""time""
""fullscreenenter"",""5"",""23726""
""fullscreenexit"",""6"",""25752""
""blur"",""16"",""113537""
""focus"",""16"",""388053""
""blur"",""17"",""403048""
""focus"",""17"",""516849""
""blur"",""17"",""517754""
""focus"",""17"",""523815""
","""event"",""trial"",""time""
""blur"",""16"",""113537""
""blur"",""17"",""403048""
""blur"",""17"",""517754""
","""event"",""trial"",""time""
""focus"",""16"",""388053""
""focus"",""17"",""516849""
""focus"",""17"",""523815""
","""event"",""trial"",""time""
""fullscreenenter"",""5"",""23726""
","""event"",""trial"",""time""
""fullscreenexit"",""6"",""25752""
","789","","49","","","3000","1","","","images/tutyellowplanet.jpg","null","images/tutalien3","null","images/tutalien3","images/t.png","NA","practice","null","","","",""
"d3-animate-choice","24","566501","0.0-24.0","234","651","10","Female","false","true","false","true","""event"",""trial"",""time""
""fullscreenenter"",""5"",""23726""
""fullscreenexit"",""6"",""25752""
""blur"",""16"",""113537""
""focus"",""16"",""388053""
""blur"",""17"",""403048""
""focus"",""17"",""516849""
""blur"",""17"",""517754""
""focus"",""17"",""523815""
","""event"",""trial"",""time""
""blur"",""16"",""113537""
""blur"",""17"",""403048""
""blur"",""17"",""517754""
","""event"",""trial"",""time""
""focus"",""16"",""388053""
""focus"",""17"",""516849""
""focus"",""17"",""523815""
","""event"",""trial"",""time""
""fullscreenenter"",""5"",""23726""
","""event"",""trial"",""time""
""fullscreenexit"",""6"",""25752""
","164.5","","49","","","3000","1","","","images/tutyellowplanet.jpg","null","images/tutalien3","null","images/tutalien3","images/t.png","NA","practice","null","","","",""
"d3-animate-choice","25","568966","0.0-25.0","234","651","10","Female","false","true","false","true","""event"",""trial"",""time""
""fullscreenenter"",""5"",""23726""
""fullscreenexit"",""6"",""25752""
""blur"",""16"",""113537""
""focus"",""16"",""388053""
""blur"",""17"",""403048""
""focus"",""17"",""516849""
""blur"",""17"",""517754""
""focus"",""17"",""523815""
","""event"",""trial"",""time""
""blur"",""16"",""113537""
""blur"",""17"",""403048""
""blur"",""17"",""517754""
","""event"",""trial"",""time""
""focus"",""16"",""388053""
""focus"",""17"",""516849""
""focus"",""17"",""523815""
","""event"",""trial"",""time""
""fullscreenenter"",""5"",""23726""
","""event"",""trial"",""time""
""fullscreenexit"",""6"",""25752""
","460.5","","49","","","3000","1","","","images/tutyellowplanet.jpg","null","images/tutalien3","null","images/tutalien3","images/t.png","NA","practice","null","","","",""
"d3-animate-choice","26","571636","0.0-26.0","234","651","10","Female","false","true","false","true","""event"",""trial"",""time""
""fullscreenenter"",""5"",""23726""
""fullscreenexit"",""6"",""25752""
""blur"",""16"",""113537""
""focus"",""16"",""388053""
""blur"",""17"",""403048""
""focus"",""17"",""516849""
""blur"",""17"",""517754""
""focus"",""17"",""523815""
","""event"",""trial"",""time""
""blur"",""16"",""113537""
""blur"",""17"",""403048""
""blur"",""17"",""517754""
","""event"",""trial"",""time""
""focus"",""16"",""388053""
""focus"",""17"",""516849""
""focus"",""17"",""523815""
","""event"",""trial"",""time""
""fullscreenenter"",""5"",""23726""
","""event"",""trial"",""time""
""fullscreenexit"",""6"",""25752""
","667.5","","49","","","3000","1","","","images/tutyellowplanet.jpg","null","images/tutalien3","null","images/tutalien3","images/t.png","NA","practice","null","","","",""
"d3-animate-choice","27","573704","0.0-27.0","234","651","10","Female","false","true","false","true","""event"",""trial"",""time""
""fullscreenenter"",""5"",""23726""
""fullscreenexit"",""6"",""25752""
""blur"",""16"",""113537""
""focus"",""16"",""388053""
""blur"",""17"",""403048""
""focus"",""17"",""516849""
""blur"",""17"",""517754""
""focus"",""17"",""523815""
","""event"",""trial"",""time""
""blur"",""16"",""113537""
""blur"",""17"",""403048""
""blur"",""17"",""517754""
","""event"",""trial"",""time""
""focus"",""16"",""388053""
""focus"",""17"",""516849""
""focus"",""17"",""523815""
","""event"",""trial"",""time""
""fullscreenenter"",""5"",""23726""
","""event"",""trial"",""time""
""fullscreenexit"",""6"",""25752""
","63","","49","","","3000","1","","","images/tutyellowplanet.jpg","null","images/tutalien3","null","images/tutalien3","images/nothing.png","NA","practice","null","","","",""
"d3-animate-choice","28","576570","0.0-28.0","234","651","10","Female","false","true","false","true","""event"",""trial"",""time""
""fullscreenenter"",""5"",""23726""
""fullscreenexit"",""6"",""25752""
""blur"",""16"",""113537""
""focus"",""16"",""388053""
""blur"",""17"",""403048""
""focus"",""17"",""516849""
""blur"",""17"",""517754""
""focus"",""17"",""523815""
","""event"",""trial"",""time""
""blur"",""16"",""113537""
""blur"",""17"",""403048""
""blur"",""17"",""517754""
","""event"",""trial"",""time""
""focus"",""16"",""388053""
""focus"",""17"",""516849""
""focus"",""17"",""523815""
","""event"",""trial"",""time""
""fullscreenenter"",""5"",""23726""
","""event"",""trial"",""time""
""fullscreenexit"",""6"",""25752""
","863.1000000014901","","49","","","3000","1","","","images/tutyellowplanet.jpg","null","images/tutalien3","null","images/tutalien3","images/t.png","NA","practice","null","","","",""
"d3-animate-choice","29","578945","0.0-29.0","234","651","10","Female","false","true","false","true","""event"",""trial"",""time""
""fullscreenenter"",""5"",""23726""
""fullscreenexit"",""6"",""25752""
""blur"",""16"",""113537""
""focus"",""16"",""388053""
""blur"",""17"",""403048""
""focus"",""17"",""516849""
""blur"",""17"",""517754""
""focus"",""17"",""523815""
""blur"",""30"",""588777""
""focus"",""30"",""652126""
","""event"",""trial"",""time""
""blur"",""16"",""113537""
""blur"",""17"",""403048""
""blur"",""17"",""517754""
""blur"",""30"",""588777""
","""event"",""trial"",""time""
""focus"",""16"",""388053""
""focus"",""17"",""516849""
""focus"",""17"",""523815""
""focus"",""30"",""652126""
","""event"",""trial"",""time""
""fullscreenenter"",""5"",""23726""
","""event"",""trial"",""time""
""fullscreenexit"",""6"",""25752""
","371.70000000298023","","49","","","3000","1","","","images/tutyellowplanet.jpg","null","images/tutalien3","null","images/tutalien3","images/t.png","NA","practice","null","","","",""
"d3-instructions","30","655750","0.0-30.0","234","651","10","Female","false","true","false","true","""event"",""trial"",""time""
""fullscreenenter"",""5"",""23726""
""fullscreenexit"",""6"",""25752""
""blur"",""16"",""113537""
""focus"",""16"",""388053""
""blur"",""17"",""403048""
""focus"",""17"",""516849""
""blur"",""17"",""517754""
""focus"",""17"",""523815""
""blur"",""30"",""588777""
""focus"",""30"",""652126""
","""event"",""trial"",""time""
""blur"",""16"",""113537""
""blur"",""17"",""403048""
""blur"",""17"",""517754""
""blur"",""30"",""588777""
","""event"",""trial"",""time""
""focus"",""16"",""388053""
""focus"",""17"",""516849""
""focus"",""17"",""523815""
""focus"",""30"",""652126""
","""event"",""trial"",""time""
""fullscreenenter"",""5"",""23726""
","""event"",""trial"",""time""
""fullscreenexit"",""6"",""25752""
","","","","","","","","","","","","","","","","","","","","","",""
"d3-instructions","31","668487","0.0-31.0","234","651","10","Female","false","true","false","true","""event"",""trial"",""time""
""fullscreenenter"",""5"",""23726""
""fullscreenexit"",""6"",""25752""
""blur"",""16"",""113537""
""focus"",""16"",""388053""
""blur"",""17"",""403048""
""focus"",""17"",""516849""
""blur"",""17"",""517754""
""focus"",""17"",""523815""
""blur"",""30"",""588777""
""focus"",""30"",""652126""
""blur"",""32"",""673556""
""focus"",""32"",""675222""
","""event"",""trial"",""time""
""blur"",""16"",""113537""
""blur"",""17"",""403048""
""blur"",""17"",""517754""
""blur"",""30"",""588777""
""blur"",""32"",""673556""
","""event"",""trial"",""time""
""focus"",""16"",""388053""
""focus"",""17"",""516849""
""focus"",""17"",""523815""
""focus"",""30"",""652126""
""focus"",""32"",""675222""
","""event"",""trial"",""time""
""fullscreenenter"",""5"",""23726""
","""event"",""trial"",""time""
""fullscreenexit"",""6"",""25752""
","","","","","","","","","","","","","","","","","","","","","",""
"d3-instructions","32","678020","0.0-32.0","234","651","10","Female","false","true","false","true","""event"",""trial"",""time""
""fullscreenenter"",""5"",""23726""
""fullscreenexit"",""6"",""25752""
""blur"",""16"",""113537""
""focus"",""16"",""388053""
""blur"",""17"",""403048""
""focus"",""17"",""516849""
""blur"",""17"",""517754""
""focus"",""17"",""523815""
""blur"",""30"",""588777""
""focus"",""30"",""652126""
""blur"",""32"",""673556""
""focus"",""32"",""675222""
","""event"",""trial"",""time""
""blur"",""16"",""113537""
""blur"",""17"",""403048""
""blur"",""17"",""517754""
""blur"",""30"",""588777""
""blur"",""32"",""673556""
","""event"",""trial"",""time""
""focus"",""16"",""388053""
""focus"",""17"",""516849""
""focus"",""17"",""523815""
""focus"",""30"",""652126""
""focus"",""32"",""675222""
","""event"",""trial"",""time""
""fullscreenenter"",""5"",""23726""
","""event"",""trial"",""time""
""fullscreenexit"",""6"",""25752""
","","","","","","","","","","","","","","","","","","","","","",""
"d3-instructions","33","685892","0.0-33.0","234","651","10","Female","false","true","false","true","""event"",""trial"",""time""
""fullscreenenter"",""5"",""23726""
""fullscreenexit"",""6"",""25752""
""blur"",""16"",""113537""
""focus"",""16"",""388053""
""blur"",""17"",""403048""
""focus"",""17"",""516849""
""blur"",""17"",""517754""
""focus"",""17"",""523815""
""blur"",""30"",""588777""
""focus"",""30"",""652126""
""blur"",""32"",""673556""
""focus"",""32"",""675222""
","""event"",""trial"",""time""
""blur"",""16"",""113537""
""blur"",""17"",""403048""
""blur"",""17"",""517754""
""blur"",""30"",""588777""
""blur"",""32"",""673556""
","""event"",""trial"",""time""
""focus"",""16"",""388053""
""focus"",""17"",""516849""
""focus"",""17"",""523815""
""focus"",""30"",""652126""
""focus"",""32"",""675222""
","""event"",""trial"",""time""
""fullscreenenter"",""5"",""23726""
","""event"",""trial"",""time""
""fullscreenexit"",""6"",""25752""
","","","","","","","","","","","","","","","","","","","","","",""
"d3-animate-choice","34","689035","0.0-34.0","234","651","10","Female","false","true","false","true","""event"",""trial"",""time""
""fullscreenenter"",""5"",""23726""
""fullscreenexit"",""6"",""25752""
""blur"",""16"",""113537""
""focus"",""16"",""388053""
""blur"",""17"",""403048""
""focus"",""17"",""516849""
""blur"",""17"",""517754""
""focus"",""17"",""523815""
""blur"",""30"",""588777""
""focus"",""30"",""652126""
""blur"",""32"",""673556""
""focus"",""32"",""675222""
","""event"",""trial"",""time""
""blur"",""16"",""113537""
""blur"",""17"",""403048""
""blur"",""17"",""517754""
""blur"",""30"",""588777""
""blur"",""32"",""673556""
","""event"",""trial"",""time""
""focus"",""16"",""388053""
""focus"",""17"",""516849""
""focus"",""17"",""523815""
""focus"",""30"",""652126""
""focus"",""32"",""675222""
","""event"",""trial"",""time""
""fullscreenenter"",""5"",""23726""
","""event"",""trial"",""time""
""fullscreenexit"",""6"",""25752""
","1138.5","","49","","","3000","1","1437.5,2087.60000000149,2183.5,2260.2999999970198,2427.39999999851,2465.7000000029802,2645.60000000149,2700.39999999851,2838.10000000149,2974.89999999851,3043.39999999851","48,48,49,48,49,48,48,49,48,49,48","images/tutgreenplanet.jpg","images/tutalien1","images/tutalien2","null","images/tutalien2","images/nothing.png","NA","practice","null","","","",""
"d3-animate-choice","35","691143","0.0-35.0","234","651","10","Female","false","true","false","true","""event"",""trial"",""time""
""fullscreenenter"",""5"",""23726""
""fullscreenexit"",""6"",""25752""
""blur"",""16"",""113537""
""focus"",""16"",""388053""
""blur"",""17"",""403048""
""focus"",""17"",""516849""
""blur"",""17"",""517754""
""focus"",""17"",""523815""
""blur"",""30"",""588777""
""focus"",""30"",""652126""
""blur"",""32"",""673556""
""focus"",""32"",""675222""
","""event"",""trial"",""time""
""blur"",""16"",""113537""
""blur"",""17"",""403048""
""blur"",""17"",""517754""
""blur"",""30"",""588777""
""blur"",""32"",""673556""
","""event"",""trial"",""time""
""focus"",""16"",""388053""
""focus"",""17"",""516849""
""focus"",""17"",""523815""
""focus"",""30"",""652126""
""focus"",""32"",""675222""
","""event"",""trial"",""time""
""fullscreenenter"",""5"",""23726""
","""event"",""trial"",""time""
""fullscreenexit"",""6"",""25752""
","103.69999999552965","","49","","","3000","1","119.39999999850988,293.3999999985099,382.79999999701977,485.19999999552965,642.7999999970198,662.1999999955297,855.2999999970198,887.2999999970198,1073.0999999940395,1140.8999999985099,1272.2999999970198,1387.5999999940395,1491.8999999985099,1631,1685.2999999970198,1887.8999999985099,1933,2076.0999999940395","48,48,49,48,49,48,48,49,48,49,48,49,48,49,48,48,49,48","images/tutgreenplanet.jpg","images/tutalien1","images/tutalien2","null","images/tutalien2","images/t.png","NA","practice","null","","","",""
"d3-animate-choice","36","693233","0.0-36.0","234","651","10","Female","false","true","false","true","""event"",""trial"",""time""
""fullscreenenter"",""5"",""23726""
""fullscreenexit"",""6"",""25752""
""blur"",""16"",""113537""
""focus"",""16"",""388053""
""blur"",""17"",""403048""
""focus"",""17"",""516849""
""blur"",""17"",""517754""
""focus"",""17"",""523815""
""blur"",""30"",""588777""
""focus"",""30"",""652126""
""blur"",""32"",""673556""
""focus"",""32"",""675222""
","""event"",""trial"",""time""
""blur"",""16"",""113537""
""blur"",""17"",""403048""
""blur"",""17"",""517754""
""blur"",""30"",""588777""
""blur"",""32"",""673556""
","""event"",""trial"",""time""
""focus"",""16"",""388053""
""focus"",""17"",""516849""
""focus"",""17"",""523815""
""focus"",""30"",""652126""
""focus"",""32"",""675222""
","""event"",""trial"",""time""
""fullscreenenter"",""5"",""23726""
","""event"",""trial"",""time""
""fullscreenexit"",""6"",""25752""
","81.5","","49","","","3000","1","152.89999999850988,312.8999999985099,332.29999999701977,502.29999999701977,547.6000000014901,711.1000000014901,805.2000000029802,932.2999999970198,1031.5,1143.2999999970198,1443.2999999970198,1646.1000000014901,1840.7999999970198,2041.6000000014901","48,49,48,48,49,48,49,48,49,48,48,48,48,48","images/tutgreenplanet.jpg","images/tutalien1","images/tutalien2","null","images/tutalien2","images/t.png","NA","practice","null","","","",""
"d3-animate-choice","37","695370","0.0-37.0","234","651","10","Female","false","true","false","true","""event"",""trial"",""time""
""fullscreenenter"",""5"",""23726""
""fullscreenexit"",""6"",""25752""
""blur"",""16"",""113537""
""focus"",""16"",""388053""
""blur"",""17"",""403048""
""focus"",""17"",""516849""
""blur"",""17"",""517754""
""focus"",""17"",""523815""
""blur"",""30"",""588777""
""focus"",""30"",""652126""
""blur"",""32"",""673556""
""focus"",""32"",""675222""
","""event"",""trial"",""time""
""blur"",""16"",""113537""
""blur"",""17"",""403048""
""blur"",""17"",""517754""
""blur"",""30"",""588777""
""blur"",""32"",""673556""
","""event"",""trial"",""time""
""focus"",""16"",""388053""
""focus"",""17"",""516849""
""focus"",""17"",""523815""
""focus"",""30"",""652126""
""focus"",""32"",""675222""
","""event"",""trial"",""time""
""fullscreenenter"",""5"",""23726""
","""event"",""trial"",""time""
""fullscreenexit"",""6"",""25752""
","132.80000000447035","","48","","","3000","1","316.5,501,713.3000000044703,915.2000000029802,1132.3000000044703,1374.3999999985099,1601,1835.6000000014901,2065.8000000044703","48,48,48,48,48,48,48,48,48","images/tutgreenplanet.jpg","images/tutalien1","images/tutalien2","null","images/tutalien1","images/nothing.png","NA","practice","null","","","",""
"d3-animate-choice","38","697531","0.0-38.0","234","651","10","Female","false","true","false","true","""event"",""trial"",""time""
""fullscreenenter"",""5"",""23726""
""fullscreenexit"",""6"",""25752""
""blur"",""16"",""113537""
""focus"",""16"",""388053""
""blur"",""17"",""403048""
""focus"",""17"",""516849""
""blur"",""17"",""517754""
""focus"",""17"",""523815""
""blur"",""30"",""588777""
""focus"",""30"",""652126""
""blur"",""32"",""673556""
""focus"",""32"",""675222""
","""event"",""trial"",""time""
""blur"",""16"",""113537""
""blur"",""17"",""403048""
""blur"",""17"",""517754""
""blur"",""30"",""588777""
""blur"",""32"",""673556""
","""event"",""trial"",""time""
""focus"",""16"",""388053""
""focus"",""17"",""516849""
""focus"",""17"",""523815""
""focus"",""30"",""652126""
""focus"",""32"",""675222""
","""event"",""trial"",""time""
""fullscreenenter"",""5"",""23726""
","""event"",""trial"",""time""
""fullscreenexit"",""6"",""25752""
","156.89999999850988","","48","","","3000","1","372.5,597.1000000014901,808.8999999985099,1035.3999999985099,1291.2999999970198,1514.8999999985099,1711.8999999985099,1914.3999999985099,2137.39999999851","48,48,48,48,48,48,48,48,48","images/tutgreenplanet.jpg","images/tutalien1","images/tutalien2","null","images/tutalien1","images/t.png","NA","practice","null","","","",""
"d3-animate-choice","39","699713","0.0-39.0","234","651","10","Female","false","true","false","true","""event"",""trial"",""time""
""fullscreenenter"",""5"",""23726""
""fullscreenexit"",""6"",""25752""
""blur"",""16"",""113537""
""focus"",""16"",""388053""
""blur"",""17"",""403048""
""focus"",""17"",""516849""
""blur"",""17"",""517754""
""focus"",""17"",""523815""
""blur"",""30"",""588777""
""focus"",""30"",""652126""
""blur"",""32"",""673556""
""focus"",""32"",""675222""
","""event"",""trial"",""time""
""blur"",""16"",""113537""
""blur"",""17"",""403048""
""blur"",""17"",""517754""
""blur"",""30"",""588777""
""blur"",""32"",""673556""
","""event"",""trial"",""time""
""focus"",""16"",""388053""
""focus"",""17"",""516849""
""focus"",""17"",""523815""
""focus"",""30"",""652126""
""focus"",""32"",""675222""
","""event"",""trial"",""time""
""fullscreenenter"",""5"",""23726""
","""event"",""trial"",""time""
""fullscreenexit"",""6"",""25752""
","176.69999999552965","","48","","","3000","1","404.69999999552965,639.6999999955297,836.8999999985099,1071.7999999970198,1292.1000000014901,1532.7999999970198,1742,2001.3999999985099","48,48,48,48,48,48,48,48","images/tutgreenplanet.jpg","images/tutalien1","images/tutalien2","null","images/tutalien1","images/t.png","NA","practice","null","","","",""
"d3-animate-choice","40","701748","0.0-40.0","234","651","10","Female","false","true","false","true","""event"",""trial"",""time""
""fullscreenenter"",""5"",""23726""
""fullscreenexit"",""6"",""25752""
""blur"",""16"",""113537""
""focus"",""16"",""388053""
""blur"",""17"",""403048""
""focus"",""17"",""516849""
""blur"",""17"",""517754""
""focus"",""17"",""523815""
""blur"",""30"",""588777""
""focus"",""30"",""652126""
""blur"",""32"",""673556""
""focus"",""32"",""675222""
","""event"",""trial"",""time""
""blur"",""16"",""113537""
""blur"",""17"",""403048""
""blur"",""17"",""517754""
""blur"",""30"",""588777""
""blur"",""32"",""673556""
","""event"",""trial"",""time""
""focus"",""16"",""388053""
""focus"",""17"",""516849""
""focus"",""17"",""523815""
""focus"",""30"",""652126""
""focus"",""32"",""675222""
","""event"",""trial"",""time""
""fullscreenenter"",""5"",""23726""
","""event"",""trial"",""time""
""fullscreenexit"",""6"",""25752""
","27","","48","","","3000","1","321.8999999985099,513.0999999940395,758.0999999940395,971.8999999985099,1193.8999999985099,1405.7999999970198,1630.7999999970198,1888.7999999970198","48,48,48,48,48,48,48,48","images/tutgreenplanet.jpg","images/tutalien1","images/tutalien2","null","images/tutalien1","images/nothing.png","NA","practice","null","","","",""
"d3-animate-choice","41","703850","0.0-41.0","234","651","10","Female","false","true","false","true","""event"",""trial"",""time""
""fullscreenenter"",""5"",""23726""
""fullscreenexit"",""6"",""25752""
""blur"",""16"",""113537""
""focus"",""16"",""388053""
""blur"",""17"",""403048""
""focus"",""17"",""516849""
""blur"",""17"",""517754""
""focus"",""17"",""523815""
""blur"",""30"",""588777""
""focus"",""30"",""652126""
""blur"",""32"",""673556""
""focus"",""32"",""675222""
","""event"",""trial"",""time""
""blur"",""16"",""113537""
""blur"",""17"",""403048""
""blur"",""17"",""517754""
""blur"",""30"",""588777""
""blur"",""32"",""673556""
","""event"",""trial"",""time""
""focus"",""16"",""388053""
""focus"",""17"",""516849""
""focus"",""17"",""523815""
""focus"",""30"",""652126""
""focus"",""32"",""675222""
","""event"",""trial"",""time""
""fullscreenenter"",""5"",""23726""
","""event"",""trial"",""time""
""fullscreenexit"",""6"",""25752""
","99","","48","","","3000","1","276.1000000014901,1163.7000000029802,1431.2000000029802,1720.7000000029802,2012.6000000014901","49,49,49,49,49","images/tutgreenplanet.jpg","images/tutalien1","images/tutalien2","null","images/tutalien1","images/nothing.png","NA","practice","null","","","",""
"d3-animate-choice","42","706089","0.0-42.0","234","651","10","Female","false","true","false","true","""event"",""trial"",""time""
""fullscreenenter"",""5"",""23726""
""fullscreenexit"",""6"",""25752""
""blur"",""16"",""113537""
""focus"",""16"",""388053""
""blur"",""17"",""403048""
""focus"",""17"",""516849""
""blur"",""17"",""517754""
""focus"",""17"",""523815""
""blur"",""30"",""588777""
""focus"",""30"",""652126""
""blur"",""32"",""673556""
""focus"",""32"",""675222""
","""event"",""trial"",""time""
""blur"",""16"",""113537""
""blur"",""17"",""403048""
""blur"",""17"",""517754""
""blur"",""30"",""588777""
""blur"",""32"",""673556""
","""event"",""trial"",""time""
""focus"",""16"",""388053""
""focus"",""17"",""516849""
""focus"",""17"",""523815""
""focus"",""30"",""652126""
""focus"",""32"",""675222""
","""event"",""trial"",""time""
""fullscreenenter"",""5"",""23726""
","""event"",""trial"",""time""
""fullscreenexit"",""6"",""25752""
","230.89999999850988","","49","","","3000","1","537.2999999970198,787.1000000014901,1064.7999999970198,1335.3999999985099,1634.1000000014901,1922.8999999985099,2172.1999999955297","49,49,49,49,49,49,49","images/tutgreenplanet.jpg","images/tutalien1","images/tutalien2","null","images/tutalien2","images/t.png","NA","practice","null","","","",""
"d3-animate-choice","43","708339","0.0-43.0","234","651","10","Female","false","true","false","true","""event"",""trial"",""time""
""fullscreenenter"",""5"",""23726""
""fullscreenexit"",""6"",""25752""
""blur"",""16"",""113537""
""focus"",""16"",""388053""
""blur"",""17"",""403048""
""focus"",""17"",""516849""
""blur"",""17"",""517754""
""focus"",""17"",""523815""
""blur"",""30"",""588777""
""focus"",""30"",""652126""
""blur"",""32"",""673556""
""focus"",""32"",""675222""
","""event"",""trial"",""time""
""blur"",""16"",""113537""
""blur"",""17"",""403048""
""blur"",""17"",""517754""
""blur"",""30"",""588777""
""blur"",""32"",""673556""
","""event"",""trial"",""time""
""focus"",""16"",""388053""
""focus"",""17"",""516849""
""focus"",""17"",""523815""
""focus"",""30"",""652126""
""focus"",""32"",""675222""
","""event"",""trial"",""time""
""fullscreenenter"",""5"",""23726""
","""event"",""trial"",""time""
""fullscreenexit"",""6"",""25752""
","245.89999999850988","","49","","","3000","1","744.2000000029802,1697.8000000044703","49,49","images/tutgreenplanet.jpg","images/tutalien1","images/tutalien2","null","images/tutalien2","images/t.png","NA","practice","null","","","",""
"d3-instructions","44","725076","0.0-44.0","234","651","10","Female","false","true","false","true","""event"",""trial"",""time""
""fullscreenenter"",""5"",""23726""
""fullscreenexit"",""6"",""25752""
""blur"",""16"",""113537""
""focus"",""16"",""388053""
""blur"",""17"",""403048""
""focus"",""17"",""516849""
""blur"",""17"",""517754""
""focus"",""17"",""523815""
""blur"",""30"",""588777""
""focus"",""30"",""652126""
""blur"",""32"",""673556""
""focus"",""32"",""675222""
","""event"",""trial"",""time""
""blur"",""16"",""113537""
""blur"",""17"",""403048""
""blur"",""17"",""517754""
""blur"",""30"",""588777""
""blur"",""32"",""673556""
","""event"",""trial"",""time""
""focus"",""16"",""388053""
""focus"",""17"",""516849""
""focus"",""17"",""523815""
""focus"",""30"",""652126""
""focus"",""32"",""675222""
","""event"",""trial"",""time""
""fullscreenenter"",""5"",""23726""
","""event"",""trial"",""time""
""fullscreenexit"",""6"",""25752""
","","","","","","","","","","","","","","","","","","","","","",""
"d3-instructions","45","733038","0.0-45.0","234","651","10","Female","false","true","false","true","""event"",""trial"",""time""
""fullscreenenter"",""5"",""23726""
""fullscreenexit"",""6"",""25752""
""blur"",""16"",""113537""
""focus"",""16"",""388053""
""blur"",""17"",""403048""
""focus"",""17"",""516849""
""blur"",""17"",""517754""
""focus"",""17"",""523815""
""blur"",""30"",""588777""
""focus"",""30"",""652126""
""blur"",""32"",""673556""
""focus"",""32"",""675222""
""blur"",""46"",""735134""
""focus"",""46"",""803709""
","""event"",""trial"",""time""
""blur"",""16"",""113537""
""blur"",""17"",""403048""
""blur"",""17"",""517754""
""blur"",""30"",""588777""
""blur"",""32"",""673556""
""blur"",""46"",""735134""
","""event"",""trial"",""time""
""focus"",""16"",""388053""
""focus"",""17"",""516849""
""focus"",""17"",""523815""
""focus"",""30"",""652126""
""focus"",""32"",""675222""
""focus"",""46"",""803709""
","""event"",""trial"",""time""
""fullscreenenter"",""5"",""23726""
","""event"",""trial"",""time""
""fullscreenexit"",""6"",""25752""
","","","","","","","","","","","","","","","","","","","","","",""
"d3-instructions","46","846567","0.0-46.0","234","651","10","Female","false","true","false","true","""event"",""trial"",""time""
""fullscreenenter"",""5"",""23726""
""fullscreenexit"",""6"",""25752""
""blur"",""16"",""113537""
""focus"",""16"",""388053""
""blur"",""17"",""403048""
""focus"",""17"",""516849""
""blur"",""17"",""517754""
""focus"",""17"",""523815""
""blur"",""30"",""588777""
""focus"",""30"",""652126""
""blur"",""32"",""673556""
""focus"",""32"",""675222""
""blur"",""46"",""735134""
""focus"",""46"",""803709""
","""event"",""trial"",""time""
""blur"",""16"",""113537""
""blur"",""17"",""403048""
""blur"",""17"",""517754""
""blur"",""30"",""588777""
""blur"",""32"",""673556""
""blur"",""46"",""735134""
","""event"",""trial"",""time""
""focus"",""16"",""388053""
""focus"",""17"",""516849""
""focus"",""17"",""523815""
""focus"",""30"",""652126""
""focus"",""32"",""675222""
""focus"",""46"",""803709""
","""event"",""trial"",""time""
""fullscreenenter"",""5"",""23726""
","""event"",""trial"",""time""
""fullscreenexit"",""6"",""25752""
","","","","","","","","","","","","","","","","","","","","","",""
"d3-instructions","47","885030","0.0-47.0","234","651","10","Female","false","true","false","true","""event"",""trial"",""time""
""fullscreenenter"",""5"",""23726""
""fullscreenexit"",""6"",""25752""
""blur"",""16"",""113537""
""focus"",""16"",""388053""
""blur"",""17"",""403048""
""focus"",""17"",""516849""
""blur"",""17"",""517754""
""focus"",""17"",""523815""
""blur"",""30"",""588777""
""focus"",""30"",""652126""
""blur"",""32"",""673556""
""focus"",""32"",""675222""
""blur"",""46"",""735134""
""focus"",""46"",""803709""
","""event"",""trial"",""time""
""blur"",""16"",""113537""
""blur"",""17"",""403048""
""blur"",""17"",""517754""
""blur"",""30"",""588777""
""blur"",""32"",""673556""
""blur"",""46"",""735134""
","""event"",""trial"",""time""
""focus"",""16"",""388053""
""focus"",""17"",""516849""
""focus"",""17"",""523815""
""focus"",""30"",""652126""
""focus"",""32"",""675222""
""focus"",""46"",""803709""
","""event"",""trial"",""time""
""fullscreenenter"",""5"",""23726""
","""event"",""trial"",""time""
""fullscreenexit"",""6"",""25752""
","","","","","","","","","","","","","","","","","","","","","",""
"d3-instructions","48","894492","0.0-48.0","234","651","10","Female","false","true","false","true","""event"",""trial"",""time""
""fullscreenenter"",""5"",""23726""
""fullscreenexit"",""6"",""25752""
""blur"",""16"",""113537""
""focus"",""16"",""388053""
""blur"",""17"",""403048""
""focus"",""17"",""516849""
""blur"",""17"",""517754""
""focus"",""17"",""523815""
""blur"",""30"",""588777""
""focus"",""30"",""652126""
""blur"",""32"",""673556""
""focus"",""32"",""675222""
""blur"",""46"",""735134""
""focus"",""46"",""803709""
","""event"",""trial"",""time""
""blur"",""16"",""113537""
""blur"",""17"",""403048""
""blur"",""17"",""517754""
""blur"",""30"",""588777""
""blur"",""32"",""673556""
""blur"",""46"",""735134""
","""event"",""trial"",""time""
""focus"",""16"",""388053""
""focus"",""17"",""516849""
""focus"",""17"",""523815""
""focus"",""30"",""652126""
""focus"",""32"",""675222""
""focus"",""46"",""803709""
","""event"",""trial"",""time""
""fullscreenenter"",""5"",""23726""
","""event"",""trial"",""time""
""fullscreenexit"",""6"",""25752""
","","","","","","","","","","","","","","","","","","","","","",""
"d3-instructions","49","901091","0.0-49.0","234","651","10","Female","false","true","false","true","""event"",""trial"",""time""
""fullscreenenter"",""5"",""23726""
""fullscreenexit"",""6"",""25752""
""blur"",""16"",""113537""
""focus"",""16"",""388053""
""blur"",""17"",""403048""
""focus"",""17"",""516849""
""blur"",""17"",""517754""
""focus"",""17"",""523815""
""blur"",""30"",""588777""
""focus"",""30"",""652126""
""blur"",""32"",""673556""
""focus"",""32"",""675222""
""blur"",""46"",""735134""
""focus"",""46"",""803709""
","""event"",""trial"",""time""
""blur"",""16"",""113537""
""blur"",""17"",""403048""
""blur"",""17"",""517754""
""blur"",""30"",""588777""
""blur"",""32"",""673556""
""blur"",""46"",""735134""
","""event"",""trial"",""time""
""focus"",""16"",""388053""
""focus"",""17"",""516849""
""focus"",""17"",""523815""
""focus"",""30"",""652126""
""focus"",""32"",""675222""
""focus"",""46"",""803709""
","""event"",""trial"",""time""
""fullscreenenter"",""5"",""23726""
","""event"",""trial"",""time""
""fullscreenexit"",""6"",""25752""
","","","","","","","","","","","","","","","","","","","","","",""
"d3-instructions","50","906188","0.0-50.0","234","651","10","Female","false","true","false","true","""event"",""trial"",""time""
""fullscreenenter"",""5"",""23726""
""fullscreenexit"",""6"",""25752""
""blur"",""16"",""113537""
""focus"",""16"",""388053""
""blur"",""17"",""403048""
""focus"",""17"",""516849""
""blur"",""17"",""517754""
""focus"",""17"",""523815""
""blur"",""30"",""588777""
""focus"",""30"",""652126""
""blur"",""32"",""673556""
""focus"",""32"",""675222""
""blur"",""46"",""735134""
""focus"",""46"",""803709""
","""event"",""trial"",""time""
""blur"",""16"",""113537""
""blur"",""17"",""403048""
""blur"",""17"",""517754""
""blur"",""30"",""588777""
""blur"",""32"",""673556""
""blur"",""46"",""735134""
","""event"",""trial"",""time""
""focus"",""16"",""388053""
""focus"",""17"",""516849""
""focus"",""17"",""523815""
""focus"",""30"",""652126""
""focus"",""32"",""675222""
""focus"",""46"",""803709""
","""event"",""trial"",""time""
""fullscreenenter"",""5"",""23726""
","""event"",""trial"",""time""
""fullscreenexit"",""6"",""25752""
","","","","","","","","","","","","","","","","","","","","","",""
"d3-instructions","51","909688","0.0-51.0","234","651","10","Female","false","true","false","true","""event"",""trial"",""time""
""fullscreenenter"",""5"",""23726""
""fullscreenexit"",""6"",""25752""
""blur"",""16"",""113537""
""focus"",""16"",""388053""
""blur"",""17"",""403048""
""focus"",""17"",""516849""
""blur"",""17"",""517754""
""focus"",""17"",""523815""
""blur"",""30"",""588777""
""focus"",""30"",""652126""
""blur"",""32"",""673556""
""focus"",""32"",""675222""
""blur"",""46"",""735134""
""focus"",""46"",""803709""
","""event"",""trial"",""time""
""blur"",""16"",""113537""
""blur"",""17"",""403048""
""blur"",""17"",""517754""
""blur"",""30"",""588777""
""blur"",""32"",""673556""
""blur"",""46"",""735134""
","""event"",""trial"",""time""
""focus"",""16"",""388053""
""focus"",""17"",""516849""
""focus"",""17"",""523815""
""focus"",""30"",""652126""
""focus"",""32"",""675222""
""focus"",""46"",""803709""
","""event"",""trial"",""time""
""fullscreenenter"",""5"",""23726""
","""event"",""trial"",""time""
""fullscreenexit"",""6"",""25752""
","","","","","","","","","","","","","","","","","","","","","",""
"d3-instructions","52","912368","0.0-52.0","234","651","10","Female","false","true","false","true","""event"",""trial"",""time""
""fullscreenenter"",""5"",""23726""
""fullscreenexit"",""6"",""25752""
""blur"",""16"",""113537""
""focus"",""16"",""388053""
""blur"",""17"",""403048""
""focus"",""17"",""516849""
""blur"",""17"",""517754""
""focus"",""17"",""523815""
""blur"",""30"",""588777""
""focus"",""30"",""652126""
""blur"",""32"",""673556""
""focus"",""32"",""675222""
""blur"",""46"",""735134""
""focus"",""46"",""803709""
","""event"",""trial"",""time""
""blur"",""16"",""113537""
""blur"",""17"",""403048""
""blur"",""17"",""517754""
""blur"",""30"",""588777""
""blur"",""32"",""673556""
""blur"",""46"",""735134""
","""event"",""trial"",""time""
""focus"",""16"",""388053""
""focus"",""17"",""516849""
""focus"",""17"",""523815""
""focus"",""30"",""652126""
""focus"",""32"",""675222""
""focus"",""46"",""803709""
","""event"",""trial"",""time""
""fullscreenenter"",""5"",""23726""
","""event"",""trial"",""time""
""fullscreenexit"",""6"",""25752""
","","","","","","","","","","","","","","","","","","","","","",""
"d3-instructions","53","928508","0.0-53.0","234","651","10","Female","false","true","false","true","""event"",""trial"",""time""
""fullscreenenter"",""5"",""23726""
""fullscreenexit"",""6"",""25752""
""blur"",""16"",""113537""
""focus"",""16"",""388053""
""blur"",""17"",""403048""
""focus"",""17"",""516849""
""blur"",""17"",""517754""
""focus"",""17"",""523815""
""blur"",""30"",""588777""
""focus"",""30"",""652126""
""blur"",""32"",""673556""
""focus"",""32"",""675222""
""blur"",""46"",""735134""
""focus"",""46"",""803709""
","""event"",""trial"",""time""
""blur"",""16"",""113537""
""blur"",""17"",""403048""
""blur"",""17"",""517754""
""blur"",""30"",""588777""
""blur"",""32"",""673556""
""blur"",""46"",""735134""
","""event"",""trial"",""time""
""focus"",""16"",""388053""
""focus"",""17"",""516849""
""focus"",""17"",""523815""
""focus"",""30"",""652126""
""focus"",""32"",""675222""
""focus"",""46"",""803709""
","""event"",""trial"",""time""
""fullscreenenter"",""5"",""23726""
","""event"",""trial"",""time""
""fullscreenexit"",""6"",""25752""
","","","","","","","","","","","","","","","","","","","","","",""
"d3-instructions","54","937829","0.0-54.0","234","651","10","Female","false","true","false","true","""event"",""trial"",""time""
""fullscreenenter"",""5"",""23726""
""fullscreenexit"",""6"",""25752""
""blur"",""16"",""113537""
""focus"",""16"",""388053""
""blur"",""17"",""403048""
""focus"",""17"",""516849""
""blur"",""17"",""517754""
""focus"",""17"",""523815""
""blur"",""30"",""588777""
""focus"",""30"",""652126""
""blur"",""32"",""673556""
""focus"",""32"",""675222""
""blur"",""46"",""735134""
""focus"",""46"",""803709""
","""event"",""trial"",""time""
""blur"",""16"",""113537""
""blur"",""17"",""403048""
""blur"",""17"",""517754""
""blur"",""30"",""588777""
""blur"",""32"",""673556""
""blur"",""46"",""735134""
","""event"",""trial"",""time""
""focus"",""16"",""388053""
""focus"",""17"",""516849""
""focus"",""17"",""523815""
""focus"",""30"",""652126""
""focus"",""32"",""675222""
""focus"",""46"",""803709""
","""event"",""trial"",""time""
""fullscreenenter"",""5"",""23726""
","""event"",""trial"",""time""
""fullscreenexit"",""6"",""25752""
","","","","","","","","","","","","","","","","","","","","","",""
"d3-instructions","55","941746","0.0-55.0","234","651","10","Female","false","true","false","true","""event"",""trial"",""time""
""fullscreenenter"",""5"",""23726""
""fullscreenexit"",""6"",""25752""
""blur"",""16"",""113537""
""focus"",""16"",""388053""
""blur"",""17"",""403048""
""focus"",""17"",""516849""
""blur"",""17"",""517754""
""focus"",""17"",""523815""
""blur"",""30"",""588777""
""focus"",""30"",""652126""
""blur"",""32"",""673556""
""focus"",""32"",""675222""
""blur"",""46"",""735134""
""focus"",""46"",""803709""
","""event"",""trial"",""time""
""blur"",""16"",""113537""
""blur"",""17"",""403048""
""blur"",""17"",""517754""
""blur"",""30"",""588777""
""blur"",""32"",""673556""
""blur"",""46"",""735134""
","""event"",""trial"",""time""
""focus"",""16"",""388053""
""focus"",""17"",""516849""
""focus"",""17"",""523815""
""focus"",""30"",""652126""
""focus"",""32"",""675222""
""focus"",""46"",""803709""
","""event"",""trial"",""time""
""fullscreenenter"",""5"",""23726""
","""event"",""trial"",""time""
""fullscreenexit"",""6"",""25752""
","","","","","","","","","","","","","","","","","","","","","",""
"d3-instructions","56","944013","0.0-56.0","234","651","10","Female","false","true","false","true","""event"",""trial"",""time""
""fullscreenenter"",""5"",""23726""
""fullscreenexit"",""6"",""25752""
""blur"",""16"",""113537""
""focus"",""16"",""388053""
""blur"",""17"",""403048""
""focus"",""17"",""516849""
""blur"",""17"",""517754""
""focus"",""17"",""523815""
""blur"",""30"",""588777""
""focus"",""30"",""652126""
""blur"",""32"",""673556""
""focus"",""32"",""675222""
""blur"",""46"",""735134""
""focus"",""46"",""803709""
","""event"",""trial"",""time""
""blur"",""16"",""113537""
""blur"",""17"",""403048""
""blur"",""17"",""517754""
""blur"",""30"",""588777""
""blur"",""32"",""673556""
""blur"",""46"",""735134""
","""event"",""trial"",""time""
""focus"",""16"",""388053""
""focus"",""17"",""516849""
""focus"",""17"",""523815""
""focus"",""30"",""652126""
""focus"",""32"",""675222""
""focus"",""46"",""803709""
","""event"",""trial"",""time""
""fullscreenenter"",""5"",""23726""
","""event"",""trial"",""time""
""fullscreenexit"",""6"",""25752""
","","","","","","","","","","","","","","","","","","","","","",""
"d3-instructions","57","947920","0.0-57.0","234","651","10","Female","false","true","false","true","""event"",""trial"",""time""
""fullscreenenter"",""5"",""23726""
""fullscreenexit"",""6"",""25752""
""blur"",""16"",""113537""
""focus"",""16"",""388053""
""blur"",""17"",""403048""
""focus"",""17"",""516849""
""blur"",""17"",""517754""
""focus"",""17"",""523815""
""blur"",""30"",""588777""
""focus"",""30"",""652126""
""blur"",""32"",""673556""
""focus"",""32"",""675222""
""blur"",""46"",""735134""
""focus"",""46"",""803709""
","""event"",""trial"",""time""
""blur"",""16"",""113537""
""blur"",""17"",""403048""
""blur"",""17"",""517754""
""blur"",""30"",""588777""
""blur"",""32"",""673556""
""blur"",""46"",""735134""
","""event"",""trial"",""time""
""focus"",""16"",""388053""
""focus"",""17"",""516849""
""focus"",""17"",""523815""
""focus"",""30"",""652126""
""focus"",""32"",""675222""
""focus"",""46"",""803709""
","""event"",""trial"",""time""
""fullscreenenter"",""5"",""23726""
","""event"",""trial"",""time""
""fullscreenexit"",""6"",""25752""
","","","","","","","","","","","","","","","","","","","","","",""
"d3-instructions","58","957013","0.0-58.0","234","651","10","Female","false","true","false","true","""event"",""trial"",""time""
""fullscreenenter"",""5"",""23726""
""fullscreenexit"",""6"",""25752""
""blur"",""16"",""113537""
""focus"",""16"",""388053""
""blur"",""17"",""403048""
""focus"",""17"",""516849""
""blur"",""17"",""517754""
""focus"",""17"",""523815""
""blur"",""30"",""588777""
""focus"",""30"",""652126""
""blur"",""32"",""673556""
""focus"",""32"",""675222""
""blur"",""46"",""735134""
""focus"",""46"",""803709""
","""event"",""trial"",""time""
""blur"",""16"",""113537""
""blur"",""17"",""403048""
""blur"",""17"",""517754""
""blur"",""30"",""588777""
""blur"",""32"",""673556""
""blur"",""46"",""735134""
","""event"",""trial"",""time""
""focus"",""16"",""388053""
""focus"",""17"",""516849""
""focus"",""17"",""523815""
""focus"",""30"",""652126""
""focus"",""32"",""675222""
""focus"",""46"",""803709""
","""event"",""trial"",""time""
""fullscreenenter"",""5"",""23726""
","""event"",""trial"",""time""
""fullscreenexit"",""6"",""25752""
","","","","","","","","","","","","","","","","","","","","","",""
"d3-instructions","59","960002","0.0-59.0","234","651","10","Female","false","true","false","true","""event"",""trial"",""time""
""fullscreenenter"",""5"",""23726""
""fullscreenexit"",""6"",""25752""
""blur"",""16"",""113537""
""focus"",""16"",""388053""
""blur"",""17"",""403048""
""focus"",""17"",""516849""
""blur"",""17"",""517754""
""focus"",""17"",""523815""
""blur"",""30"",""588777""
""focus"",""30"",""652126""
""blur"",""32"",""673556""
""focus"",""32"",""675222""
""blur"",""46"",""735134""
""focus"",""46"",""803709""
","""event"",""trial"",""time""
""blur"",""16"",""113537""
""blur"",""17"",""403048""
""blur"",""17"",""517754""
""blur"",""30"",""588777""
""blur"",""32"",""673556""
""blur"",""46"",""735134""
","""event"",""trial"",""time""
""focus"",""16"",""388053""
""focus"",""17"",""516849""
""focus"",""17"",""523815""
""focus"",""30"",""652126""
""focus"",""32"",""675222""
""focus"",""46"",""803709""
","""event"",""trial"",""time""
""fullscreenenter"",""5"",""23726""
","""event"",""trial"",""time""
""fullscreenexit"",""6"",""25752""
","","","","","","","","","","","","","","","","","","","","","",""
"d3-instructions","60","962642","0.0-60.0","234","651","10","Female","false","true","false","true","""event"",""trial"",""time""
""fullscreenenter"",""5"",""23726""
""fullscreenexit"",""6"",""25752""
""blur"",""16"",""113537""
""focus"",""16"",""388053""
""blur"",""17"",""403048""
""focus"",""17"",""516849""
""blur"",""17"",""517754""
""focus"",""17"",""523815""
""blur"",""30"",""588777""
""focus"",""30"",""652126""
""blur"",""32"",""673556""
""focus"",""32"",""675222""
""blur"",""46"",""735134""
""focus"",""46"",""803709""
","""event"",""trial"",""time""
""blur"",""16"",""113537""
""blur"",""17"",""403048""
""blur"",""17"",""517754""
""blur"",""30"",""588777""
""blur"",""32"",""673556""
""blur"",""46"",""735134""
","""event"",""trial"",""time""
""focus"",""16"",""388053""
""focus"",""17"",""516849""
""focus"",""17"",""523815""
""focus"",""30"",""652126""
""focus"",""32"",""675222""
""focus"",""46"",""803709""
","""event"",""trial"",""time""
""fullscreenenter"",""5"",""23726""
","""event"",""trial"",""time""
""fullscreenexit"",""6"",""25752""
","","","","","","","","","","","","","","","","","","","","","",""
"d3-animate-choice","61","965590","0.0-61.0-0.0","234","651","10","Female","false","true","false","true","""event"",""trial"",""time""
""fullscreenenter"",""5"",""23726""
""fullscreenexit"",""6"",""25752""
""blur"",""16"",""113537""
""focus"",""16"",""388053""
""blur"",""17"",""403048""
""focus"",""17"",""516849""
""blur"",""17"",""517754""
""focus"",""17"",""523815""
""blur"",""30"",""588777""
""focus"",""30"",""652126""
""blur"",""32"",""673556""
""focus"",""32"",""675222""
""blur"",""46"",""735134""
""focus"",""46"",""803709""
","""event"",""trial"",""time""
""blur"",""16"",""113537""
""blur"",""17"",""403048""
""blur"",""17"",""517754""
""blur"",""30"",""588777""
""blur"",""32"",""673556""
""blur"",""46"",""735134""
","""event"",""trial"",""time""
""focus"",""16"",""388053""
""focus"",""17"",""516849""
""focus"",""17"",""523815""
""focus"",""30"",""652126""
""focus"",""32"",""675222""
""focus"",""46"",""803709""
","""event"",""trial"",""time""
""fullscreenenter"",""5"",""23726""
","""event"",""trial"",""time""
""fullscreenexit"",""6"",""25752""
","937.2000000029802","","48","","","3000","1","1144.1000000014901","48","images/earth.jpg","images/tutrocket1","images/tutrocket2","null","images/tutrocket1","","1","practice","null","2","","",""
"d3-animate-choice","62","969599","0.0-61.0-1.0","234","651","10","Female","false","true","false","true","""event"",""trial"",""time""
""fullscreenenter"",""5"",""23726""
""fullscreenexit"",""6"",""25752""
""blur"",""16"",""113537""
""focus"",""16"",""388053""
""blur"",""17"",""403048""
""focus"",""17"",""516849""
""blur"",""17"",""517754""
""focus"",""17"",""523815""
""blur"",""30"",""588777""
""focus"",""30"",""652126""
""blur"",""32"",""673556""
""focus"",""32"",""675222""
""blur"",""46"",""735134""
""focus"",""46"",""803709""
","""event"",""trial"",""time""
""blur"",""16"",""113537""
""blur"",""17"",""403048""
""blur"",""17"",""517754""
""blur"",""30"",""588777""
""blur"",""32"",""673556""
""blur"",""46"",""735134""
","""event"",""trial"",""time""
""focus"",""16"",""388053""
""focus"",""17"",""516849""
""focus"",""17"",""523815""
""focus"",""30"",""652126""
""focus"",""32"",""675222""
""focus"",""46"",""803709""
","""event"",""trial"",""time""
""fullscreenenter"",""5"",""23726""
","""event"",""trial"",""time""
""fullscreenexit"",""6"",""25752""
","2432.89999999851","","49","","","3000","1","","","images/tutgreenplanet.jpg","images/tutalien2","images/tutalien1","images/tutrocket1","images/tutalien1","images/nothing.png","2","practice","true","1","common","0","2022-02-03 02:27:38.067"
"two-step-fixation","63","970620","0.0-61.0-2.0","234","651","10","Female","false","true","false","true","""event"",""trial"",""time""
""fullscreenenter"",""5"",""23726""
""fullscreenexit"",""6"",""25752""
""blur"",""16"",""113537""
""focus"",""16"",""388053""
""blur"",""17"",""403048""
""focus"",""17"",""516849""
""blur"",""17"",""517754""
""focus"",""17"",""523815""
""blur"",""30"",""588777""
""focus"",""30"",""652126""
""blur"",""32"",""673556""
""focus"",""32"",""675222""
""blur"",""46"",""735134""
""focus"",""46"",""803709""
","""event"",""trial"",""time""
""blur"",""16"",""113537""
""blur"",""17"",""403048""
""blur"",""17"",""517754""
""blur"",""30"",""588777""
""blur"",""32"",""673556""
""blur"",""46"",""735134""
","""event"",""trial"",""time""
""focus"",""16"",""388053""
""focus"",""17"",""516849""
""focus"",""17"",""523815""
""focus"",""30"",""652126""
""focus"",""32"",""675222""
""focus"",""46"",""803709""
","""event"",""trial"",""time""
""fullscreenenter"",""5"",""23726""
","""event"",""trial"",""time""
""fullscreenexit"",""6"",""25752""
","","images/earth.jpg","","","","","","","","","","","","","","fixation","","","","","",""
"d3-animate-choice","64","973338","0.0-61.0-0.1","234","651","10","Female","false","true","false","true","""event"",""trial"",""time""
""fullscreenenter"",""5"",""23726""
""fullscreenexit"",""6"",""25752""
""blur"",""16"",""113537""
""focus"",""16"",""388053""
""blur"",""17"",""403048""
""focus"",""17"",""516849""
""blur"",""17"",""517754""
""focus"",""17"",""523815""
""blur"",""30"",""588777""
""focus"",""30"",""652126""
""blur"",""32"",""673556""
""focus"",""32"",""675222""
""blur"",""46"",""735134""
""focus"",""46"",""803709""
","""event"",""trial"",""time""
""blur"",""16"",""113537""
""blur"",""17"",""403048""
""blur"",""17"",""517754""
""blur"",""30"",""588777""
""blur"",""32"",""673556""
""blur"",""46"",""735134""
","""event"",""trial"",""time""
""focus"",""16"",""388053""
""focus"",""17"",""516849""
""focus"",""17"",""523815""
""focus"",""30"",""652126""
""focus"",""32"",""675222""
""focus"",""46"",""803709""
","""event"",""trial"",""time""
""fullscreenenter"",""5"",""23726""
","""event"",""trial"",""time""
""fullscreenexit"",""6"",""25752""
","713.2999999970198","","49","","","3000","1","","","images/earth.jpg","images/tutrocket1","images/tutrocket2","null","images/tutrocket2","","1","practice","null","1","","",""
"d3-animate-choice","65","976328","0.0-61.0-1.1","234","651","10","Female","false","true","false","true","""event"",""trial"",""time""
""fullscreenenter"",""5"",""23726""
""fullscreenexit"",""6"",""25752""
""blur"",""16"",""113537""
""focus"",""16"",""388053""
""blur"",""17"",""403048""
""focus"",""17"",""516849""
""blur"",""17"",""517754""
""focus"",""17"",""523815""
""blur"",""30"",""588777""
""focus"",""30"",""652126""
""blur"",""32"",""673556""
""focus"",""32"",""675222""
""blur"",""46"",""735134""
""focus"",""46"",""803709""
","""event"",""trial"",""time""
""blur"",""16"",""113537""
""blur"",""17"",""403048""
""blur"",""17"",""517754""
""blur"",""30"",""588777""
""blur"",""32"",""673556""
""blur"",""46"",""735134""
","""event"",""trial"",""time""
""focus"",""16"",""388053""
""focus"",""17"",""516849""
""focus"",""17"",""523815""
""focus"",""30"",""652126""
""focus"",""32"",""675222""
""focus"",""46"",""803709""
","""event"",""trial"",""time""
""fullscreenenter"",""5"",""23726""
","""event"",""trial"",""time""
""fullscreenexit"",""6"",""25752""
","984.6000000014901","","49","","","3000","1","1296","49","images/tutgreenplanet.jpg","images/tutalien2","images/tutalien1","images/tutrocket2","images/tutalien1","images/nothing.png","2","practice","false","1","rare","0","2022-02-03 02:27:44.796"
"two-step-fixation","66","977331","0.0-61.0-2.1","234","651","10","Female","false","true","false","true","""event"",""trial"",""time""
""fullscreenenter"",""5"",""23726""
""fullscreenexit"",""6"",""25752""
""blur"",""16"",""113537""
""focus"",""16"",""388053""
""blur"",""17"",""403048""
""focus"",""17"",""516849""
""blur"",""17"",""517754""
""focus"",""17"",""523815""
""blur"",""30"",""588777""
""focus"",""30"",""652126""
""blur"",""32"",""673556""
""focus"",""32"",""675222""
""blur"",""46"",""735134""
""focus"",""46"",""803709""
","""event"",""trial"",""time""
""blur"",""16"",""113537""
""blur"",""17"",""403048""
""blur"",""17"",""517754""
""blur"",""30"",""588777""
""blur"",""32"",""673556""
""blur"",""46"",""735134""
","""event"",""trial"",""time""
""focus"",""16"",""388053""
""focus"",""17"",""516849""
""focus"",""17"",""523815""
""focus"",""30"",""652126""
""focus"",""32"",""675222""
""focus"",""46"",""803709""
","""event"",""trial"",""time""
""fullscreenenter"",""5"",""23726""
","""event"",""trial"",""time""
""fullscreenexit"",""6"",""25752""
","","images/earth.jpg","","","","","","","","","","","","","","fixation","","","","","",""
"d3-animate-choice","67","979387","0.0-61.0-0.2","234","651","10","Female","false","true","false","true","""event"",""trial"",""time""
""fullscreenenter"",""5"",""23726""
""fullscreenexit"",""6"",""25752""
""blur"",""16"",""113537""
""focus"",""16"",""388053""
""blur"",""17"",""403048""
""focus"",""17"",""516849""
""blur"",""17"",""517754""
""focus"",""17"",""523815""
""blur"",""30"",""588777""
""focus"",""30"",""652126""
""blur"",""32"",""673556""
""focus"",""32"",""675222""
""blur"",""46"",""735134""
""focus"",""46"",""803709""
","""event"",""trial"",""time""
""blur"",""16"",""113537""
""blur"",""17"",""403048""
""blur"",""17"",""517754""
""blur"",""30"",""588777""
""blur"",""32"",""673556""
""blur"",""46"",""735134""
","""event"",""trial"",""time""
""focus"",""16"",""388053""
""focus"",""17"",""516849""
""focus"",""17"",""523815""
""focus"",""30"",""652126""
""focus"",""32"",""675222""
""focus"",""46"",""803709""
","""event"",""trial"",""time""
""fullscreenenter"",""5"",""23726""
","""event"",""trial"",""time""
""fullscreenexit"",""6"",""25752""
","51.20000000298023","","48","","","3000","1","","","images/earth.jpg","images/tutrocket1","images/tutrocket2","null","images/tutrocket1","","1","practice","null","2","","",""
"d3-animate-choice","68","982991","0.0-61.0-1.2","234","651","10","Female","false","true","false","true","""event"",""trial"",""time""
""fullscreenenter"",""5"",""23726""
""fullscreenexit"",""6"",""25752""
""blur"",""16"",""113537""
""focus"",""16"",""388053""
""blur"",""17"",""403048""
""focus"",""17"",""516849""
""blur"",""17"",""517754""
""focus"",""17"",""523815""
""blur"",""30"",""588777""
""focus"",""30"",""652126""
""blur"",""32"",""673556""
""focus"",""32"",""675222""
""blur"",""46"",""735134""
""focus"",""46"",""803709""
","""event"",""trial"",""time""
""blur"",""16"",""113537""
""blur"",""17"",""403048""
""blur"",""17"",""517754""
""blur"",""30"",""588777""
""blur"",""32"",""673556""
""blur"",""46"",""735134""
","""event"",""trial"",""time""
""focus"",""16"",""388053""
""focus"",""17"",""516849""
""focus"",""17"",""523815""
""focus"",""30"",""652126""
""focus"",""32"",""675222""
""focus"",""46"",""803709""
","""event"",""trial"",""time""
""fullscreenenter"",""5"",""23726""
","""event"",""trial"",""time""
""fullscreenexit"",""6"",""25752""
","1597.6999999955297","","48","","","3000","1","1862,3392.2999999970198","48,49","images/tutgreenplanet.jpg","images/tutalien2","images/tutalien1","images/tutrocket1","images/tutalien2","images/t.png","2","practice","true","2","common","1","2022-02-03 02:27:51.459"
"two-step-fixation","69","984017","0.0-61.0-2.2","234","651","10","Female","false","true","false","true","""event"",""trial"",""time""
""fullscreenenter"",""5"",""23726""
""fullscreenexit"",""6"",""25752""
""blur"",""16"",""113537""
""focus"",""16"",""388053""
""blur"",""17"",""403048""
""focus"",""17"",""516849""
""blur"",""17"",""517754""
""focus"",""17"",""523815""
""blur"",""30"",""588777""
""focus"",""30"",""652126""
""blur"",""32"",""673556""
""focus"",""32"",""675222""
""blur"",""46"",""735134""
""focus"",""46"",""803709""
","""event"",""trial"",""time""
""blur"",""16"",""113537""
""blur"",""17"",""403048""
""blur"",""17"",""517754""
""blur"",""30"",""588777""
""blur"",""32"",""673556""
""blur"",""46"",""735134""
","""event"",""trial"",""time""
""focus"",""16"",""388053""
""focus"",""17"",""516849""
""focus"",""17"",""523815""
""focus"",""30"",""652126""
""focus"",""32"",""675222""
""focus"",""46"",""803709""
","""event"",""trial"",""time""
""fullscreenenter"",""5"",""23726""
","""event"",""trial"",""time""
""fullscreenexit"",""6"",""25752""
","","images/earth.jpg","","","","","","","","","","","","","","fixation","","","","","",""
"d3-animate-choice","70","986447","0.0-61.0-0.3","234","651","10","Female","false","true","false","true","""event"",""trial"",""time""
""fullscreenenter"",""5"",""23726""
""fullscreenexit"",""6"",""25752""
""blur"",""16"",""113537""
""focus"",""16"",""388053""
""blur"",""17"",""403048""
""focus"",""17"",""516849""
""blur"",""17"",""517754""
""focus"",""17"",""523815""
""blur"",""30"",""588777""
""focus"",""30"",""652126""
""blur"",""32"",""673556""
""focus"",""32"",""675222""
""blur"",""46"",""735134""
""focus"",""46"",""803709""
","""event"",""trial"",""time""
""blur"",""16"",""113537""
""blur"",""17"",""403048""
""blur"",""17"",""517754""
""blur"",""30"",""588777""
""blur"",""32"",""673556""
""blur"",""46"",""735134""
","""event"",""trial"",""time""
""focus"",""16"",""388053""
""focus"",""17"",""516849""
""focus"",""17"",""523815""
""focus"",""30"",""652126""
""focus"",""32"",""675222""
""focus"",""46"",""803709""
","""event"",""trial"",""time""
""fullscreenenter"",""5"",""23726""
","""event"",""trial"",""time""
""fullscreenexit"",""6"",""25752""
","425.3999999985099","","49","","","3000","1","","","images/earth.jpg","images/tutrocket1","images/tutrocket2","null","images/tutrocket2","","1","practice","null","1","","",""
"d3-animate-choice","71","990040","0.0-61.0-1.3","234","651","10","Female","false","true","false","true","""event"",""trial"",""time""
""fullscreenenter"",""5"",""23726""
""fullscreenexit"",""6"",""25752""
""blur"",""16"",""113537""
""focus"",""16"",""388053""
""blur"",""17"",""403048""
""focus"",""17"",""516849""
""blur"",""17"",""517754""
""focus"",""17"",""523815""
""blur"",""30"",""588777""
""focus"",""30"",""652126""
""blur"",""32"",""673556""
""focus"",""32"",""675222""
""blur"",""46"",""735134""
""focus"",""46"",""803709""
","""event"",""trial"",""time""
""blur"",""16"",""113537""
""blur"",""17"",""403048""
""blur"",""17"",""517754""
""blur"",""30"",""588777""
""blur"",""32"",""673556""
""blur"",""46"",""735134""
","""event"",""trial"",""time""
""focus"",""16"",""388053""
""focus"",""17"",""516849""
""focus"",""17"",""523815""
""focus"",""30"",""652126""
""focus"",""32"",""675222""
""focus"",""46"",""803709""
","""event"",""trial"",""time""
""fullscreenenter"",""5"",""23726""
","""event"",""trial"",""time""
""fullscreenexit"",""6"",""25752""
","1586.8999999985099","","49","","","3000","1","1977.8999999985099","49","images/tutyellowplanet.jpg","images/tutalien4","images/tutalien3","images/tutrocket2","images/tutalien3","images/t.png","2","practice","true","1","common","1","2022-02-03 02:27:58.508"
"two-step-fixation","72","991043","0.0-61.0-2.3","234","651","10","Female","false","true","false","true","""event"",""trial"",""time""
""fullscreenenter"",""5"",""23726""
""fullscreenexit"",""6"",""25752""
""blur"",""16"",""113537""
""focus"",""16"",""388053""
""blur"",""17"",""403048""
""focus"",""17"",""516849""
""blur"",""17"",""517754""
""focus"",""17"",""523815""
""blur"",""30"",""588777""
""focus"",""30"",""652126""
""blur"",""32"",""673556""
""focus"",""32"",""675222""
""blur"",""46"",""735134""
""focus"",""46"",""803709""
","""event"",""trial"",""time""
""blur"",""16"",""113537""
""blur"",""17"",""403048""
""blur"",""17"",""517754""
""blur"",""30"",""588777""
""blur"",""32"",""673556""
""blur"",""46"",""735134""
","""event"",""trial"",""time""
""focus"",""16"",""388053""
""focus"",""17"",""516849""
""focus"",""17"",""523815""
""focus"",""30"",""652126""
""focus"",""32"",""675222""
""focus"",""46"",""803709""
","""event"",""trial"",""time""
""fullscreenenter"",""5"",""23726""
","""event"",""trial"",""time""
""fullscreenexit"",""6"",""25752""
","","images/earth.jpg","","","","","","","","","","","","","","fixation","","","","","",""
"d3-animate-choice","73","994078","0.0-61.0-0.4","234","651","10","Female","false","true","false","true","""event"",""trial"",""time""
""fullscreenenter"",""5"",""23726""
""fullscreenexit"",""6"",""25752""
""blur"",""16"",""113537""
""focus"",""16"",""388053""
""blur"",""17"",""403048""
""focus"",""17"",""516849""
""blur"",""17"",""517754""
""focus"",""17"",""523815""
""blur"",""30"",""588777""
""focus"",""30"",""652126""
""blur"",""32"",""673556""
""focus"",""32"",""675222""
""blur"",""46"",""735134""
""focus"",""46"",""803709""
","""event"",""trial"",""time""
""blur"",""16"",""113537""
""blur"",""17"",""403048""
""blur"",""17"",""517754""
""blur"",""30"",""588777""
""blur"",""32"",""673556""
""blur"",""46"",""735134""
","""event"",""trial"",""time""
""focus"",""16"",""388053""
""focus"",""17"",""516849""
""focus"",""17"",""523815""
""focus"",""30"",""652126""
""focus"",""32"",""675222""
""focus"",""46"",""803709""
","""event"",""trial"",""time""
""fullscreenenter"",""5"",""23726""
","""event"",""trial"",""time""
""fullscreenexit"",""6"",""25752""
","1029.8000000044703","","48","","","3000","1","","","images/earth.jpg","images/tutrocket1","images/tutrocket2","null","images/tutrocket1","","1","practice","null","2","","",""
"d3-animate-choice","74","996597","0.0-61.0-1.4","234","651","10","Female","false","true","false","true","""event"",""trial"",""time""
""fullscreenenter"",""5"",""23726""
""fullscreenexit"",""6"",""25752""
""blur"",""16"",""113537""
""focus"",""16"",""388053""
""blur"",""17"",""403048""
""focus"",""17"",""516849""
""blur"",""17"",""517754""
""focus"",""17"",""523815""
""blur"",""30"",""588777""
""focus"",""30"",""652126""
""blur"",""32"",""673556""
""focus"",""32"",""675222""
""blur"",""46"",""735134""
""focus"",""46"",""803709""
","""event"",""trial"",""time""
""blur"",""16"",""113537""
""blur"",""17"",""403048""
""blur"",""17"",""517754""
""blur"",""30"",""588777""
""blur"",""32"",""673556""
""blur"",""46"",""735134""
","""event"",""trial"",""time""
""focus"",""16"",""388053""
""focus"",""17"",""516849""
""focus"",""17"",""523815""
""focus"",""30"",""652126""
""focus"",""32"",""675222""
""focus"",""46"",""803709""
","""event"",""trial"",""time""
""fullscreenenter"",""5"",""23726""
","""event"",""trial"",""time""
""fullscreenexit"",""6"",""25752""
","514.7000000029802","","49","","","3000","1","816.7999999970198","49","images/tutgreenplanet.jpg","images/tutalien2","images/tutalien1","images/tutrocket1","images/tutalien1","images/t.png","2","practice","true","1","common","1","2022-02-03 02:28:05.065"
"two-step-fixation","75","997601","0.0-61.0-2.4","234","651","10","Female","false","true","false","true","""event"",""trial"",""time""
""fullscreenenter"",""5"",""23726""
""fullscreenexit"",""6"",""25752""
""blur"",""16"",""113537""
""focus"",""16"",""388053""
""blur"",""17"",""403048""
""focus"",""17"",""516849""
""blur"",""17"",""517754""
""focus"",""17"",""523815""
""blur"",""30"",""588777""
""focus"",""30"",""652126""
""blur"",""32"",""673556""
""focus"",""32"",""675222""
""blur"",""46"",""735134""
""focus"",""46"",""803709""
","""event"",""trial"",""time""
""blur"",""16"",""113537""
""blur"",""17"",""403048""
""blur"",""17"",""517754""
""blur"",""30"",""588777""
""blur"",""32"",""673556""
""blur"",""46"",""735134""
","""event"",""trial"",""time""
""focus"",""16"",""388053""
""focus"",""17"",""516849""
""focus"",""17"",""523815""
""focus"",""30"",""652126""
""focus"",""32"",""675222""
""focus"",""46"",""803709""
","""event"",""trial"",""time""
""fullscreenenter"",""5"",""23726""
","""event"",""trial"",""time""
""fullscreenexit"",""6"",""25752""
","","images/earth.jpg","","","","","","","","","","","","","","fixation","","","","","",""
"d3-animate-choice","76","1000396","0.0-61.0-0.5","234","651","10","Female","false","true","false","true","""event"",""trial"",""time""
""fullscreenenter"",""5"",""23726""
""fullscreenexit"",""6"",""25752""
""blur"",""16"",""113537""
""focus"",""16"",""388053""
""blur"",""17"",""403048""
""focus"",""17"",""516849""
""blur"",""17"",""517754""
""focus"",""17"",""523815""
""blur"",""30"",""588777""
""focus"",""30"",""652126""
""blur"",""32"",""673556""
""focus"",""32"",""675222""
""blur"",""46"",""735134""
""focus"",""46"",""803709""
","""event"",""trial"",""time""
""blur"",""16"",""113537""
""blur"",""17"",""403048""
""blur"",""17"",""517754""
""blur"",""30"",""588777""
""blur"",""32"",""673556""
""blur"",""46"",""735134""
","""event"",""trial"",""time""
""focus"",""16"",""388053""
""focus"",""17"",""516849""
""focus"",""17"",""523815""
""focus"",""30"",""652126""
""focus"",""32"",""675222""
""focus"",""46"",""803709""
","""event"",""trial"",""time""
""fullscreenenter"",""5"",""23726""
","""event"",""trial"",""time""
""fullscreenexit"",""6"",""25752""
","791","","48","","","3000","1","","","images/earth.jpg","images/tutrocket1","images/tutrocket2","null","images/tutrocket1","","1","practice","null","2","","",""
"d3-animate-choice","77","1004403","0.0-61.0-1.5","234","651","10","Female","false","true","false","true","""event"",""trial"",""time""
""fullscreenenter"",""5"",""23726""
""fullscreenexit"",""6"",""25752""
""blur"",""16"",""113537""
""focus"",""16"",""388053""
""blur"",""17"",""403048""
""focus"",""17"",""516849""
""blur"",""17"",""517754""
""focus"",""17"",""523815""
""blur"",""30"",""588777""
""focus"",""30"",""652126""
""blur"",""32"",""673556""
""focus"",""32"",""675222""
""blur"",""46"",""735134""
""focus"",""46"",""803709""
","""event"",""trial"",""time""
""blur"",""16"",""113537""
""blur"",""17"",""403048""
""blur"",""17"",""517754""
""blur"",""30"",""588777""
""blur"",""32"",""673556""
""blur"",""46"",""735134""
","""event"",""trial"",""time""
""focus"",""16"",""388053""
""focus"",""17"",""516849""
""focus"",""17"",""523815""
""focus"",""30"",""652126""
""focus"",""32"",""675222""
""focus"",""46"",""803709""
","""event"",""trial"",""time""
""fullscreenenter"",""5"",""23726""
","""event"",""trial"",""time""
""fullscreenexit"",""6"",""25752""
","3457.60000000149","","48","","","3000","0","3845.4000000059605","48","images/tutyellowplanet.jpg","images/tutalien4","images/tutalien3","images/tutrocket1","","","2","practice","false","2","rare","0","2022-02-03 02:28:12.872"
"two-step-fixation","78","1005405","0.0-61.0-2.5","234","651","10","Female","false","true","false","true","""event"",""trial"",""time""
""fullscreenenter"",""5"",""23726""
""fullscreenexit"",""6"",""25752""
""blur"",""16"",""113537""
""focus"",""16"",""388053""
""blur"",""17"",""403048""
""focus"",""17"",""516849""
""blur"",""17"",""517754""
""focus"",""17"",""523815""
""blur"",""30"",""588777""
""focus"",""30"",""652126""
""blur"",""32"",""673556""
""focus"",""32"",""675222""
""blur"",""46"",""735134""
""focus"",""46"",""803709""
","""event"",""trial"",""time""
""blur"",""16"",""113537""
""blur"",""17"",""403048""
""blur"",""17"",""517754""
""blur"",""30"",""588777""
""blur"",""32"",""673556""
""blur"",""46"",""735134""
","""event"",""trial"",""time""
""focus"",""16"",""388053""
""focus"",""17"",""516849""
""focus"",""17"",""523815""
""focus"",""30"",""652126""
""focus"",""32"",""675222""
""focus"",""46"",""803709""
","""event"",""trial"",""time""
""fullscreenenter"",""5"",""23726""
","""event"",""trial"",""time""
""fullscreenexit"",""6"",""25752""
","","images/earth.jpg","","","","","","","","","","","","","","fixation","","","","","",""
"d3-animate-choice","79","1007786","0.0-61.0-0.6","234","651","10","Female","false","true","false","true","""event"",""trial"",""time""
""fullscreenenter"",""5"",""23726""
""fullscreenexit"",""6"",""25752""
""blur"",""16"",""113537""
""focus"",""16"",""388053""
""blur"",""17"",""403048""
""focus"",""17"",""516849""
""blur"",""17"",""517754""
""focus"",""17"",""523815""
""blur"",""30"",""588777""
""focus"",""30"",""652126""
""blur"",""32"",""673556""
""focus"",""32"",""675222""
""blur"",""46"",""735134""
""focus"",""46"",""803709""
","""event"",""trial"",""time""
""blur"",""16"",""113537""
""blur"",""17"",""403048""
""blur"",""17"",""517754""
""blur"",""30"",""588777""
""blur"",""32"",""673556""
""blur"",""46"",""735134""
","""event"",""trial"",""time""
""focus"",""16"",""388053""
""focus"",""17"",""516849""
""focus"",""17"",""523815""
""focus"",""30"",""652126""
""focus"",""32"",""675222""
""focus"",""46"",""803709""
","""event"",""trial"",""time""
""fullscreenenter"",""5"",""23726""
","""event"",""trial"",""time""
""fullscreenexit"",""6"",""25752""
","377","","48","","","3000","1","490.79999999701977","49","images/earth.jpg","images/tutrocket1","images/tutrocket2","null","images/tutrocket1","","1","practice","null","2","","",""
"d3-animate-choice","80","1010185","0.0-61.0-1.6","234","651","10","Female","false","true","false","true","""event"",""trial"",""time""
""fullscreenenter"",""5"",""23726""
""fullscreenexit"",""6"",""25752""
""blur"",""16"",""113537""
""focus"",""16"",""388053""
""blur"",""17"",""403048""
""focus"",""17"",""516849""
""blur"",""17"",""517754""
""focus"",""17"",""523815""
""blur"",""30"",""588777""
""focus"",""30"",""652126""
""blur"",""32"",""673556""
""focus"",""32"",""675222""
""blur"",""46"",""735134""
""focus"",""46"",""803709""
","""event"",""trial"",""time""
""blur"",""16"",""113537""
""blur"",""17"",""403048""
""blur"",""17"",""517754""
""blur"",""30"",""588777""
""blur"",""32"",""673556""
""blur"",""46"",""735134""
","""event"",""trial"",""time""
""focus"",""16"",""388053""
""focus"",""17"",""516849""
""focus"",""17"",""523815""
""focus"",""30"",""652126""
""focus"",""32"",""675222""
""focus"",""46"",""803709""
","""event"",""trial"",""time""
""fullscreenenter"",""5"",""23726""
","""event"",""trial"",""time""
""fullscreenexit"",""6"",""25752""
","396.1000000014901","","49","","","3000","1","405,604.5,698.7999999970198,843.2999999970198","48,48,49,48","images/tutyellowplanet.jpg","images/tutalien4","images/tutalien3","images/tutrocket1","images/tutalien3","images/nothing.png","2","practice","false","1","rare","0","2022-02-03 02:28:18.653"
"two-step-fixation","81","1011189","0.0-61.0-2.6","234","651","10","Female","false","true","false","true","""event"",""trial"",""time""
""fullscreenenter"",""5"",""23726""
""fullscreenexit"",""6"",""25752""
""blur"",""16"",""113537""
""focus"",""16"",""388053""
""blur"",""17"",""403048""
""focus"",""17"",""516849""
""blur"",""17"",""517754""
""focus"",""17"",""523815""
""blur"",""30"",""588777""
""focus"",""30"",""652126""
""blur"",""32"",""673556""
""focus"",""32"",""675222""
""blur"",""46"",""735134""
""focus"",""46"",""803709""
","""event"",""trial"",""time""
""blur"",""16"",""113537""
""blur"",""17"",""403048""
""blur"",""17"",""517754""
""blur"",""30"",""588777""
""blur"",""32"",""673556""
""blur"",""46"",""735134""
","""event"",""trial"",""time""
""focus"",""16"",""388053""
""focus"",""17"",""516849""
""focus"",""17"",""523815""
""focus"",""30"",""652126""
""focus"",""32"",""675222""
""focus"",""46"",""803709""
","""event"",""trial"",""time""
""fullscreenenter"",""5"",""23726""
","""event"",""trial"",""time""
""fullscreenexit"",""6"",""25752""
","","images/earth.jpg","","","","","","","","","","","","","","fixation","","","","","",""
"d3-animate-choice","82","1013447","0.0-61.0-0.7","234","651","10","Female","false","true","false","true","""event"",""trial"",""time""
""fullscreenenter"",""5"",""23726""
""fullscreenexit"",""6"",""25752""
""blur"",""16"",""113537""
""focus"",""16"",""388053""
""blur"",""17"",""403048""
""focus"",""17"",""516849""
""blur"",""17"",""517754""
""focus"",""17"",""523815""
""blur"",""30"",""588777""
""focus"",""30"",""652126""
""blur"",""32"",""673556""
""focus"",""32"",""675222""
""blur"",""46"",""735134""
""focus"",""46"",""803709""
","""event"",""trial"",""time""
""blur"",""16"",""113537""
""blur"",""17"",""403048""
""blur"",""17"",""517754""
""blur"",""30"",""588777""
""blur"",""32"",""673556""
""blur"",""46"",""735134""
","""event"",""trial"",""time""
""focus"",""16"",""388053""
""focus"",""17"",""516849""
""focus"",""17"",""523815""
""focus"",""30"",""652126""
""focus"",""32"",""675222""
""focus"",""46"",""803709""
","""event"",""trial"",""time""
""fullscreenenter"",""5"",""23726""
","""event"",""trial"",""time""
""fullscreenexit"",""6"",""25752""
","254.10000000149012","","49","","","3000","1","282.70000000298023,513.6000000014901,519.7000000029802","48,48,49","images/earth.jpg","images/tutrocket1","images/tutrocket2","null","images/tutrocket2","","1","practice","null","1","","",""
"d3-animate-choice","83","1015785","0.0-61.0-1.7","234","651","10","Female","false","true","false","true","""event"",""trial"",""time""
""fullscreenenter"",""5"",""23726""
""fullscreenexit"",""6"",""25752""
""blur"",""16"",""113537""
""focus"",""16"",""388053""
""blur"",""17"",""403048""
""focus"",""17"",""516849""
""blur"",""17"",""517754""
""focus"",""17"",""523815""
""blur"",""30"",""588777""
""focus"",""30"",""652126""
""blur"",""32"",""673556""
""focus"",""32"",""675222""
""blur"",""46"",""735134""
""focus"",""46"",""803709""
","""event"",""trial"",""time""
""blur"",""16"",""113537""
""blur"",""17"",""403048""
""blur"",""17"",""517754""
""blur"",""30"",""588777""
""blur"",""32"",""673556""
""blur"",""46"",""735134""
","""event"",""trial"",""time""
""focus"",""16"",""388053""
""focus"",""17"",""516849""
""focus"",""17"",""523815""
""focus"",""30"",""652126""
""focus"",""32"",""675222""
""focus"",""46"",""803709""
","""event"",""trial"",""time""
""fullscreenenter"",""5"",""23726""
","""event"",""trial"",""time""
""fullscreenexit"",""6"",""25752""
","333","","49","","","3000","1","601.6000000014901,795.6000000014901,798.3999999985099","48,48,49","images/tutyellowplanet.jpg","images/tutalien4","images/tutalien3","images/tutrocket2","images/tutalien3","images/nothing.png","2","practice","true","1","common","0","2022-02-03 02:28:24.253"
"two-step-fixation","84","1016788","0.0-61.0-2.7","234","651","10","Female","false","true","false","true","""event"",""trial"",""time""
""fullscreenenter"",""5"",""23726""
""fullscreenexit"",""6"",""25752""
""blur"",""16"",""113537""
""focus"",""16"",""388053""
""blur"",""17"",""403048""
""focus"",""17"",""516849""
""blur"",""17"",""517754""
""focus"",""17"",""523815""
""blur"",""30"",""588777""
""focus"",""30"",""652126""
""blur"",""32"",""673556""
""focus"",""32"",""675222""
""blur"",""46"",""735134""
""focus"",""46"",""803709""
","""event"",""trial"",""time""
""blur"",""16"",""113537""
""blur"",""17"",""403048""
""blur"",""17"",""517754""
""blur"",""30"",""588777""
""blur"",""32"",""673556""
""blur"",""46"",""735134""
","""event"",""trial"",""time""
""focus"",""16"",""388053""
""focus"",""17"",""516849""
""focus"",""17"",""523815""
""focus"",""30"",""652126""
""focus"",""32"",""675222""
""focus"",""46"",""803709""
","""event"",""trial"",""time""
""fullscreenenter"",""5"",""23726""
","""event"",""trial"",""time""
""fullscreenexit"",""6"",""25752""
","","images/earth.jpg","","","","","","","","","","","","","","fixation","","","","","",""
"d3-animate-choice","85","1018899","0.0-61.0-0.8","234","651","10","Female","false","true","false","true","""event"",""trial"",""time""
""fullscreenenter"",""5"",""23726""
""fullscreenexit"",""6"",""25752""
""blur"",""16"",""113537""
""focus"",""16"",""388053""
""blur"",""17"",""403048""
""focus"",""17"",""516849""
""blur"",""17"",""517754""
""focus"",""17"",""523815""
""blur"",""30"",""588777""
""focus"",""30"",""652126""
""blur"",""32"",""673556""
""focus"",""32"",""675222""
""blur"",""46"",""735134""
""focus"",""46"",""803709""
","""event"",""trial"",""time""
""blur"",""16"",""113537""
""blur"",""17"",""403048""
""blur"",""17"",""517754""
""blur"",""30"",""588777""
""blur"",""32"",""673556""
""blur"",""46"",""735134""
","""event"",""trial"",""time""
""focus"",""16"",""388053""
""focus"",""17"",""516849""
""focus"",""17"",""523815""
""focus"",""30"",""652126""
""focus"",""32"",""675222""
""focus"",""46"",""803709""
","""event"",""trial"",""time""
""fullscreenenter"",""5"",""23726""
","""event"",""trial"",""time""
""fullscreenexit"",""6"",""25752""
","107","","48","","","3000","1","217.39999999850988,371.29999999701977","49,48","images/earth.jpg","images/tutrocket1","images/tutrocket2","null","images/tutrocket1","","1","practice","null","2","","",""
"d3-animate-choice","86","1021250","0.0-61.0-1.8","234","651","10","Female","false","true","false","true","""event"",""trial"",""time""
""fullscreenenter"",""5"",""23726""
""fullscreenexit"",""6"",""25752""
""blur"",""16"",""113537""
""focus"",""16"",""388053""
""blur"",""17"",""403048""
""focus"",""17"",""516849""
""blur"",""17"",""517754""
""focus"",""17"",""523815""
""blur"",""30"",""588777""
""focus"",""30"",""652126""
""blur"",""32"",""673556""
""focus"",""32"",""675222""
""blur"",""46"",""735134""
""focus"",""46"",""803709""
","""event"",""trial"",""time""
""blur"",""16"",""113537""
""blur"",""17"",""403048""
""blur"",""17"",""517754""
""blur"",""30"",""588777""
""blur"",""32"",""673556""
""blur"",""46"",""735134""
","""event"",""trial"",""time""
""focus"",""16"",""388053""
""focus"",""17"",""516849""
""focus"",""17"",""523815""
""focus"",""30"",""652126""
""focus"",""32"",""675222""
""focus"",""46"",""803709""
","""event"",""trial"",""time""
""fullscreenenter"",""5"",""23726""
","""event"",""trial"",""time""
""fullscreenexit"",""6"",""25752""
","347.29999999701977","","48","","","3000","1","589.0999999940395,823.7999999970198,1076.1999999955297","48,48,48","images/tutyellowplanet.jpg","images/tutalien4","images/tutalien3","images/tutrocket1","images/tutalien4","images/nothing.png","2","practice","false","2","rare","0","2022-02-03 02:28:29.718"
"two-step-fixation","87","1022253","0.0-61.0-2.8","234","651","10","Female","false","true","false","true","""event"",""trial"",""time""
""fullscreenenter"",""5"",""23726""
""fullscreenexit"",""6"",""25752""
""blur"",""16"",""113537""
""focus"",""16"",""388053""
""blur"",""17"",""403048""
""focus"",""17"",""516849""
""blur"",""17"",""517754""
""focus"",""17"",""523815""
""blur"",""30"",""588777""
""focus"",""30"",""652126""
""blur"",""32"",""673556""
""focus"",""32"",""675222""
""blur"",""46"",""735134""
""focus"",""46"",""803709""
","""event"",""trial"",""time""
""blur"",""16"",""113537""
""blur"",""17"",""403048""
""blur"",""17"",""517754""
""blur"",""30"",""588777""
""blur"",""32"",""673556""
""blur"",""46"",""735134""
","""event"",""trial"",""time""
""focus"",""16"",""388053""
""focus"",""17"",""516849""
""focus"",""17"",""523815""
""focus"",""30"",""652126""
""focus"",""32"",""675222""
""focus"",""46"",""803709""
","""event"",""trial"",""time""
""fullscreenenter"",""5"",""23726""
","""event"",""trial"",""time""
""fullscreenexit"",""6"",""25752""
","","images/earth.jpg","","","","","","","","","","","","","","fixation","","","","","",""
"d3-animate-choice","88","1024305","0.0-61.0-0.9","234","651","10","Female","false","true","false","true","""event"",""trial"",""time""
""fullscreenenter"",""5"",""23726""
""fullscreenexit"",""6"",""25752""
""blur"",""16"",""113537""
""focus"",""16"",""388053""
""blur"",""17"",""403048""
""focus"",""17"",""516849""
""blur"",""17"",""517754""
""focus"",""17"",""523815""
""blur"",""30"",""588777""
""focus"",""30"",""652126""
""blur"",""32"",""673556""
""focus"",""32"",""675222""
""blur"",""46"",""735134""
""focus"",""46"",""803709""
","""event"",""trial"",""time""
""blur"",""16"",""113537""
""blur"",""17"",""403048""
""blur"",""17"",""517754""
""blur"",""30"",""588777""
""blur"",""32"",""673556""
""blur"",""46"",""735134""
","""event"",""trial"",""time""
""focus"",""16"",""388053""
""focus"",""17"",""516849""
""focus"",""17"",""523815""
""focus"",""30"",""652126""
""focus"",""32"",""675222""
""focus"",""46"",""803709""
","""event"",""trial"",""time""
""fullscreenenter"",""5"",""23726""
","""event"",""trial"",""time""
""fullscreenexit"",""6"",""25752""
","48.20000000298023","","48","","","3000","1","157.70000000298023,255.5,416.30000000447035,470","49,48,49,48","images/earth.jpg","images/tutrocket1","images/tutrocket2","null","images/tutrocket1","","1","practice","null","2","","",""
"d3-animate-choice","89","1027525","0.0-61.0-1.9","234","651","10","Female","false","true","false","true","""event"",""trial"",""time""
""fullscreenenter"",""5"",""23726""
""fullscreenexit"",""6"",""25752""
""blur"",""16"",""113537""
""focus"",""16"",""388053""
""blur"",""17"",""403048""
""focus"",""17"",""516849""
""blur"",""17"",""517754""
""focus"",""17"",""523815""
""blur"",""30"",""588777""
""focus"",""30"",""652126""
""blur"",""32"",""673556""
""focus"",""32"",""675222""
""blur"",""46"",""735134""
""focus"",""46"",""803709""
","""event"",""trial"",""time""
""blur"",""16"",""113537""
""blur"",""17"",""403048""
""blur"",""17"",""517754""
""blur"",""30"",""588777""
""blur"",""32"",""673556""
""blur"",""46"",""735134""
","""event"",""trial"",""time""
""focus"",""16"",""388053""
""focus"",""17"",""516849""
""focus"",""17"",""523815""
""focus"",""30"",""652126""
""focus"",""32"",""675222""
""focus"",""46"",""803709""
","""event"",""trial"",""time""
""fullscreenenter"",""5"",""23726""
","""event"",""trial"",""time""
""fullscreenexit"",""6"",""25752""
","1216","","48","","","3000","1","1228.3999999985099,1415.1000000014901,1500.1000000014901,1626.3000000044703,1742.7000000029802,1821.5,1986.1000000014901,2016.8999999985099","49,48,49,48,49,48,49,48","images/tutgreenplanet.jpg","images/tutalien2","images/tutalien1","images/tutrocket1","images/tutalien2","images/t.png","2","practice","true","2","common","1","2022-02-03 02:28:35.993"
"two-step-fixation","90","1028528","0.0-61.0-2.9","234","651","10","Female","false","true","false","true","""event"",""trial"",""time""
""fullscreenenter"",""5"",""23726""
""fullscreenexit"",""6"",""25752""
""blur"",""16"",""113537""
""focus"",""16"",""388053""
""blur"",""17"",""403048""
""focus"",""17"",""516849""
""blur"",""17"",""517754""
""focus"",""17"",""523815""
""blur"",""30"",""588777""
""focus"",""30"",""652126""
""blur"",""32"",""673556""
""focus"",""32"",""675222""
""blur"",""46"",""735134""
""focus"",""46"",""803709""
","""event"",""trial"",""time""
""blur"",""16"",""113537""
""blur"",""17"",""403048""
""blur"",""17"",""517754""
""blur"",""30"",""588777""
""blur"",""32"",""673556""
""blur"",""46"",""735134""
","""event"",""trial"",""time""
""focus"",""16"",""388053""
""focus"",""17"",""516849""
""focus"",""17"",""523815""
""focus"",""30"",""652126""
""focus"",""32"",""675222""
""focus"",""46"",""803709""
","""event"",""trial"",""time""
""fullscreenenter"",""5"",""23726""
","""event"",""trial"",""time""
""fullscreenexit"",""6"",""25752""
","","images/earth.jpg","","","","","","","","","","","","","","fixation","","","","","",""
"d3-animate-choice","91","1030672","0.0-61.0-0.10","234","651","10","Female","false","true","false","true","""event"",""trial"",""time""
""fullscreenenter"",""5"",""23726""
""fullscreenexit"",""6"",""25752""
""blur"",""16"",""113537""
""focus"",""16"",""388053""
""blur"",""17"",""403048""
""focus"",""17"",""516849""
""blur"",""17"",""517754""
""focus"",""17"",""523815""
""blur"",""30"",""588777""
""focus"",""30"",""652126""
""blur"",""32"",""673556""
""focus"",""32"",""675222""
""blur"",""46"",""735134""
""focus"",""46"",""803709""
","""event"",""trial"",""time""
""blur"",""16"",""113537""
""blur"",""17"",""403048""
""blur"",""17"",""517754""
""blur"",""30"",""588777""
""blur"",""32"",""673556""
""blur"",""46"",""735134""
","""event"",""trial"",""time""
""focus"",""16"",""388053""
""focus"",""17"",""516849""
""focus"",""17"",""523815""
""focus"",""30"",""652126""
""focus"",""32"",""675222""
""focus"",""46"",""803709""
","""event"",""trial"",""time""
""fullscreenenter"",""5"",""23726""
","""event"",""trial"",""time""
""fullscreenexit"",""6"",""25752""
","139.29999999701977","","49","","","3000","1","386.59999999403954,390.19999999552965,567.0999999940395,654.7999999970198","48,49,48,49","images/earth.jpg","images/tutrocket1","images/tutrocket2","null","images/tutrocket2","","1","practice","null","1","","",""
"d3-animate-choice","92","1033699","0.0-61.0-1.10","234","651","10","Female","false","true","false","true","""event"",""trial"",""time""
""fullscreenenter"",""5"",""23726""
""fullscreenexit"",""6"",""25752""
""blur"",""16"",""113537""
""focus"",""16"",""388053""
""blur"",""17"",""403048""
""focus"",""17"",""516849""
""blur"",""17"",""517754""
""focus"",""17"",""523815""
""blur"",""30"",""588777""
""focus"",""30"",""652126""
""blur"",""32"",""673556""
""focus"",""32"",""675222""
""blur"",""46"",""735134""
""focus"",""46"",""803709""
","""event"",""trial"",""time""
""blur"",""16"",""113537""
""blur"",""17"",""403048""
""blur"",""17"",""517754""
""blur"",""30"",""588777""
""blur"",""32"",""673556""
""blur"",""46"",""735134""
","""event"",""trial"",""time""
""focus"",""16"",""388053""
""focus"",""17"",""516849""
""focus"",""17"",""523815""
""focus"",""30"",""652126""
""focus"",""32"",""675222""
""focus"",""46"",""803709""
","""event"",""trial"",""time""
""fullscreenenter"",""5"",""23726""
","""event"",""trial"",""time""
""fullscreenexit"",""6"",""25752""
","1023","","49","","","3000","1","1290.8999999985099,1338.0999999940395","49,48","images/tutyellowplanet.jpg","images/tutalien4","images/tutalien3","images/tutrocket2","images/tutalien3","images/nothing.png","2","practice","true","1","common","0","2022-02-03 02:28:42.167"
"two-step-fixation","93","1034704","0.0-61.0-2.10","234","651","10","Female","false","true","false","true","""event"",""trial"",""time""
""fullscreenenter"",""5"",""23726""
""fullscreenexit"",""6"",""25752""
""blur"",""16"",""113537""
""focus"",""16"",""388053""
""blur"",""17"",""403048""
""focus"",""17"",""516849""
""blur"",""17"",""517754""
""focus"",""17"",""523815""
""blur"",""30"",""588777""
""focus"",""30"",""652126""
""blur"",""32"",""673556""
""focus"",""32"",""675222""
""blur"",""46"",""735134""
""focus"",""46"",""803709""
","""event"",""trial"",""time""
""blur"",""16"",""113537""
""blur"",""17"",""403048""
""blur"",""17"",""517754""
""blur"",""30"",""588777""
""blur"",""32"",""673556""
""blur"",""46"",""735134""
","""event"",""trial"",""time""
""focus"",""16"",""388053""
""focus"",""17"",""516849""
""focus"",""17"",""523815""
""focus"",""30"",""652126""
