"trial_type","trial_index","time_elapsed","internal_node_id","participant_id","subject_id","age","gender","rocket_sides","red_planet_first_rocket","red_display_order","purple_display_order","interactions","blur_events","focus_events","fullscreenenter_events","fullscreenexit_events","rt","stimulus","key_press","button_pressed","success","duration","valid_pressed","rts","keys","planet_text","right_text","left_text","center_text","chosen_text","reward_text","trial_stage","practice_trial","transition_type","choice","transition","reward","timestamp"
"pavlovia","0","3","0.0-0.0","1688","4984","21","Female","false","true","false","true","
","
","
","
","
","","","","","","","","","","","","","","","","","","","","","",""
"html-keyboard-response","1","1214","0.0-1.0","1688","4984","21","Female","false","true","false","true","
","
","
","
","
","1210","Welcome! Press the space bar to begin.","32","","","","","","","","","","","","","","","","","","",""
"audio-keyboard-response","2","6042","0.0-2.0","1688","4984","21","Female","false","true","false","true","
","
","
","
","
","4069","audio/beep_loop.wav","32","","","","","","","","","","","","","","","","","","",""
"audio-button-response","3","8098","0.0-3.0","1688","4984","21","Female","false","true","false","true","
","
","
","
","
","NaN","audio/fish.mp3","","1","","","","","","","","","","","","","","","","","",""
"audio-button-response","4","11274","0.0-4.0","1688","4984","21","Female","false","true","false","true","""event"",""trial"",""time""
""fullscreenenter"",""5"",""14924""
","
","
","""event"",""trial"",""time""
""fullscreenenter"",""5"",""14924""
","
","NaN","audio/tiger.mp3","","4","","","","","","","","","","","","","","","","","",""
"fullscreen","5","15910","0.0-5.0","1688","4984","21","Female","false","true","false","true","""event"",""trial"",""time""
""fullscreenenter"",""5"",""14924""
","
","
","""event"",""trial"",""time""
""fullscreenenter"",""5"",""14924""
","
","","","","","true","","","","","","","","","","","","","","","","",""
"d3-instructions","6","29435","0.0-6.0","1688","4984","21","Female","false","true","false","true","""event"",""trial"",""time""
""fullscreenenter"",""5"",""14924""
","
","
","""event"",""trial"",""time""
""fullscreenenter"",""5"",""14924""
","
","","","","","","","","","","","","","","","","","","","","","",""
"d3-instructions","7","36972","0.0-7.0","1688","4984","21","Female","false","true","false","true","""event"",""trial"",""time""
""fullscreenenter"",""5"",""14924""
","
","
","""event"",""trial"",""time""
""fullscreenenter"",""5"",""14924""
","
","","","","","","","","","","","","","","","","","","","","","",""
"d3-instructions","8","43990","0.0-8.0","1688","4984","21","Female","false","true","false","true","""event"",""trial"",""time""
""fullscreenenter"",""5"",""14924""
","
","
","""event"",""trial"",""time""
""fullscreenenter"",""5"",""14924""
","
","","","","","","","","","","","","","","","","","","","","","",""
"d3-instructions","9","55281","0.0-9.0","1688","4984","21","Female","false","true","false","true","""event"",""trial"",""time""
""fullscreenenter"",""5"",""14924""
","
","
","""event"",""trial"",""time""
""fullscreenenter"",""5"",""14924""
","
","","","","","","","","","","","","","","","","","","","","","",""
"d3-instructions","10","77613","0.0-10.0","1688","4984","21","Female","false","true","false","true","""event"",""trial"",""time""
""fullscreenenter"",""5"",""14924""
","
","
","""event"",""trial"",""time""
""fullscreenenter"",""5"",""14924""
","
","","","","","","","","","","","","","","","","","","","","","",""
"d3-animate-choice","11","80674","0.0-11.0","1688","4984","21","Female","false","true","false","true","""event"",""trial"",""time""
""fullscreenenter"",""5"",""14924""
","
","
","""event"",""trial"",""time""
""fullscreenenter"",""5"",""14924""
","
","1049.5","","49","","","3000","1","2836.5","48","images/tutgreenplanet.jpg","images/tutalien1","images/tutalien2","null","images/tutalien2","","NA","practice","null","","","",""
"d3-animate-choice","12","83971","0.0-12.0","1688","4984","21","Female","false","true","false","true","""event"",""trial"",""time""
""fullscreenenter"",""5"",""14924""
","
","
","""event"",""trial"",""time""
""fullscreenenter"",""5"",""14924""
","
","1275.3999998569489","","48","","","3000","1","","","images/tutgreenplanet.jpg","images/tutalien1","images/tutalien2","null","images/tutalien1","","NA","practice","null","","","",""
"d3-animate-choice","13","87622","0.0-13.0","1688","4984","21","Female","false","true","false","true","""event"",""trial"",""time""
""fullscreenenter"",""5"",""14924""
","
","
","""event"",""trial"",""time""
""fullscreenenter"",""5"",""14924""
","
","1641.0999999046326","","49","","","3000","1","","","images/tutgreenplanet.jpg","images/tutalien1","images/tutalien2","null","images/tutalien2","","NA","practice","null","","","",""
"d3-animate-choice","14","91247","0.0-14.0","1688","4984","21","Female","false","true","false","true","""event"",""trial"",""time""
""fullscreenenter"",""5"",""14924""
","
","
","""event"",""trial"",""time""
""fullscreenenter"",""5"",""14924""
","
","1620.0999999046326","","49","","","3000","1","","","images/tutgreenplanet.jpg","images/tutalien1","images/tutalien2","null","images/tutalien2","","NA","practice","null","","","",""
"d3-instructions","15","97691","0.0-15.0","1688","4984","21","Female","false","true","false","true","""event"",""trial"",""time""
""fullscreenenter"",""5"",""14924""
","
","
","""event"",""trial"",""time""
""fullscreenenter"",""5"",""14924""
","
","","","","","","","","","","","","","","","","","","","","","",""
"d3-instructions","16","104569","0.0-16.0","1688","4984","21","Female","false","true","false","true","""event"",""trial"",""time""
""fullscreenenter"",""5"",""14924""
","
","
","""event"",""trial"",""time""
""fullscreenenter"",""5"",""14924""
","
","","","","","","","","","","","","","","","","","","","","","",""
"d3-instructions","17","113821","0.0-17.0","1688","4984","21","Female","false","true","false","true","""event"",""trial"",""time""
""fullscreenenter"",""5"",""14924""
","
","
","""event"",""trial"",""time""
""fullscreenenter"",""5"",""14924""
","
","","","","","","","","","","","","","","","","","","","","","",""
"d3-instructions","18","127191","0.0-18.0","1688","4984","21","Female","false","true","false","true","""event"",""trial"",""time""
""fullscreenenter"",""5"",""14924""
","
","
","""event"",""trial"",""time""
""fullscreenenter"",""5"",""14924""
","
","","","","","","","","","","","","","","","","","","","","","",""
"d3-instructions","19","139709","0.0-19.0","1688","4984","21","Female","false","true","false","true","""event"",""trial"",""time""
""fullscreenenter"",""5"",""14924""
","
","
","""event"",""trial"",""time""
""fullscreenenter"",""5"",""14924""
","
","","","","","","","","","","","","","","","","","","","","","",""
"d3-animate-choice","20","142839","0.0-20.0","1688","4984","21","Female","false","true","false","true","""event"",""trial"",""time""
""fullscreenenter"",""5"",""14924""
","
","
","""event"",""trial"",""time""
""fullscreenenter"",""5"",""14924""
","
","1125.1999998092651","","49","","","3000","1","","","images/tutyellowplanet.jpg","null","images/tutalien3","null","images/tutalien3","images/t.png","NA","practice","null","","","",""
"d3-animate-choice","21","145236","0.0-21.0","1688","4984","21","Female","false","true","false","true","""event"",""trial"",""time""
""fullscreenenter"",""5"",""14924""
","
","
","""event"",""trial"",""time""
""fullscreenenter"",""5"",""14924""
","
","383.60000014305115","","49","","","3000","1","","","images/tutyellowplanet.jpg","null","images/tutalien3","null","images/tutalien3","images/nothing.png","NA","practice","null","","","",""
"d3-animate-choice","22","147680","0.0-22.0","1688","4984","21","Female","false","true","false","true","""event"",""trial"",""time""
""fullscreenenter"",""5"",""14924""
","
","
","""event"",""trial"",""time""
""fullscreenenter"",""5"",""14924""
","
","430.40000009536743","","49","","","3000","1","","","images/tutyellowplanet.jpg","null","images/tutalien3","null","images/tutalien3","images/t.png","NA","practice","null","","","",""
"d3-animate-choice","23","149717","0.0-23.0","1688","4984","21","Female","false","true","false","true","""event"",""trial"",""time""
""fullscreenenter"",""5"",""14924""
","
","
","""event"",""trial"",""time""
""fullscreenenter"",""5"",""14924""
","
","26.700000047683716","","49","","","3000","1","","","images/tutyellowplanet.jpg","null","images/tutalien3","null","images/tutalien3","images/nothing.png","NA","practice","null","","","",""
"d3-animate-choice","24","151770","0.0-24.0","1688","4984","21","Female","false","true","false","true","""event"",""trial"",""time""
""fullscreenenter"",""5"",""14924""
","
","
","""event"",""trial"",""time""
""fullscreenenter"",""5"",""14924""
","
","44.799999952316284","","49","","","3000","1","","","images/tutyellowplanet.jpg","null","images/tutalien3","null","images/tutalien3","images/t.png","NA","practice","null","","","",""
"d3-animate-choice","25","154084","0.0-25.0","1688","4984","21","Female","false","true","false","true","""event"",""trial"",""time""
""fullscreenenter"",""5"",""14924""
","
","
","""event"",""trial"",""time""
""fullscreenenter"",""5"",""14924""
","
","290.09999990463257","","49","","","3000","1","","","images/tutyellowplanet.jpg","null","images/tutalien3","null","images/tutalien3","images/t.png","NA","practice","null","","","",""
"d3-animate-choice","26","156568","0.0-26.0","1688","4984","21","Female","false","true","false","true","""event"",""trial"",""time""
""fullscreenenter"",""5"",""14924""
","
","
","""event"",""trial"",""time""
""fullscreenenter"",""5"",""14924""
","
","465.5","","49","","","3000","1","","","images/tutyellowplanet.jpg","null","images/tutalien3","null","images/tutalien3","images/t.png","NA","practice","null","","","",""
"d3-animate-choice","27","159228","0.0-27.0","1688","4984","21","Female","false","true","false","true","""event"",""trial"",""time""
""fullscreenenter"",""5"",""14924""
","
","
","""event"",""trial"",""time""
""fullscreenenter"",""5"",""14924""
","
","638.7999999523163","","49","","","3000","1","","","images/tutyellowplanet.jpg","null","images/tutalien3","null","images/tutalien3","images/t.png","NA","practice","null","","","",""
"d3-animate-choice","28","161713","0.0-28.0","1688","4984","21","Female","false","true","false","true","""event"",""trial"",""time""
""fullscreenenter"",""5"",""14924""
","
","
","""event"",""trial"",""time""
""fullscreenenter"",""5"",""14924""
","
","478.7999999523163","","49","","","3000","1","","","images/tutyellowplanet.jpg","null","images/tutalien3","null","images/tutalien3","images/t.png","NA","practice","null","","","",""
"d3-animate-choice","29","164095","0.0-29.0","1688","4984","21","Female","false","true","false","true","""event"",""trial"",""time""
""fullscreenenter"",""5"",""14924""
","
","
","""event"",""trial"",""time""
""fullscreenenter"",""5"",""14924""
","
","376.5","","49","","","3000","1","","","images/tutyellowplanet.jpg","null","images/tutalien3","null","images/tutalien3","images/t.png","NA","practice","null","","","",""
"d3-instructions","30","170655","0.0-30.0","1688","4984","21","Female","false","true","false","true","""event"",""trial"",""time""
""fullscreenenter"",""5"",""14924""
","
","
","""event"",""trial"",""time""
""fullscreenenter"",""5"",""14924""
","
","","","","","","","","","","","","","","","","","","","","","",""
"d3-instructions","31","182474","0.0-31.0","1688","4984","21","Female","false","true","false","true","""event"",""trial"",""time""
""fullscreenenter"",""5"",""14924""
","
","
","""event"",""trial"",""time""
""fullscreenenter"",""5"",""14924""
","
","","","","","","","","","","","","","","","","","","","","","",""
"d3-instructions","32","189577","0.0-32.0","1688","4984","21","Female","false","true","false","true","""event"",""trial"",""time""
""fullscreenenter"",""5"",""14924""
","
","
","""event"",""trial"",""time""
""fullscreenenter"",""5"",""14924""
","
","","","","","","","","","","","","","","","","","","","","","",""
"d3-instructions","33","200595","0.0-33.0","1688","4984","21","Female","false","true","false","true","""event"",""trial"",""time""
""fullscreenenter"",""5"",""14924""
","
","
","""event"",""trial"",""time""
""fullscreenenter"",""5"",""14924""
","
","","","","","","","","","","","","","","","","","","","","","",""
"d3-animate-choice","34","203735","0.0-34.0","1688","4984","21","Female","false","true","false","true","""event"",""trial"",""time""
""fullscreenenter"",""5"",""14924""
","
","
","""event"",""trial"",""time""
""fullscreenenter"",""5"",""14924""
","
","1129.0999999046326","","49","","","3000","1","","","images/tutgreenplanet.jpg","images/tutalien1","images/tutalien2","null","images/tutalien2","images/t.png","NA","practice","null","","","",""
"d3-animate-choice","35","206322","0.0-35.0","1688","4984","21","Female","false","true","false","true","""event"",""trial"",""time""
""fullscreenenter"",""5"",""14924""
","
","
","""event"",""trial"",""time""
""fullscreenenter"",""5"",""14924""
","
","575.2999999523163","","48","","","3000","1","","","images/tutgreenplanet.jpg","images/tutalien1","images/tutalien2","null","images/tutalien1","images/nothing.png","NA","practice","null","","","",""
"d3-animate-choice","36","208654","0.0-36.0","1688","4984","21","Female","false","true","false","true","""event"",""trial"",""time""
""fullscreenenter"",""5"",""14924""
","
","
","""event"",""trial"",""time""
""fullscreenenter"",""5"",""14924""
","
","329","","49","","","3000","1","","","images/tutgreenplanet.jpg","images/tutalien1","images/tutalien2","null","images/tutalien2","images/t.png","NA","practice","null","","","",""
"d3-animate-choice","37","211115","0.0-37.0","1688","4984","21","Female","false","true","false","true","""event"",""trial"",""time""
""fullscreenenter"",""5"",""14924""
","
","
","""event"",""trial"",""time""
""fullscreenenter"",""5"",""14924""
","
","447","","49","","","3000","1","","","images/tutgreenplanet.jpg","images/tutalien1","images/tutalien2","null","images/tutalien2","images/t.png","NA","practice","null","","","",""
"d3-animate-choice","38","213741","0.0-38.0","1688","4984","21","Female","false","true","false","true","""event"",""trial"",""time""
""fullscreenenter"",""5"",""14924""
","
","
","""event"",""trial"",""time""
""fullscreenenter"",""5"",""14924""
","
","611.7000000476837","","49","","","3000","1","","","images/tutgreenplanet.jpg","images/tutalien1","images/tutalien2","null","images/tutalien2","images/t.png","NA","practice","null","","","",""
"d3-animate-choice","39","217043","0.0-39.0","1688","4984","21","Female","false","true","false","true","""event"",""trial"",""time""
""fullscreenenter"",""5"",""14924""
","
","
","""event"",""trial"",""time""
""fullscreenenter"",""5"",""14924""
","
","1281.4000000953674","","49","","","3000","1","","","images/tutgreenplanet.jpg","images/tutalien1","images/tutalien2","null","images/tutalien2","images/t.png","NA","practice","null","","","",""
"d3-animate-choice","40","220239","0.0-40.0","1688","4984","21","Female","false","true","false","true","""event"",""trial"",""time""
""fullscreenenter"",""5"",""14924""
","
","
","""event"",""trial"",""time""
""fullscreenenter"",""5"",""14924""
","
","1186.7999999523163","","49","","","3000","1","","","images/tutgreenplanet.jpg","images/tutalien1","images/tutalien2","null","images/tutalien2","images/t.png","NA","practice","null","","","",""
"d3-animate-choice","41","223784","0.0-41.0","1688","4984","21","Female","false","true","false","true","""event"",""trial"",""time""
""fullscreenenter"",""5"",""14924""
","
","
","""event"",""trial"",""time""
""fullscreenenter"",""5"",""14924""
","
","1533.7999999523163","","49","","","3000","1","","","images/tutgreenplanet.jpg","images/tutalien1","images/tutalien2","null","images/tutalien2","images/t.png","NA","practice","null","","","",""
"d3-animate-choice","42","227081","0.0-42.0","1688","4984","21","Female","false","true","false","true","""event"",""trial"",""time""
""fullscreenenter"",""5"",""14924""
","
","
","""event"",""trial"",""time""
""fullscreenenter"",""5"",""14924""
","
","1278.5","","49","","","3000","1","","","images/tutgreenplanet.jpg","images/tutalien1","images/tutalien2","null","images/tutalien2","images/t.png","NA","practice","null","","","",""
"d3-animate-choice","43","230494","0.0-43.0","1688","4984","21","Female","false","true","false","true","""event"",""trial"",""time""
""fullscreenenter"",""5"",""14924""
","
","
","""event"",""trial"",""time""
""fullscreenenter"",""5"",""14924""
","
","1403.2000000476837","","49","","","3000","1","","","images/tutgreenplanet.jpg","images/tutalien1","images/tutalien2","null","images/tutalien2","images/t.png","NA","practice","null","","","",""
"d3-instructions","44","245178","0.0-44.0","1688","4984","21","Female","false","true","false","true","""event"",""trial"",""time""
""fullscreenenter"",""5"",""14924""
","
","
","""event"",""trial"",""time""
""fullscreenenter"",""5"",""14924""
","
","","","","","","","","","","","","","","","","","","","","","",""
"d3-instructions","45","252571","0.0-45.0","1688","4984","21","Female","false","true","false","true","""event"",""trial"",""time""
""fullscreenenter"",""5"",""14924""
","
","
","""event"",""trial"",""time""
""fullscreenenter"",""5"",""14924""
","
","","","","","","","","","","","","","","","","","","","","","",""
"d3-instructions","46","257464","0.0-46.0","1688","4984","21","Female","false","true","false","true","""event"",""trial"",""time""
""fullscreenenter"",""5"",""14924""
","
","
","""event"",""trial"",""time""
""fullscreenenter"",""5"",""14924""
","
","","","","","","","","","","","","","","","","","","","","","",""
"d3-instructions","47","270426","0.0-47.0","1688","4984","21","Female","false","true","false","true","""event"",""trial"",""time""
""fullscreenenter"",""5"",""14924""
","
","
","""event"",""trial"",""time""
""fullscreenenter"",""5"",""14924""
","
","","","","","","","","","","","","","","","","","","","","","",""
"d3-instructions","48","275606","0.0-48.0","1688","4984","21","Female","false","true","false","true","""event"",""trial"",""time""
""fullscreenenter"",""5"",""14924""
","
","
","""event"",""trial"",""time""
""fullscreenenter"",""5"",""14924""
","
","","","","","","","","","","","","","","","","","","","","","",""
"d3-instructions","49","282406","0.0-49.0","1688","4984","21","Female","false","true","false","true","""event"",""trial"",""time""
""fullscreenenter"",""5"",""14924""
","
","
","""event"",""trial"",""time""
""fullscreenenter"",""5"",""14924""
","
","","","","","","","","","","","","","","","","","","","","","",""
"d3-instructions","50","289012","0.0-50.0","1688","4984","21","Female","false","true","false","true","""event"",""trial"",""time""
""fullscreenenter"",""5"",""14924""
","
","
","""event"",""trial"",""time""
""fullscreenenter"",""5"",""14924""
","
","","","","","","","","","","","","","","","","","","","","","",""
"d3-instructions","51","290998","0.0-51.0","1688","4984","21","Female","false","true","false","true","""event"",""trial"",""time""
""fullscreenenter"",""5"",""14924""
","
","
","""event"",""trial"",""time""
""fullscreenenter"",""5"",""14924""
","
","","","","","","","","","","","","","","","","","","","","","",""
"d3-instructions","52","293228","0.0-52.0","1688","4984","21","Female","false","true","false","true","""event"",""trial"",""time""
""fullscreenenter"",""5"",""14924""
","
","
","""event"",""trial"",""time""
""fullscreenenter"",""5"",""14924""
","
","","","","","","","","","","","","","","","","","","","","","",""
"d3-instructions","53","301557","0.0-53.0","1688","4984","21","Female","false","true","false","true","""event"",""trial"",""time""
""fullscreenenter"",""5"",""14924""
","
","
","""event"",""trial"",""time""
""fullscreenenter"",""5"",""14924""
","
","","","","","","","","","","","","","","","","","","","","","",""
"d3-instructions","54","311580","0.0-54.0","1688","4984","21","Female","false","true","false","true","""event"",""trial"",""time""
""fullscreenenter"",""5"",""14924""
","
","
","""event"",""trial"",""time""
""fullscreenenter"",""5"",""14924""
","
","","","","","","","","","","","","","","","","","","","","","",""
"d3-instructions","55","318338","0.0-55.0","1688","4984","21","Female","false","true","false","true","""event"",""trial"",""time""
""fullscreenenter"",""5"",""14924""
","
","
","""event"",""trial"",""time""
""fullscreenenter"",""5"",""14924""
","
","","","","","","","","","","","","","","","","","","","","","",""
"d3-instructions","56","326609","0.0-56.0","1688","4984","21","Female","false","true","false","true","""event"",""trial"",""time""
""fullscreenenter"",""5"",""14924""
","
","
","""event"",""trial"",""time""
""fullscreenenter"",""5"",""14924""
","
","","","","","","","","","","","","","","","","","","","","","",""
"d3-instructions","57","335142","0.0-57.0","1688","4984","21","Female","false","true","false","true","""event"",""trial"",""time""
""fullscreenenter"",""5"",""14924""
","
","
","""event"",""trial"",""time""
""fullscreenenter"",""5"",""14924""
","
","","","","","","","","","","","","","","","","","","","","","",""
"d3-instructions","58","341723","0.0-58.0","1688","4984","21","Female","false","true","false","true","""event"",""trial"",""time""
""fullscreenenter"",""5"",""14924""
","
","
","""event"",""trial"",""time""
""fullscreenenter"",""5"",""14924""
","
","","","","","","","","","","","","","","","","","","","","","",""
"d3-instructions","59","345294","0.0-59.0","1688","4984","21","Female","false","true","false","true","""event"",""trial"",""time""
""fullscreenenter"",""5"",""14924""
","
","
","""event"",""trial"",""time""
""fullscreenenter"",""5"",""14924""
","
","","","","","","","","","","","","","","","","","","","","","",""
"d3-instructions","60","350123","0.0-60.0","1688","4984","21","Female","false","true","false","true","""event"",""trial"",""time""
""fullscreenenter"",""5"",""14924""
","
","
","""event"",""trial"",""time""
""fullscreenenter"",""5"",""14924""
","
","","","","","","","","","","","","","","","","","","","","","",""
"d3-animate-choice","61","353260","0.0-61.0-0.0","1688","4984","21","Female","false","true","false","true","""event"",""trial"",""time""
""fullscreenenter"",""5"",""14924""
","
","
","""event"",""trial"",""time""
""fullscreenenter"",""5"",""14924""
","
","1113.0999999046326","","49","","","3000","1","","","images/earth.jpg","images/tutrocket2","images/tutrocket1","null","images/tutrocket1","","1","practice","null","1","","",""
"d3-animate-choice","62","357280","0.0-61.0-1.0","1688","4984","21","Female","false","true","false","true","""event"",""trial"",""time""
""fullscreenenter"",""5"",""14924""
","
","
","""event"",""trial"",""time""
""fullscreenenter"",""5"",""14924""
","
","3100.199999809265","","49","","","3000","0","","","images/tutgreenplanet.jpg","images/tutalien2","images/tutalien1","images/tutrocket1","","","2","practice","true","1","common","0","2022-12-05 15:04:36.841"
"two-step-fixation","63","358290","0.0-61.0-2.0","1688","4984","21","Female","false","true","false","true","""event"",""trial"",""time""
""fullscreenenter"",""5"",""14924""
","
","
","""event"",""trial"",""time""
""fullscreenenter"",""5"",""14924""
","
","","images/earth.jpg","","","","","","","","","","","","","","fixation","","","","","",""
"d3-animate-choice","64","360783","0.0-61.0-0.1","1688","4984","21","Female","false","true","false","true","""event"",""trial"",""time""
""fullscreenenter"",""5"",""14924""
","
","
","""event"",""trial"",""time""
""fullscreenenter"",""5"",""14924""
","
","488.2000000476837","","48","","","3000","1","","","images/earth.jpg","images/tutrocket2","images/tutrocket1","null","images/tutrocket2","","1","practice","null","2","","",""
"d3-animate-choice","65","363620","0.0-61.0-1.1","1688","4984","21","Female","false","true","false","true","""event"",""trial"",""time""
""fullscreenenter"",""5"",""14924""
","
","
","""event"",""trial"",""time""
""fullscreenenter"",""5"",""14924""
","
","821.7999999523163","","48","","","3000","1","","","images/tutyellowplanet.jpg","images/tutalien4","images/tutalien3","images/tutrocket2","images/tutalien4","images/t.png","2","practice","true","2","common","1","2022-12-05 15:04:43.181"
"two-step-fixation","66","364627","0.0-61.0-2.1","1688","4984","21","Female","false","true","false","true","""event"",""trial"",""time""
""fullscreenenter"",""5"",""14924""
","
","
","""event"",""trial"",""time""
""fullscreenenter"",""5"",""14924""
","
","","images/earth.jpg","","","","","","","","","","","","","","fixation","","","","","",""
"d3-animate-choice","67","367021","0.0-61.0-0.2","1688","4984","21","Female","false","true","false","true","""event"",""trial"",""time""
""fullscreenenter"",""5"",""14924""
","
","
","""event"",""trial"",""time""
""fullscreenenter"",""5"",""14924""
","
","389.59999990463257","","48","","","3000","1","","","images/earth.jpg","images/tutrocket2","images/tutrocket1","null","images/tutrocket2","","1","practice","null","2","","",""
"d3-animate-choice","68","369398","0.0-61.0-1.2","1688","4984","21","Female","false","true","false","true","""event"",""trial"",""time""
""fullscreenenter"",""5"",""14924""
","
","
","""event"",""trial"",""time""
""fullscreenenter"",""5"",""14924""
","
","373.60000014305115","","48","","","3000","1","","","images/tutyellowplanet.jpg","images/tutalien4","images/tutalien3","images/tutrocket2","images/tutalien4","images/t.png","2","practice","true","2","common","1","2022-12-05 15:04:48.959"
"two-step-fixation","69","370406","0.0-61.0-2.2","1688","4984","21","Female","false","true","false","true","""event"",""trial"",""time""
""fullscreenenter"",""5"",""14924""
","
","
","""event"",""trial"",""time""
""fullscreenenter"",""5"",""14924""
","
","","images/earth.jpg","","","","","","","","","","","","","","fixation","","","","","",""
"d3-animate-choice","70","372821","0.0-61.0-0.3","1688","4984","21","Female","false","true","false","true","""event"",""trial"",""time""
""fullscreenenter"",""5"",""14924""
","
","
","""event"",""trial"",""time""
""fullscreenenter"",""5"",""14924""
","
","406.2999999523163","","48","","","3000","1","","","images/earth.jpg","images/tutrocket2","images/tutrocket1","null","images/tutrocket2","","1","practice","null","2","","",""
"d3-animate-choice","71","375185","0.0-61.0-1.3","1688","4984","21","Female","false","true","false","true","""event"",""trial"",""time""
""fullscreenenter"",""5"",""14924""
","
","
","""event"",""trial"",""time""
""fullscreenenter"",""5"",""14924""
","
","359","","48","","","3000","1","","","images/tutgreenplanet.jpg","images/tutalien2","images/tutalien1","images/tutrocket2","images/tutalien2","images/nothing.png","2","practice","false","2","rare","0","2022-12-05 15:04:54.746"
"two-step-fixation","72","376194","0.0-61.0-2.3","1688","4984","21","Female","false","true","false","true","""event"",""trial"",""time""
""fullscreenenter"",""5"",""14924""
","
","
","""event"",""trial"",""time""
""fullscreenenter"",""5"",""14924""
","
","","images/earth.jpg","","","","","","","","","","","","","","fixation","","","","","",""
"d3-animate-choice","73","378606","0.0-61.0-0.4","1688","4984","21","Female","false","true","false","true","""event"",""trial"",""time""
""fullscreenenter"",""5"",""14924""
","
","
","""event"",""trial"",""time""
""fullscreenenter"",""5"",""14924""
","
","408.59999990463257","","49","","","3000","1","","","images/earth.jpg","images/tutrocket2","images/tutrocket1","null","images/tutrocket1","","1","practice","null","1","","",""
"d3-animate-choice","74","381350","0.0-61.0-1.4","1688","4984","21","Female","false","true","false","true","""event"",""trial"",""time""
""fullscreenenter"",""5"",""14924""
","
","
","""event"",""trial"",""time""
""fullscreenenter"",""5"",""14924""
","
","736.1000001430511","","49","","","3000","1","","","images/tutgreenplanet.jpg","images/tutalien2","images/tutalien1","images/tutrocket1","images/tutalien1","images/t.png","2","practice","true","1","common","1","2022-12-05 15:05:00.911"
"two-step-fixation","75","382357","0.0-61.0-2.4","1688","4984","21","Female","false","true","false","true","""event"",""trial"",""time""
""fullscreenenter"",""5"",""14924""
","
","
","""event"",""trial"",""time""
""fullscreenenter"",""5"",""14924""
","
","","images/earth.jpg","","","","","","","","","","","","","","fixation","","","","","",""
"d3-animate-choice","76","384685","0.0-61.0-0.5","1688","4984","21","Female","false","true","false","true","""event"",""trial"",""time""
""fullscreenenter"",""5"",""14924""
","
","
","""event"",""trial"",""time""
""fullscreenenter"",""5"",""14924""
","
","322.60000014305115","","48","","","3000","1","","","images/earth.jpg","images/tutrocket2","images/tutrocket1","null","images/tutrocket2","","1","practice","null","2","","",""
"d3-animate-choice","77","387178","0.0-61.0-1.5","1688","4984","21","Female","false","true","false","true","""event"",""trial"",""time""
""fullscreenenter"",""5"",""14924""
","
","
","""event"",""trial"",""time""
""fullscreenenter"",""5"",""14924""
","
","484.40000009536743","","49","","","3000","1","","","images/tutyellowplanet.jpg","images/tutalien4","images/tutalien3","images/tutrocket2","images/tutalien3","images/t.png","2","practice","true","1","common","1","2022-12-05 15:05:06.739"
"two-step-fixation","78","388183","0.0-61.0-2.5","1688","4984","21","Female","false","true","false","true","""event"",""trial"",""time""
""fullscreenenter"",""5"",""14924""
","
","
","""event"",""trial"",""time""
""fullscreenenter"",""5"",""14924""
","
","","images/earth.jpg","","","","","","","","","","","","","","fixation","","","","","",""
"d3-animate-choice","79","390630","0.0-61.0-0.6","1688","4984","21","Female","false","true","false","true","""event"",""trial"",""time""
""fullscreenenter"",""5"",""14924""
","
","
","""event"",""trial"",""time""
""fullscreenenter"",""5"",""14924""
","
","438.19999980926514","","48","","","3000","1","","","images/earth.jpg","images/tutrocket2","images/tutrocket1","null","images/tutrocket2","","1","practice","null","2","","",""
"d3-animate-choice","80","393262","0.0-61.0-1.6","1688","4984","21","Female","false","true","false","true","""event"",""trial"",""time""
""fullscreenenter"",""5"",""14924""
","
","
","""event"",""trial"",""time""
""fullscreenenter"",""5"",""14924""
","
","625.1000001430511","","49","","","3000","1","","","images/tutyellowplanet.jpg","images/tutalien4","images/tutalien3","images/tutrocket2","images/tutalien3","images/nothing.png","2","practice","true","1","common","0","2022-12-05 15:05:12.823"
"two-step-fixation","81","394270","0.0-61.0-2.6","1688","4984","21","Female","false","true","false","true","""event"",""trial"",""time""
""fullscreenenter"",""5"",""14924""
","
","
","""event"",""trial"",""time""
""fullscreenenter"",""5"",""14924""
","
","","images/earth.jpg","","","","","","","","","","","","","","fixation","","","","","",""
"d3-animate-choice","82","396759","0.0-61.0-0.7","1688","4984","21","Female","false","true","false","true","""event"",""trial"",""time""
""fullscreenenter"",""5"",""14924""
","
","
","""event"",""trial"",""time""
""fullscreenenter"",""5"",""14924""
","
","484.89999985694885","","48","","","3000","1","","","images/earth.jpg","images/tutrocket2","images/tutrocket1","null","images/tutrocket2","","1","practice","null","2","","",""
"d3-animate-choice","83","399406","0.0-61.0-1.7","1688","4984","21","Female","false","true","false","true","""event"",""trial"",""time""
""fullscreenenter"",""5"",""14924""
","
","
","""event"",""trial"",""time""
""fullscreenenter"",""5"",""14924""
","
","638.3999998569489","","48","","","3000","1","","","images/tutyellowplanet.jpg","images/tutalien4","images/tutalien3","images/tutrocket2","images/tutalien4","images/t.png","2","practice","true","2","common","1","2022-12-05 15:05:18.967"
"two-step-fixation","84","400415","0.0-61.0-2.7","1688","4984","21","Female","false","true","false","true","""event"",""trial"",""time""
""fullscreenenter"",""5"",""14924""
","
","
","""event"",""trial"",""time""
""fullscreenenter"",""5"",""14924""
","
","","images/earth.jpg","","","","","","","","","","","","","","fixation","","","","","",""
"d3-animate-choice","85","402927","0.0-61.0-0.8","1688","4984","21","Female","false","true","false","true","""event"",""trial"",""time""
""fullscreenenter"",""5"",""14924""
","
","
","""event"",""trial"",""time""
""fullscreenenter"",""5"",""14924""
","
","505.59999990463257","","48","","","3000","1","","","images/earth.jpg","images/tutrocket2","images/tutrocket1","null","images/tutrocket2","","1","practice","null","2","","",""
"d3-animate-choice","86","405501","0.0-61.0-1.8","1688","4984","21","Female","false","true","false","true","""event"",""trial"",""time""
""fullscreenenter"",""5"",""14924""
","
","
","""event"",""trial"",""time""
""fullscreenenter"",""5"",""14924""
","
","555.7999999523163","","48","","","3000","1","","","images/tutyellowplanet.jpg","images/tutalien4","images/tutalien3","images/tutrocket2","images/tutalien4","images/t.png","2","practice","true","2","common","1","2022-12-05 15:05:25.062"
"two-step-fixation","87","406511","0.0-61.0-2.8","1688","4984","21","Female","false","true","false","true","""event"",""trial"",""time""
""fullscreenenter"",""5"",""14924""
","
","
","""event"",""trial"",""time""
""fullscreenenter"",""5"",""14924""
","
","","images/earth.jpg","","","","","","","","","","","","","","fixation","","","","","",""
"d3-animate-choice","88","408888","0.0-61.0-0.9","1688","4984","21","Female","false","true","false","true","""event"",""trial"",""time""
""fullscreenenter"",""5"",""14924""
","
","
","""event"",""trial"",""time""
""fullscreenenter"",""5"",""14924""
","
","372.2000000476837","","48","","","3000","1","","","images/earth.jpg","images/tutrocket2","images/tutrocket1","null","images/tutrocket2","","1","practice","null","2","","",""
"d3-animate-choice","89","411430","0.0-61.0-1.9","1688","4984","21","Female","false","true","false","true","""event"",""trial"",""time""
""fullscreenenter"",""5"",""14924""
","
","
","""event"",""trial"",""time""
""fullscreenenter"",""5"",""14924""
","
","539.9000000953674","","48","","","3000","1","","","images/tutyellowplanet.jpg","images/tutalien4","images/tutalien3","images/tutrocket2","images/tutalien4","images/t.png","2","practice","true","2","common","1","2022-12-05 15:05:30.991"
"two-step-fixation","90","412438","0.0-61.0-2.9","1688","4984","21","Female","false","true","false","true","""event"",""trial"",""time""
""fullscreenenter"",""5"",""14924""
","
","
","""event"",""trial"",""time""
""fullscreenenter"",""5"",""14924""
","
","","images/earth.jpg","","","","","","","","","","","","","","fixation","","","","","",""
"d3-animate-choice","91","414742","0.0-61.0-0.10","1688","4984","21","Female","false","true","false","true","""event"",""trial"",""time""
""fullscreenenter"",""5"",""14924""
","
","
","""event"",""trial"",""time""
""fullscreenenter"",""5"",""14924""
","
","286.2999999523163","","48","","","3000","1","","","images/earth.jpg","images/tutrocket2","images/tutrocket1","null","images/tutrocket2","","1","practice","null","2","","",""
"d3-animate-choice","92","417646","0.0-61.0-1.10","1688","4984","21","Female","false","true","false","true","""event"",""trial"",""time""
""fullscreenenter"",""5"",""14924""
","
","
","""event"",""trial"",""time""
""fullscreenenter"",""5"",""14924""
","
","898.8999998569489","","49","","","3000","1","","","images/tutgreenplanet.jpg","images/tutalien2","images/tutalien1","images/tutrocket2","images/tutalien1","images/nothing.png","2","practice","false","1","rare","0","2022-12-05 15:05:37.207"
"two-step-fixation","93","418655","0.0-61.0-2.10","1688","4984","21","Female","false","true","false","true","""event"",""trial"",""time""
""fullscreenenter"",""5"",""14924""
","
","
","""event"",""trial"",""time""
""fullscreenenter"",""5"",""14924""
","
","","images/earth.jpg","","","","","","","","","","","","","","fixation","","","","","",""
"d3-animate-choice","94","421174","0.0-61.0-0.11","1688","4984","21","Female","false","true","false","true","""event"",""trial"",""time""
""fullscreenenter"",""5"",""14924""
","
","
","""event"",""trial"",""time""
""fullscreenenter"",""5"",""14924""
","
","515.2999999523163","","48","","","3000","1","","","images/earth.jpg","images/tutrocket2","images/tutrocket1","null","images/tutrocket2","","1","practice","null","2","","",""
"d3-animate-choice","95","424542","0.0-61.0-1.11","1688","4984","21","Female","false","true","false","true","""event"",""trial"",""time""
""fullscreenenter"",""5"",""14924""
","
","
","""event"",""trial"",""time""
""fullscreenenter"",""5"",""14924""
","
","1366.7999999523163","","48","","","3000","1","","","images/tutgreenplanet.jpg","images/tutalien2","images/tutalien1","images/tutrocket2","images/tutalien2","images/nothing.png","2","practice","false","2","rare","0","2022-12-05 15:05:44.103"
"two-step-fixation","96","425546","0.0-61.0-2.11","1688","4984","21","Female","false","true","false","true","""event"",""trial"",""time""
""fullscreenenter"",""5"",""14924""
","
","
","""event"",""trial"",""time""
""fullscreenenter"",""5"",""14924""
","
","","images/earth.jpg","","","","","","","","","","","","","","fixation","","","","","",""
"d3-animate-choice","97","427990","0.0-61.0-0.12","1688","4984","21","Female","false","true","false","true","""event"",""trial"",""time""
""fullscreenenter"",""5"",""14924""
","
","
","""event"",""trial"",""time""
""fullscreenenter"",""5"",""14924""
","
","441.7000000476837","","48","","","3000","1","","","images/earth.jpg","images/tutrocket2","images/tutrocket1","null","images/tutrocket2","","1","practice","null","2","","",""
"d3-animate-choice","98","430679","0.0-61.0-1.12","1688","4984","21","Female","false","true","false","true","""event"",""trial"",""time""
""fullscreenenter"",""5"",""14924""
","
","
","""event"",""trial"",""time""
""fullscreenenter"",""5"",""14924""
","
","681","","49","","","3000","1","","","images/tutgreenplanet.jpg","images/tutalien2","images/tutalien1","images/tutrocket2","images/tutalien1","images/nothing.png","2","practice","false","1","rare","0","2022-12-05 15:05:50.240"
"two-step-fixation","99","431687","0.0-61.0-2.12","1688","4984","21","Female","false","true","false","true","""event"",""trial"",""time""
""fullscreenenter"",""5"",""14924""
","
","
","""event"",""trial"",""time""
""fullscreenenter"",""5"",""14924""
","
","","images/earth.jpg","","","","","","","","","","","","","","fixation","","","","","",""
"d3-animate-choice","100","434080","0.0-61.0-0.13","1688","4984","21","Female","false","true","false","true","""event"",""trial"",""time""
""fullscreenenter"",""5"",""14924""
","
","
","""event"",""trial"",""time""
""fullscreenenter"",""5"",""14924""
","
","380.40000009536743","","49","","","3000","1","","","images/earth.jpg","images/tutrocket2","images/tutrocket1","null","images/tutrocket1","","1","practice","null","1","","",""
"d3-animate-choice","101","436974","0.0-61.0-1.13","1688","4984","21","Female","false","true","false","true","""event"",""trial"",""time""
""fullscreenenter"",""5"",""14924""
","
","
","""event"",""trial"",""time""
""fullscreenenter"",""5"",""14924""
","
","885.8000001907349","","48","","","3000","1","","","images/tutyellowplanet.jpg","images/tutalien4","images/tutalien3","images/tutrocket1","images/tutalien4","images/t.png","2","practice","false","2","rare","1","2022-12-05 15:05:56.535"
"two-step-fixation","102","437982","0.0-61.0-2.13","1688","4984","21","Female","false","true","false","true","""event"",""trial"",""time""
""fullscreenenter"",""5"",""14924""
","
","
","""event"",""trial"",""time""
""fullscreenenter"",""5"",""14924""
","
","","images/earth.jpg","","","","","","","","","","","","","","fixation","","","","","",""
"d3-animate-choice","103","440374","0.0-61.0-0.14","1688","4984","21","Female","false","true","false","true","""event"",""trial"",""time""
""fullscreenenter"",""5"",""14924""
","
","
","""event"",""trial"",""time""
""fullscreenenter"",""5"",""14924""
","
","389.5","","49","","","3000","1","","","images/earth.jpg","images/tutrocket2","images/tutrocket1","null","images/tutrocket1","","1","practice","null","1","","",""
"d3-animate-choice","104","442830","0.0-61.0-1.14","1688","4984","21","Female","false","true","false","true","""event"",""trial"",""time""
""fullscreenenter"",""5"",""14924""
","
","
","""event"",""trial"",""time""
""fullscreenenter"",""5"",""14924""
","
","448.40000009536743","","48","","","3000","1","","","images/tutgreenplanet.jpg","images/tutalien2","images/tutalien1","images/tutrocket1","images/tutalien2","images/nothing.png","2","practice","true","2","common","0","2022-12-05 15:06:02.391"
"two-step-fixation","105","443838","0.0-61.0-2.14","1688","4984","21","Female","false","true","false","true","""event"",""trial"",""time""
""fullscreenenter"",""5"",""14924""
","
","
","""event"",""trial"",""time""
""fullscreenenter"",""5"",""14924""
","
","","images/earth.jpg","","","","","","","","","","","","","","fixation","","","","","",""
"d3-animate-choice","106","446173","0.0-61.0-0.15","1688","4984","21","Female","false","true","false","true","""event"",""trial"",""time""
""fullscreenenter"",""5"",""14924""
","
","
","""event"",""trial"",""time""
""fullscreenenter"",""5"",""14924""
","
","314.2999999523163","","48","","","3000","1","","","images/earth.jpg","images/tutrocket2","images/tutrocket1","null","images/tutrocket2","","1","practice","null","2","","",""
"d3-animate-choice","107","448839","0.0-61.0-1.15","1688","4984","21","Female","false","true","false","true","""event"",""trial"",""time""
""fullscreenenter"",""5"",""14924""
","
","
","""event"",""trial"",""time""
""fullscreenenter"",""5"",""14924""
","
","657.6000001430511","","48","","","3000","1","","","images/tutyellowplanet.jpg","images/tutalien4","images/tutalien3","images/tutrocket2","images/tutalien4","images/nothing.png","2","practice","true","2","common","0","2022-12-05 15:06:08.400"
"two-step-fixation","108","449846","0.0-61.0-2.15","1688","4984","21","Female","false","true","false","true","""event"",""trial"",""time""
""fullscreenenter"",""5"",""14924""
","
","
","""event"",""trial"",""time""
""fullscreenenter"",""5"",""14924""
","
","","images/earth.jpg","","","","","","","","","","","","","","fixation","","","","","",""
"d3-animate-choice","109","452206","0.0-61.0-0.16","1688","4984","21","Female","false","true","false","true","""event"",""trial"",""time""
""fullscreenenter"",""5"",""14924""
","
","
","""event"",""trial"",""time""
""fullscreenenter"",""5"",""14924""
","
","351.7000000476837","","48","","","3000","1","","","images/earth.jpg","images/tutrocket2","images/tutrocket1","null","images/tutrocket2","","1","practice","null","2","","",""
"d3-animate-choice","110","454670","0.0-61.0-1.16","1688","4984","21","Female","false","true","false","true","""event"",""trial"",""time""
""fullscreenenter"",""5"",""14924""
","
","
","""event"",""trial"",""time""
""fullscreenenter"",""5"",""14924""
","
","456.60000014305115","","48","","","3000","1","","","images/tutyellowplanet.jpg","images/tutalien4","images/tutalien3","images/tutrocket2","images/tutalien4","images/t.png","2","practice","true","2","common","1","2022-12-05 15:06:14.231"
"two-step-fixation","111","455678","0.0-61.0-2.16","1688","4984","21","Female","false","true","false","true","""event"",""trial"",""time""
""fullscreenenter"",""5"",""14924""
","
","
","""event"",""trial"",""time""
""fullscreenenter"",""5"",""14924""
","
","","images/earth.jpg","","","","","","","","","","","","","","fixation","","","","","",""
"d3-animate-choice","112","457998","0.0-61.0-0.17","1688","4984","21","Female","false","true","false","true","""event"",""trial"",""time""
""fullscreenenter"",""5"",""14924""
","
","
","""event"",""trial"",""time""
""fullscreenenter"",""5"",""14924""
","
","314.5","","48","","","3000","1","","","images/earth.jpg","images/tutrocket2","images/tutrocket1","null","images/tutrocket2","","1","practice","null","2","","",""
"d3-animate-choice","113","460734","0.0-61.0-1.17","1688","4984","21","Female","false","true","false","true","""event"",""trial"",""time""
""fullscreenenter"",""5"",""14924""
","
","
","""event"",""trial"",""time""
""fullscreenenter"",""5"",""14924""
","
","733.9000000953674","","48","","","3000","1","","","images/tutyellowplanet.jpg","images/tutalien4","images/tutalien3","images/tutrocket2","images/tutalien4","images/t.png","2","practice","true","2","common","1","2022-12-05 15:06:20.295"
"two-step-fixation","114","461742","0.0-61.0-2.17","1688","4984","21","Female","false","true","false","true","""event"",""trial"",""time""
""fullscreenenter"",""5"",""14924""
","
","
","""event"",""trial"",""time""
""fullscreenenter"",""5"",""14924""
","
","","images/earth.jpg","","","","","","","","","","","","","","fixation","","","","","",""
"d3-animate-choice","115","464150","0.0-61.0-0.18","1688","4984","21","Female","false","true","false","true","""event"",""trial"",""time""
""fullscreenenter"",""5"",""14924""
","
","
","""event"",""trial"",""time""
""fullscreenenter"",""5"",""14924""
","
","401.40000009536743","","48","","","3000","1","","","images/earth.jpg","images/tutrocket2","images/tutrocket1","null","images/tutrocket2","","1","practice","null","2","","",""
"d3-animate-choice","116","466822","0.0-61.0-1.18","1688","4984","21","Female","false","true","false","true","""event"",""trial"",""time""
""fullscreenenter"",""5"",""14924""
","
","
","""event"",""trial"",""time""
""fullscreenenter"",""5"",""14924""
","
","668.5","","48","","","3000","1","","","images/tutyellowplanet.jpg","images/tutalien4","images/tutalien3","images/tutrocket2","images/tutalien4","images/t.png","2","practice","true","2","common","1","2022-12-05 15:06:26.383"
"two-step-fixation","117","467831","0.0-61.0-2.18","1688","4984","21","Female","false","true","false","true","""event"",""trial"",""time""
""fullscreenenter"",""5"",""14924""
","
","
","""event"",""trial"",""time""
""fullscreenenter"",""5"",""14924""
","
","","images/earth.jpg","","","","","","","","","","","","","","fixation","","","","","",""
"d3-animate-choice","118","470207","0.0-61.0-0.19","1688","4984","21","Female","false","true","false","true","""event"",""trial"",""time""
""fullscreenenter"",""5"",""14924""
","
","
","""event"",""trial"",""time""
""fullscreenenter"",""5"",""14924""
","
","371.5","","48","","","3000","1","","","images/earth.jpg","images/tutrocket2","images/tutrocket1","null","images/tutrocket2","","1","practice","null","2","","",""
"d3-animate-choice","119","472775","0.0-61.0-1.19","1688","4984","21","Female","false","true","false","true","""event"",""trial"",""time""
""fullscreenenter"",""5"",""14924""
","
","
","""event"",""trial"",""time""
""fullscreenenter"",""5"",""14924""
","
","559.5","","48","","","3000","1","","","images/tutyellowplanet.jpg","images/tutalien4","images/tutalien3","images/tutrocket2","images/tutalien4","images/t.png","2","practice","true","2","common","1","2022-12-05 15:06:32.336"
"two-step-fixation","120","473781","0.0-61.0-2.19","1688","4984","21","Female","false","true","false","true","""event"",""trial"",""time""
""fullscreenenter"",""5"",""14924""
","
","
","""event"",""trial"",""time""
""fullscreenenter"",""5"",""14924""
","
","","images/earth.jpg","","","","","","","","","","","","","","fixation","","","","","",""
"d3-instructions","121","477355","0.0-62.0","1688","4984","21","Female","false","true","false","true","""event"",""trial"",""time""
""fullscreenenter"",""5"",""14924""
","
","
","""event"",""trial"",""time""
""fullscreenenter"",""5"",""14924""
","
","","","","","","","","","","","","","","","","","","","","","",""
"audio-keyboard-response","122","479742","0.0-63.0","1688","4984","21","Female","false","true","false","true","""event"",""trial"",""time""
""fullscreenenter"",""5"",""14924""
","
","
","""event"",""trial"",""time""
""fullscreenenter"",""5"",""14924""
","
","2389","audio/instructions/treasure_feedback.wav","32","","","","","","","","","","","","","","","","","","",""
"d3-instructions","123","486662","0.0-64.0","1688","4984","21","Female","false","true","false","true","""event"",""trial"",""time""
""fullscreenenter"",""5"",""14924""
","
","
","""event"",""trial"",""time""
""fullscreenenter"",""5"",""14924""
","
","","","","","","","","","","","","","","","","","","","","","",""
"d3-instructions","124","495688","0.0-65.0","1688","4984","21","Female","false","true","false","true","""event"",""trial"",""time""
""fullscreenenter"",""5"",""14924""
","
","
","""event"",""trial"",""time""
""fullscreenenter"",""5"",""14924""
","
","","","","","","","","","","","","","","","","","","","","","",""
"d3-instructions","125","508316","0.0-66.0","1688","4984","21","Female","false","true","false","true","""event"",""trial"",""time""
""fullscreenenter"",""5"",""14924""
","
","
","""event"",""trial"",""time""
""fullscreenenter"",""5"",""14924""
","
","","","","","","","","","","","","","","","","","","","","","",""
"d3-instructions","126","523079","0.0-67.0","1688","4984","21","Female","false","true","false","true","""event"",""trial"",""time""
""fullscreenenter"",""5"",""14924""
","
","
","""event"",""trial"",""time""
""fullscreenenter"",""5"",""14924""
","
","","","","","","","","","","","","","","","","","","","","","",""
"d3-instructions","127","527507","0.0-68.0","1688","4984","21","Female","false","true","false","true","""event"",""trial"",""time""
""fullscreenenter"",""5"",""14924""
","
","
","""event"",""trial"",""time""
""fullscreenenter"",""5"",""14924""
","
","","","","","","","","","","","","","","","","","","","","","",""
"instructions-quiz","128","531555","0.0-69.0","1688","4984","21","Female","false","true","false","true","""event"",""trial"",""time""
""fullscreenenter"",""5"",""14924""
","
","
","""event"",""trial"",""time""
""fullscreenenter"",""5"",""14924""
","
","4045.7000000476837","audio/quiz/Q1_Prompt.wav","","1","","","","","","","","","","","","","","","","","",""
"audio-keyboard-response","129","540718","0.0-70.0","1688","4984","21","Female","false","true","false","true","""event"",""trial"",""time""
""fullscreenenter"",""5"",""14924""
","
","
","""event"",""trial"",""time""
""fullscreenenter"",""5"",""14924""
","
","null","audio/quiz/Q1_Correct.wav","null","","","","","","","","","","","","","","","","","","",""
"instructions-quiz","130","540910","0.0-71.0","1688","4984","21","Female","false","true","false","true","""event"",""trial"",""time""
""fullscreenenter"",""5"",""14924""
","
","
","""event"",""trial"",""time""
""fullscreenenter"",""5"",""14924""
","
","190.5","audio/quiz/Q2_Prompt.wav","","0","","","","","","","","","","","","","","","","","",""
"audio-keyboard-response","131","553777","0.0-72.0","1688","4984","21","Female","false","true","false","true","""event"",""trial"",""time""
""fullscreenenter"",""5"",""14924""
","
","
","""event"",""trial"",""time""
""fullscreenenter"",""5"",""14924""
","
","null","audio/quiz/Q2_Correct.wav","null","","","","","","","","","","","","","","","","","","",""
"instructions-quiz","132","556020","0.0-73.0","1688","4984","21","Female","false","true","false","true","""event"",""trial"",""time""
""fullscreenenter"",""5"",""14924""
","
","
","""event"",""trial"",""time""
""fullscreenenter"",""5"",""14924""
","
","2241.100000143051","audio/quiz/Q3_Prompt.wav","","1","","","","","","","","","","","","","","","","","",""
"audio-keyboard-response","133","561817","0.0-74.0","1688","4984","21","Female","false","true","false","true","""event"",""trial"",""time""
""fullscreenenter"",""5"",""14924""
","
","
","""event"",""trial"",""time""
""fullscreenenter"",""5"",""14924""
","
","null","audio/quiz/Q3_Correct.wav","null","","","","","","","","","","","","","","","","","","",""
"d3-instructions","134","574114","0.0-75.0","1688","4984","21","Female","false","true","false","true","""event"",""trial"",""time""
""fullscreenenter"",""5"",""14924""
","
","
","""event"",""trial"",""time""
""fullscreenenter"",""5"",""14924""
","
","","","","","","","","","","","","","","","","","","","","","",""
"d3-animate-choice","135","578119","0.0-76.0-0.0","1688","4984","21","Female","false","true","false","true","""event"",""trial"",""time""
""fullscreenenter"",""5"",""14924""
","
","
","""event"",""trial"",""time""
""fullscreenenter"",""5"",""14924""
","
","2245.7000000476837","","49","","","3000","1","","","images/earth.jpg","images/rocket1","images/rocket2","null","images/rocket2","","1","real","null","1","","",""
"d3-animate-choice","136","581788","0.0-76.0-1.0","1688","4984","21","Female","false","true","false","true","""event"",""trial"",""time""
""fullscreenenter"",""5"",""14924""
","
","
","""event"",""trial"",""time""
""fullscreenenter"",""5"",""14924""
","
","1656.7000000476837","","48","","","3000","1","","","images/purpleplanet.jpg","images/alien4","images/alien3","images/rocket2","images/alien4","images/t.png","2","real","true","2","common","1","2022-12-05 15:08:21.349"
"two-step-fixation","137","582799","0.0-76.0-2.0","1688","4984","21","Female","false","true","false","true","""event"",""trial"",""time""
""fullscreenenter"",""5"",""14924""
","
","
","""event"",""trial"",""time""
""fullscreenenter"",""5"",""14924""
","
","","images/earth.jpg","","","","","","","","","","","","","","fixation","","","","","",""
"d3-animate-choice","138","585219","0.0-76.0-0.1","1688","4984","21","Female","false","true","false","true","""event"",""trial"",""time""
""fullscreenenter"",""5"",""14924""
","
","
","""event"",""trial"",""time""
""fullscreenenter"",""5"",""14924""
","
","414.09999990463257","","49","","","3000","1","","","images/earth.jpg","images/rocket1","images/rocket2","null","images/rocket2","","1","real","null","1","","",""
"d3-animate-choice","139","588397","0.0-76.0-1.1","1688","4984","21","Female","false","true","false","true","""event"",""trial"",""time""
""fullscreenenter"",""5"",""14924""
","
","
","""event"",""trial"",""time""
""fullscreenenter"",""5"",""14924""
","
","1175.4000000953674","","48","","","3000","1","","","images/purpleplanet.jpg","images/alien4","images/alien3","images/rocket2","images/alien4","images/t.png","2","real","true","2","common","1","2022-12-05 15:08:27.959"
"two-step-fixation","140","589406","0.0-76.0-2.1","1688","4984","21","Female","false","true","false","true","""event"",""trial"",""time""
""fullscreenenter"",""5"",""14924""
","
","
","""event"",""trial"",""time""
""fullscreenenter"",""5"",""14924""
","
","","images/earth.jpg","","","","","","","","","","","","","","fixation","","","","","",""
"d3-animate-choice","141","591787","0.0-76.0-0.2","1688","4984","21","Female","false","true","false","true","""event"",""trial"",""time""
""fullscreenenter"",""5"",""14924""
","
","
","""event"",""trial"",""time""
""fullscreenenter"",""5"",""14924""
","
","374.60000014305115","","49","","","3000","1","","","images/earth.jpg","images/rocket1","images/rocket2","null","images/rocket2","","1","real","null","1","","",""
"d3-animate-choice","142","594847","0.0-76.0-1.2","1688","4984","21","Female","false","true","false","true","""event"",""trial"",""time""
""fullscreenenter"",""5"",""14924""
","
","
","""event"",""trial"",""time""
""fullscreenenter"",""5"",""14924""
","
","1055.2999999523163","","48","","","3000","1","","","images/redplanet1.jpg","images/alien2","images/alien1","images/rocket2","images/alien2","images/t.png","2","real","false","2","rare","1","2022-12-05 15:08:34.408"
"two-step-fixation","143","595855","0.0-76.0-2.2","1688","4984","21","Female","false","true","false","true","""event"",""trial"",""time""
""fullscreenenter"",""5"",""14924""
","
","
","""event"",""trial"",""time""
""fullscreenenter"",""5"",""14924""
","
","","images/earth.jpg","","","","","","","","","","","","","","fixation","","","","","",""
"d3-animate-choice","144","598271","0.0-76.0-0.3","1688","4984","21","Female","false","true","false","true","""event"",""trial"",""time""
""fullscreenenter"",""5"",""14924""
","
","
","""event"",""trial"",""time""
""fullscreenenter"",""5"",""14924""
","
","408.90000009536743","","48","","","3000","1","","","images/earth.jpg","images/rocket1","images/rocket2","null","images/rocket1","","1","real","null","2","","",""
"d3-animate-choice","145","601254","0.0-76.0-1.3","1688","4984","21","Female","false","true","false","true","""event"",""trial"",""time""
""fullscreenenter"",""5"",""14924""
","
","
","""event"",""trial"",""time""
""fullscreenenter"",""5"",""14924""
","
","976.9000000953674","","48","","","3000","1","","","images/purpleplanet.jpg","images/alien4","images/alien3","images/rocket1","images/alien4","images/t.png","2","real","false","2","rare","1","2022-12-05 15:08:40.815"
"two-step-fixation","146","602262","0.0-76.0-2.3","1688","4984","21","Female","false","true","false","true","""event"",""trial"",""time""
""fullscreenenter"",""5"",""14924""
","
","
","""event"",""trial"",""time""
""fullscreenenter"",""5"",""14924""
","
","","images/earth.jpg","","","","","","","","","","","","","","fixation","","","","","",""
"d3-animate-choice","147","604719","0.0-76.0-0.4","1688","4984","21","Female","false","true","false","true","""event"",""trial"",""time""
""fullscreenenter"",""5"",""14924""
","
","
","""event"",""trial"",""time""
""fullscreenenter"",""5"",""14924""
","
","446.7000000476837","","48","","","3000","1","","","images/earth.jpg","images/rocket1","images/rocket2","null","images/rocket1","","1","real","null","2","","",""
"d3-animate-choice","148","607518","0.0-76.0-1.4","1688","4984","21","Female","false","true","false","true","""event"",""trial"",""time""
""fullscreenenter"",""5"",""14924""
","
","
","""event"",""trial"",""time""
""fullscreenenter"",""5"",""14924""
","
","790.6000001430511","","48","","","3000","1","","","images/redplanet1.jpg","images/alien2","images/alien1","images/rocket1","images/alien2","images/t.png","2","real","true","2","common","1","2022-12-05 15:08:47.079"
"two-step-fixation","149","608526","0.0-76.0-2.4","1688","4984","21","Female","false","true","false","true","""event"",""trial"",""time""
""fullscreenenter"",""5"",""14924""
","
","
","""event"",""trial"",""time""
""fullscreenenter"",""5"",""14924""
","
","","images/earth.jpg","","","","","","","","","","","","","","fixation","","","","","",""
"d3-animate-choice","150","611070","0.0-76.0-0.5","1688","4984","21","Female","false","true","false","true","""event"",""trial"",""time""
""fullscreenenter"",""5"",""14924""
","
","
","""event"",""trial"",""time""
""fullscreenenter"",""5"",""14924""
","
","536.8999998569489","","48","","","3000","1","","","images/earth.jpg","images/rocket1","images/rocket2","null","images/rocket1","","1","real","null","2","","",""
"d3-animate-choice","151","613862","0.0-76.0-1.5","1688","4984","21","Female","false","true","false","true","""event"",""trial"",""time""
""fullscreenenter"",""5"",""14924""
","
","
","""event"",""trial"",""time""
""fullscreenenter"",""5"",""14924""
","
","785.8999998569489","","48","","","3000","1","","","images/redplanet1.jpg","images/alien2","images/alien1","images/rocket1","images/alien2","images/nothing.png","2","real","true","2","common","0","2022-12-05 15:08:53.423"
"two-step-fixation","152","614870","0.0-76.0-2.5","1688","4984","21","Female","false","true","false","true","""event"",""trial"",""time""
""fullscreenenter"",""5"",""14924""
","
","
","""event"",""trial"",""time""
""fullscreenenter"",""5"",""14924""
","
","","images/earth.jpg","","","","","","","","","","","","","","fixation","","","","","",""
"d3-animate-choice","153","617502","0.0-76.0-0.6","1688","4984","21","Female","false","true","false","true","""event"",""trial"",""time""
""fullscreenenter"",""5"",""14924""
","
","
","""event"",""trial"",""time""
""fullscreenenter"",""5"",""14924""
","
","625.4000000953674","","48","","","3000","1","","","images/earth.jpg","images/rocket1","images/rocket2","null","images/rocket1","","1","real","null","2","","",""
"d3-animate-choice","154","620886","0.0-76.0-1.6","1688","4984","21","Female","false","true","false","true","""event"",""trial"",""time""
""fullscreenenter"",""5"",""14924""
","
","
","""event"",""trial"",""time""
""fullscreenenter"",""5"",""14924""
","
","1379.5","","48","","","3000","1","","","images/redplanet1.jpg","images/alien2","images/alien1","images/rocket1","images/alien2","images/t.png","2","real","true","2","common","1","2022-12-05 15:09:00.447"
"two-step-fixation","155","621894","0.0-76.0-2.6","1688","4984","21","Female","false","true","false","true","""event"",""trial"",""time""
""fullscreenenter"",""5"",""14924""
","
","
","""event"",""trial"",""time""
""fullscreenenter"",""5"",""14924""
","
","","images/earth.jpg","","","","","","","","","","","","","","fixation","","","","","",""
"d3-animate-choice","156","624383","0.0-76.0-0.7","1688","4984","21","Female","false","true","false","true","""event"",""trial"",""time""
""fullscreenenter"",""5"",""14924""
","
","
","""event"",""trial"",""time""
""fullscreenenter"",""5"",""14924""
","
","478.7999999523163","","49","","","3000","1","","","images/earth.jpg","images/rocket1","images/rocket2","null","images/rocket2","","1","real","null","1","","",""
"d3-animate-choice","157","627165","0.0-76.0-1.7","1688","4984","21","Female","false","true","false","true","""event"",""trial"",""time""
""fullscreenenter"",""5"",""14924""
","
","
","""event"",""trial"",""time""
""fullscreenenter"",""5"",""14924""
","
","774.2999999523163","","48","","","3000","1","","","images/purpleplanet.jpg","images/alien4","images/alien3","images/rocket2","images/alien4","images/t.png","2","real","true","2","common","1","2022-12-05 15:09:06.726"
"two-step-fixation","158","628171","0.0-76.0-2.7","1688","4984","21","Female","false","true","false","true","""event"",""trial"",""time""
""fullscreenenter"",""5"",""14924""
","
","
","""event"",""trial"",""time""
""fullscreenenter"",""5"",""14924""
","
","","images/earth.jpg","","","","","","","","","","","","","","fixation","","","","","",""
"d3-animate-choice","159","630550","0.0-76.0-0.8","1688","4984","21","Female","false","true","false","true","""event"",""trial"",""time""
""fullscreenenter"",""5"",""14924""
","
","
","""event"",""trial"",""time""
""fullscreenenter"",""5"",""14924""
","
","376.40000009536743","","49","","","3000","1","","","images/earth.jpg","images/rocket1","images/rocket2","null","images/rocket2","","1","real","null","1","","",""
"d3-animate-choice","160","633038","0.0-76.0-1.8","1688","4984","21","Female","false","true","false","true","""event"",""trial"",""time""
""fullscreenenter"",""5"",""14924""
","
","
","""event"",""trial"",""time""
""fullscreenenter"",""5"",""14924""
","
","482.40000009536743","","48","","","3000","1","","","images/purpleplanet.jpg","images/alien4","images/alien3","images/rocket2","images/alien4","images/t.png","2","real","true","2","common","1","2022-12-05 15:09:12.599"
"two-step-fixation","161","634045","0.0-76.0-2.8","1688","4984","21","Female","false","true","false","true","""event"",""trial"",""time""
""fullscreenenter"",""5"",""14924""
","
","
","""event"",""trial"",""time""
""fullscreenenter"",""5"",""14924""
","
","","images/earth.jpg","","","","","","","","","","","","","","fixation","","","","","",""
"d3-animate-choice","162","636366","0.0-76.0-0.9","1688","4984","21","Female","false","true","false","true","""event"",""trial"",""time""
""fullscreenenter"",""5"",""14924""
","
","
","""event"",""trial"",""time""
""fullscreenenter"",""5"",""14924""
","
","315.2999999523163","","49","","","3000","1","","","images/earth.jpg","images/rocket1","images/rocket2","null","images/rocket2","","1","real","null","1","","",""
"d3-animate-choice","163","638805","0.0-76.0-1.9","1688","4984","21","Female","false","true","false","true","""event"",""trial"",""time""
""fullscreenenter"",""5"",""14924""
","
","
","""event"",""trial"",""time""
""fullscreenenter"",""5"",""14924""
","
","434.10000014305115","","48","","","3000","1","","","images/purpleplanet.jpg","images/alien4","images/alien3","images/rocket2","images/alien4","images/nothing.png","2","real","true","2","common","0","2022-12-05 15:09:18.366"
"two-step-fixation","164","639815","0.0-76.0-2.9","1688","4984","21","Female","false","true","false","true","""event"",""trial"",""time""
""fullscreenenter"",""5"",""14924""
","
","
","""event"",""trial"",""time""
""fullscreenenter"",""5"",""14924""
","
","","images/earth.jpg","","","","","","","","","","","","","","fixation","","","","","",""
"d3-animate-choice","165","642182","0.0-76.0-0.10","1688","4984","21","Female","false","true","false","true","""event"",""trial"",""time""
""fullscreenenter"",""5"",""14924""
","
","
","""event"",""trial"",""time""
""fullscreenenter"",""5"",""14924""
","
","362.30000019073486","","48","","","3000","1","","","images/earth.jpg","images/rocket1","images/rocket2","null","images/rocket1","","1","real","null","2","","",""
"d3-animate-choice","166","644886","0.0-76.0-1.10","1688","4984","21","Female","false","true","false","true","""event"",""trial"",""time""
""fullscreenenter"",""5"",""14924""
","
","
","""event"",""trial"",""time""
""fullscreenenter"",""5"",""14924""
","
","700.6000001430511","","48","","","3000","1","","","images/purpleplanet.jpg","images/alien4","images/alien3","images/rocket1","images/alien4","images/t.png","2","real","false","2","rare","1","2022-12-05 15:09:24.447"
"two-step-fixation","167","645888","0.0-76.0-2.10","1688","4984","21","Female","false","true","false","true","""event"",""trial"",""time""
""fullscreenenter"",""5"",""14924""
","
","
","""event"",""trial"",""time""
""fullscreenenter"",""5"",""14924""
","
","","images/earth.jpg","","","","","","","","","","","","","","fixation","","","","","",""
"d3-animate-choice","168","648338","0.0-76.0-0.11","1688","4984","21","Female","false","true","false","true","""event"",""trial"",""time""
""fullscreenenter"",""5"",""14924""
","
","
","""event"",""trial"",""time""
""fullscreenenter"",""5"",""14924""
","
","444.59999990463257","","48","","","3000","1","","","images/earth.jpg","images/rocket1","images/rocket2","null","images/rocket1","","1","real","null","2","","",""
"d3-animate-choice","169","650901","0.0-76.0-1.11","1688","4984","21","Female","false","true","false","true","""event"",""trial"",""time""
""fullscreenenter"",""5"",""14924""
","
","
","""event"",""trial"",""time""
""fullscreenenter"",""5"",""14924""
","
","554.9000000953674","","48","","","3000","1","","","images/purpleplanet.jpg","images/alien4","images/alien3","images/rocket1","images/alien4","images/t.png","2","real","false","2","rare","1","2022-12-05 15:09:30.462"
"two-step-fixation","170","651905","0.0-76.0-2.11","1688","4984","21","Female","false","true","false","true","""event"",""trial"",""time""
""fullscreenenter"",""5"",""14924""
","
","
","""event"",""trial"",""time""
""fullscreenenter"",""5"",""14924""
","
","","images/earth.jpg","","","","","","","","","","","","","","fixation","","","","","",""
"d3-animate-choice","171","654422","0.0-76.0-0.12","1688","4984","21","Female","false","true","false","true","""event"",""trial"",""time""
""fullscreenenter"",""5"",""14924""
","
","
","""event"",""trial"",""time""
""fullscreenenter"",""5"",""14924""
","
","510.5","","48","","","3000","1","","","images/earth.jpg","images/rocket1","images/rocket2","null","images/rocket1","","1","real","null","2","","",""
"d3-animate-choice","172","657172","0.0-76.0-1.12","1688","4984","21","Female","false","true","false","true","""event"",""trial"",""time""
""fullscreenenter"",""5"",""14924""
","
","
","""event"",""trial"",""time""
""fullscreenenter"",""5"",""14924""
","
","745.1000001430511","","48","","","3000","1","","","images/redplanet1.jpg","images/alien2","images/alien1","images/rocket1","images/alien2","images/t.png","2","real","true","2","common","1","2022-12-05 15:09:36.733"
"two-step-fixation","173","658182","0.0-76.0-2.12","1688","4984","21","Female","false","true","false","true","""event"",""trial"",""time""
""fullscreenenter"",""5"",""14924""
","
","
","""event"",""trial"",""time""
""fullscreenenter"",""5"",""14924""
","
","","images/earth.jpg","","","","","","","","","","","","","","fixation","","","","","",""
"d3-animate-choice","174","660686","0.0-76.0-0.13","1688","4984","21","Female","false","true","false","true","""event"",""trial"",""time""
""fullscreenenter"",""5"",""14924""
","
","
","""event"",""trial"",""time""
""fullscreenenter"",""5"",""14924""
","
","493.5","","48","","","3000","1","","","images/earth.jpg","images/rocket1","images/rocket2","null","images/rocket1","","1","real","null","2","","",""
"d3-animate-choice","175","663117","0.0-76.0-1.13","1688","4984","21","Female","false","true","false","true","""event"",""trial"",""time""
""fullscreenenter"",""5"",""14924""
","
","
","""event"",""trial"",""time""
""fullscreenenter"",""5"",""14924""
","
","421.90000009536743","","48","","","3000","1","","","images/redplanet1.jpg","images/alien2","images/alien1","images/rocket1","images/alien2","images/t.png","2","real","true","2","common","1","2022-12-05 15:09:42.678"
"two-step-fixation","176","664122","0.0-76.0-2.13","1688","4984","21","Female","false","true","false","true","""event"",""trial"",""time""
""fullscreenenter"",""5"",""14924""
","
","
","""event"",""trial"",""time""
""fullscreenenter"",""5"",""14924""
","
","","images/earth.jpg","","","","","","","","","","","","","","fixation","","","","","",""
"d3-animate-choice","177","666582","0.0-76.0-0.14","1688","4984","21","Female","false","true","false","true","""event"",""trial"",""time""
""fullscreenenter"",""5"",""14924""
","
","
","""event"",""trial"",""time""
""fullscreenenter"",""5"",""14924""
","
","451","","48","","","3000","1","","","images/earth.jpg","images/rocket1","images/rocket2","null","images/rocket1","","1","real","null","2","","",""
"d3-animate-choice","178","669070","0.0-76.0-1.14","1688","4984","21","Female","false","true","false","true","""event"",""trial"",""time""
""fullscreenenter"",""5"",""14924""
","
","
","""event"",""trial"",""time""
""fullscreenenter"",""5"",""14924""
","
","478.2000000476837","","48","","","3000","1","","","images/purpleplanet.jpg","images/alien4","images/alien3","images/rocket1","images/alien4","images/nothing.png","2","real","false","2","rare","0","2022-12-05 15:09:48.631"
"two-step-fixation","179","670079","0.0-76.0-2.14","1688","4984","21","Female","false","true","false","true","""event"",""trial"",""time""
""fullscreenenter"",""5"",""14924""
","
","
","""event"",""trial"",""time""
""fullscreenenter"",""5"",""14924""
","
","","images/earth.jpg","","","","","","","","","","","","","","fixation","","","","","",""
"d3-animate-choice","180","672339","0.0-76.0-0.15","1688","4984","21","Female","false","true","false","true","""event"",""trial"",""time""
""fullscreenenter"",""5"",""14924""
","
","
","""event"",""trial"",""time""
""fullscreenenter"",""5"",""14924""
","
","255.29999995231628","","49","","","3000","1","","","images/earth.jpg","images/rocket1","images/rocket2","null","images/rocket2","","1","real","null","1","","",""
"d3-animate-choice","181","674856","0.0-76.0-1.15","1688","4984","21","Female","false","true","false","true","""event"",""trial"",""time""
""fullscreenenter"",""5"",""14924""
","
","
","""event"",""trial"",""time""
""fullscreenenter"",""5"",""14924""
","
","512.7999999523163","","48","","","3000","1","","","images/purpleplanet.jpg","images/alien4","images/alien3","images/rocket2","images/alien4","images/t.png","2","real","true","2","common","1","2022-12-05 15:09:54.417"
"two-step-fixation","182","675862","0.0-76.0-2.15","1688","4984","21","Female","false","true","false","true","""event"",""trial"",""time""
""fullscreenenter"",""5"",""14924""
","
","
","""event"",""trial"",""time""
""fullscreenenter"",""5"",""14924""
","
","","images/earth.jpg","","","","","","","","","","","","","","fixation","","","","","",""
"d3-animate-choice","183","678534","0.0-76.0-0.16","1688","4984","21","Female","false","true","false","true","""event"",""trial"",""time""
""fullscreenenter"",""5"",""14924""
","
","
","""event"",""trial"",""time""
""fullscreenenter"",""5"",""14924""
","
","663.5999999046326","","49","","","3000","1","","","images/earth.jpg","images/rocket1","images/rocket2","null","images/rocket2","","1","real","null","1","","",""
"d3-animate-choice","184","681110","0.0-76.0-1.16","1688","4984","21","Female","false","true","false","true","""event"",""trial"",""time""
""fullscreenenter"",""5"",""14924""
","
","
","""event"",""trial"",""time""
""fullscreenenter"",""5"",""14924""
","
","570.8000001907349","","48","","","3000","1","","","images/purpleplanet.jpg","images/alien4","images/alien3","images/rocket2","images/alien4","images/t.png","2","real","true","2","common","1","2022-12-05 15:10:00.671"
"two-step-fixation","185","682117","0.0-76.0-2.16","1688","4984","21","Female","false","true","false","true","""event"",""trial"",""time""
""fullscreenenter"",""5"",""14924""
","
","
","""event"",""trial"",""time""
""fullscreenenter"",""5"",""14924""
","
","","images/earth.jpg","","","","","","","","","","","","","","fixation","","","","","",""
"d3-animate-choice","186","684407","0.0-76.0-0.17","1688","4984","21","Female","false","true","false","true","""event"",""trial"",""time""
""fullscreenenter"",""5"",""14924""
","
","
","""event"",""trial"",""time""
""fullscreenenter"",""5"",""14924""
","
","285.69999980926514","","49","","","3000","1","","","images/earth.jpg","images/rocket1","images/rocket2","null","images/rocket2","","1","real","null","1","","",""
"d3-animate-choice","187","687429","0.0-76.0-1.17","1688","4984","21","Female","false","true","false","true","""event"",""trial"",""time""
""fullscreenenter"",""5"",""14924""
","
","
","""event"",""trial"",""time""
""fullscreenenter"",""5"",""14924""
","
","1014.5999999046326","","48","","","3000","1","","","images/purpleplanet.jpg","images/alien4","images/alien3","images/rocket2","images/alien4","images/nothing.png","2","real","true","2","common","0","2022-12-05 15:10:06.990"
"two-step-fixation","188","688438","0.0-76.0-2.17","1688","4984","21","Female","false","true","false","true","""event"",""trial"",""time""
""fullscreenenter"",""5"",""14924""
","
","
","""event"",""trial"",""time""
""fullscreenenter"",""5"",""14924""
","
","","images/earth.jpg","","","","","","","","","","","","","","fixation","","","","","",""
"d3-animate-choice","189","690919","0.0-76.0-0.18","1688","4984","21","Female","false","true","false","true","""event"",""trial"",""time""
""fullscreenenter"",""5"",""14924""
","
","
","""event"",""trial"",""time""
""fullscreenenter"",""5"",""14924""
","
","475.09999990463257","","48","","","3000","1","","","images/earth.jpg","images/rocket1","images/rocket2","null","images/rocket1","","1","real","null","2","","",""
"d3-animate-choice","190","693566","0.0-76.0-1.18","1688","4984","21","Female","false","true","false","true","""event"",""trial"",""time""
""fullscreenenter"",""5"",""14924""
","
","
","""event"",""trial"",""time""
""fullscreenenter"",""5"",""14924""
","
","639.0999999046326","","48","","","3000","1","","","images/redplanet1.jpg","images/alien2","images/alien1","images/rocket1","images/alien2","images/t.png","2","real","true","2","common","1","2022-12-05 15:10:13.127"
"two-step-fixation","191","694574","0.0-76.0-2.18","1688","4984","21","Female","false","true","false","true","""event"",""trial"",""time""
""fullscreenenter"",""5"",""14924""
","
","
","""event"",""trial"",""time""
""fullscreenenter"",""5"",""14924""
","
","","images/earth.jpg","","","","","","","","","","","","","","fixation","","","","","",""
"d3-animate-choice","192","696966","0.0-76.0-0.19","1688","4984","21","Female","false","true","false","true","""event"",""trial"",""time""
""fullscreenenter"",""5"",""14924""
","
","
","""event"",""trial"",""time""
""fullscreenenter"",""5"",""14924""
","
","385.60000014305115","","48","","","3000","1","","","images/earth.jpg","images/rocket1","images/rocket2","null","images/rocket1","","1","real","null","2","","",""
"d3-animate-choice","193","699750","0.0-76.0-1.19","1688","4984","21","Female","false","true","false","true","""event"",""trial"",""time""
""fullscreenenter"",""5"",""14924""
","
","
","""event"",""trial"",""time""
""fullscreenenter"",""5"",""14924""
","
","775.0999999046326","","48","","","3000","1","","","images/redplanet1.jpg","images/alien2","images/alien1","images/rocket1","images/alien2","images/t.png","2","real","true","2","common","1","2022-12-05 15:10:19.311"
"two-step-fixation","194","700758","0.0-76.0-2.19","1688","4984","21","Female","false","true","false","true","""event"",""trial"",""time""
""fullscreenenter"",""5"",""14924""
","
","
","""event"",""trial"",""time""
""fullscreenenter"",""5"",""14924""
","
","","images/earth.jpg","","","","","","","","","","","","","","fixation","","","","","",""
"d3-animate-choice","195","703102","0.0-76.0-0.20","1688","4984","21","Female","false","true","false","true","""event"",""trial"",""time""
""fullscreenenter"",""5"",""14924""
","
","
","""event"",""trial"",""time""
""fullscreenenter"",""5"",""14924""
","
","339.90000009536743","","48","","","3000","1","","","images/earth.jpg","images/rocket1","images/rocket2","null","images/rocket1","","1","real","null","2","","",""
"d3-animate-choice","196","705886","0.0-76.0-1.20","1688","4984","21","Female","false","true","false","true","""event"",""trial"",""time""
""fullscreenenter"",""5"",""14924""
","
","
","""event"",""trial"",""time""
""fullscreenenter"",""5"",""14924""
","
","772.8999998569489","","48","","","3000","1","","","images/purpleplanet.jpg","images/alien4","images/alien3","images/rocket1","images/alien4","images/t.png","2","real","false","2","rare","1","2022-12-05 15:10:25.447"
"two-step-fixation","197","706891","0.0-76.0-2.20","1688","4984","21","Female","false","true","false","true","""event"",""trial"",""time""
""fullscreenenter"",""5"",""14924""
","
","
","""event"",""trial"",""time""
""fullscreenenter"",""5"",""14924""
","
","","images/earth.jpg","","","","","","","","","","","","","","fixation","","","","","",""
"d3-animate-choice","198","709241","0.0-76.0-0.21","1688","4984","21","Female","false","true","false","true","""event"",""trial"",""time""
""fullscreenenter"",""5"",""14924""
","
","
","""event"",""trial"",""time""
""fullscreenenter"",""5"",""14924""
","
","346.59999990463257","","48","","","3000","1","","","images/earth.jpg","images/rocket1","images/rocket2","null","images/rocket1","","1","real","null","2","","",""
"d3-animate-choice","199","711821","0.0-76.0-1.21","1688","4984","21","Female","false","true","false","true","""event"",""trial"",""time""
""fullscreenenter"",""5"",""14924""
","
","
","""event"",""trial"",""time""
""fullscreenenter"",""5"",""14924""
","
","574.7999999523163","","48","","","3000","1","","","images/purpleplanet.jpg","images/alien4","images/alien3","images/rocket1","images/alien4","images/nothing.png","2","real","false","2","rare","0","2022-12-05 15:10:31.382"
"two-step-fixation","200","712825","0.0-76.0-2.21","1688","4984","21","Female","false","true","false","true","""event"",""trial"",""time""
""fullscreenenter"",""5"",""14924""
","
","
","""event"",""trial"",""time""
""fullscreenenter"",""5"",""14924""
","
","","images/earth.jpg","","","","","","","","","","","","","","fixation","","","","","",""
"d3-animate-choice","201","715158","0.0-76.0-0.22","1688","4984","21","Female","false","true","false","true","""event"",""trial"",""time""
""fullscreenenter"",""5"",""14924""
","
","
","""event"",""trial"",""time""
""fullscreenenter"",""5"",""14924""
","
","329","","49","","","3000","1","","","images/earth.jpg","images/rocket1","images/rocket2","null","images/rocket2","","1","real","null","1","","",""
"d3-animate-choice","202","717606","0.0-76.0-1.22","1688","4984","21","Female","false","true","false","true","""event"",""trial"",""time""
""fullscreenenter"",""5"",""14924""
","
","
","""event"",""trial"",""time""
""fullscreenenter"",""5"",""14924""
","
","440.2999999523163","","48","","","3000","1","","","images/purpleplanet.jpg","images/alien4","images/alien3","images/rocket2","images/alien4","images/t.png","2","real","true","2","common","1","2022-12-05 15:10:37.167"
"two-step-fixation","203","718608","0.0-76.0-2.22","1688","4984","21","Female","false","true","false","true","""event"",""trial"",""time""
""fullscreenenter"",""5"",""14924""
","
","
","""event"",""trial"",""time""
""fullscreenenter"",""5"",""14924""
","
","","images/earth.jpg","","","","","","","","","","","","","","fixation","","","","","",""
"d3-animate-choice","204","721093","0.0-76.0-0.23","1688","4984","21","Female","false","true","false","true","""event"",""trial"",""time""
""fullscreenenter"",""5"",""14924""
","
","
","""event"",""trial"",""time""
""fullscreenenter"",""5"",""14924""
","
","478.69999980926514","","49","","","3000","1","","","images/earth.jpg","images/rocket1","images/rocket2","null","images/rocket2","","1","real","null","1","","",""
"d3-animate-choice","205","723749","0.0-76.0-1.23","1688","4984","21","Female","false","true","false","true","""event"",""trial"",""time""
""fullscreenenter"",""5"",""14924""
","
","
","""event"",""trial"",""time""
""fullscreenenter"",""5"",""14924""
","
","652.8000001907349","","48","","","3000","1","","","images/redplanet1.jpg","images/alien2","images/alien1","images/rocket2","images/alien2","images/nothing.png","2","real","false","2","rare","0","2022-12-05 15:10:43.311"
"two-step-fixation","206","724758","0.0-76.0-2.23","1688","4984","21","Female","false","true","false","true","""event"",""trial"",""time""
""fullscreenenter"",""5"",""14924""
","
","
","""event"",""trial"",""time""
""fullscreenenter"",""5"",""14924""
","
","","images/earth.jpg","","","","","","","","","","","","","","fixation","","","","","",""
"d3-animate-choice","207","727069","0.0-76.0-0.24","1688","4984","21","Female","false","true","false","true","""event"",""trial"",""time""
""fullscreenenter"",""5"",""14924""
","
","
","""event"",""trial"",""time""
""fullscreenenter"",""5"",""14924""
","
","302.59999990463257","","49","","","3000","1","","","images/earth.jpg","images/rocket1","images/rocket2","null","images/rocket2","","1","real","null","1","","",""
"d3-animate-choice","208","729990","0.0-76.0-1.24","1688","4984","21","Female","false","true","false","true","""event"",""trial"",""time""
""fullscreenenter"",""5"",""14924""
","
","
","""event"",""trial"",""time""
""fullscreenenter"",""5"",""14924""
","
","911.4000000953674","","48","","","3000","1","","","images/purpleplanet.jpg","images/alien4","images/alien3","images/rocket2","images/alien4","images/t.png","2","real","true","2","common","1","2022-12-05 15:10:49.551"
"two-step-fixation","209","730992","0.0-76.0-2.24","1688","4984","21","Female","false","true","false","true","""event"",""trial"",""time""
""fullscreenenter"",""5"",""14924""
","
","
","""event"",""trial"",""time""
""fullscreenenter"",""5"",""14924""
","
","","images/earth.jpg","","","","","","","","","","","","","","fixation","","","","","",""
"d3-animate-choice","210","733350","0.0-76.0-0.25","1688","4984","21","Female","false","true","false","true","""event"",""trial"",""time""
""fullscreenenter"",""5"",""14924""
","
","
","""event"",""trial"",""time""
""fullscreenenter"",""5"",""14924""
","
","354.30000019073486","","49","","","3000","1","","","images/earth.jpg","images/rocket1","images/rocket2","null","images/rocket2","","1","real","null","1","","",""
"d3-animate-choice","211","735774","0.0-76.0-1.25","1688","4984","21","Female","false","true","false","true","""event"",""trial"",""time""
""fullscreenenter"",""5"",""14924""
","
","
","""event"",""trial"",""time""
""fullscreenenter"",""5"",""14924""
","
","414.09999990463257","","48","","","3000","1","","","images/purpleplanet.jpg","images/alien4","images/alien3","images/rocket2","images/alien4","images/t.png","2","real","true","2","common","1","2022-12-05 15:10:55.335"
"two-step-fixation","212","736776","0.0-76.0-2.25","1688","4984","21","Female","false","true","false","true","""event"",""trial"",""time""
""fullscreenenter"",""5"",""14924""
","
","
","""event"",""trial"",""time""
""fullscreenenter"",""5"",""14924""
","
","","images/earth.jpg","","","","","","","","","","","","","","fixation","","","","","",""
"d3-animate-choice","213","739238","0.0-76.0-0.26","1688","4984","21","Female","false","true","false","true","""event"",""trial"",""time""
""fullscreenenter"",""5"",""14924""
","
","
","""event"",""trial"",""time""
""fullscreenenter"",""5"",""14924""
","
","454.7000000476837","","49","","","3000","1","","","images/earth.jpg","images/rocket1","images/rocket2","null","images/rocket2","","1","real","null","1","","",""
"d3-animate-choice","214","742006","0.0-76.0-1.26","1688","4984","21","Female","false","true","false","true","""event"",""trial"",""time""
""fullscreenenter"",""5"",""14924""
","
","
","""event"",""trial"",""time""
""fullscreenenter"",""5"",""14924""
","
","764.2000000476837","","48","","","3000","1","","","images/redplanet1.jpg","images/alien2","images/alien1","images/rocket2","images/alien2","images/nothing.png","2","real","false","2","rare","0","2022-12-05 15:11:01.567"
"two-step-fixation","215","743009","0.0-76.0-2.26","1688","4984","21","Female","false","true","false","true","""event"",""trial"",""time""
""fullscreenenter"",""5"",""14924""
","
","
","""event"",""trial"",""time""
""fullscreenenter"",""5"",""14924""
","
","","images/earth.jpg","","","","","","","","","","","","","","fixation","","","","","",""
"d3-animate-choice","216","745534","0.0-76.0-0.27","1688","4984","21","Female","false","true","false","true","""event"",""trial"",""time""
""fullscreenenter"",""5"",""14924""
","
","
","""event"",""trial"",""time""
""fullscreenenter"",""5"",""14924""
","
","516","","49","","","3000","1","","","images/earth.jpg","images/rocket1","images/rocket2","null","images/rocket2","","1","real","null","1","","",""
"d3-animate-choice","217","748077","0.0-76.0-1.27","1688","4984","21","Female","false","true","false","true","""event"",""trial"",""time""
""fullscreenenter"",""5"",""14924""
","
","
","""event"",""trial"",""time""
""fullscreenenter"",""5"",""14924""
","
","534","","49","","","3000","1","","","images/redplanet1.jpg","images/alien2","images/alien1","images/rocket2","images/alien1","images/t.png","2","real","false","1","rare","1","2022-12-05 15:11:07.639"
"two-step-fixation","218","749086","0.0-76.0-2.27","1688","4984","21","Female","false","true","false","true","""event"",""trial"",""time""
""fullscreenenter"",""5"",""14924""
","
","
","""event"",""trial"",""time""
""fullscreenenter"",""5"",""14924""
","
","","images/earth.jpg","","","","","","","","","","","","","","fixation","","","","","",""
"d3-animate-choice","219","751509","0.0-76.0-0.28","1688","4984","21","Female","false","true","false","true","""event"",""trial"",""time""
""fullscreenenter"",""5"",""14924""
","
","
","""event"",""trial"",""time""
""fullscreenenter"",""5"",""14924""
","
","414.7999999523163","","49","","","3000","1","","","images/earth.jpg","images/rocket1","images/rocket2","null","images/rocket2","","1","real","null","1","","",""
"d3-animate-choice","220","755021","0.0-76.0-1.28","1688","4984","21","Female","false","true","false","true","""event"",""trial"",""time""
""fullscreenenter"",""5"",""14924""
","
","
","""event"",""trial"",""time""
""fullscreenenter"",""5"",""14924""
","
","1504.8999998569489","","48","","","3000","1","","","images/purpleplanet.jpg","images/alien4","images/alien3","images/rocket2","images/alien4","images/t.png","2","real","true","2","common","1","2022-12-05 15:11:14.583"
"two-step-fixation","221","756030","0.0-76.0-2.28","1688","4984","21","Female","false","true","false","true","""event"",""trial"",""time""
""fullscreenenter"",""5"",""14924""
","
","
","""event"",""trial"",""time""
""fullscreenenter"",""5"",""14924""
","
","","images/earth.jpg","","","","","","","","","","","","","","fixation","","","","","",""
"d3-animate-choice","222","758318","0.0-76.0-0.29","1688","4984","21","Female","false","true","false","true","""event"",""trial"",""time""
""fullscreenenter"",""5"",""14924""
","
","
","""event"",""trial"",""time""
""fullscreenenter"",""5"",""14924""
","
","279","","49","","","3000","1","","","images/earth.jpg","images/rocket1","images/rocket2","null","images/rocket2","","1","real","null","1","","",""
"d3-animate-choice","223","760844","0.0-76.0-1.29","1688","4984","21","Female","false","true","false","true","""event"",""trial"",""time""
""fullscreenenter"",""5"",""14924""
","
","
","""event"",""trial"",""time""
""fullscreenenter"",""5"",""14924""
","
","517.5","","48","","","3000","1","","","images/purpleplanet.jpg","images/alien4","images/alien3","images/rocket2","images/alien4","images/t.png","2","real","true","2","common","1","2022-12-05 15:11:20.405"
"two-step-fixation","224","761855","0.0-76.0-2.29","1688","4984","21","Female","false","true","false","true","""event"",""trial"",""time""
""fullscreenenter"",""5"",""14924""
","
","
","""event"",""trial"",""time""
""fullscreenenter"",""5"",""14924""
","
","","images/earth.jpg","","","","","","","","","","","","","","fixation","","","","","",""
"d3-animate-choice","225","764237","0.0-76.0-0.30","1688","4984","21","Female","false","true","false","true","""event"",""trial"",""time""
""fullscreenenter"",""5"",""14924""
","
","
","""event"",""trial"",""time""
""fullscreenenter"",""5"",""14924""
","
","376.2000000476837","","49","","","3000","1","","","images/earth.jpg","images/rocket1","images/rocket2","null","images/rocket2","","1","real","null","1","","",""
"d3-animate-choice","226","766750","0.0-76.0-1.30","1688","4984","21","Female","false","true","false","true","""event"",""trial"",""time""
""fullscreenenter"",""5"",""14924""
","
","
","""event"",""trial"",""time""
""fullscreenenter"",""5"",""14924""
","
","507","","48","","","3000","1","","","images/purpleplanet.jpg","images/alien4","images/alien3","images/rocket2","images/alien4","images/nothing.png","2","real","true","2","common","0","2022-12-05 15:11:26.311"
"two-step-fixation","227","767758","0.0-76.0-2.30","1688","4984","21","Female","false","true","false","true","""event"",""trial"",""time""
""fullscreenenter"",""5"",""14924""
","
","
","""event"",""trial"",""time""
""fullscreenenter"",""5"",""14924""
","
","","images/earth.jpg","","","","","","","","","","","","","","fixation","","","","","",""
"d3-animate-choice","228","770455","0.0-76.0-0.31","1688","4984","21","Female","false","true","false","true","""event"",""trial"",""time""
""fullscreenenter"",""5"",""14924""
","
","
","""event"",""trial"",""time""
""fullscreenenter"",""5"",""14924""
","
","687.7999999523163","","48","","","3000","1","","","images/earth.jpg","images/rocket1","images/rocket2","null","images/rocket1","","1","real","null","2","","",""
"d3-animate-choice","229","772997","0.0-76.0-1.31","1688","4984","21","Female","false","true","false","true","""event"",""trial"",""time""
""fullscreenenter"",""5"",""14924""
","
","
","""event"",""trial"",""time""
""fullscreenenter"",""5"",""14924""
","
","535","","49","","","3000","1","","","images/redplanet1.jpg","images/alien2","images/alien1","images/rocket1","images/alien1","images/nothing.png","2","real","true","1","common","0","2022-12-05 15:11:32.558"
"two-step-fixation","230","774005","0.0-76.0-2.31","1688","4984","21","Female","false","true","false","true","""event"",""trial"",""time""
""fullscreenenter"",""5"",""14924""
","
","
","""event"",""trial"",""time""
""fullscreenenter"",""5"",""14924""
","
","","images/earth.jpg","","","","","","","","","","","","","","fixation","","","","","",""
"d3-animate-choice","231","776302","0.0-76.0-0.32","1688","4984","21","Female","false","true","false","true","""event"",""trial"",""time""
""fullscreenenter"",""5"",""14924""
","
","
","""event"",""trial"",""time""
""fullscreenenter"",""5"",""14924""
","
","292.59999990463257","","48","","","3000","1","","","images/earth.jpg","images/rocket1","images/rocket2","null","images/rocket1","","1","real","null","2","","",""
"d3-animate-choice","232","778934","0.0-76.0-1.32","1688","4984","21","Female","false","true","false","true","""event"",""trial"",""time""
""fullscreenenter"",""5"",""14924""
","
","
","""event"",""trial"",""time""
""fullscreenenter"",""5"",""14924""
","
","625.7000000476837","","48","","","3000","1","","","images/redplanet1.jpg","images/alien2","images/alien1","images/rocket1","images/alien2","images/nothing.png","2","real","true","2","common","0","2022-12-05 15:11:38.495"
"two-step-fixation","233","779942","0.0-76.0-2.32","1688","4984","21","Female","false","true","false","true","""event"",""trial"",""time""
""fullscreenenter"",""5"",""14924""
","
","
","""event"",""trial"",""time""
""fullscreenenter"",""5"",""14924""
","
","","images/earth.jpg","","","","","","","","","","","","","","fixation","","","","","",""
"d3-animate-choice","234","782269","0.0-76.0-0.33","1688","4984","21","Female","false","true","false","true","""event"",""trial"",""time""
""fullscreenenter"",""5"",""14924""
","
","
","""event"",""trial"",""time""
""fullscreenenter"",""5"",""14924""
","
","319.60000014305115","","49","","","3000","1","","","images/earth.jpg","images/rocket1","images/rocket2","null","images/rocket2","","1","real","null","1","","",""
"d3-animate-choice","235","785989","0.0-76.0-1.33","1688","4984","21","Female","false","true","false","true","""event"",""trial"",""time""
""fullscreenenter"",""5"",""14924""
","
","
","""event"",""trial"",""time""
""fullscreenenter"",""5"",""14924""
","
","1714.3000001907349","","49","","","3000","1","","","images/redplanet1.jpg","images/alien2","images/alien1","images/rocket2","images/alien1","images/t.png","2","real","false","1","rare","1","2022-12-05 15:11:45.550"
"two-step-fixation","236","786999","0.0-76.0-2.33","1688","4984","21","Female","false","true","false","true","""event"",""trial"",""time""
""fullscreenenter"",""5"",""14924""
","
","
","""event"",""trial"",""time""
""fullscreenenter"",""5"",""14924""
","
","","images/earth.jpg","","","","","","","","","","","","","","fixation","","","","","",""
"d3-animate-choice","237","789351","0.0-76.0-0.34","1688","4984","21","Female","false","true","false","true","""event"",""trial"",""time""
""fullscreenenter"",""5"",""14924""
","
","
","""event"",""trial"",""time""
""fullscreenenter"",""5"",""14924""
","
","347","","49","","","3000","1","","","images/earth.jpg","images/rocket1","images/rocket2","null","images/rocket2","","1","real","null","1","","",""
"d3-animate-choice","238","792191","0.0-76.0-1.34","1688","4984","21","Female","false","true","false","true","""event"",""trial"",""time""
""fullscreenenter"",""5"",""14924""
","
","
","""event"",""trial"",""time""
""fullscreenenter"",""5"",""14924""
","
","834.9000000953674","","48","","","3000","1","","","images/purpleplanet.jpg","images/alien4","images/alien3","images/rocket2","images/alien4","images/nothing.png","2","real","true","2","common","0","2022-12-05 15:11:51.752"
"two-step-fixation","239","793195","0.0-76.0-2.34","1688","4984","21","Female","false","true","false","true","""event"",""trial"",""time""
""fullscreenenter"",""5"",""14924""
","
","
","""event"",""trial"",""time""
""fullscreenenter"",""5"",""14924""
","
","","images/earth.jpg","","","","","","","","","","","","","","fixation","","","","","",""
"d3-animate-choice","240","796341","0.0-76.0-0.35","1688","4984","21","Female","false","true","false","true","""event"",""trial"",""time""
""fullscreenenter"",""5"",""14924""
","
","
","""event"",""trial"",""time""
""fullscreenenter"",""5"",""14924""
","
","1140.5","","49","","","3000","1","","","images/earth.jpg","images/rocket1","images/rocket2","null","images/rocket2","","1","real","null","1","","",""
"d3-animate-choice","241","799446","0.0-76.0-1.35","1688","4984","21","Female","false","true","false","true","""event"",""trial"",""time""
""fullscreenenter"",""5"",""14924""
","
","
","""event"",""trial"",""time""
""fullscreenenter"",""5"",""14924""
","
","1099.0999999046326","","49","","","3000","1","","","images/redplanet1.jpg","images/alien2","images/alien1","images/rocket2","images/alien1","images/t.png","2","real","false","1","rare","1","2022-12-05 15:11:59.007"
"two-step-fixation","242","800454","0.0-76.0-2.35","1688","4984","21","Female","false","true","false","true","""event"",""trial"",""time""
""fullscreenenter"",""5"",""14924""
","
","
","""event"",""trial"",""time""
""fullscreenenter"",""5"",""14924""
","
","","images/earth.jpg","","","","","","","","","","","","","","fixation","","","","","",""
"d3-animate-choice","243","802991","0.0-76.0-0.36","1688","4984","21","Female","false","true","false","true","""event"",""trial"",""time""
""fullscreenenter"",""5"",""14924""
","
","
","""event"",""trial"",""time""
""fullscreenenter"",""5"",""14924""
","
","524.9000000953674","","49","","","3000","1","","","images/earth.jpg","images/rocket1","images/rocket2","null","images/rocket2","","1","real","null","1","","",""
"d3-animate-choice","244","806222","0.0-76.0-1.36","1688","4984","21","Female","false","true","false","true","""event"",""trial"",""time""
""fullscreenenter"",""5"",""14924""
","
","
","""event"",""trial"",""time""
""fullscreenenter"",""5"",""14924""
","
","1222","","49","","","3000","1","","","images/purpleplanet.jpg","images/alien4","images/alien3","images/rocket2","images/alien3","images/nothing.png","2","real","true","1","common","0","2022-12-05 15:12:05.784"
"two-step-fixation","245","807229","0.0-76.0-2.36","1688","4984","21","Female","false","true","false","true","""event"",""trial"",""time""
""fullscreenenter"",""5"",""14924""
","
","
","""event"",""trial"",""time""
""fullscreenenter"",""5"",""14924""
","
