"trial_type","trial_index","time_elapsed","internal_node_id","participant_id","subject_id","age","gender","rocket_sides","red_planet_first_rocket","red_display_order","purple_display_order","interactions","blur_events","focus_events","fullscreenenter_events","fullscreenexit_events","rt","stimulus","key_press","button_pressed","success","duration","valid_pressed","rts","keys","planet_text","right_text","left_text","center_text","chosen_text","reward_text","trial_stage","practice_trial","transition_type","choice","transition","reward","timestamp"
"pavlovia","0","3","0.0-0.0","626","692","10","Male","true","true","true","true","
","
","
","
","
","","","","","","","","","","","","","","","","","","","","","",""
"html-keyboard-response","1","4057","0.0-1.0","626","692","10","Male","true","true","true","true","
","
","
","
","
","4052.300000011921","Welcome! Press the space bar to begin.","32","","","","","","","","","","","","","","","","","","",""
"audio-keyboard-response","2","7374","0.0-2.0","626","692","10","Male","true","true","true","true","
","
","
","
","
","3320","audio/beep_loop.wav","32","","","","","","","","","","","","","","","","","","",""
"audio-button-response","3","11395","0.0-3.0","626","692","10","Male","true","true","true","true","
","
","
","
","
","NaN","audio/fish.mp3","","1","","","","","","","","","","","","","","","","","",""
"audio-button-response","4","15891","0.0-4.0","626","692","10","Male","true","true","true","true","""event"",""trial"",""time""
""fullscreenenter"",""5"",""20253""
","
","
","""event"",""trial"",""time""
""fullscreenenter"",""5"",""20253""
","
","NaN","audio/tiger.mp3","","4","","","","","","","","","","","","","","","","","",""
"fullscreen","5","21255","0.0-5.0","626","692","10","Male","true","true","true","true","""event"",""trial"",""time""
""fullscreenenter"",""5"",""20253""
","
","
","""event"",""trial"",""time""
""fullscreenenter"",""5"",""20253""
","
","","","","","true","","","","","","","","","","","","","","","","",""
"d3-instructions","6","23292","0.0-6.0","626","692","10","Male","true","true","true","true","""event"",""trial"",""time""
""fullscreenenter"",""5"",""20253""
","
","
","""event"",""trial"",""time""
""fullscreenenter"",""5"",""20253""
","
","","","","","","","","","","","","","","","","","","","","","",""
"d3-instructions","7","28955","0.0-7.0","626","692","10","Male","true","true","true","true","""event"",""trial"",""time""
""fullscreenenter"",""5"",""20253""
","
","
","""event"",""trial"",""time""
""fullscreenenter"",""5"",""20253""
","
","","","","","","","","","","","","","","","","","","","","","",""
"d3-instructions","8","33750","0.0-8.0","626","692","10","Male","true","true","true","true","""event"",""trial"",""time""
""fullscreenenter"",""5"",""20253""
""fullscreenexit"",""9"",""42115""
""blur"",""9"",""43111""
""focus"",""9"",""44371""
","""event"",""trial"",""time""
""blur"",""9"",""43111""
","""event"",""trial"",""time""
""focus"",""9"",""44371""
","""event"",""trial"",""time""
""fullscreenenter"",""5"",""20253""
","""event"",""trial"",""time""
""fullscreenexit"",""9"",""42115""
","","","","","","","","","","","","","","","","","","","","","",""
"d3-instructions","9","45742","0.0-9.0","626","692","10","Male","true","true","true","true","""event"",""trial"",""time""
""fullscreenenter"",""5"",""20253""
""fullscreenexit"",""9"",""42115""
""blur"",""9"",""43111""
""focus"",""9"",""44371""
","""event"",""trial"",""time""
""blur"",""9"",""43111""
","""event"",""trial"",""time""
""focus"",""9"",""44371""
","""event"",""trial"",""time""
""fullscreenenter"",""5"",""20253""
","""event"",""trial"",""time""
""fullscreenexit"",""9"",""42115""
","","","","","","","","","","","","","","","","","","","","","",""
"d3-instructions","10","51418","0.0-10.0","626","692","10","Male","true","true","true","true","""event"",""trial"",""time""
""fullscreenenter"",""5"",""20253""
""fullscreenexit"",""9"",""42115""
""blur"",""9"",""43111""
""focus"",""9"",""44371""
","""event"",""trial"",""time""
""blur"",""9"",""43111""
","""event"",""trial"",""time""
""focus"",""9"",""44371""
","""event"",""trial"",""time""
""fullscreenenter"",""5"",""20253""
","""event"",""trial"",""time""
""fullscreenexit"",""9"",""42115""
","","","","","","","","","","","","","","","","","","","","","",""
"d3-animate-choice","11","57790","0.0-11.0","626","692","10","Male","true","true","true","true","""event"",""trial"",""time""
""fullscreenenter"",""5"",""20253""
""fullscreenexit"",""9"",""42115""
""blur"",""9"",""43111""
""focus"",""9"",""44371""
","""event"",""trial"",""time""
""blur"",""9"",""43111""
","""event"",""trial"",""time""
""focus"",""9"",""44371""
","""event"",""trial"",""time""
""fullscreenenter"",""5"",""20253""
","""event"",""trial"",""time""
""fullscreenexit"",""9"",""42115""
","4353.600000023842","","49","","","3000","1","4825.400000035763","50","images/tutgreenplanet.jpg","images/tutalien1","images/tutalien2","null","images/tutalien2","","NA","practice","null","","","",""
"d3-animate-choice","12","60401","0.0-12.0","626","692","10","Male","true","true","true","true","""event"",""trial"",""time""
""fullscreenenter"",""5"",""20253""
""fullscreenexit"",""9"",""42115""
""blur"",""9"",""43111""
""focus"",""9"",""44371""
","""event"",""trial"",""time""
""blur"",""9"",""43111""
","""event"",""trial"",""time""
""focus"",""9"",""44371""
","""event"",""trial"",""time""
""fullscreenenter"",""5"",""20253""
","""event"",""trial"",""time""
""fullscreenexit"",""9"",""42115""
","596.1000000238419","","49","","","3000","1","","","images/tutgreenplanet.jpg","images/tutalien1","images/tutalien2","null","images/tutalien2","","NA","practice","null","","","",""
"d3-animate-choice","13","63805","0.0-13.0","626","692","10","Male","true","true","true","true","""event"",""trial"",""time""
""fullscreenenter"",""5"",""20253""
""fullscreenexit"",""9"",""42115""
""blur"",""9"",""43111""
""focus"",""9"",""44371""
","""event"",""trial"",""time""
""blur"",""9"",""43111""
","""event"",""trial"",""time""
""focus"",""9"",""44371""
","""event"",""trial"",""time""
""fullscreenenter"",""5"",""20253""
","""event"",""trial"",""time""
""fullscreenexit"",""9"",""42115""
","297.5","","50","","","3000","1","767.1999999880791,1397.2999999523163,1583.5","50,49,50","images/tutgreenplanet.jpg","images/tutalien1","images/tutalien2","null","images/tutalien2","","NA","practice","null","","","",""
"d3-animate-choice","14","67485","0.0-14.0","626","692","10","Male","true","true","true","true","""event"",""trial"",""time""
""fullscreenenter"",""5"",""20253""
""fullscreenexit"",""9"",""42115""
""blur"",""9"",""43111""
""focus"",""9"",""44371""
","""event"",""trial"",""time""
""blur"",""9"",""43111""
","""event"",""trial"",""time""
""focus"",""9"",""44371""
","""event"",""trial"",""time""
""fullscreenenter"",""5"",""20253""
","""event"",""trial"",""time""
""fullscreenexit"",""9"",""42115""
","503.69999998807907","","50","","","3000","1","934.8999999761581,1193.8999999761581,1466.5999999642372,1673.7999999523163","50,50,50,49","images/tutgreenplanet.jpg","images/tutalien1","images/tutalien2","null","images/tutalien2","","NA","practice","null","","","",""
"d3-instructions","15","70774","0.0-15.0","626","692","10","Male","true","true","true","true","""event"",""trial"",""time""
""fullscreenenter"",""5"",""20253""
""fullscreenexit"",""9"",""42115""
""blur"",""9"",""43111""
""focus"",""9"",""44371""
","""event"",""trial"",""time""
""blur"",""9"",""43111""
","""event"",""trial"",""time""
""focus"",""9"",""44371""
","""event"",""trial"",""time""
""fullscreenenter"",""5"",""20253""
","""event"",""trial"",""time""
""fullscreenexit"",""9"",""42115""
","","","","","","","","","","","","","","","","","","","","","",""
"d3-instructions","16","75338","0.0-16.0","626","692","10","Male","true","true","true","true","""event"",""trial"",""time""
""fullscreenenter"",""5"",""20253""
""fullscreenexit"",""9"",""42115""
""blur"",""9"",""43111""
""focus"",""9"",""44371""
","""event"",""trial"",""time""
""blur"",""9"",""43111""
","""event"",""trial"",""time""
""focus"",""9"",""44371""
","""event"",""trial"",""time""
""fullscreenenter"",""5"",""20253""
","""event"",""trial"",""time""
""fullscreenexit"",""9"",""42115""
","","","","","","","","","","","","","","","","","","","","","",""
"d3-instructions","17","79678","0.0-17.0","626","692","10","Male","true","true","true","true","""event"",""trial"",""time""
""fullscreenenter"",""5"",""20253""
""fullscreenexit"",""9"",""42115""
""blur"",""9"",""43111""
""focus"",""9"",""44371""
","""event"",""trial"",""time""
""blur"",""9"",""43111""
","""event"",""trial"",""time""
""focus"",""9"",""44371""
","""event"",""trial"",""time""
""fullscreenenter"",""5"",""20253""
","""event"",""trial"",""time""
""fullscreenexit"",""9"",""42115""
","","","","","","","","","","","","","","","","","","","","","",""
"d3-instructions","18","85397","0.0-18.0","626","692","10","Male","true","true","true","true","""event"",""trial"",""time""
""fullscreenenter"",""5"",""20253""
""fullscreenexit"",""9"",""42115""
""blur"",""9"",""43111""
""focus"",""9"",""44371""
","""event"",""trial"",""time""
""blur"",""9"",""43111""
","""event"",""trial"",""time""
""focus"",""9"",""44371""
","""event"",""trial"",""time""
""fullscreenenter"",""5"",""20253""
","""event"",""trial"",""time""
""fullscreenexit"",""9"",""42115""
","","","","","","","","","","","","","","","","","","","","","",""
"d3-instructions","19","91850","0.0-19.0","626","692","10","Male","true","true","true","true","""event"",""trial"",""time""
""fullscreenenter"",""5"",""20253""
""fullscreenexit"",""9"",""42115""
""blur"",""9"",""43111""
""focus"",""9"",""44371""
","""event"",""trial"",""time""
""blur"",""9"",""43111""
","""event"",""trial"",""time""
""focus"",""9"",""44371""
","""event"",""trial"",""time""
""fullscreenenter"",""5"",""20253""
","""event"",""trial"",""time""
""fullscreenexit"",""9"",""42115""
","","","","","","","","","","","","","","","","","","","","","",""
"d3-animate-choice","20","94347","0.0-20.0","626","692","10","Male","true","true","true","true","""event"",""trial"",""time""
""fullscreenenter"",""5"",""20253""
""fullscreenexit"",""9"",""42115""
""blur"",""9"",""43111""
""focus"",""9"",""44371""
","""event"",""trial"",""time""
""blur"",""9"",""43111""
","""event"",""trial"",""time""
""focus"",""9"",""44371""
","""event"",""trial"",""time""
""fullscreenenter"",""5"",""20253""
","""event"",""trial"",""time""
""fullscreenexit"",""9"",""42115""
","484.30000001192093","","49","","","3000","1","1704.300000011921,1911.300000011921,2071.300000011921,2246.800000011921,2416.100000023842","49,49,49,49,49","images/tutyellowplanet.jpg","null","images/tutalien3","null","images/tutalien3","images/t.png","NA","practice","null","","","",""
"d3-animate-choice","21","96477","0.0-21.0","626","692","10","Male","true","true","true","true","""event"",""trial"",""time""
""fullscreenenter"",""5"",""20253""
""fullscreenexit"",""9"",""42115""
""blur"",""9"",""43111""
""focus"",""9"",""44371""
","""event"",""trial"",""time""
""blur"",""9"",""43111""
","""event"",""trial"",""time""
""focus"",""9"",""44371""
","""event"",""trial"",""time""
""fullscreenenter"",""5"",""20253""
","""event"",""trial"",""time""
""fullscreenexit"",""9"",""42115""
","112.40000003576279","","49","","","3000","1","226.30000001192093,446.80000001192093,1562.9000000357628,1887.2000000476837","49,49,49,49","images/tutyellowplanet.jpg","null","images/tutalien3","null","images/tutalien3","images/t.png","NA","practice","null","","","",""
"d3-animate-choice","22","98612","0.0-22.0","626","692","10","Male","true","true","true","true","""event"",""trial"",""time""
""fullscreenenter"",""5"",""20253""
""fullscreenexit"",""9"",""42115""
""blur"",""9"",""43111""
""focus"",""9"",""44371""
","""event"",""trial"",""time""
""blur"",""9"",""43111""
","""event"",""trial"",""time""
""focus"",""9"",""44371""
","""event"",""trial"",""time""
""fullscreenenter"",""5"",""20253""
","""event"",""trial"",""time""
""fullscreenexit"",""9"",""42115""
","124.80000001192093","","49","","","3000","1","1666.1000000238419,1973.699999988079","49,49","images/tutyellowplanet.jpg","null","images/tutalien3","null","images/tutalien3","images/t.png","NA","practice","null","","","",""
"d3-animate-choice","23","100774","0.0-23.0","626","692","10","Male","true","true","true","true","""event"",""trial"",""time""
""fullscreenenter"",""5"",""20253""
""fullscreenexit"",""9"",""42115""
""blur"",""9"",""43111""
""focus"",""9"",""44371""
","""event"",""trial"",""time""
""blur"",""9"",""43111""
","""event"",""trial"",""time""
""focus"",""9"",""44371""
","""event"",""trial"",""time""
""fullscreenenter"",""5"",""20253""
","""event"",""trial"",""time""
""fullscreenexit"",""9"",""42115""
","150.5","","49","","","3000","1","","","images/tutyellowplanet.jpg","null","images/tutalien3","null","images/tutalien3","images/t.png","NA","practice","null","","","",""
"d3-animate-choice","24","103010","0.0-24.0","626","692","10","Male","true","true","true","true","""event"",""trial"",""time""
""fullscreenenter"",""5"",""20253""
""fullscreenexit"",""9"",""42115""
""blur"",""9"",""43111""
""focus"",""9"",""44371""
","""event"",""trial"",""time""
""blur"",""9"",""43111""
","""event"",""trial"",""time""
""focus"",""9"",""44371""
","""event"",""trial"",""time""
""fullscreenenter"",""5"",""20253""
","""event"",""trial"",""time""
""fullscreenexit"",""9"",""42115""
","232.69999998807907","","49","","","3000","1","","","images/tutyellowplanet.jpg","null","images/tutalien3","null","images/tutalien3","images/t.png","NA","practice","null","","","",""
"d3-animate-choice","25","105260","0.0-25.0","626","692","10","Male","true","true","true","true","""event"",""trial"",""time""
""fullscreenenter"",""5"",""20253""
""fullscreenexit"",""9"",""42115""
""blur"",""9"",""43111""
""focus"",""9"",""44371""
","""event"",""trial"",""time""
""blur"",""9"",""43111""
","""event"",""trial"",""time""
""focus"",""9"",""44371""
","""event"",""trial"",""time""
""fullscreenenter"",""5"",""20253""
","""event"",""trial"",""time""
""fullscreenexit"",""9"",""42115""
","231.5","","49","","","3000","1","","","images/tutyellowplanet.jpg","null","images/tutalien3","null","images/tutalien3","images/nothing.png","NA","practice","null","","","",""
"d3-animate-choice","26","107528","0.0-26.0","626","692","10","Male","true","true","true","true","""event"",""trial"",""time""
""fullscreenenter"",""5"",""20253""
""fullscreenexit"",""9"",""42115""
""blur"",""9"",""43111""
""focus"",""9"",""44371""
","""event"",""trial"",""time""
""blur"",""9"",""43111""
","""event"",""trial"",""time""
""focus"",""9"",""44371""
","""event"",""trial"",""time""
""fullscreenenter"",""5"",""20253""
","""event"",""trial"",""time""
""fullscreenexit"",""9"",""42115""
","256.2000000476837","","49","","","3000","1","","","images/tutyellowplanet.jpg","null","images/tutalien3","null","images/tutalien3","images/nothing.png","NA","practice","null","","","",""
"d3-animate-choice","27","109800","0.0-27.0","626","692","10","Male","true","true","true","true","""event"",""trial"",""time""
""fullscreenenter"",""5"",""20253""
""fullscreenexit"",""9"",""42115""
""blur"",""9"",""43111""
""focus"",""9"",""44371""
","""event"",""trial"",""time""
""blur"",""9"",""43111""
","""event"",""trial"",""time""
""focus"",""9"",""44371""
","""event"",""trial"",""time""
""fullscreenenter"",""5"",""20253""
","""event"",""trial"",""time""
""fullscreenexit"",""9"",""42115""
","257.19999998807907","","49","","","3000","1","","","images/tutyellowplanet.jpg","null","images/tutalien3","null","images/tutalien3","images/t.png","NA","practice","null","","","",""
"d3-animate-choice","28","112177","0.0-28.0","626","692","10","Male","true","true","true","true","""event"",""trial"",""time""
""fullscreenenter"",""5"",""20253""
""fullscreenexit"",""9"",""42115""
""blur"",""9"",""43111""
""focus"",""9"",""44371""
","""event"",""trial"",""time""
""blur"",""9"",""43111""
","""event"",""trial"",""time""
""focus"",""9"",""44371""
","""event"",""trial"",""time""
""fullscreenenter"",""5"",""20253""
","""event"",""trial"",""time""
""fullscreenexit"",""9"",""42115""
","364.2999999523163","","49","","","3000","1","","","images/tutyellowplanet.jpg","null","images/tutalien3","null","images/tutalien3","images/t.png","NA","practice","null","","","",""
"d3-animate-choice","29","115155","0.0-29.0","626","692","10","Male","true","true","true","true","""event"",""trial"",""time""
""fullscreenenter"",""5"",""20253""
""fullscreenexit"",""9"",""42115""
""blur"",""9"",""43111""
""focus"",""9"",""44371""
","""event"",""trial"",""time""
""blur"",""9"",""43111""
","""event"",""trial"",""time""
""focus"",""9"",""44371""
","""event"",""trial"",""time""
""fullscreenenter"",""5"",""20253""
","""event"",""trial"",""time""
""fullscreenexit"",""9"",""42115""
","973","","49","","","3000","1","","","images/tutyellowplanet.jpg","null","images/tutalien3","null","images/tutalien3","images/nothing.png","NA","practice","null","","","",""
"d3-instructions","30","119612","0.0-30.0","626","692","10","Male","true","true","true","true","""event"",""trial"",""time""
""fullscreenenter"",""5"",""20253""
""fullscreenexit"",""9"",""42115""
""blur"",""9"",""43111""
""focus"",""9"",""44371""
","""event"",""trial"",""time""
""blur"",""9"",""43111""
","""event"",""trial"",""time""
""focus"",""9"",""44371""
","""event"",""trial"",""time""
""fullscreenenter"",""5"",""20253""
","""event"",""trial"",""time""
""fullscreenexit"",""9"",""42115""
","","","","","","","","","","","","","","","","","","","","","",""
"d3-instructions","31","128446","0.0-31.0","626","692","10","Male","true","true","true","true","""event"",""trial"",""time""
""fullscreenenter"",""5"",""20253""
""fullscreenexit"",""9"",""42115""
""blur"",""9"",""43111""
""focus"",""9"",""44371""
","""event"",""trial"",""time""
""blur"",""9"",""43111""
","""event"",""trial"",""time""
""focus"",""9"",""44371""
","""event"",""trial"",""time""
""fullscreenenter"",""5"",""20253""
","""event"",""trial"",""time""
""fullscreenexit"",""9"",""42115""
","","","","","","","","","","","","","","","","","","","","","",""
"d3-instructions","32","132331","0.0-32.0","626","692","10","Male","true","true","true","true","""event"",""trial"",""time""
""fullscreenenter"",""5"",""20253""
""fullscreenexit"",""9"",""42115""
""blur"",""9"",""43111""
""focus"",""9"",""44371""
","""event"",""trial"",""time""
""blur"",""9"",""43111""
","""event"",""trial"",""time""
""focus"",""9"",""44371""
","""event"",""trial"",""time""
""fullscreenenter"",""5"",""20253""
","""event"",""trial"",""time""
""fullscreenexit"",""9"",""42115""
","","","","","","","","","","","","","","","","","","","","","",""
"d3-instructions","33","133876","0.0-33.0","626","692","10","Male","true","true","true","true","""event"",""trial"",""time""
""fullscreenenter"",""5"",""20253""
""fullscreenexit"",""9"",""42115""
""blur"",""9"",""43111""
""focus"",""9"",""44371""
","""event"",""trial"",""time""
""blur"",""9"",""43111""
","""event"",""trial"",""time""
""focus"",""9"",""44371""
","""event"",""trial"",""time""
""fullscreenenter"",""5"",""20253""
","""event"",""trial"",""time""
""fullscreenexit"",""9"",""42115""
","","","","","","","","","","","","","","","","","","","","","",""
"d3-animate-choice","34","136883","0.0-34.0","626","692","10","Male","true","true","true","true","""event"",""trial"",""time""
""fullscreenenter"",""5"",""20253""
""fullscreenexit"",""9"",""42115""
""blur"",""9"",""43111""
""focus"",""9"",""44371""
","""event"",""trial"",""time""
""blur"",""9"",""43111""
","""event"",""trial"",""time""
""focus"",""9"",""44371""
","""event"",""trial"",""time""
""fullscreenenter"",""5"",""20253""
","""event"",""trial"",""time""
""fullscreenexit"",""9"",""42115""
","1001.6000000238419","","48","","","3000","1","","","images/tutgreenplanet.jpg","images/tutalien1","images/tutalien2","null","images/tutalien1","images/nothing.png","NA","practice","null","","","",""
"d3-animate-choice","35","139096","0.0-35.0","626","692","10","Male","true","true","true","true","""event"",""trial"",""time""
""fullscreenenter"",""5"",""20253""
""fullscreenexit"",""9"",""42115""
""blur"",""9"",""43111""
""focus"",""9"",""44371""
","""event"",""trial"",""time""
""blur"",""9"",""43111""
","""event"",""trial"",""time""
""focus"",""9"",""44371""
","""event"",""trial"",""time""
""fullscreenenter"",""5"",""20253""
","""event"",""trial"",""time""
""fullscreenexit"",""9"",""42115""
","194.60000002384186","","49","","","3000","1","","","images/tutgreenplanet.jpg","images/tutalien1","images/tutalien2","null","images/tutalien2","images/t.png","NA","practice","null","","","",""
"d3-animate-choice","36","141371","0.0-36.0","626","692","10","Male","true","true","true","true","""event"",""trial"",""time""
""fullscreenenter"",""5"",""20253""
""fullscreenexit"",""9"",""42115""
""blur"",""9"",""43111""
""focus"",""9"",""44371""
","""event"",""trial"",""time""
""blur"",""9"",""43111""
","""event"",""trial"",""time""
""focus"",""9"",""44371""
","""event"",""trial"",""time""
""fullscreenenter"",""5"",""20253""
","""event"",""trial"",""time""
""fullscreenexit"",""9"",""42115""
","257","","48","","","3000","1","1727.8999999761581,2106.399999976158","49,49","images/tutgreenplanet.jpg","images/tutalien1","images/tutalien2","null","images/tutalien1","images/nothing.png","NA","practice","null","","","",""
"d3-animate-choice","37","143577","0.0-37.0","626","692","10","Male","true","true","true","true","""event"",""trial"",""time""
""fullscreenenter"",""5"",""20253""
""fullscreenexit"",""9"",""42115""
""blur"",""9"",""43111""
""focus"",""9"",""44371""
","""event"",""trial"",""time""
""blur"",""9"",""43111""
","""event"",""trial"",""time""
""focus"",""9"",""44371""
","""event"",""trial"",""time""
""fullscreenenter"",""5"",""20253""
","""event"",""trial"",""time""
""fullscreenexit"",""9"",""42115""
","192.89999997615814","","49","","","3000","1","","","images/tutgreenplanet.jpg","images/tutalien1","images/tutalien2","null","images/tutalien2","images/t.png","NA","practice","null","","","",""
"d3-animate-choice","38","146006","0.0-38.0","626","692","10","Male","true","true","true","true","""event"",""trial"",""time""
""fullscreenenter"",""5"",""20253""
""fullscreenexit"",""9"",""42115""
""blur"",""9"",""43111""
""focus"",""9"",""44371""
","""event"",""trial"",""time""
""blur"",""9"",""43111""
","""event"",""trial"",""time""
""focus"",""9"",""44371""
","""event"",""trial"",""time""
""fullscreenenter"",""5"",""20253""
","""event"",""trial"",""time""
""fullscreenexit"",""9"",""42115""
","421.60000002384186","","48","","","3000","1","","","images/tutgreenplanet.jpg","images/tutalien1","images/tutalien2","null","images/tutalien1","images/nothing.png","NA","practice","null","","","",""
"d3-animate-choice","39","148420","0.0-39.0","626","692","10","Male","true","true","true","true","""event"",""trial"",""time""
""fullscreenenter"",""5"",""20253""
""fullscreenexit"",""9"",""42115""
""blur"",""9"",""43111""
""focus"",""9"",""44371""
","""event"",""trial"",""time""
""blur"",""9"",""43111""
","""event"",""trial"",""time""
""focus"",""9"",""44371""
","""event"",""trial"",""time""
""fullscreenenter"",""5"",""20253""
","""event"",""trial"",""time""
""fullscreenexit"",""9"",""42115""
","390.89999997615814","","49","","","3000","1","","","images/tutgreenplanet.jpg","images/tutalien1","images/tutalien2","null","images/tutalien2","images/t.png","NA","practice","null","","","",""
"d3-animate-choice","40","150747","0.0-40.0","626","692","10","Male","true","true","true","true","""event"",""trial"",""time""
""fullscreenenter"",""5"",""20253""
""fullscreenexit"",""9"",""42115""
""blur"",""9"",""43111""
""focus"",""9"",""44371""
","""event"",""trial"",""time""
""blur"",""9"",""43111""
","""event"",""trial"",""time""
""focus"",""9"",""44371""
","""event"",""trial"",""time""
""fullscreenenter"",""5"",""20253""
","""event"",""trial"",""time""
""fullscreenexit"",""9"",""42115""
","323","","48","","","3000","1","","","images/tutgreenplanet.jpg","images/tutalien1","images/tutalien2","null","images/tutalien1","images/nothing.png","NA","practice","null","","","",""
"d3-animate-choice","41","152896","0.0-41.0","626","692","10","Male","true","true","true","true","""event"",""trial"",""time""
""fullscreenenter"",""5"",""20253""
""fullscreenexit"",""9"",""42115""
""blur"",""9"",""43111""
""focus"",""9"",""44371""
","""event"",""trial"",""time""
""blur"",""9"",""43111""
","""event"",""trial"",""time""
""focus"",""9"",""44371""
","""event"",""trial"",""time""
""fullscreenenter"",""5"",""20253""
","""event"",""trial"",""time""
""fullscreenexit"",""9"",""42115""
","144.19999998807907","","49","","","3000","1","","","images/tutgreenplanet.jpg","images/tutalien1","images/tutalien2","null","images/tutalien2","images/t.png","NA","practice","null","","","",""
"d3-animate-choice","42","155583","0.0-42.0","626","692","10","Male","true","true","true","true","""event"",""trial"",""time""
""fullscreenenter"",""5"",""20253""
""fullscreenexit"",""9"",""42115""
""blur"",""9"",""43111""
""focus"",""9"",""44371""
","""event"",""trial"",""time""
""blur"",""9"",""43111""
","""event"",""trial"",""time""
""focus"",""9"",""44371""
","""event"",""trial"",""time""
""fullscreenenter"",""5"",""20253""
","""event"",""trial"",""time""
""fullscreenexit"",""9"",""42115""
","671.6000000238419","","48","","","3000","1","","","images/tutgreenplanet.jpg","images/tutalien1","images/tutalien2","null","images/tutalien1","images/nothing.png","NA","practice","null","","","",""
"d3-animate-choice","43","157815","0.0-43.0","626","692","10","Male","true","true","true","true","""event"",""trial"",""time""
""fullscreenenter"",""5"",""20253""
""fullscreenexit"",""9"",""42115""
""blur"",""9"",""43111""
""focus"",""9"",""44371""
","""event"",""trial"",""time""
""blur"",""9"",""43111""
","""event"",""trial"",""time""
""focus"",""9"",""44371""
","""event"",""trial"",""time""
""fullscreenenter"",""5"",""20253""
","""event"",""trial"",""time""
""fullscreenexit"",""9"",""42115""
","218.5999999642372","","49","","","3000","1","","","images/tutgreenplanet.jpg","images/tutalien1","images/tutalien2","null","images/tutalien2","images/t.png","NA","practice","null","","","",""
"d3-instructions","44","166626","0.0-44.0","626","692","10","Male","true","true","true","true","""event"",""trial"",""time""
""fullscreenenter"",""5"",""20253""
""fullscreenexit"",""9"",""42115""
""blur"",""9"",""43111""
""focus"",""9"",""44371""
","""event"",""trial"",""time""
""blur"",""9"",""43111""
","""event"",""trial"",""time""
""focus"",""9"",""44371""
","""event"",""trial"",""time""
""fullscreenenter"",""5"",""20253""
","""event"",""trial"",""time""
""fullscreenexit"",""9"",""42115""
","","","","","","","","","","","","","","","","","","","","","",""
"d3-instructions","45","169929","0.0-45.0","626","692","10","Male","true","true","true","true","""event"",""trial"",""time""
""fullscreenenter"",""5"",""20253""
""fullscreenexit"",""9"",""42115""
""blur"",""9"",""43111""
""focus"",""9"",""44371""
","""event"",""trial"",""time""
""blur"",""9"",""43111""
","""event"",""trial"",""time""
""focus"",""9"",""44371""
","""event"",""trial"",""time""
""fullscreenenter"",""5"",""20253""
","""event"",""trial"",""time""
""fullscreenexit"",""9"",""42115""
","","","","","","","","","","","","","","","","","","","","","",""
"d3-instructions","46","171823","0.0-46.0","626","692","10","Male","true","true","true","true","""event"",""trial"",""time""
""fullscreenenter"",""5"",""20253""
""fullscreenexit"",""9"",""42115""
""blur"",""9"",""43111""
""focus"",""9"",""44371""
","""event"",""trial"",""time""
""blur"",""9"",""43111""
","""event"",""trial"",""time""
""focus"",""9"",""44371""
","""event"",""trial"",""time""
""fullscreenenter"",""5"",""20253""
","""event"",""trial"",""time""
""fullscreenexit"",""9"",""42115""
","","","","","","","","","","","","","","","","","","","","","",""
"d3-instructions","47","183287","0.0-47.0","626","692","10","Male","true","true","true","true","""event"",""trial"",""time""
""fullscreenenter"",""5"",""20253""
""fullscreenexit"",""9"",""42115""
""blur"",""9"",""43111""
""focus"",""9"",""44371""
","""event"",""trial"",""time""
""blur"",""9"",""43111""
","""event"",""trial"",""time""
""focus"",""9"",""44371""
","""event"",""trial"",""time""
""fullscreenenter"",""5"",""20253""
","""event"",""trial"",""time""
""fullscreenexit"",""9"",""42115""
","","","","","","","","","","","","","","","","","","","","","",""
"d3-instructions","48","186084","0.0-48.0","626","692","10","Male","true","true","true","true","""event"",""trial"",""time""
""fullscreenenter"",""5"",""20253""
""fullscreenexit"",""9"",""42115""
""blur"",""9"",""43111""
""focus"",""9"",""44371""
","""event"",""trial"",""time""
""blur"",""9"",""43111""
","""event"",""trial"",""time""
""focus"",""9"",""44371""
","""event"",""trial"",""time""
""fullscreenenter"",""5"",""20253""
","""event"",""trial"",""time""
""fullscreenexit"",""9"",""42115""
","","","","","","","","","","","","","","","","","","","","","",""
"d3-instructions","49","186763","0.0-49.0","626","692","10","Male","true","true","true","true","""event"",""trial"",""time""
""fullscreenenter"",""5"",""20253""
""fullscreenexit"",""9"",""42115""
""blur"",""9"",""43111""
""focus"",""9"",""44371""
","""event"",""trial"",""time""
""blur"",""9"",""43111""
","""event"",""trial"",""time""
""focus"",""9"",""44371""
","""event"",""trial"",""time""
""fullscreenenter"",""5"",""20253""
","""event"",""trial"",""time""
""fullscreenexit"",""9"",""42115""
","","","","","","","","","","","","","","","","","","","","","",""
"d3-instructions","50","187554","0.0-50.0","626","692","10","Male","true","true","true","true","""event"",""trial"",""time""
""fullscreenenter"",""5"",""20253""
""fullscreenexit"",""9"",""42115""
""blur"",""9"",""43111""
""focus"",""9"",""44371""
","""event"",""trial"",""time""
""blur"",""9"",""43111""
","""event"",""trial"",""time""
""focus"",""9"",""44371""
","""event"",""trial"",""time""
""fullscreenenter"",""5"",""20253""
","""event"",""trial"",""time""
""fullscreenexit"",""9"",""42115""
","","","","","","","","","","","","","","","","","","","","","",""
"d3-instructions","51","189240","0.0-51.0","626","692","10","Male","true","true","true","true","""event"",""trial"",""time""
""fullscreenenter"",""5"",""20253""
""fullscreenexit"",""9"",""42115""
""blur"",""9"",""43111""
""focus"",""9"",""44371""
","""event"",""trial"",""time""
""blur"",""9"",""43111""
","""event"",""trial"",""time""
""focus"",""9"",""44371""
","""event"",""trial"",""time""
""fullscreenenter"",""5"",""20253""
","""event"",""trial"",""time""
""fullscreenexit"",""9"",""42115""
","","","","","","","","","","","","","","","","","","","","","",""
"d3-instructions","52","190502","0.0-52.0","626","692","10","Male","true","true","true","true","""event"",""trial"",""time""
""fullscreenenter"",""5"",""20253""
""fullscreenexit"",""9"",""42115""
""blur"",""9"",""43111""
""focus"",""9"",""44371""
","""event"",""trial"",""time""
""blur"",""9"",""43111""
","""event"",""trial"",""time""
""focus"",""9"",""44371""
","""event"",""trial"",""time""
""fullscreenenter"",""5"",""20253""
","""event"",""trial"",""time""
""fullscreenexit"",""9"",""42115""
","","","","","","","","","","","","","","","","","","","","","",""
"d3-instructions","53","206454","0.0-53.0","626","692","10","Male","true","true","true","true","""event"",""trial"",""time""
""fullscreenenter"",""5"",""20253""
""fullscreenexit"",""9"",""42115""
""blur"",""9"",""43111""
""focus"",""9"",""44371""
","""event"",""trial"",""time""
""blur"",""9"",""43111""
","""event"",""trial"",""time""
""focus"",""9"",""44371""
","""event"",""trial"",""time""
""fullscreenenter"",""5"",""20253""
","""event"",""trial"",""time""
""fullscreenexit"",""9"",""42115""
","","","","","","","","","","","","","","","","","","","","","",""
"d3-instructions","54","218126","0.0-54.0","626","692","10","Male","true","true","true","true","""event"",""trial"",""time""
""fullscreenenter"",""5"",""20253""
""fullscreenexit"",""9"",""42115""
""blur"",""9"",""43111""
""focus"",""9"",""44371""
","""event"",""trial"",""time""
""blur"",""9"",""43111""
","""event"",""trial"",""time""
""focus"",""9"",""44371""
","""event"",""trial"",""time""
""fullscreenenter"",""5"",""20253""
","""event"",""trial"",""time""
""fullscreenexit"",""9"",""42115""
","","","","","","","","","","","","","","","","","","","","","",""
"d3-instructions","55","229264","0.0-55.0","626","692","10","Male","true","true","true","true","""event"",""trial"",""time""
""fullscreenenter"",""5"",""20253""
""fullscreenexit"",""9"",""42115""
""blur"",""9"",""43111""
""focus"",""9"",""44371""
","""event"",""trial"",""time""
""blur"",""9"",""43111""
","""event"",""trial"",""time""
""focus"",""9"",""44371""
","""event"",""trial"",""time""
""fullscreenenter"",""5"",""20253""
","""event"",""trial"",""time""
""fullscreenexit"",""9"",""42115""
","","","","","","","","","","","","","","","","","","","","","",""
"d3-instructions","56","233429","0.0-56.0","626","692","10","Male","true","true","true","true","""event"",""trial"",""time""
""fullscreenenter"",""5"",""20253""
""fullscreenexit"",""9"",""42115""
""blur"",""9"",""43111""
""focus"",""9"",""44371""
","""event"",""trial"",""time""
""blur"",""9"",""43111""
","""event"",""trial"",""time""
""focus"",""9"",""44371""
","""event"",""trial"",""time""
""fullscreenenter"",""5"",""20253""
","""event"",""trial"",""time""
""fullscreenexit"",""9"",""42115""
","","","","","","","","","","","","","","","","","","","","","",""
"d3-instructions","57","239987","0.0-57.0","626","692","10","Male","true","true","true","true","""event"",""trial"",""time""
""fullscreenenter"",""5"",""20253""
""fullscreenexit"",""9"",""42115""
""blur"",""9"",""43111""
""focus"",""9"",""44371""
","""event"",""trial"",""time""
""blur"",""9"",""43111""
","""event"",""trial"",""time""
""focus"",""9"",""44371""
","""event"",""trial"",""time""
""fullscreenenter"",""5"",""20253""
","""event"",""trial"",""time""
""fullscreenexit"",""9"",""42115""
","","","","","","","","","","","","","","","","","","","","","",""
"d3-instructions","58","246870","0.0-58.0","626","692","10","Male","true","true","true","true","""event"",""trial"",""time""
""fullscreenenter"",""5"",""20253""
""fullscreenexit"",""9"",""42115""
""blur"",""9"",""43111""
""focus"",""9"",""44371""
","""event"",""trial"",""time""
""blur"",""9"",""43111""
","""event"",""trial"",""time""
""focus"",""9"",""44371""
","""event"",""trial"",""time""
""fullscreenenter"",""5"",""20253""
","""event"",""trial"",""time""
""fullscreenexit"",""9"",""42115""
","","","","","","","","","","","","","","","","","","","","","",""
"d3-instructions","59","254356","0.0-59.0","626","692","10","Male","true","true","true","true","""event"",""trial"",""time""
""fullscreenenter"",""5"",""20253""
""fullscreenexit"",""9"",""42115""
""blur"",""9"",""43111""
""focus"",""9"",""44371""
","""event"",""trial"",""time""
""blur"",""9"",""43111""
","""event"",""trial"",""time""
""focus"",""9"",""44371""
","""event"",""trial"",""time""
""fullscreenenter"",""5"",""20253""
","""event"",""trial"",""time""
""fullscreenexit"",""9"",""42115""
","","","","","","","","","","","","","","","","","","","","","",""
"d3-instructions","60","265570","0.0-60.0","626","692","10","Male","true","true","true","true","""event"",""trial"",""time""
""fullscreenenter"",""5"",""20253""
""fullscreenexit"",""9"",""42115""
""blur"",""9"",""43111""
""focus"",""9"",""44371""
","""event"",""trial"",""time""
""blur"",""9"",""43111""
","""event"",""trial"",""time""
""focus"",""9"",""44371""
","""event"",""trial"",""time""
""fullscreenenter"",""5"",""20253""
","""event"",""trial"",""time""
""fullscreenexit"",""9"",""42115""
","","","","","","","","","","","","","","","","","","","","","",""
"d3-animate-choice","61","269585","0.0-61.0-0.0","626","692","10","Male","true","true","true","true","""event"",""trial"",""time""
""fullscreenenter"",""5"",""20253""
""fullscreenexit"",""9"",""42115""
""blur"",""9"",""43111""
""focus"",""9"",""44371""
","""event"",""trial"",""time""
""blur"",""9"",""43111""
","""event"",""trial"",""time""
""focus"",""9"",""44371""
","""event"",""trial"",""time""
""fullscreenenter"",""5"",""20253""
","""event"",""trial"",""time""
""fullscreenexit"",""9"",""42115""
","2567.699999988079","","49","","","3000","1","","","images/earth.jpg","images/tutrocket1","images/tutrocket2","null","images/tutrocket2","","1","practice","null","1","","",""
"d3-animate-choice","62","272721","0.0-61.0-1.0","626","692","10","Male","true","true","true","true","""event"",""trial"",""time""
""fullscreenenter"",""5"",""20253""
""fullscreenexit"",""9"",""42115""
""blur"",""9"",""43111""
""focus"",""9"",""44371""
","""event"",""trial"",""time""
""blur"",""9"",""43111""
","""event"",""trial"",""time""
""focus"",""9"",""44371""
","""event"",""trial"",""time""
""fullscreenenter"",""5"",""20253""
","""event"",""trial"",""time""
""fullscreenexit"",""9"",""42115""
","1123.8999999761581","","49","","","3000","1","1163.5","50","images/tutgreenplanet.jpg","images/tutalien2","images/tutalien1","images/tutrocket2","images/tutalien1","images/t.png","2","practice","false","1","rare","1","2022-02-10 15:07:31.247"
"two-step-fixation","63","273727","0.0-61.0-2.0","626","692","10","Male","true","true","true","true","""event"",""trial"",""time""
""fullscreenenter"",""5"",""20253""
""fullscreenexit"",""9"",""42115""
""blur"",""9"",""43111""
""focus"",""9"",""44371""
","""event"",""trial"",""time""
""blur"",""9"",""43111""
","""event"",""trial"",""time""
""focus"",""9"",""44371""
","""event"",""trial"",""time""
""fullscreenenter"",""5"",""20253""
","""event"",""trial"",""time""
""fullscreenexit"",""9"",""42115""
","","images/earth.jpg","","","","","","","","","","","","","","fixation","","","","","",""
"d3-animate-choice","64","277732","0.0-61.0-0.1","626","692","10","Male","true","true","true","true","""event"",""trial"",""time""
""fullscreenenter"",""5"",""20253""
""fullscreenexit"",""9"",""42115""
""blur"",""9"",""43111""
""focus"",""9"",""44371""
","""event"",""trial"",""time""
""blur"",""9"",""43111""
","""event"",""trial"",""time""
""focus"",""9"",""44371""
","""event"",""trial"",""time""
""fullscreenenter"",""5"",""20253""
","""event"",""trial"",""time""
""fullscreenexit"",""9"",""42115""
","1718.199999988079","","57","","","3000","1","2045","48","images/earth.jpg","images/tutrocket1","images/tutrocket2","null","images/tutrocket1","","1","practice","null","","","",""
"d3-animate-choice","65","280681","0.0-61.0-1.1","626","692","10","Male","true","true","true","true","""event"",""trial"",""time""
""fullscreenenter"",""5"",""20253""
""fullscreenexit"",""9"",""42115""
""blur"",""9"",""43111""
""focus"",""9"",""44371""
","""event"",""trial"",""time""
""blur"",""9"",""43111""
","""event"",""trial"",""time""
""focus"",""9"",""44371""
","""event"",""trial"",""time""
""fullscreenenter"",""5"",""20253""
","""event"",""trial"",""time""
""fullscreenexit"",""9"",""42115""
","939.6000000238419","","49","","","3000","1","","","images/tutgreenplanet.jpg","images/tutalien2","images/tutalien1","images/tutrocket1","images/tutalien1","images/nothing.png","2","practice","true","1","common","0","2022-02-10 15:07:39.207"
"two-step-fixation","66","281687","0.0-61.0-2.1","626","692","10","Male","true","true","true","true","""event"",""trial"",""time""
""fullscreenenter"",""5"",""20253""
""fullscreenexit"",""9"",""42115""
""blur"",""9"",""43111""
""focus"",""9"",""44371""
","""event"",""trial"",""time""
""blur"",""9"",""43111""
","""event"",""trial"",""time""
""focus"",""9"",""44371""
","""event"",""trial"",""time""
""fullscreenenter"",""5"",""20253""
","""event"",""trial"",""time""
""fullscreenexit"",""9"",""42115""
","","images/earth.jpg","","","","","","","","","","","","","","fixation","","","","","",""
"d3-animate-choice","67","285084","0.0-61.0-0.2","626","692","10","Male","true","true","true","true","""event"",""trial"",""time""
""fullscreenenter"",""5"",""20253""
""fullscreenexit"",""9"",""42115""
""blur"",""9"",""43111""
""focus"",""9"",""44371""
","""event"",""trial"",""time""
""blur"",""9"",""43111""
","""event"",""trial"",""time""
""focus"",""9"",""44371""
","""event"",""trial"",""time""
""fullscreenenter"",""5"",""20253""
","""event"",""trial"",""time""
""fullscreenexit"",""9"",""42115""
","1389.300000011921","","48","","","3000","1","","","images/earth.jpg","images/tutrocket1","images/tutrocket2","null","images/tutrocket1","","1","practice","null","2","","",""
"d3-animate-choice","68","288862","0.0-61.0-1.2","626","692","10","Male","true","true","true","true","""event"",""trial"",""time""
""fullscreenenter"",""5"",""20253""
""fullscreenexit"",""9"",""42115""
""blur"",""9"",""43111""
""focus"",""9"",""44371""
","""event"",""trial"",""time""
""blur"",""9"",""43111""
","""event"",""trial"",""time""
""focus"",""9"",""44371""
","""event"",""trial"",""time""
""fullscreenenter"",""5"",""20253""
","""event"",""trial"",""time""
""fullscreenexit"",""9"",""42115""
","895.3999999761581","","57","","","3000","1","1334.6000000238419,1764.6000000238419,3682.800000011921","50,49,48","images/tutgreenplanet.jpg","images/tutalien2","images/tutalien1","images/tutrocket1","images/tutalien1","images/t.png","2","practice","true","","common","1","2022-02-10 15:07:47.388"
"two-step-fixation","69","289868","0.0-61.0-2.2","626","692","10","Male","true","true","true","true","""event"",""trial"",""time""
""fullscreenenter"",""5"",""20253""
""fullscreenexit"",""9"",""42115""
""blur"",""9"",""43111""
""focus"",""9"",""44371""
","""event"",""trial"",""time""
""blur"",""9"",""43111""
","""event"",""trial"",""time""
""focus"",""9"",""44371""
","""event"",""trial"",""time""
""fullscreenenter"",""5"",""20253""
","""event"",""trial"",""time""
""fullscreenexit"",""9"",""42115""
","","images/earth.jpg","","","","","","","","","","","","","","fixation","","","","","",""
"d3-animate-choice","70","292958","0.0-61.0-0.3","626","692","10","Male","true","true","true","true","""event"",""trial"",""time""
""fullscreenenter"",""5"",""20253""
""fullscreenexit"",""9"",""42115""
""blur"",""9"",""43111""
""focus"",""9"",""44371""
","""event"",""trial"",""time""
""blur"",""9"",""43111""
","""event"",""trial"",""time""
""focus"",""9"",""44371""
","""event"",""trial"",""time""
""fullscreenenter"",""5"",""20253""
","""event"",""trial"",""time""
""fullscreenexit"",""9"",""42115""
","1082.199999988079","","49","","","3000","1","","","images/earth.jpg","images/tutrocket1","images/tutrocket2","null","images/tutrocket2","","1","practice","null","1","","",""
"d3-animate-choice","71","295468","0.0-61.0-1.3","626","692","10","Male","true","true","true","true","""event"",""trial"",""time""
""fullscreenenter"",""5"",""20253""
""fullscreenexit"",""9"",""42115""
""blur"",""9"",""43111""
""focus"",""9"",""44371""
","""event"",""trial"",""time""
""blur"",""9"",""43111""
","""event"",""trial"",""time""
""focus"",""9"",""44371""
","""event"",""trial"",""time""
""fullscreenenter"",""5"",""20253""
","""event"",""trial"",""time""
""fullscreenexit"",""9"",""42115""
","504.5","","48","","","3000","1","","","images/tutyellowplanet.jpg","images/tutalien4","images/tutalien3","images/tutrocket2","images/tutalien4","images/t.png","2","practice","true","2","common","1","2022-02-10 15:07:53.994"
"two-step-fixation","72","296474","0.0-61.0-2.3","626","692","10","Male","true","true","true","true","""event"",""trial"",""time""
""fullscreenenter"",""5"",""20253""
""fullscreenexit"",""9"",""42115""
""blur"",""9"",""43111""
""focus"",""9"",""44371""
","""event"",""trial"",""time""
""blur"",""9"",""43111""
","""event"",""trial"",""time""
""focus"",""9"",""44371""
","""event"",""trial"",""time""
""fullscreenenter"",""5"",""20253""
","""event"",""trial"",""time""
""fullscreenexit"",""9"",""42115""
","","images/earth.jpg","","","","","","","","","","","","","","fixation","","","","","",""
"d3-animate-choice","73","299234","0.0-61.0-0.4","626","692","10","Male","true","true","true","true","""event"",""trial"",""time""
""fullscreenenter"",""5"",""20253""
""fullscreenexit"",""9"",""42115""
""blur"",""9"",""43111""
""focus"",""9"",""44371""
","""event"",""trial"",""time""
""blur"",""9"",""43111""
","""event"",""trial"",""time""
""focus"",""9"",""44371""
","""event"",""trial"",""time""
""fullscreenenter"",""5"",""20253""
","""event"",""trial"",""time""
""fullscreenexit"",""9"",""42115""
","752.2999999523163","","48","","","3000","1","2738.5","49","images/earth.jpg","images/tutrocket1","images/tutrocket2","null","images/tutrocket1","","1","practice","null","2","","",""
"d3-animate-choice","74","301378","0.0-61.0-1.4","626","692","10","Male","true","true","true","true","""event"",""trial"",""time""
""fullscreenenter"",""5"",""20253""
""fullscreenexit"",""9"",""42115""
""blur"",""9"",""43111""
""focus"",""9"",""44371""
","""event"",""trial"",""time""
""blur"",""9"",""43111""
","""event"",""trial"",""time""
""focus"",""9"",""44371""
","""event"",""trial"",""time""
""fullscreenenter"",""5"",""20253""
","""event"",""trial"",""time""
""fullscreenexit"",""9"",""42115""
","135","","48","","","3000","1","278.4000000357628,381.60000002384186,518.4000000357628,611.6999999880791","49,48,49,48","images/tutgreenplanet.jpg","images/tutalien2","images/tutalien1","images/tutrocket1","images/tutalien2","images/nothing.png","2","practice","true","2","common","0","2022-02-10 15:07:59.904"
"two-step-fixation","75","302385","0.0-61.0-2.4","626","692","10","Male","true","true","true","true","""event"",""trial"",""time""
""fullscreenenter"",""5"",""20253""
""fullscreenexit"",""9"",""42115""
""blur"",""9"",""43111""
""focus"",""9"",""44371""
","""event"",""trial"",""time""
""blur"",""9"",""43111""
","""event"",""trial"",""time""
""focus"",""9"",""44371""
","""event"",""trial"",""time""
""fullscreenenter"",""5"",""20253""
","""event"",""trial"",""time""
""fullscreenexit"",""9"",""42115""
","","images/earth.jpg","","","","","","","","","","","","","","fixation","","","","","",""
"d3-animate-choice","76","305038","0.0-61.0-0.5","626","692","10","Male","true","true","true","true","""event"",""trial"",""time""
""fullscreenenter"",""5"",""20253""
""fullscreenexit"",""9"",""42115""
""blur"",""9"",""43111""
""focus"",""9"",""44371""
","""event"",""trial"",""time""
""blur"",""9"",""43111""
","""event"",""trial"",""time""
""focus"",""9"",""44371""
","""event"",""trial"",""time""
""fullscreenenter"",""5"",""20253""
","""event"",""trial"",""time""
""fullscreenexit"",""9"",""42115""
","645.7000000476837","","48","","","3000","1","","","images/earth.jpg","images/tutrocket1","images/tutrocket2","null","images/tutrocket1","","1","practice","null","2","","",""
"d3-animate-choice","77","307745","0.0-61.0-1.5","626","692","10","Male","true","true","true","true","""event"",""trial"",""time""
""fullscreenenter"",""5"",""20253""
""fullscreenexit"",""9"",""42115""
""blur"",""9"",""43111""
""focus"",""9"",""44371""
","""event"",""trial"",""time""
""blur"",""9"",""43111""
","""event"",""trial"",""time""
""focus"",""9"",""44371""
","""event"",""trial"",""time""
""fullscreenenter"",""5"",""20253""
","""event"",""trial"",""time""
""fullscreenexit"",""9"",""42115""
","700.5","","49","","","3000","1","2385.099999964237","48","images/tutyellowplanet.jpg","images/tutalien4","images/tutalien3","images/tutrocket1","images/tutalien3","images/nothing.png","2","practice","false","1","rare","0","2022-02-10 15:08:06.271"
"two-step-fixation","78","308752","0.0-61.0-2.5","626","692","10","Male","true","true","true","true","""event"",""trial"",""time""
""fullscreenenter"",""5"",""20253""
""fullscreenexit"",""9"",""42115""
""blur"",""9"",""43111""
""focus"",""9"",""44371""
","""event"",""trial"",""time""
""blur"",""9"",""43111""
","""event"",""trial"",""time""
""focus"",""9"",""44371""
","""event"",""trial"",""time""
""fullscreenenter"",""5"",""20253""
","""event"",""trial"",""time""
""fullscreenexit"",""9"",""42115""
","","images/earth.jpg","","","","","","","","","","","","","","fixation","","","","","",""
"d3-animate-choice","79","311065","0.0-61.0-0.6","626","692","10","Male","true","true","true","true","""event"",""trial"",""time""
""fullscreenenter"",""5"",""20253""
""fullscreenexit"",""9"",""42115""
""blur"",""9"",""43111""
""focus"",""9"",""44371""
","""event"",""trial"",""time""
""blur"",""9"",""43111""
","""event"",""trial"",""time""
""focus"",""9"",""44371""
","""event"",""trial"",""time""
""fullscreenenter"",""5"",""20253""
","""event"",""trial"",""time""
""fullscreenexit"",""9"",""42115""
","306.80000001192093","","49","","","3000","1","","","images/earth.jpg","images/tutrocket1","images/tutrocket2","null","images/tutrocket2","","1","practice","null","1","","",""
"d3-animate-choice","80","313315","0.0-61.0-1.6","626","692","10","Male","true","true","true","true","""event"",""trial"",""time""
""fullscreenenter"",""5"",""20253""
""fullscreenexit"",""9"",""42115""
""blur"",""9"",""43111""
""focus"",""9"",""44371""
","""event"",""trial"",""time""
""blur"",""9"",""43111""
","""event"",""trial"",""time""
""focus"",""9"",""44371""
","""event"",""trial"",""time""
""fullscreenenter"",""5"",""20253""
","""event"",""trial"",""time""
""fullscreenexit"",""9"",""42115""
","243.80000001192093","","48","","","3000","1","","","images/tutyellowplanet.jpg","images/tutalien4","images/tutalien3","images/tutrocket2","images/tutalien4","images/t.png","2","practice","true","2","common","1","2022-02-10 15:08:11.841"
"two-step-fixation","81","314321","0.0-61.0-2.6","626","692","10","Male","true","true","true","true","""event"",""trial"",""time""
""fullscreenenter"",""5"",""20253""
""fullscreenexit"",""9"",""42115""
""blur"",""9"",""43111""
""focus"",""9"",""44371""
","""event"",""trial"",""time""
""blur"",""9"",""43111""
","""event"",""trial"",""time""
""focus"",""9"",""44371""
","""event"",""trial"",""time""
""fullscreenenter"",""5"",""20253""
","""event"",""trial"",""time""
""fullscreenexit"",""9"",""42115""
","","images/earth.jpg","","","","","","","","","","","","","","fixation","","","","","",""
"d3-animate-choice","82","316637","0.0-61.0-0.7","626","692","10","Male","true","true","true","true","""event"",""trial"",""time""
""fullscreenenter"",""5"",""20253""
""fullscreenexit"",""9"",""42115""
""blur"",""9"",""43111""
""focus"",""9"",""44371""
","""event"",""trial"",""time""
""blur"",""9"",""43111""
","""event"",""trial"",""time""
""focus"",""9"",""44371""
","""event"",""trial"",""time""
""fullscreenenter"",""5"",""20253""
","""event"",""trial"",""time""
""fullscreenexit"",""9"",""42115""
","296.0999999642372","","48","","","3000","1","","","images/earth.jpg","images/tutrocket1","images/tutrocket2","null","images/tutrocket1","","1","practice","null","2","","",""
"d3-animate-choice","83","319097","0.0-61.0-1.7","626","692","10","Male","true","true","true","true","""event"",""trial"",""time""
""fullscreenenter"",""5"",""20253""
""fullscreenexit"",""9"",""42115""
""blur"",""9"",""43111""
""focus"",""9"",""44371""
","""event"",""trial"",""time""
""blur"",""9"",""43111""
","""event"",""trial"",""time""
""focus"",""9"",""44371""
","""event"",""trial"",""time""
""fullscreenenter"",""5"",""20253""
","""event"",""trial"",""time""
""fullscreenexit"",""9"",""42115""
","453.9000000357628","","48","","","3000","1","","","images/tutyellowplanet.jpg","images/tutalien4","images/tutalien3","images/tutrocket1","images/tutalien4","images/t.png","2","practice","false","2","rare","1","2022-02-10 15:08:17.623"
"two-step-fixation","84","320104","0.0-61.0-2.7","626","692","10","Male","true","true","true","true","""event"",""trial"",""time""
""fullscreenenter"",""5"",""20253""
""fullscreenexit"",""9"",""42115""
""blur"",""9"",""43111""
""focus"",""9"",""44371""
","""event"",""trial"",""time""
""blur"",""9"",""43111""
","""event"",""trial"",""time""
""focus"",""9"",""44371""
","""event"",""trial"",""time""
""fullscreenenter"",""5"",""20253""
","""event"",""trial"",""time""
""fullscreenexit"",""9"",""42115""
","","images/earth.jpg","","","","","","","","","","","","","","fixation","","","","","",""
"d3-animate-choice","85","322596","0.0-61.0-0.8","626","692","10","Male","true","true","true","true","""event"",""trial"",""time""
""fullscreenenter"",""5"",""20253""
""fullscreenexit"",""9"",""42115""
""blur"",""9"",""43111""
""focus"",""9"",""44371""
","""event"",""trial"",""time""
""blur"",""9"",""43111""
","""event"",""trial"",""time""
""focus"",""9"",""44371""
","""event"",""trial"",""time""
""fullscreenenter"",""5"",""20253""
","""event"",""trial"",""time""
""fullscreenexit"",""9"",""42115""
","475.69999998807907","","49","","","3000","1","","","images/earth.jpg","images/tutrocket1","images/tutrocket2","null","images/tutrocket2","","1","practice","null","1","","",""
"d3-animate-choice","86","325104","0.0-61.0-1.8","626","692","10","Male","true","true","true","true","""event"",""trial"",""time""
""fullscreenenter"",""5"",""20253""
""fullscreenexit"",""9"",""42115""
""blur"",""9"",""43111""
""focus"",""9"",""44371""
","""event"",""trial"",""time""
""blur"",""9"",""43111""
","""event"",""trial"",""time""
""focus"",""9"",""44371""
","""event"",""trial"",""time""
""fullscreenenter"",""5"",""20253""
","""event"",""trial"",""time""
""fullscreenexit"",""9"",""42115""
","502","","48","","","3000","1","","","images/tutyellowplanet.jpg","images/tutalien4","images/tutalien3","images/tutrocket2","images/tutalien4","images/nothing.png","2","practice","true","2","common","0","2022-02-10 15:08:23.630"
"two-step-fixation","87","326110","0.0-61.0-2.8","626","692","10","Male","true","true","true","true","""event"",""trial"",""time""
""fullscreenenter"",""5"",""20253""
""fullscreenexit"",""9"",""42115""
""blur"",""9"",""43111""
""focus"",""9"",""44371""
","""event"",""trial"",""time""
""blur"",""9"",""43111""
","""event"",""trial"",""time""
""focus"",""9"",""44371""
","""event"",""trial"",""time""
""fullscreenenter"",""5"",""20253""
","""event"",""trial"",""time""
""fullscreenexit"",""9"",""42115""
","","images/earth.jpg","","","","","","","","","","","","","","fixation","","","","","",""
"d3-animate-choice","88","328929","0.0-61.0-0.9","626","692","10","Male","true","true","true","true","""event"",""trial"",""time""
""fullscreenenter"",""5"",""20253""
""fullscreenexit"",""9"",""42115""
""blur"",""9"",""43111""
""focus"",""9"",""44371""
","""event"",""trial"",""time""
""blur"",""9"",""43111""
","""event"",""trial"",""time""
""focus"",""9"",""44371""
","""event"",""trial"",""time""
""fullscreenenter"",""5"",""20253""
","""event"",""trial"",""time""
""fullscreenexit"",""9"",""42115""
","813","","48","","","3000","1","","","images/earth.jpg","images/tutrocket1","images/tutrocket2","null","images/tutrocket1","","1","practice","null","2","","",""
"d3-animate-choice","89","331809","0.0-61.0-1.9","626","692","10","Male","true","true","true","true","""event"",""trial"",""time""
""fullscreenenter"",""5"",""20253""
""fullscreenexit"",""9"",""42115""
""blur"",""9"",""43111""
""focus"",""9"",""44371""
","""event"",""trial"",""time""
""blur"",""9"",""43111""
","""event"",""trial"",""time""
""focus"",""9"",""44371""
","""event"",""trial"",""time""
""fullscreenenter"",""5"",""20253""
","""event"",""trial"",""time""
""fullscreenexit"",""9"",""42115""
","873.3000000119209","","49","","","3000","1","","","images/tutyellowplanet.jpg","images/tutalien4","images/tutalien3","images/tutrocket1","images/tutalien3","images/t.png","2","practice","false","1","rare","1","2022-02-10 15:08:30.335"
"two-step-fixation","90","332815","0.0-61.0-2.9","626","692","10","Male","true","true","true","true","""event"",""trial"",""time""
""fullscreenenter"",""5"",""20253""
""fullscreenexit"",""9"",""42115""
""blur"",""9"",""43111""
""focus"",""9"",""44371""
","""event"",""trial"",""time""
""blur"",""9"",""43111""
","""event"",""trial"",""time""
""focus"",""9"",""44371""
","""event"",""trial"",""time""
""fullscreenenter"",""5"",""20253""
","""event"",""trial"",""time""
""fullscreenexit"",""9"",""42115""
","","images/earth.jpg","","","","","","","","","","","","","","fixation","","","","","",""
"d3-animate-choice","91","335333","0.0-61.0-0.10","626","692","10","Male","true","true","true","true","""event"",""trial"",""time""
""fullscreenenter"",""5"",""20253""
""fullscreenexit"",""9"",""42115""
""blur"",""9"",""43111""
""focus"",""9"",""44371""
","""event"",""trial"",""time""
""blur"",""9"",""43111""
","""event"",""trial"",""time""
""focus"",""9"",""44371""
","""event"",""trial"",""time""
""fullscreenenter"",""5"",""20253""
","""event"",""trial"",""time""
""fullscreenexit"",""9"",""42115""
","511.39999997615814","","48","","","3000","1","","","images/earth.jpg","images/tutrocket1","images/tutrocket2","null","images/tutrocket1","","1","practice","null","2","","",""
"d3-animate-choice","92","338079","0.0-61.0-1.10","626","692","10","Male","true","true","true","true","""event"",""trial"",""time""
""fullscreenenter"",""5"",""20253""
""fullscreenexit"",""9"",""42115""
""blur"",""9"",""43111""
""focus"",""9"",""44371""
","""event"",""trial"",""time""
""blur"",""9"",""43111""
","""event"",""trial"",""time""
""focus"",""9"",""44371""
","""event"",""trial"",""time""
""fullscreenenter"",""5"",""20253""
","""event"",""trial"",""time""
""fullscreenexit"",""9"",""42115""
","740.0999999642372","","48","","","3000","1","","","images/tutgreenplanet.jpg","images/tutalien2","images/tutalien1","images/tutrocket1","images/tutalien2","images/nothing.png","2","practice","true","2","common","0","2022-02-10 15:08:36.605"
"two-step-fixation","93","339086","0.0-61.0-2.10","626","692","10","Male","true","true","true","true","""event"",""trial"",""time""
""fullscreenenter"",""5"",""20253""
""fullscreenexit"",""9"",""42115""
""blur"",""9"",""43111""
""focus"",""9"",""44371""
","""event"",""trial"",""time""
""blur"",""9"",""43111""
","""event"",""trial"",""time""
""focus"",""9"",""44371""
","""event"",""trial"",""time""
""fullscreenenter"",""5"",""20253""
","""event"",""trial"",""time""
""fullscreenexit"",""9"",""42115""
","","images/earth.jpg","","","","","","","","","","","","","","fixation","","","","","",""
"d3-animate-choice","94","341607","0.0-61.0-0.11","626","692","10","Male","true","true","true","true","""event"",""trial"",""time""
""fullscreenenter"",""5"",""20253""
""fullscreenexit"",""9"",""42115""
""blur"",""9"",""43111""
""focus"",""9"",""44371""
","""event"",""trial"",""time""
""blur"",""9"",""43111""
","""event"",""trial"",""time""
""focus"",""9"",""44371""
","""event"",""trial"",""time""
""fullscreenenter"",""5"",""20253""
","""event"",""trial"",""time""
""fullscreenexit"",""9"",""42115""
","515.3999999761581","","48","","","3000","1","","","images/earth.jpg","images/tutrocket1","images/tutrocket2","null","images/tutrocket1","","1","practice","null","2","","",""
"d3-animate-choice","95","344047","0.0-61.0-1.11","626","692","10","Male","true","true","true","true","""event"",""trial"",""time""
""fullscreenenter"",""5"",""20253""
""fullscreenexit"",""9"",""42115""
""blur"",""9"",""43111""
""focus"",""9"",""44371""
","""event"",""trial"",""time""
""blur"",""9"",""43111""
","""event"",""trial"",""time""
""focus"",""9"",""44371""
","""event"",""trial"",""time""
""fullscreenenter"",""5"",""20253""
","""event"",""trial"",""time""
""fullscreenexit"",""9"",""42115""
","433.69999998807907","","49","","","3000","1","","","images/tutyellowplanet.jpg","images/tutalien4","images/tutalien3","images/tutrocket1","images/tutalien3","images/nothing.png","2","practice","false","1","rare","0","2022-02-10 15:08:42.573"
"two-step-fixation","96","345053","0.0-61.0-2.11","626","692","10","Male","true","true","true","true","""event"",""trial"",""time""
""fullscreenenter"",""5"",""20253""
""fullscreenexit"",""9"",""42115""
""blur"",""9"",""43111""
""focus"",""9"",""44371""
","""event"",""trial"",""time""
""blur"",""9"",""43111""
","""event"",""trial"",""time""
""focus"",""9"",""44371""
","""event"",""trial"",""time""
""fullscreenenter"",""5"",""20253""
","""event"",""trial"",""time""
""fullscreenexit"",""9"",""42115""
","","images/earth.jpg","","","","","","","","","","","","","","fixation","","","","","",""
"d3-animate-choice","97","347340","0.0-61.0-0.12","626","692","10","Male","true","true","true","true","""event"",""trial"",""time""
""fullscreenenter"",""5"",""20253""
""fullscreenexit"",""9"",""42115""
""blur"",""9"",""43111""
""focus"",""9"",""44371""
","""event"",""trial"",""time""
""blur"",""9"",""43111""
","""event"",""trial"",""time""
""focus"",""9"",""44371""
","""event"",""trial"",""time""
""fullscreenenter"",""5"",""20253""
","""event"",""trial"",""time""
""fullscreenexit"",""9"",""42115""
","282.60000002384186","","49","","","3000","1","","","images/earth.jpg","images/tutrocket1","images/tutrocket2","null","images/tutrocket2","","1","practice","null","1","","",""
"d3-animate-choice","98","350368","0.0-61.0-1.12","626","692","10","Male","true","true","true","true","""event"",""trial"",""time""
""fullscreenenter"",""5"",""20253""
""fullscreenexit"",""9"",""42115""
""blur"",""9"",""43111""
""focus"",""9"",""44371""
","""event"",""trial"",""time""
""blur"",""9"",""43111""
","""event"",""trial"",""time""
""focus"",""9"",""44371""
","""event"",""trial"",""time""
""fullscreenenter"",""5"",""20253""
","""event"",""trial"",""time""
""fullscreenexit"",""9"",""42115""
","1025.1000000238419","","49","","","3000","1","","","images/tutgreenplanet.jpg","images/tutalien2","images/tutalien1","images/tutrocket2","images/tutalien1","images/t.png","2","practice","false","1","rare","1","2022-02-10 15:08:48.894"
"two-step-fixation","99","351376","0.0-61.0-2.12","626","692","10","Male","true","true","true","true","""event"",""trial"",""time""
""fullscreenenter"",""5"",""20253""
""fullscreenexit"",""9"",""42115""
""blur"",""9"",""43111""
""focus"",""9"",""44371""
","""event"",""trial"",""time""
""blur"",""9"",""43111""
","""event"",""trial"",""time""
""focus"",""9"",""44371""
","""event"",""trial"",""time""
""fullscreenenter"",""5"",""20253""
","""event"",""trial"",""time""
""fullscreenexit"",""9"",""42115""
","","images/earth.jpg","","","","","","","","","","","","","","fixation","","","","","",""
"d3-animate-choice","100","354184","0.0-61.0-0.13","626","692","10","Male","true","true","true","true","""event"",""trial"",""time""
""fullscreenenter"",""5"",""20253""
""fullscreenexit"",""9"",""42115""
""blur"",""9"",""43111""
""focus"",""9"",""44371""
","""event"",""trial"",""time""
""blur"",""9"",""43111""
","""event"",""trial"",""time""
""focus"",""9"",""44371""
","""event"",""trial"",""time""
""fullscreenenter"",""5"",""20253""
","""event"",""trial"",""time""
""fullscreenexit"",""9"",""42115""
","397.19999998807907","","50","","","3000","1","736.6999999880791,800.6999999880791","50,49","images/earth.jpg","images/tutrocket1","images/tutrocket2","null","images/tutrocket2","","1","practice","null","","","",""
"d3-animate-choice","101","356805","0.0-61.0-1.13","626","692","10","Male","true","true","true","true","""event"",""trial"",""time""
""fullscreenenter"",""5"",""20253""
""fullscreenexit"",""9"",""42115""
""blur"",""9"",""43111""
""focus"",""9"",""44371""
","""event"",""trial"",""time""
""blur"",""9"",""43111""
","""event"",""trial"",""time""
""focus"",""9"",""44371""
","""event"",""trial"",""time""
""fullscreenenter"",""5"",""20253""
","""event"",""trial"",""time""
""fullscreenexit"",""9"",""42115""
","616","","48","","","3000","1","","","images/tutyellowplanet.jpg","images/tutalien4","images/tutalien3","images/tutrocket2","images/tutalien4","images/t.png","2","practice","true","2","common","1","2022-02-10 15:08:55.331"
"two-step-fixation","102","357812","0.0-61.0-2.13","626","692","10","Male","true","true","true","true","""event"",""trial"",""time""
""fullscreenenter"",""5"",""20253""
""fullscreenexit"",""9"",""42115""
""blur"",""9"",""43111""
""focus"",""9"",""44371""
","""event"",""trial"",""time""
""blur"",""9"",""43111""
","""event"",""trial"",""time""
""focus"",""9"",""44371""
","""event"",""trial"",""time""
""fullscreenenter"",""5"",""20253""
","""event"",""trial"",""time""
""fullscreenexit"",""9"",""42115""
","","images/earth.jpg","","","","","","","","","","","","","","fixation","","","","","",""
"d3-animate-choice","103","360334","0.0-61.0-0.14","626","692","10","Male","true","true","true","true","""event"",""trial"",""time""
""fullscreenenter"",""5"",""20253""
""fullscreenexit"",""9"",""42115""
""blur"",""9"",""43111""
""focus"",""9"",""44371""
","""event"",""trial"",""time""
""blur"",""9"",""43111""
","""event"",""trial"",""time""
""focus"",""9"",""44371""
","""event"",""trial"",""time""
""fullscreenenter"",""5"",""20253""
","""event"",""trial"",""time""
""fullscreenexit"",""9"",""42115""
","514.5999999642372","","48","","","3000","1","","","images/earth.jpg","images/tutrocket1","images/tutrocket2","null","images/tutrocket1","","1","practice","null","2","","",""
"d3-animate-choice","104","363168","0.0-61.0-1.14","626","692","10","Male","true","true","true","true","""event"",""trial"",""time""
""fullscreenenter"",""5"",""20253""
""fullscreenexit"",""9"",""42115""
""blur"",""9"",""43111""
""focus"",""9"",""44371""
","""event"",""trial"",""time""
""blur"",""9"",""43111""
","""event"",""trial"",""time""
""focus"",""9"",""44371""
","""event"",""trial"",""time""
""fullscreenenter"",""5"",""20253""
","""event"",""trial"",""time""
""fullscreenexit"",""9"",""42115""
","827.1000000238419","","49","","","3000","1","","","images/tutgreenplanet.jpg","images/tutalien2","images/tutalien1","images/tutrocket1","images/tutalien1","images/nothing.png","2","practice","true","1","common","0","2022-02-10 15:09:01.694"
"two-step-fixation","105","364174","0.0-61.0-2.14","626","692","10","Male","true","true","true","true","""event"",""trial"",""time""
""fullscreenenter"",""5"",""20253""
""fullscreenexit"",""9"",""42115""
""blur"",""9"",""43111""
""focus"",""9"",""44371""
","""event"",""trial"",""time""
""blur"",""9"",""43111""
","""event"",""trial"",""time""
""focus"",""9"",""44371""
","""event"",""trial"",""time""
""fullscreenenter"",""5"",""20253""
","""event"",""trial"",""time""
""fullscreenexit"",""9"",""42115""
","","images/earth.jpg","","","","","","","","","","","","","","fixation","","","","","",""
"d3-animate-choice","106","366709","0.0-61.0-0.15","626","692","10","Male","true","true","true","true","""event"",""trial"",""time""
""fullscreenenter"",""5"",""20253""
""fullscreenexit"",""9"",""42115""
""blur"",""9"",""43111""
""focus"",""9"",""44371""
","""event"",""trial"",""time""
""blur"",""9"",""43111""
","""event"",""trial"",""time""
""focus"",""9"",""44371""
","""event"",""trial"",""time""
""fullscreenenter"",""5"",""20253""
","""event"",""trial"",""time""
""fullscreenexit"",""9"",""42115""
","527.6999999880791","","48","","","3000","1","","","images/earth.jpg","images/tutrocket1","images/tutrocket2","null","images/tutrocket1","","1","practice","null","2","","",""
"d3-animate-choice","107","369007","0.0-61.0-1.15","626","692","10","Male","true","true","true","true","""event"",""trial"",""time""
""fullscreenenter"",""5"",""20253""
""fullscreenexit"",""9"",""42115""
""blur"",""9"",""43111""
""focus"",""9"",""44371""
","""event"",""trial"",""time""
""blur"",""9"",""43111""
","""event"",""trial"",""time""
""focus"",""9"",""44371""
","""event"",""trial"",""time""
""fullscreenenter"",""5"",""20253""
","""event"",""trial"",""time""
""fullscreenexit"",""9"",""42115""
","291.60000002384186","","48","","","3000","1","","","images/tutyellowplanet.jpg","images/tutalien4","images/tutalien3","images/tutrocket1","images/tutalien4","images/t.png","2","practice","false","2","rare","1","2022-02-10 15:09:07.533"
"two-step-fixation","108","370013","0.0-61.0-2.15","626","692","10","Male","true","true","true","true","""event"",""trial"",""time""
""fullscreenenter"",""5"",""20253""
""fullscreenexit"",""9"",""42115""
""blur"",""9"",""43111""
""focus"",""9"",""44371""
","""event"",""trial"",""time""
""blur"",""9"",""43111""
","""event"",""trial"",""time""
""focus"",""9"",""44371""
","""event"",""trial"",""time""
""fullscreenenter"",""5"",""20253""
","""event"",""trial"",""time""
""fullscreenexit"",""9"",""42115""
","","images/earth.jpg","","","","","","","","","","","","","","fixation","","","","","",""
"d3-animate-choice","109","372358","0.0-61.0-0.16","626","692","10","Male","true","true","true","true","""event"",""trial"",""time""
""fullscreenenter"",""5"",""20253""
""fullscreenexit"",""9"",""42115""
""blur"",""9"",""43111""
""focus"",""9"",""44371""
","""event"",""trial"",""time""
""blur"",""9"",""43111""
","""event"",""trial"",""time""
""focus"",""9"",""44371""
","""event"",""trial"",""time""
""fullscreenenter"",""5"",""20253""
","""event"",""trial"",""time""
""fullscreenexit"",""9"",""42115""
","339","","48","","","3000","1","","","images/earth.jpg","images/tutrocket1","images/tutrocket2","null","images/tutrocket1","","1","practice","null","2","","",""
"d3-animate-choice","110","374891","0.0-61.0-1.16","626","692","10","Male","true","true","true","true","""event"",""trial"",""time""
""fullscreenenter"",""5"",""20253""
""fullscreenexit"",""9"",""42115""
""blur"",""9"",""43111""
""focus"",""9"",""44371""
","""event"",""trial"",""time""
""blur"",""9"",""43111""
","""event"",""trial"",""time""
""focus"",""9"",""44371""
","""event"",""trial"",""time""
""fullscreenenter"",""5"",""20253""
","""event"",""trial"",""time""
""fullscreenexit"",""9"",""42115""
","527.2999999523163","","48","","","3000","1","","","images/tutgreenplanet.jpg","images/tutalien2","images/tutalien1","images/tutrocket1","images/tutalien2","images/nothing.png","2","practice","true","2","common","0","2022-02-10 15:09:13.417"
"two-step-fixation","111","375896","0.0-61.0-2.16","626","692","10","Male","true","true","true","true","""event"",""trial"",""time""
""fullscreenenter"",""5"",""20253""
""fullscreenexit"",""9"",""42115""
""blur"",""9"",""43111""
""focus"",""9"",""44371""
","""event"",""trial"",""time""
""blur"",""9"",""43111""
","""event"",""trial"",""time""
""focus"",""9"",""44371""
","""event"",""trial"",""time""
""fullscreenenter"",""5"",""20253""
","""event"",""trial"",""time""
""fullscreenexit"",""9"",""42115""
","","images/earth.jpg","","","","","","","","","","","","","","fixation","","","","","",""
"d3-animate-choice","112","377996","0.0-61.0-0.17","626","692","10","Male","true","true","true","true","""event"",""trial"",""time""
""fullscreenenter"",""5"",""20253""
""fullscreenexit"",""9"",""42115""
""blur"",""9"",""43111""
""focus"",""9"",""44371""
","""event"",""trial"",""time""
""blur"",""9"",""43111""
","""event"",""trial"",""time""
""focus"",""9"",""44371""
","""event"",""trial"",""time""
""fullscreenenter"",""5"",""20253""
","""event"",""trial"",""time""
""fullscreenexit"",""9"",""42115""
","92","","49","","","3000","1","","","images/earth.jpg","images/tutrocket1","images/tutrocket2","null","images/tutrocket2","","1","practice","null","1","","",""
"d3-animate-choice","113","380445","0.0-61.0-1.17","626","692","10","Male","true","true","true","true","""event"",""trial"",""time""
""fullscreenenter"",""5"",""20253""
""fullscreenexit"",""9"",""42115""
""blur"",""9"",""43111""
""focus"",""9"",""44371""
","""event"",""trial"",""time""
""blur"",""9"",""43111""
","""event"",""trial"",""time""
""focus"",""9"",""44371""
","""event"",""trial"",""time""
""fullscreenenter"",""5"",""20253""
","""event"",""trial"",""time""
""fullscreenexit"",""9"",""42115""
","441.30000001192093","","48","","","3000","1","","","images/tutyellowplanet.jpg","images/tutalien4","images/tutalien3","images/tutrocket2","images/tutalien4","images/nothing.png","2","practice","true","2","common","0","2022-02-10 15:09:18.971"
"two-step-fixation","114","381451","0.0-61.0-2.17","626","692","10","Male","true","true","true","true","""event"",""trial"",""time""
""fullscreenenter"",""5"",""20253""
""fullscreenexit"",""9"",""42115""
""blur"",""9"",""43111""
""focus"",""9"",""44371""
","""event"",""trial"",""time""
""blur"",""9"",""43111""
","""event"",""trial"",""time""
""focus"",""9"",""44371""
","""event"",""trial"",""time""
""fullscreenenter"",""5"",""20253""
","""event"",""trial"",""time""
""fullscreenexit"",""9"",""42115""
","","images/earth.jpg","","","","","","","","","","","","","","fixation","","","","","",""
"d3-animate-choice","115","384099","0.0-61.0-0.18","626","692","10","Male","true","true","true","true","""event"",""trial"",""time""
""fullscreenenter"",""5"",""20253""
""fullscreenexit"",""9"",""42115""
""blur"",""9"",""43111""
""focus"",""9"",""44371""
","""event"",""trial"",""time""
""blur"",""9"",""43111""
","""event"",""trial"",""time""
""focus"",""9"",""44371""
","""event"",""trial"",""time""
""fullscreenenter"",""5"",""20253""
","""event"",""trial"",""time""
""fullscreenexit"",""9"",""42115""
","641.5","","48","","","3000","1","","","images/earth.jpg","images/tutrocket1","images/tutrocket2","null","images/tutrocket1","","1","practice","null","2","","",""
"d3-animate-choice","116","386629","0.0-61.0-1.18","626","692","10","Male","true","true","true","true","""event"",""trial"",""time""
""fullscreenenter"",""5"",""20253""
""fullscreenexit"",""9"",""42115""
""blur"",""9"",""43111""
""focus"",""9"",""44371""
","""event"",""trial"",""time""
""blur"",""9"",""43111""
","""event"",""trial"",""time""
""focus"",""9"",""44371""
","""event"",""trial"",""time""
""fullscreenenter"",""5"",""20253""
","""event"",""trial"",""time""
""fullscreenexit"",""9"",""42115""
","524","","48","","","3000","1","","","images/tutgreenplanet.jpg","images/tutalien2","images/tutalien1","images/tutrocket1","images/tutalien2","images/nothing.png","2","practice","true","2","common","0","2022-02-10 15:09:25.155"
"two-step-fixation","117","387635","0.0-61.0-2.18","626","692","10","Male","true","true","true","true","""event"",""trial"",""time""
""fullscreenenter"",""5"",""20253""
""fullscreenexit"",""9"",""42115""
""blur"",""9"",""43111""
""focus"",""9"",""44371""
","""event"",""trial"",""time""
""blur"",""9"",""43111""
","""event"",""trial"",""time""
""focus"",""9"",""44371""
","""event"",""trial"",""time""
""fullscreenenter"",""5"",""20253""
","""event"",""trial"",""time""
""fullscreenexit"",""9"",""42115""
","","images/earth.jpg","","","","","","","","","","","","","","fixation","","","","","",""
"d3-animate-choice","118","390315","0.0-61.0-0.19","626","692","10","Male","true","true","true","true","""event"",""trial"",""time""
""fullscreenenter"",""5"",""20253""
""fullscreenexit"",""9"",""42115""
""blur"",""9"",""43111""
""focus"",""9"",""44371""
","""event"",""trial"",""time""
""blur"",""9"",""43111""
","""event"",""trial"",""time""
""focus"",""9"",""44371""
","""event"",""trial"",""time""
""fullscreenenter"",""5"",""20253""
","""event"",""trial"",""time""
""fullscreenexit"",""9"",""42115""
","673.1000000238419","","49","","","3000","1","","","images/earth.jpg","images/tutrocket1","images/tutrocket2","null","images/tutrocket2","","1","practice","null","1","","",""
"d3-animate-choice","119","392586","0.0-61.0-1.19","626","692","10","Male","true","true","true","true","""event"",""trial"",""time""
""fullscreenenter"",""5"",""20253""
""fullscreenexit"",""9"",""42115""
""blur"",""9"",""43111""
""focus"",""9"",""44371""
","""event"",""trial"",""time""
""blur"",""9"",""43111""
","""event"",""trial"",""time""
""focus"",""9"",""44371""
","""event"",""trial"",""time""
""fullscreenenter"",""5"",""20253""
","""event"",""trial"",""time""
""fullscreenexit"",""9"",""42115""
","266.0999999642372","","49","","","3000","1","","","images/tutyellowplanet.jpg","images/tutalien4","images/tutalien3","images/tutrocket2","images/tutalien3","images/nothing.png","2","practice","true","1","common","0","2022-02-10 15:09:31.112"
"two-step-fixation","120","393591","0.0-61.0-2.19","626","692","10","Male","true","true","true","true","""event"",""trial"",""time""
""fullscreenenter"",""5"",""20253""
""fullscreenexit"",""9"",""42115""
""blur"",""9"",""43111""
""focus"",""9"",""44371""
","""event"",""trial"",""time""
""blur"",""9"",""43111""
","""event"",""trial"",""time""
""focus"",""9"",""44371""
","""event"",""trial"",""time""
""fullscreenenter"",""5"",""20253""
","""event"",""trial"",""time""
""fullscreenexit"",""9"",""42115""
","","images/earth.jpg","","","","","","","","","","","","","","fixation","","","","","",""
"d3-instructions","121","396706","0.0-62.0","626","692","10","Male","true","true","true","true","""event"",""trial"",""time""
""fullscreenenter"",""5"",""20253""
""fullscreenexit"",""9"",""42115""
""blur"",""9"",""43111""
""focus"",""9"",""44371""
","""event"",""trial"",""time""
""blur"",""9"",""43111""
","""event"",""trial"",""time""
""focus"",""9"",""44371""
","""event"",""trial"",""time""
""fullscreenenter"",""5"",""20253""
","""event"",""trial"",""time""
""fullscreenexit"",""9"",""42115""
","","","","","","","","","","","","","","","","","","","","","",""
"audio-keyboard-response","122","398254","0.0-63.0","626","692","10","Male","true","true","true","true","""event"",""trial"",""time""
""fullscreenenter"",""5"",""20253""
""fullscreenexit"",""9"",""42115""
""blur"",""9"",""43111""
""focus"",""9"",""44371""
","""event"",""trial"",""time""
""blur"",""9"",""43111""
","""event"",""trial"",""time""
""focus"",""9"",""44371""
","""event"",""trial"",""time""
""fullscreenenter"",""5"",""20253""
","""event"",""trial"",""time""
""fullscreenexit"",""9"",""42115""
","1552","audio/instructions/treasure_feedback.wav","32","","","","","","","","","","","","","","","","","","",""
"d3-instructions","123","401083","0.0-64.0","626","692","10","Male","true","true","true","true","""event"",""trial"",""time""
""fullscreenenter"",""5"",""20253""
""fullscreenexit"",""9"",""42115""
""blur"",""9"",""43111""
""focus"",""9"",""44371""
","""event"",""trial"",""time""
""blur"",""9"",""43111""
","""event"",""trial"",""time""
""focus"",""9"",""44371""
","""event"",""trial"",""time""
""fullscreenenter"",""5"",""20253""
","""event"",""trial"",""time""
""fullscreenexit"",""9"",""42115""
","","","","","","","","","","","","","","","","","","","","","",""
"d3-instructions","124","412565","0.0-65.0","626","692","10","Male","true","true","true","true","""event"",""trial"",""time""
""fullscreenenter"",""5"",""20253""
""fullscreenexit"",""9"",""42115""
""blur"",""9"",""43111""
""focus"",""9"",""44371""
","""event"",""trial"",""time""
""blur"",""9"",""43111""
","""event"",""trial"",""time""
""focus"",""9"",""44371""
","""event"",""trial"",""time""
""fullscreenenter"",""5"",""20253""
","""event"",""trial"",""time""
""fullscreenexit"",""9"",""42115""
","","","","","","","","","","","","","","","","","","","","","",""
"d3-instructions","125","423630","0.0-66.0","626","692","10","Male","true","true","true","true","""event"",""trial"",""time""
""fullscreenenter"",""5"",""20253""
""fullscreenexit"",""9"",""42115""
""blur"",""9"",""43111""
""focus"",""9"",""44371""
","""event"",""trial"",""time""
""blur"",""9"",""43111""
","""event"",""trial"",""time""
""focus"",""9"",""44371""
","""event"",""trial"",""time""
""fullscreenenter"",""5"",""20253""
","""event"",""trial"",""time""
""fullscreenexit"",""9"",""42115""
","","","","","","","","","","","","","","","","","","","","","",""
"d3-instructions","126","443488","0.0-67.0","626","692","10","Male","true","true","true","true","""event"",""trial"",""time""
""fullscreenenter"",""5"",""20253""
""fullscreenexit"",""9"",""42115""
""blur"",""9"",""43111""
""focus"",""9"",""44371""
","""event"",""trial"",""time""
""blur"",""9"",""43111""
","""event"",""trial"",""time""
""focus"",""9"",""44371""
","""event"",""trial"",""time""
""fullscreenenter"",""5"",""20253""
","""event"",""trial"",""time""
""fullscreenexit"",""9"",""42115""
","","","","","","","","","","","","","","","","","","","","","",""
"d3-instructions","127","444965","0.0-68.0","626","692","10","Male","true","true","true","true","""event"",""trial"",""time""
""fullscreenenter"",""5"",""20253""
""fullscreenexit"",""9"",""42115""
""blur"",""9"",""43111""
""focus"",""9"",""44371""
","""event"",""trial"",""time""
""blur"",""9"",""43111""
","""event"",""trial"",""time""
""focus"",""9"",""44371""
","""event"",""trial"",""time""
""fullscreenenter"",""5"",""20253""
","""event"",""trial"",""time""
""fullscreenexit"",""9"",""42115""
","","","","","","","","","","","","","","","","","","","","","",""
"instructions-quiz","128","449103","0.0-69.0","626","692","10","Male","true","true","true","true","""event"",""trial"",""time""
""fullscreenenter"",""5"",""20253""
""fullscreenexit"",""9"",""42115""
""blur"",""9"",""43111""
""focus"",""9"",""44371""
","""event"",""trial"",""time""
""blur"",""9"",""43111""
","""event"",""trial"",""time""
""focus"",""9"",""44371""
","""event"",""trial"",""time""
""fullscreenenter"",""5"",""20253""
","""event"",""trial"",""time""
""fullscreenexit"",""9"",""42115""
","4136.100000023842","audio/quiz/Q1_Prompt.wav","","1","","","","","","","","","","","","","","","","","",""
"audio-keyboard-response","129","450578","0.0-70.0","626","692","10","Male","true","true","true","true","""event"",""trial"",""time""
""fullscreenenter"",""5"",""20253""
""fullscreenexit"",""9"",""42115""
""blur"",""9"",""43111""
""focus"",""9"",""44371""
","""event"",""trial"",""time""
""blur"",""9"",""43111""
","""event"",""trial"",""time""
""focus"",""9"",""44371""
","""event"",""trial"",""time""
""fullscreenenter"",""5"",""20253""
","""event"",""trial"",""time""
""fullscreenexit"",""9"",""42115""
","1472","audio/quiz/Q1_Correct.wav","32","","","","","","","","","","","","","","","","","","",""
"instructions-quiz","130","452728","0.0-71.0","626","692","10","Male","true","true","true","true","""event"",""trial"",""time""
""fullscreenenter"",""5"",""20253""
""fullscreenexit"",""9"",""42115""
""blur"",""9"",""43111""
""focus"",""9"",""44371""
","""event"",""trial"",""time""
""blur"",""9"",""43111""
","""event"",""trial"",""time""
""focus"",""9"",""44371""
","""event"",""trial"",""time""
""fullscreenenter"",""5"",""20253""
","""event"",""trial"",""time""
""fullscreenexit"",""9"",""42115""
","2146.900000035763","audio/quiz/Q2_Prompt.wav","","0","","","","","","","","","","","","","","","","","",""
"audio-keyboard-response","131","453099","0.0-72.0","626","692","10","Male","true","true","true","true","""event"",""trial"",""time""
""fullscreenenter"",""5"",""20253""
""fullscreenexit"",""9"",""42115""
""blur"",""9"",""43111""
""focus"",""9"",""44371""
","""event"",""trial"",""time""
""blur"",""9"",""43111""
","""event"",""trial"",""time""
""focus"",""9"",""44371""
","""event"",""trial"",""time""
""fullscreenenter"",""5"",""20253""
","""event"",""trial"",""time""
""fullscreenexit"",""9"",""42115""
","371","audio/quiz/Q2_Correct.wav","32","","","","","","","","","","","","","","","","","","",""
"instructions-quiz","132","455992","0.0-73.0","626","692","10","Male","true","true","true","true","""event"",""trial"",""time""
""fullscreenenter"",""5"",""20253""
""fullscreenexit"",""9"",""42115""
""blur"",""9"",""43111""
""focus"",""9"",""44371""
","""event"",""trial"",""time""
""blur"",""9"",""43111""
","""event"",""trial"",""time""
""focus"",""9"",""44371""
","""event"",""trial"",""time""
""fullscreenenter"",""5"",""20253""
","""event"",""trial"",""time""
""fullscreenexit"",""9"",""42115""
","2891.2000000476837","audio/quiz/Q3_Prompt.wav","","1","","","","","","","","","","","","","","","","","",""
"audio-keyboard-response","133","456201","0.0-74.0","626","692","10","Male","true","true","true","true","""event"",""trial"",""time""
""fullscreenenter"",""5"",""20253""
""fullscreenexit"",""9"",""42115""
""blur"",""9"",""43111""
""focus"",""9"",""44371""
","""event"",""trial"",""time""
""blur"",""9"",""43111""
","""event"",""trial"",""time""
""focus"",""9"",""44371""
","""event"",""trial"",""time""
""fullscreenenter"",""5"",""20253""
","""event"",""trial"",""time""
""fullscreenexit"",""9"",""42115""
","211","audio/quiz/Q3_Correct.wav","32","","","","","","","","","","","","","","","","","","",""
"d3-instructions","134","459026","0.0-75.0","626","692","10","Male","true","true","true","true","""event"",""trial"",""time""
""fullscreenenter"",""5"",""20253""
""fullscreenexit"",""9"",""42115""
""blur"",""9"",""43111""
""focus"",""9"",""44371""
","""event"",""trial"",""time""
""blur"",""9"",""43111""
","""event"",""trial"",""time""
""focus"",""9"",""44371""
","""event"",""trial"",""time""
""fullscreenenter"",""5"",""20253""
","""event"",""trial"",""time""
""fullscreenexit"",""9"",""42115""
","","","","","","","","","","","","","","","","","","","","","",""
"d3-animate-choice","135","461643","0.0-76.0-0.0","626","692","10","Male","true","true","true","true","""event"",""trial"",""time""
""fullscreenenter"",""5"",""20253""
""fullscreenexit"",""9"",""42115""
""blur"",""9"",""43111""
""focus"",""9"",""44371""
","""event"",""trial"",""time""
""blur"",""9"",""43111""
","""event"",""trial"",""time""
""focus"",""9"",""44371""
","""event"",""trial"",""time""
""fullscreenenter"",""5"",""20253""
","""event"",""trial"",""time""
""fullscreenexit"",""9"",""42115""
","598.6999999880791","","49","","","3000","1","772.6000000238419","48","images/earth.jpg","images/rocket2","images/rocket1","null","images/rocket1","","1","real","null","1","","",""
"d3-animate-choice","136","463846","0.0-76.0-1.0","626","692","10","Male","true","true","true","true","""event"",""trial"",""time""
""fullscreenenter"",""5"",""20253""
""fullscreenexit"",""9"",""42115""
""blur"",""9"",""43111""
""focus"",""9"",""44371""
","""event"",""trial"",""time""
""blur"",""9"",""43111""
","""event"",""trial"",""time""
""focus"",""9"",""44371""
","""event"",""trial"",""time""
""fullscreenenter"",""5"",""20253""
","""event"",""trial"",""time""
""fullscreenexit"",""9"",""42115""
","189.89999997615814","","48","","","3000","1","","","images/redplanet1.jpg","images/alien2","images/alien1","images/rocket1","images/alien2","images/t.png","2","real","true","2","common","1","2022-02-10 15:10:42.372"
"two-step-fixation","137","464853","0.0-76.0-2.0","626","692","10","Male","true","true","true","true","""event"",""trial"",""time""
""fullscreenenter"",""5"",""20253""
""fullscreenexit"",""9"",""42115""
""blur"",""9"",""43111""
""focus"",""9"",""44371""
","""event"",""trial"",""time""
""blur"",""9"",""43111""
","""event"",""trial"",""time""
""focus"",""9"",""44371""
","""event"",""trial"",""time""
""fullscreenenter"",""5"",""20253""
","""event"",""trial"",""time""
""fullscreenexit"",""9"",""42115""
","","images/earth.jpg","","","","","","","","","","","","","","fixation","","","","","",""
"d3-animate-choice","138","466861","0.0-76.0-0.1","626","692","10","Male","true","true","true","true","""event"",""trial"",""time""
""fullscreenenter"",""5"",""20253""
""fullscreenexit"",""9"",""42115""
""blur"",""9"",""43111""
""focus"",""9"",""44371""
","""event"",""trial"",""time""
""blur"",""9"",""43111""
","""event"",""trial"",""time""
""focus"",""9"",""44371""
","""event"",""trial"",""time""
""fullscreenenter"",""5"",""20253""
","""event"",""trial"",""time""
""fullscreenexit"",""9"",""42115""
","0.19999998807907104","","48","","","3000","1","236.19999998807907","48","images/earth.jpg","images/rocket2","images/rocket1","null","images/rocket2","","1","real","null","2","","",""
"d3-animate-choice","139","469116","0.0-76.0-1.1","626","692","10","Male","true","true","true","true","""event"",""trial"",""time""
""fullscreenenter"",""5"",""20253""
""fullscreenexit"",""9"",""42115""
""blur"",""9"",""43111""
""focus"",""9"",""44371""
","""event"",""trial"",""time""
""blur"",""9"",""43111""
","""event"",""trial"",""time""
""focus"",""9"",""44371""
","""event"",""trial"",""time""
""fullscreenenter"",""5"",""20253""
","""event"",""trial"",""time""
""fullscreenexit"",""9"",""42115""
","247.80000001192093","","49","","","3000","1","360.4000000357628","48","images/purpleplanet.jpg","images/alien4","images/alien3","images/rocket2","images/alien3","images/t.png","2","real","true","1","common","1","2022-02-10 15:10:47.642"
"two-step-fixation","140","470123","0.0-76.0-2.1","626","692","10","Male","true","true","true","true","""event"",""trial"",""time""
""fullscreenenter"",""5"",""20253""
""fullscreenexit"",""9"",""42115""
""blur"",""9"",""43111""
""focus"",""9"",""44371""
","""event"",""trial"",""time""
""blur"",""9"",""43111""
","""event"",""trial"",""time""
""focus"",""9"",""44371""
","""event"",""trial"",""time""
""fullscreenenter"",""5"",""20253""
","""event"",""trial"",""time""
""fullscreenexit"",""9"",""42115""
","","images/earth.jpg","","","","","","","","","","","","","","fixation","","","","","",""
"d3-animate-choice","141","472188","0.0-76.0-0.2","626","692","10","Male","true","true","true","true","""event"",""trial"",""time""
""fullscreenenter"",""5"",""20253""
""fullscreenexit"",""9"",""42115""
""blur"",""9"",""43111""
""focus"",""9"",""44371""
","""event"",""trial"",""time""
""blur"",""9"",""43111""
","""event"",""trial"",""time""
""focus"",""9"",""44371""
","""event"",""trial"",""time""
""fullscreenenter"",""5"",""20253""
","""event"",""trial"",""time""
""fullscreenexit"",""9"",""42115""
","58.200000047683716","","48","","","3000","1","198.20000004768372,298,402,620.2000000476837,641.2000000476837","49,48,49,48,49","images/earth.jpg","images/rocket2","images/rocket1","null","images/rocket2","","1","real","null","2","","",""
"d3-animate-choice","142","474531","0.0-76.0-1.2","626","692","10","Male","true","true","true","true","""event"",""trial"",""time""
""fullscreenenter"",""5"",""20253""
""fullscreenexit"",""9"",""42115""
""blur"",""9"",""43111""
""focus"",""9"",""44371""
","""event"",""trial"",""time""
""blur"",""9"",""43111""
","""event"",""trial"",""time""
""focus"",""9"",""44371""
","""event"",""trial"",""time""
""fullscreenenter"",""5"",""20253""
","""event"",""trial"",""time""
""fullscreenexit"",""9"",""42115""
","336.0999999642372","","49","","","3000","1","387.7999999523163","48","images/purpleplanet.jpg","images/alien4","images/alien3","images/rocket2","images/alien3","images/t.png","2","real","true","1","common","1","2022-02-10 15:10:53.057"
"two-step-fixation","143","475539","0.0-76.0-2.2","626","692","10","Male","true","true","true","true","""event"",""trial"",""time""
""fullscreenenter"",""5"",""20253""
""fullscreenexit"",""9"",""42115""
""blur"",""9"",""43111""
""focus"",""9"",""44371""
","""event"",""trial"",""time""
""blur"",""9"",""43111""
","""event"",""trial"",""time""
""focus"",""9"",""44371""
","""event"",""trial"",""time""
""fullscreenenter"",""5"",""20253""
","""event"",""trial"",""time""
""fullscreenexit"",""9"",""42115""
","","images/earth.jpg","","","","","","","","","","","","","","fixation","","","","","",""
"d3-animate-choice","144","477632","0.0-76.0-0.3","626","692","10","Male","true","true","true","true","""event"",""trial"",""time""
""fullscreenenter"",""5"",""20253""
""fullscreenexit"",""9"",""42115""
""blur"",""9"",""43111""
""focus"",""9"",""44371""
","""event"",""trial"",""time""
""blur"",""9"",""43111""
","""event"",""trial"",""time""
""focus"",""9"",""44371""
","""event"",""trial"",""time""
""fullscreenenter"",""5"",""20253""
","""event"",""trial"",""time""
""fullscreenexit"",""9"",""42115""
","86.10000002384186","","49","","","3000","1","","","images/earth.jpg","images/rocket2","images/rocket1","null","images/rocket1","","1","real","null","1","","",""
"d3-animate-choice","145","480011","0.0-76.0-1.3","626","692","10","Male","true","true","true","true","""event"",""trial"",""time""
""fullscreenenter"",""5"",""20253""
""fullscreenexit"",""9"",""42115""
""blur"",""9"",""43111""
""focus"",""9"",""44371""
","""event"",""trial"",""time""
""blur"",""9"",""43111""
","""event"",""trial"",""time""
""focus"",""9"",""44371""
","""event"",""trial"",""time""
""fullscreenenter"",""5"",""20253""
","""event"",""trial"",""time""
""fullscreenexit"",""9"",""42115""
","372.7000000476837","","49","","","3000","1","489.60000002384186","48","images/redplanet1.jpg","images/alien2","images/alien1","images/rocket1","images/alien1","images/nothing.png","2","real","true","1","common","0","2022-02-10 15:10:58.538"
"two-step-fixation","146","481017","0.0-76.0-2.3","626","692","10","Male","true","true","true","true","""event"",""trial"",""time""
""fullscreenenter"",""5"",""20253""
""fullscreenexit"",""9"",""42115""
""blur"",""9"",""43111""
""focus"",""9"",""44371""
","""event"",""trial"",""time""
""blur"",""9"",""43111""
","""event"",""trial"",""time""
""focus"",""9"",""44371""
","""event"",""trial"",""time""
""fullscreenenter"",""5"",""20253""
","""event"",""trial"",""time""
""fullscreenexit"",""9"",""42115""
","","images/earth.jpg","","","","","","","","","","","","","","fixation","","","","","",""
"d3-animate-choice","147","483165","0.0-76.0-0.4","626","692","10","Male","true","true","true","true","""event"",""trial"",""time""
""fullscreenenter"",""5"",""20253""
""fullscreenexit"",""9"",""42115""
""blur"",""9"",""43111""
""focus"",""9"",""44371""
","""event"",""trial"",""time""
""blur"",""9"",""43111""
","""event"",""trial"",""time""
""focus"",""9"",""44371""
","""event"",""trial"",""time""
""fullscreenenter"",""5"",""20253""
","""event"",""trial"",""time""
""fullscreenexit"",""9"",""42115""
","141.39999997615814","","48","","","3000","1","333.5999999642372","48","images/earth.jpg","images/rocket2","images/rocket1","null","images/rocket2","","1","real","null","2","","",""
"d3-animate-choice","148","485477","0.0-76.0-1.4","626","692","10","Male","true","true","true","true","""event"",""trial"",""time""
""fullscreenenter"",""5"",""20253""
""fullscreenexit"",""9"",""42115""
""blur"",""9"",""43111""
""focus"",""9"",""44371""
","""event"",""trial"",""time""
""blur"",""9"",""43111""
","""event"",""trial"",""time""
""focus"",""9"",""44371""
","""event"",""trial"",""time""
""fullscreenenter"",""5"",""20253""
","""event"",""trial"",""time""
""fullscreenexit"",""9"",""42115""
","305.5","","48","","","3000","1","","","images/redplanet1.jpg","images/alien2","images/alien1","images/rocket2","images/alien2","images/nothing.png","2","real","false","2","rare","0","2022-02-10 15:11:04.004"
"two-step-fixation","149","486484","0.0-76.0-2.4","626","692","10","Male","true","true","true","true","""event"",""trial"",""time""
""fullscreenenter"",""5"",""20253""
""fullscreenexit"",""9"",""42115""
""blur"",""9"",""43111""
""focus"",""9"",""44371""
","""event"",""trial"",""time""
""blur"",""9"",""43111""
","""event"",""trial"",""time""
""focus"",""9"",""44371""
","""event"",""trial"",""time""
""fullscreenenter"",""5"",""20253""
","""event"",""trial"",""time""
""fullscreenexit"",""9"",""42115""
","","images/earth.jpg","","","","","","","","","","","","","","fixation","","","","","",""
"d3-animate-choice","150","488618","0.0-76.0-0.5","626","692","10","Male","true","true","true","true","""event"",""trial"",""time""
""fullscreenenter"",""5"",""20253""
""fullscreenexit"",""9"",""42115""
""blur"",""9"",""43111""
""focus"",""9"",""44371""
","""event"",""trial"",""time""
""blur"",""9"",""43111""
","""event"",""trial"",""time""
""focus"",""9"",""44371""
","""event"",""trial"",""time""
""fullscreenenter"",""5"",""20253""
","""event"",""trial"",""time""
""fullscreenexit"",""9"",""42115""
","116.09999996423721","","49","","","3000","1","","","images/earth.jpg","images/rocket2","images/rocket1","null","images/rocket1","","1","real","null","1","","",""
"d3-animate-choice","151","490927","0.0-76.0-1.5","626","692","10","Male","true","true","true","true","""event"",""trial"",""time""
""fullscreenenter"",""5"",""20253""
""fullscreenexit"",""9"",""42115""
""blur"",""9"",""43111""
""focus"",""9"",""44371""
","""event"",""trial"",""time""
""blur"",""9"",""43111""
","""event"",""trial"",""time""
""focus"",""9"",""44371""
","""event"",""trial"",""time""
""fullscreenenter"",""5"",""20253""
","""event"",""trial"",""time""
""fullscreenexit"",""9"",""42115""
","303.4000000357628","","48","","","3000","1","","","images/purpleplanet.jpg","images/alien4","images/alien3","images/rocket1","images/alien4","images/t.png","2","real","false","2","rare","1","2022-02-10 15:11:09.453"
"two-step-fixation","152","491934","0.0-76.0-2.5","626","692","10","Male","true","true","true","true","""event"",""trial"",""time""
""fullscreenenter"",""5"",""20253""
""fullscreenexit"",""9"",""42115""
""blur"",""9"",""43111""
""focus"",""9"",""44371""
","""event"",""trial"",""time""
""blur"",""9"",""43111""
","""event"",""trial"",""time""
""focus"",""9"",""44371""
","""event"",""trial"",""time""
""fullscreenenter"",""5"",""20253""
","""event"",""trial"",""time""
""fullscreenexit"",""9"",""42115""
","","images/earth.jpg","","","","","","","","","","","","","","fixation","","","","","",""
"d3-animate-choice","153","493970","0.0-76.0-0.6","626","692","10","Male","true","true","true","true","""event"",""trial"",""time""
""fullscreenenter"",""5"",""20253""
""fullscreenexit"",""9"",""42115""
""blur"",""9"",""43111""
""focus"",""9"",""44371""
","""event"",""trial"",""time""
""blur"",""9"",""43111""
","""event"",""trial"",""time""
""focus"",""9"",""44371""
","""event"",""trial"",""time""
""fullscreenenter"",""5"",""20253""
","""event"",""trial"",""time""
""fullscreenexit"",""9"",""42115""
","28.599999964237213","","49","","","3000","1","","","images/earth.jpg","images/rocket2","images/rocket1","null","images/rocket1","","1","real","null","1","","",""
"d3-animate-choice","154","496453","0.0-76.0-1.6","626","692","10","Male","true","true","true","true","""event"",""trial"",""time""
""fullscreenenter"",""5"",""20253""
""fullscreenexit"",""9"",""42115""
""blur"",""9"",""43111""
""focus"",""9"",""44371""
","""event"",""trial"",""time""
""blur"",""9"",""43111""
","""event"",""trial"",""time""
""focus"",""9"",""44371""
","""event"",""trial"",""time""
""fullscreenenter"",""5"",""20253""
