"trial_type","trial_index","time_elapsed","internal_node_id","participant_id","subject_id","age","gender","rocket_sides","red_planet_first_rocket","red_display_order","purple_display_order","interactions","blur_events","focus_events","fullscreenenter_events","fullscreenexit_events","rt","stimulus","key_press","button_pressed","success","duration","valid_pressed","rts","keys","planet_text","right_text","left_text","center_text","chosen_text","reward_text","trial_stage","practice_trial","transition_type","choice","transition","reward","timestamp"
"pavlovia","0","9","0.0-0.0","603","658","16","Male","false","false","false","false","
","
","
","
","
","","","","","","","","","","","","","","","","","","","","","",""
"html-keyboard-response","1","1428","0.0-1.0","603","658","16","Male","false","false","false","false","
","
","
","
","
","1410.1999999999825","Welcome! Press the space bar to begin.","66","","","","","","","","","","","","","","","","","","",""
"audio-keyboard-response","2","4075","0.0-2.0","603","658","16","Male","false","false","false","false","
","
","
","
","
","2645","audio/beep_loop.wav","32","","","","","","","","","","","","","","","","","","",""
"audio-button-response","3","10284","0.0-3.0","603","658","16","Male","false","false","false","false","
","
","
","
","
","NaN","audio/fish.mp3","","1","","","","","","","","","","","","","","","","","",""
"audio-button-response","4","12774","0.0-4.0","603","658","16","Male","false","false","false","false","""event"",""trial"",""time""
""fullscreenenter"",""5"",""15695""
","
","
","""event"",""trial"",""time""
""fullscreenenter"",""5"",""15695""
","
","NaN","audio/tiger.mp3","","4","","","","","","","","","","","","","","","","","",""
"fullscreen","5","16679","0.0-5.0","603","658","16","Male","false","false","false","false","""event"",""trial"",""time""
""fullscreenenter"",""5"",""15695""
","
","
","""event"",""trial"",""time""
""fullscreenenter"",""5"",""15695""
","
","","","","","true","","","","","","","","","","","","","","","","",""
"d3-instructions","6","29711","0.0-6.0","603","658","16","Male","false","false","false","false","""event"",""trial"",""time""
""fullscreenenter"",""5"",""15695""
","
","
","""event"",""trial"",""time""
""fullscreenenter"",""5"",""15695""
","
","","","","","","","","","","","","","","","","","","","","","",""
"d3-instructions","7","39206","0.0-7.0","603","658","16","Male","false","false","false","false","""event"",""trial"",""time""
""fullscreenenter"",""5"",""15695""
","
","
","""event"",""trial"",""time""
""fullscreenenter"",""5"",""15695""
","
","","","","","","","","","","","","","","","","","","","","","",""
"d3-instructions","8","47884","0.0-8.0","603","658","16","Male","false","false","false","false","""event"",""trial"",""time""
""fullscreenenter"",""5"",""15695""
","
","
","""event"",""trial"",""time""
""fullscreenenter"",""5"",""15695""
","
","","","","","","","","","","","","","","","","","","","","","",""
"d3-instructions","9","59206","0.0-9.0","603","658","16","Male","false","false","false","false","""event"",""trial"",""time""
""fullscreenenter"",""5"",""15695""
","
","
","""event"",""trial"",""time""
""fullscreenenter"",""5"",""15695""
","
","","","","","","","","","","","","","","","","","","","","","",""
"d3-instructions","10","78665","0.0-10.0","603","658","16","Male","false","false","false","false","""event"",""trial"",""time""
""fullscreenenter"",""5"",""15695""
","
","
","""event"",""trial"",""time""
""fullscreenenter"",""5"",""15695""
","
","","","","","","","","","","","","","","","","","","","","","",""
"d3-animate-choice","11","83331","0.0-11.0","603","658","16","Male","false","false","false","false","""event"",""trial"",""time""
""fullscreenenter"",""5"",""15695""
","
","
","""event"",""trial"",""time""
""fullscreenenter"",""5"",""15695""
","
","2644.2000000000116","","49","","","3000","1","","","images/tutgreenplanet.jpg","images/tutalien1","images/tutalien2","null","images/tutalien2","","NA","practice","null","","","",""
"d3-animate-choice","12","86439","0.0-12.0","603","658","16","Male","false","false","false","false","""event"",""trial"",""time""
""fullscreenenter"",""5"",""15695""
","
","
","""event"",""trial"",""time""
""fullscreenenter"",""5"",""15695""
","
","1095.5","","48","","","3000","1","","","images/tutgreenplanet.jpg","images/tutalien1","images/tutalien2","null","images/tutalien1","","NA","practice","null","","","",""
"d3-animate-choice","13","89287","0.0-13.0","603","658","16","Male","false","false","false","false","""event"",""trial"",""time""
""fullscreenenter"",""5"",""15695""
","
","
","""event"",""trial"",""time""
""fullscreenenter"",""5"",""15695""
","
","837","","49","","","3000","1","","","images/tutgreenplanet.jpg","images/tutalien1","images/tutalien2","null","images/tutalien2","","NA","practice","null","","","",""
"d3-animate-choice","14","91616","0.0-14.0","603","658","16","Male","false","false","false","false","""event"",""trial"",""time""
""fullscreenenter"",""5"",""15695""
","
","
","""event"",""trial"",""time""
""fullscreenenter"",""5"",""15695""
","
","318.0999999999767","","48","","","3000","1","","","images/tutgreenplanet.jpg","images/tutalien1","images/tutalien2","null","images/tutalien1","","NA","practice","null","","","",""
"d3-instructions","15","97527","0.0-15.0","603","658","16","Male","false","false","false","false","""event"",""trial"",""time""
""fullscreenenter"",""5"",""15695""
","
","
","""event"",""trial"",""time""
""fullscreenenter"",""5"",""15695""
","
","","","","","","","","","","","","","","","","","","","","","",""
"d3-instructions","16","103345","0.0-16.0","603","658","16","Male","false","false","false","false","""event"",""trial"",""time""
""fullscreenenter"",""5"",""15695""
","
","
","""event"",""trial"",""time""
""fullscreenenter"",""5"",""15695""
","
","","","","","","","","","","","","","","","","","","","","","",""
"d3-instructions","17","112442","0.0-17.0","603","658","16","Male","false","false","false","false","""event"",""trial"",""time""
""fullscreenenter"",""5"",""15695""
","
","
","""event"",""trial"",""time""
""fullscreenenter"",""5"",""15695""
","
","","","","","","","","","","","","","","","","","","","","","",""
"d3-instructions","18","125970","0.0-18.0","603","658","16","Male","false","false","false","false","""event"",""trial"",""time""
""fullscreenenter"",""5"",""15695""
","
","
","""event"",""trial"",""time""
""fullscreenenter"",""5"",""15695""
","
","","","","","","","","","","","","","","","","","","","","","",""
"d3-instructions","19","141393","0.0-19.0","603","658","16","Male","false","false","false","false","""event"",""trial"",""time""
""fullscreenenter"",""5"",""15695""
","
","
","""event"",""trial"",""time""
""fullscreenenter"",""5"",""15695""
","
","","","","","","","","","","","","","","","","","","","","","",""
"d3-animate-choice","20","146532","0.0-20.0","603","658","16","Male","false","false","false","false","""event"",""trial"",""time""
""fullscreenenter"",""5"",""15695""
","
","
","""event"",""trial"",""time""
""fullscreenenter"",""5"",""15695""
","
","3129.9000000000233","","49","","","3000","1","","","images/tutyellowplanet.jpg","null","images/tutalien3","null","images/tutalien3","images/t.png","NA","practice","null","","","",""
"d3-animate-choice","21","148880","0.0-21.0","603","658","16","Male","false","false","false","false","""event"",""trial"",""time""
""fullscreenenter"",""5"",""15695""
","
","
","""event"",""trial"",""time""
""fullscreenenter"",""5"",""15695""
","
","337.29999999998836","","49","","","3000","1","1854.7000000000116","49","images/tutyellowplanet.jpg","null","images/tutalien3","null","images/tutalien3","images/t.png","NA","practice","null","","","",""
"d3-animate-choice","22","151181","0.0-22.0","603","658","16","Male","false","false","false","false","""event"",""trial"",""time""
""fullscreenenter"",""5"",""15695""
","
","
","""event"",""trial"",""time""
""fullscreenenter"",""5"",""15695""
","
","289.1000000000349","","49","","","3000","1","","","images/tutyellowplanet.jpg","null","images/tutalien3","null","images/tutalien3","images/t.png","NA","practice","null","","","",""
"d3-animate-choice","23","153567","0.0-23.0","603","658","16","Male","false","false","false","false","""event"",""trial"",""time""
""fullscreenenter"",""5"",""15695""
","
","
","""event"",""trial"",""time""
""fullscreenenter"",""5"",""15695""
","
","377.5","","49","","","3000","1","","","images/tutyellowplanet.jpg","null","images/tutalien3","null","images/tutalien3","images/t.png","NA","practice","null","","","",""
"d3-animate-choice","24","155913","0.0-24.0","603","658","16","Male","false","false","false","false","""event"",""trial"",""time""
""fullscreenenter"",""5"",""15695""
","
","
","""event"",""trial"",""time""
""fullscreenenter"",""5"",""15695""
","
","334.29999999998836","","49","","","3000","1","","","images/tutyellowplanet.jpg","null","images/tutalien3","null","images/tutalien3","images/t.png","NA","practice","null","","","",""
"d3-animate-choice","25","158458","0.0-25.0","603","658","16","Male","false","false","false","false","""event"",""trial"",""time""
""fullscreenenter"",""5"",""15695""
","
","
","""event"",""trial"",""time""
""fullscreenenter"",""5"",""15695""
","
","534.5","","49","","","3000","1","","","images/tutyellowplanet.jpg","null","images/tutalien3","null","images/tutalien3","images/nothing.png","NA","practice","null","","","",""
"d3-animate-choice","26","160949","0.0-26.0","603","658","16","Male","false","false","false","false","""event"",""trial"",""time""
""fullscreenenter"",""5"",""15695""
","
","
","""event"",""trial"",""time""
""fullscreenenter"",""5"",""15695""
","
","480","","49","","","3000","1","","","images/tutyellowplanet.jpg","null","images/tutalien3","null","images/tutalien3","images/t.png","NA","practice","null","","","",""
"d3-animate-choice","27","163364","0.0-27.0","603","658","16","Male","false","false","false","false","""event"",""trial"",""time""
""fullscreenenter"",""5"",""15695""
","
","
","""event"",""trial"",""time""
""fullscreenenter"",""5"",""15695""
","
","404.9000000000233","","49","","","3000","1","1906.4000000000233","49","images/tutyellowplanet.jpg","null","images/tutalien3","null","images/tutalien3","images/nothing.png","NA","practice","null","","","",""
"d3-animate-choice","28","165923","0.0-28.0","603","658","16","Male","false","false","false","false","""event"",""trial"",""time""
""fullscreenenter"",""5"",""15695""
","
","
","""event"",""trial"",""time""
""fullscreenenter"",""5"",""15695""
","
","547.9000000000233","","49","","","3000","1","","","images/tutyellowplanet.jpg","null","images/tutalien3","null","images/tutalien3","images/t.png","NA","practice","null","","","",""
"d3-animate-choice","29","168317","0.0-29.0","603","658","16","Male","false","false","false","false","""event"",""trial"",""time""
""fullscreenenter"",""5"",""15695""
","
","
","""event"",""trial"",""time""
""fullscreenenter"",""5"",""15695""
","
","382.5999999999767","","49","","","3000","1","","","images/tutyellowplanet.jpg","null","images/tutalien3","null","images/tutalien3","images/t.png","NA","practice","null","","","",""
"d3-instructions","30","176942","0.0-30.0","603","658","16","Male","false","false","false","false","""event"",""trial"",""time""
""fullscreenenter"",""5"",""15695""
","
","
","""event"",""trial"",""time""
""fullscreenenter"",""5"",""15695""
","
","","","","","","","","","","","","","","","","","","","","","",""
"d3-instructions","31","186619","0.0-31.0","603","658","16","Male","false","false","false","false","""event"",""trial"",""time""
""fullscreenenter"",""5"",""15695""
","
","
","""event"",""trial"",""time""
""fullscreenenter"",""5"",""15695""
","
","","","","","","","","","","","","","","","","","","","","","",""
"d3-instructions","32","195001","0.0-32.0","603","658","16","Male","false","false","false","false","""event"",""trial"",""time""
""fullscreenenter"",""5"",""15695""
","
","
","""event"",""trial"",""time""
""fullscreenenter"",""5"",""15695""
","
","","","","","","","","","","","","","","","","","","","","","",""
"d3-instructions","33","205123","0.0-33.0","603","658","16","Male","false","false","false","false","""event"",""trial"",""time""
""fullscreenenter"",""5"",""15695""
","
","
","""event"",""trial"",""time""
""fullscreenenter"",""5"",""15695""
","
","","","","","","","","","","","","","","","","","","","","","",""
"d3-animate-choice","34","209581","0.0-34.0","603","658","16","Male","false","false","false","false","""event"",""trial"",""time""
""fullscreenenter"",""5"",""15695""
","
","
","""event"",""trial"",""time""
""fullscreenenter"",""5"",""15695""
","
","2447.7000000000116","","49","","","3000","1","","","images/tutgreenplanet.jpg","images/tutalien1","images/tutalien2","null","images/tutalien2","images/t.png","NA","practice","null","","","",""
"d3-animate-choice","35","212290","0.0-35.0","603","658","16","Male","false","false","false","false","""event"",""trial"",""time""
""fullscreenenter"",""5"",""15695""
","
","
","""event"",""trial"",""time""
""fullscreenenter"",""5"",""15695""
","
","696.3999999999651","","49","","","3000","1","","","images/tutgreenplanet.jpg","images/tutalien1","images/tutalien2","null","images/tutalien2","images/nothing.png","NA","practice","null","","","",""
"d3-animate-choice","36","214704","0.0-36.0","603","658","16","Male","false","false","false","false","""event"",""trial"",""time""
""fullscreenenter"",""5"",""15695""
","
","
","""event"",""trial"",""time""
""fullscreenenter"",""5"",""15695""
","
","399.29999999998836","","49","","","3000","1","","","images/tutgreenplanet.jpg","images/tutalien1","images/tutalien2","null","images/tutalien2","images/t.png","NA","practice","null","","","",""
"d3-animate-choice","37","217228","0.0-37.0","603","658","16","Male","false","false","false","false","""event"",""trial"",""time""
""fullscreenenter"",""5"",""15695""
","
","
","""event"",""trial"",""time""
""fullscreenenter"",""5"",""15695""
","
","512.9000000000233","","49","","","3000","1","","","images/tutgreenplanet.jpg","images/tutalien1","images/tutalien2","null","images/tutalien2","images/t.png","NA","practice","null","","","",""
"d3-animate-choice","38","219532","0.0-38.0","603","658","16","Male","false","false","false","false","""event"",""trial"",""time""
""fullscreenenter"",""5"",""15695""
","
","
","""event"",""trial"",""time""
""fullscreenenter"",""5"",""15695""
","
","291.69999999995343","","49","","","3000","1","","","images/tutgreenplanet.jpg","images/tutalien1","images/tutalien2","null","images/tutalien2","images/t.png","NA","practice","null","","","",""
"d3-animate-choice","39","221785","0.0-39.0","603","658","16","Male","false","false","false","false","""event"",""trial"",""time""
""fullscreenenter"",""5"",""15695""
","
","
","""event"",""trial"",""time""
""fullscreenenter"",""5"",""15695""
","
","239.20000000001164","","49","","","3000","1","","","images/tutgreenplanet.jpg","images/tutalien1","images/tutalien2","null","images/tutalien2","images/nothing.png","NA","practice","null","","","",""
"d3-animate-choice","40","224146","0.0-40.0","603","658","16","Male","false","false","false","false","""event"",""trial"",""time""
""fullscreenenter"",""5"",""15695""
","
","
","""event"",""trial"",""time""
""fullscreenenter"",""5"",""15695""
","
","348.79999999998836","","49","","","3000","1","","","images/tutgreenplanet.jpg","images/tutalien1","images/tutalien2","null","images/tutalien2","images/t.png","NA","practice","null","","","",""
"d3-animate-choice","41","226464","0.0-41.0","603","658","16","Male","false","false","false","false","""event"",""trial"",""time""
""fullscreenenter"",""5"",""15695""
","
","
","""event"",""trial"",""time""
""fullscreenenter"",""5"",""15695""
","
","305.1000000000349","","49","","","3000","1","","","images/tutgreenplanet.jpg","images/tutalien1","images/tutalien2","null","images/tutalien2","images/t.png","NA","practice","null","","","",""
"d3-animate-choice","42","228747","0.0-42.0","603","658","16","Male","false","false","false","false","""event"",""trial"",""time""
""fullscreenenter"",""5"",""15695""
","
","
","""event"",""trial"",""time""
""fullscreenenter"",""5"",""15695""
","
","270.79999999998836","","49","","","3000","1","","","images/tutgreenplanet.jpg","images/tutalien1","images/tutalien2","null","images/tutalien2","images/nothing.png","NA","practice","null","","","",""
"d3-animate-choice","43","231095","0.0-43.0","603","658","16","Male","false","false","false","false","""event"",""trial"",""time""
""fullscreenenter"",""5"",""15695""
","
","
","""event"",""trial"",""time""
""fullscreenenter"",""5"",""15695""
","
","336.79999999998836","","49","","","3000","1","","","images/tutgreenplanet.jpg","images/tutalien1","images/tutalien2","null","images/tutalien2","images/nothing.png","NA","practice","null","","","",""
"d3-instructions","44","245209","0.0-44.0","603","658","16","Male","false","false","false","false","""event"",""trial"",""time""
""fullscreenenter"",""5"",""15695""
","
","
","""event"",""trial"",""time""
""fullscreenenter"",""5"",""15695""
","
","","","","","","","","","","","","","","","","","","","","","",""
"d3-instructions","45","250822","0.0-45.0","603","658","16","Male","false","false","false","false","""event"",""trial"",""time""
""fullscreenenter"",""5"",""15695""
","
","
","""event"",""trial"",""time""
""fullscreenenter"",""5"",""15695""
","
","","","","","","","","","","","","","","","","","","","","","",""
"d3-instructions","46","256266","0.0-46.0","603","658","16","Male","false","false","false","false","""event"",""trial"",""time""
""fullscreenenter"",""5"",""15695""
","
","
","""event"",""trial"",""time""
""fullscreenenter"",""5"",""15695""
","
","","","","","","","","","","","","","","","","","","","","","",""
"d3-instructions","47","272559","0.0-47.0","603","658","16","Male","false","false","false","false","""event"",""trial"",""time""
""fullscreenenter"",""5"",""15695""
","
","
","""event"",""trial"",""time""
""fullscreenenter"",""5"",""15695""
","
","","","","","","","","","","","","","","","","","","","","","",""
"d3-instructions","48","279768","0.0-48.0","603","658","16","Male","false","false","false","false","""event"",""trial"",""time""
""fullscreenenter"",""5"",""15695""
","
","
","""event"",""trial"",""time""
""fullscreenenter"",""5"",""15695""
","
","","","","","","","","","","","","","","","","","","","","","",""
"d3-instructions","49","290787","0.0-49.0","603","658","16","Male","false","false","false","false","""event"",""trial"",""time""
""fullscreenenter"",""5"",""15695""
","
","
","""event"",""trial"",""time""
""fullscreenenter"",""5"",""15695""
","
","","","","","","","","","","","","","","","","","","","","","",""
"d3-instructions","50","299812","0.0-50.0","603","658","16","Male","false","false","false","false","""event"",""trial"",""time""
""fullscreenenter"",""5"",""15695""
","
","
","""event"",""trial"",""time""
""fullscreenenter"",""5"",""15695""
","
","","","","","","","","","","","","","","","","","","","","","",""
"d3-instructions","51","302646","0.0-51.0","603","658","16","Male","false","false","false","false","""event"",""trial"",""time""
""fullscreenenter"",""5"",""15695""
","
","
","""event"",""trial"",""time""
""fullscreenenter"",""5"",""15695""
","
","","","","","","","","","","","","","","","","","","","","","",""
"d3-instructions","52","304597","0.0-52.0","603","658","16","Male","false","false","false","false","""event"",""trial"",""time""
""fullscreenenter"",""5"",""15695""
","
","
","""event"",""trial"",""time""
""fullscreenenter"",""5"",""15695""
","
","","","","","","","","","","","","","","","","","","","","","",""
"d3-instructions","53","316150","0.0-53.0","603","658","16","Male","false","false","false","false","""event"",""trial"",""time""
""fullscreenenter"",""5"",""15695""
","
","
","""event"",""trial"",""time""
""fullscreenenter"",""5"",""15695""
","
","","","","","","","","","","","","","","","","","","","","","",""
"d3-instructions","54","328452","0.0-54.0","603","658","16","Male","false","false","false","false","""event"",""trial"",""time""
""fullscreenenter"",""5"",""15695""
","
","
","""event"",""trial"",""time""
""fullscreenenter"",""5"",""15695""
","
","","","","","","","","","","","","","","","","","","","","","",""
"d3-instructions","55","338439","0.0-55.0","603","658","16","Male","false","false","false","false","""event"",""trial"",""time""
""fullscreenenter"",""5"",""15695""
","
","
","""event"",""trial"",""time""
""fullscreenenter"",""5"",""15695""
","
","","","","","","","","","","","","","","","","","","","","","",""
"d3-instructions","56","346375","0.0-56.0","603","658","16","Male","false","false","false","false","""event"",""trial"",""time""
""fullscreenenter"",""5"",""15695""
","
","
","""event"",""trial"",""time""
""fullscreenenter"",""5"",""15695""
","
","","","","","","","","","","","","","","","","","","","","","",""
"d3-instructions","57","359137","0.0-57.0","603","658","16","Male","false","false","false","false","""event"",""trial"",""time""
""fullscreenenter"",""5"",""15695""
","
","
","""event"",""trial"",""time""
""fullscreenenter"",""5"",""15695""
","
","","","","","","","","","","","","","","","","","","","","","",""
"d3-instructions","58","369800","0.0-58.0","603","658","16","Male","false","false","false","false","""event"",""trial"",""time""
""fullscreenenter"",""5"",""15695""
","
","
","""event"",""trial"",""time""
""fullscreenenter"",""5"",""15695""
","
","","","","","","","","","","","","","","","","","","","","","",""
"d3-instructions","59","374680","0.0-59.0","603","658","16","Male","false","false","false","false","""event"",""trial"",""time""
""fullscreenenter"",""5"",""15695""
","
","
","""event"",""trial"",""time""
""fullscreenenter"",""5"",""15695""
","
","","","","","","","","","","","","","","","","","","","","","",""
"d3-instructions","60","380896","0.0-60.0","603","658","16","Male","false","false","false","false","""event"",""trial"",""time""
""fullscreenenter"",""5"",""15695""
","
","
","""event"",""trial"",""time""
""fullscreenenter"",""5"",""15695""
","
","","","","","","","","","","","","","","","","","","","","","",""
"d3-animate-choice","61","384447","0.0-61.0-0.0","603","658","16","Male","false","false","false","false","""event"",""trial"",""time""
""fullscreenenter"",""5"",""15695""
","
","
","""event"",""trial"",""time""
""fullscreenenter"",""5"",""15695""
","
","1537.3999999999069","","49","","","3000","1","","","images/earth.jpg","images/tutrocket1","images/tutrocket2","null","images/tutrocket2","","1","practice","null","1","","",""
"d3-animate-choice","62","387403","0.0-61.0-1.0","603","658","16","Male","false","false","false","false","""event"",""trial"",""time""
""fullscreenenter"",""5"",""15695""
","
","
","""event"",""trial"",""time""
""fullscreenenter"",""5"",""15695""
","
","932.9000000000233","","49","","","3000","1","","","images/tutyellowplanet.jpg","images/tutalien4","images/tutalien3","images/tutrocket2","images/tutalien3","images/t.png","2","practice","false","1","rare","1","2022-02-13 17:00:13.018"
"two-step-fixation","63","388422","0.0-61.0-2.0","603","658","16","Male","false","false","false","false","""event"",""trial"",""time""
""fullscreenenter"",""5"",""15695""
","
","
","""event"",""trial"",""time""
""fullscreenenter"",""5"",""15695""
","
","","images/earth.jpg","","","","","","","","","","","","","","fixation","","","","","",""
"d3-animate-choice","64","390734","0.0-61.0-0.1","603","658","16","Male","false","false","false","false","""event"",""trial"",""time""
""fullscreenenter"",""5"",""15695""
","
","
","""event"",""trial"",""time""
""fullscreenenter"",""5"",""15695""
","
","297.10000000009313","","49","","","3000","1","","","images/earth.jpg","images/tutrocket1","images/tutrocket2","null","images/tutrocket2","","1","practice","null","1","","",""
"d3-animate-choice","65","393194","0.0-61.0-1.1","603","658","16","Male","false","false","false","false","""event"",""trial"",""time""
""fullscreenenter"",""5"",""15695""
","
","
","""event"",""trial"",""time""
""fullscreenenter"",""5"",""15695""
","
","443","","49","","","3000","1","","","images/tutyellowplanet.jpg","images/tutalien4","images/tutalien3","images/tutrocket2","images/tutalien3","images/t.png","2","practice","false","1","rare","1","2022-02-13 17:00:18.807"
"two-step-fixation","66","394207","0.0-61.0-2.1","603","658","16","Male","false","false","false","false","""event"",""trial"",""time""
""fullscreenenter"",""5"",""15695""
","
","
","""event"",""trial"",""time""
""fullscreenenter"",""5"",""15695""
","
","","images/earth.jpg","","","","","","","","","","","","","","fixation","","","","","",""
"d3-animate-choice","67","396380","0.0-61.0-0.2","603","658","16","Male","false","false","false","false","""event"",""trial"",""time""
""fullscreenenter"",""5"",""15695""
","
","
","""event"",""trial"",""time""
""fullscreenenter"",""5"",""15695""
","
","156.80000000004657","","49","","","3000","1","","","images/earth.jpg","images/tutrocket1","images/tutrocket2","null","images/tutrocket2","","1","practice","null","1","","",""
"d3-animate-choice","68","398977","0.0-61.0-1.2","603","658","16","Male","false","false","false","false","""event"",""trial"",""time""
""fullscreenenter"",""5"",""15695""
","
","
","""event"",""trial"",""time""
""fullscreenenter"",""5"",""15695""
","
","582.6000000000931","","49","","","3000","1","","","images/tutgreenplanet.jpg","images/tutalien2","images/tutalien1","images/tutrocket2","images/tutalien1","images/nothing.png","2","practice","true","1","common","0","2022-02-13 17:00:24.590"
"two-step-fixation","69","399991","0.0-61.0-2.2","603","658","16","Male","false","false","false","false","""event"",""trial"",""time""
""fullscreenenter"",""5"",""15695""
","
","
","""event"",""trial"",""time""
""fullscreenenter"",""5"",""15695""
","
","","images/earth.jpg","","","","","","","","","","","","","","fixation","","","","","",""
"d3-animate-choice","70","402019","0.0-61.0-0.3","603","658","16","Male","false","false","false","false","""event"",""trial"",""time""
""fullscreenenter"",""5"",""15695""
","
","
","""event"",""trial"",""time""
""fullscreenenter"",""5"",""15695""
","
","13.20000000006985","","49","","","3000","1","","","images/earth.jpg","images/tutrocket1","images/tutrocket2","null","images/tutrocket2","","1","practice","null","1","","",""
"d3-animate-choice","71","404430","0.0-61.0-1.3","603","658","16","Male","false","false","false","false","""event"",""trial"",""time""
""fullscreenenter"",""5"",""15695""
","
","
","""event"",""trial"",""time""
""fullscreenenter"",""5"",""15695""
","
","397","","49","","","3000","1","","","images/tutyellowplanet.jpg","images/tutalien4","images/tutalien3","images/tutrocket2","images/tutalien3","images/nothing.png","2","practice","false","1","rare","0","2022-02-13 17:00:30.043"
"two-step-fixation","72","405443","0.0-61.0-2.3","603","658","16","Male","false","false","false","false","""event"",""trial"",""time""
""fullscreenenter"",""5"",""15695""
","
","
","""event"",""trial"",""time""
""fullscreenenter"",""5"",""15695""
","
","","images/earth.jpg","","","","","","","","","","","","","","fixation","","","","","",""
"d3-animate-choice","73","407845","0.0-61.0-0.4","603","658","16","Male","false","false","false","false","""event"",""trial"",""time""
""fullscreenenter"",""5"",""15695""
","
","
","""event"",""trial"",""time""
""fullscreenenter"",""5"",""15695""
","
","386.20000000006985","","49","","","3000","1","","","images/earth.jpg","images/tutrocket1","images/tutrocket2","null","images/tutrocket2","","1","practice","null","1","","",""
"d3-animate-choice","74","410862","0.0-61.0-1.4","603","658","16","Male","false","false","false","false","""event"",""trial"",""time""
""fullscreenenter"",""5"",""15695""
","
","
","""event"",""trial"",""time""
""fullscreenenter"",""5"",""15695""
","
","1002.4000000000233","","48","","","3000","1","","","images/tutgreenplanet.jpg","images/tutalien2","images/tutalien1","images/tutrocket2","images/tutalien2","images/nothing.png","2","practice","true","2","common","0","2022-02-13 17:00:36.475"
"two-step-fixation","75","411875","0.0-61.0-2.4","603","658","16","Male","false","false","false","false","""event"",""trial"",""time""
""fullscreenenter"",""5"",""15695""
","
","
","""event"",""trial"",""time""
""fullscreenenter"",""5"",""15695""
","
","","images/earth.jpg","","","","","","","","","","","","","","fixation","","","","","",""
"d3-animate-choice","76","414710","0.0-61.0-0.5","603","658","16","Male","false","false","false","false","""event"",""trial"",""time""
""fullscreenenter"",""5"",""15695""
","
","
","""event"",""trial"",""time""
""fullscreenenter"",""5"",""15695""
","
","819.3999999999069","","48","","","3000","1","","","images/earth.jpg","images/tutrocket1","images/tutrocket2","null","images/tutrocket1","","1","practice","null","2","","",""
"d3-animate-choice","77","417223","0.0-61.0-1.5","603","658","16","Male","false","false","false","false","""event"",""trial"",""time""
""fullscreenenter"",""5"",""15695""
","
","
","""event"",""trial"",""time""
""fullscreenenter"",""5"",""15695""
","
","498","","49","","","3000","1","","","images/tutgreenplanet.jpg","images/tutalien2","images/tutalien1","images/tutrocket1","images/tutalien1","images/nothing.png","2","practice","false","1","rare","0","2022-02-13 17:00:42.837"
"two-step-fixation","78","418234","0.0-61.0-2.5","603","658","16","Male","false","false","false","false","""event"",""trial"",""time""
""fullscreenenter"",""5"",""15695""
","
","
","""event"",""trial"",""time""
""fullscreenenter"",""5"",""15695""
","
","","images/earth.jpg","","","","","","","","","","","","","","fixation","","","","","",""
"d3-animate-choice","79","420633","0.0-61.0-0.6","603","658","16","Male","false","false","false","false","""event"",""trial"",""time""
""fullscreenenter"",""5"",""15695""
","
","
","""event"",""trial"",""time""
""fullscreenenter"",""5"",""15695""
","
","387.0999999999767","","49","","","3000","1","","","images/earth.jpg","images/tutrocket1","images/tutrocket2","null","images/tutrocket2","","1","practice","null","1","","",""
"d3-animate-choice","80","423496","0.0-61.0-1.6","603","658","16","Male","false","false","false","false","""event"",""trial"",""time""
""fullscreenenter"",""5"",""15695""
","
","
","""event"",""trial"",""time""
""fullscreenenter"",""5"",""15695""
","
","846.6999999999534","","48","","","3000","1","","","images/tutgreenplanet.jpg","images/tutalien2","images/tutalien1","images/tutrocket2","images/tutalien2","images/nothing.png","2","practice","true","2","common","0","2022-02-13 17:00:49.109"
"two-step-fixation","81","424510","0.0-61.0-2.6","603","658","16","Male","false","false","false","false","""event"",""trial"",""time""
""fullscreenenter"",""5"",""15695""
","
","
","""event"",""trial"",""time""
""fullscreenenter"",""5"",""15695""
","
","","images/earth.jpg","","","","","","","","","","","","","","fixation","","","","","",""
"d3-animate-choice","82","426806","0.0-61.0-0.7","603","658","16","Male","false","false","false","false","""event"",""trial"",""time""
""fullscreenenter"",""5"",""15695""
","
","
","""event"",""trial"",""time""
""fullscreenenter"",""5"",""15695""
","
","281.4000000000233","","49","","","3000","1","","","images/earth.jpg","images/tutrocket1","images/tutrocket2","null","images/tutrocket2","","1","practice","null","1","","",""
"d3-animate-choice","83","429301","0.0-61.0-1.7","603","658","16","Male","false","false","false","false","""event"",""trial"",""time""
""fullscreenenter"",""5"",""15695""
","
","
","""event"",""trial"",""time""
""fullscreenenter"",""5"",""15695""
","
","479.69999999995343","","49","","","3000","1","","","images/tutyellowplanet.jpg","images/tutalien4","images/tutalien3","images/tutrocket2","images/tutalien3","images/nothing.png","2","practice","false","1","rare","0","2022-02-13 17:00:54.919"
"two-step-fixation","84","430319","0.0-61.0-2.7","603","658","16","Male","false","false","false","false","""event"",""trial"",""time""
""fullscreenenter"",""5"",""15695""
","
","
","""event"",""trial"",""time""
""fullscreenenter"",""5"",""15695""
","
","","images/earth.jpg","","","","","","","","","","","","","","fixation","","","","","",""
"d3-animate-choice","85","432635","0.0-61.0-0.8","603","658","16","Male","false","false","false","false","""event"",""trial"",""time""
""fullscreenenter"",""5"",""15695""
","
","
","""event"",""trial"",""time""
""fullscreenenter"",""5"",""15695""
","
","298.5999999999767","","49","","","3000","1","","","images/earth.jpg","images/tutrocket1","images/tutrocket2","null","images/tutrocket2","","1","practice","null","1","","",""
"d3-animate-choice","86","435571","0.0-61.0-1.8","603","658","16","Male","false","false","false","false","""event"",""trial"",""time""
""fullscreenenter"",""5"",""15695""
","
","
","""event"",""trial"",""time""
""fullscreenenter"",""5"",""15695""
","
","923.8999999999069","","48","","","3000","1","","","images/tutgreenplanet.jpg","images/tutalien2","images/tutalien1","images/tutrocket2","images/tutalien2","images/nothing.png","2","practice","true","2","common","0","2022-02-13 17:01:01.185"
"two-step-fixation","87","436586","0.0-61.0-2.8","603","658","16","Male","false","false","false","false","""event"",""trial"",""time""
""fullscreenenter"",""5"",""15695""
","
","
","""event"",""trial"",""time""
""fullscreenenter"",""5"",""15695""
","
","","images/earth.jpg","","","","","","","","","","","","","","fixation","","","","","",""
"d3-animate-choice","88","438933","0.0-61.0-0.9","603","658","16","Male","false","false","false","false","""event"",""trial"",""time""
""fullscreenenter"",""5"",""15695""
","
","
","""event"",""trial"",""time""
""fullscreenenter"",""5"",""15695""
","
","330.5","","49","","","3000","1","","","images/earth.jpg","images/tutrocket1","images/tutrocket2","null","images/tutrocket2","","1","practice","null","1","","",""
"d3-animate-choice","89","441718","0.0-61.0-1.9","603","658","16","Male","false","false","false","false","""event"",""trial"",""time""
""fullscreenenter"",""5"",""15695""
","
","
","""event"",""trial"",""time""
""fullscreenenter"",""5"",""15695""
","
","769.0999999999767","","48","","","3000","1","","","images/tutgreenplanet.jpg","images/tutalien2","images/tutalien1","images/tutrocket2","images/tutalien2","images/t.png","2","practice","true","2","common","1","2022-02-13 17:01:07.331"
"two-step-fixation","90","442732","0.0-61.0-2.9","603","658","16","Male","false","false","false","false","""event"",""trial"",""time""
""fullscreenenter"",""5"",""15695""
","
","
","""event"",""trial"",""time""
""fullscreenenter"",""5"",""15695""
","
","","images/earth.jpg","","","","","","","","","","","","","","fixation","","","","","",""
"d3-animate-choice","91","445096","0.0-61.0-0.10","603","658","16","Male","false","false","false","false","""event"",""trial"",""time""
""fullscreenenter"",""5"",""15695""
","
","
","""event"",""trial"",""time""
""fullscreenenter"",""5"",""15695""
","
","348.9000000000233","","49","","","3000","1","","","images/earth.jpg","images/tutrocket1","images/tutrocket2","null","images/tutrocket2","","1","practice","null","1","","",""
"d3-animate-choice","92","447715","0.0-61.0-1.10","603","658","16","Male","false","false","false","false","""event"",""trial"",""time""
""fullscreenenter"",""5"",""15695""
","
","
","""event"",""trial"",""time""
""fullscreenenter"",""5"",""15695""
","
","607.1000000000931","","49","","","3000","1","","","images/tutgreenplanet.jpg","images/tutalien2","images/tutalien1","images/tutrocket2","images/tutalien1","images/nothing.png","2","practice","true","1","common","0","2022-02-13 17:01:13.328"
"two-step-fixation","93","448728","0.0-61.0-2.10","603","658","16","Male","false","false","false","false","""event"",""trial"",""time""
""fullscreenenter"",""5"",""15695""
","
","
","""event"",""trial"",""time""
""fullscreenenter"",""5"",""15695""
","
","","images/earth.jpg","","","","","","","","","","","","","","fixation","","","","","",""
"d3-animate-choice","94","451069","0.0-61.0-0.11","603","658","16","Male","false","false","false","false","""event"",""trial"",""time""
""fullscreenenter"",""5"",""15695""
","
","
","""event"",""trial"",""time""
""fullscreenenter"",""5"",""15695""
","
","324.0999999999767","","49","","","3000","1","","","images/earth.jpg","images/tutrocket1","images/tutrocket2","null","images/tutrocket2","","1","practice","null","1","","",""
"d3-animate-choice","95","454059","0.0-61.0-1.11","603","658","16","Male","false","false","false","false","""event"",""trial"",""time""
""fullscreenenter"",""5"",""15695""
","
","
","""event"",""trial"",""time""
""fullscreenenter"",""5"",""15695""
","
","967.7000000000698","","48","","","3000","1","","","images/tutyellowplanet.jpg","images/tutalien4","images/tutalien3","images/tutrocket2","images/tutalien4","images/t.png","2","practice","false","2","rare","1","2022-02-13 17:01:19.673"
"two-step-fixation","96","455074","0.0-61.0-2.11","603","658","16","Male","false","false","false","false","""event"",""trial"",""time""
""fullscreenenter"",""5"",""15695""
","
","
","""event"",""trial"",""time""
""fullscreenenter"",""5"",""15695""
","
","","images/earth.jpg","","","","","","","","","","","","","","fixation","","","","","",""
"d3-animate-choice","97","457401","0.0-61.0-0.12","603","658","16","Male","false","false","false","false","""event"",""trial"",""time""
""fullscreenenter"",""5"",""15695""
","
","
","""event"",""trial"",""time""
""fullscreenenter"",""5"",""15695""
","
","309.9000000000233","","49","","","3000","1","","","images/earth.jpg","images/tutrocket1","images/tutrocket2","null","images/tutrocket2","","1","practice","null","1","","",""
"d3-animate-choice","98","460342","0.0-61.0-1.12","603","658","16","Male","false","false","false","false","""event"",""trial"",""time""
""fullscreenenter"",""5"",""15695""
","
","
","""event"",""trial"",""time""
""fullscreenenter"",""5"",""15695""
","
","924.6000000000931","","48","","","3000","1","","","images/tutgreenplanet.jpg","images/tutalien2","images/tutalien1","images/tutrocket2","images/tutalien2","images/t.png","2","practice","true","2","common","1","2022-02-13 17:01:25.955"
"two-step-fixation","99","461355","0.0-61.0-2.12","603","658","16","Male","false","false","false","false","""event"",""trial"",""time""
""fullscreenenter"",""5"",""15695""
","
","
","""event"",""trial"",""time""
""fullscreenenter"",""5"",""15695""
","
","","images/earth.jpg","","","","","","","","","","","","","","fixation","","","","","",""
"d3-animate-choice","100","463660","0.0-61.0-0.13","603","658","16","Male","false","false","false","false","""event"",""trial"",""time""
""fullscreenenter"",""5"",""15695""
","
","
","""event"",""trial"",""time""
""fullscreenenter"",""5"",""15695""
","
","289","","49","","","3000","1","","","images/earth.jpg","images/tutrocket1","images/tutrocket2","null","images/tutrocket2","","1","practice","null","1","","",""
"d3-animate-choice","101","466274","0.0-61.0-1.13","603","658","16","Male","false","false","false","false","""event"",""trial"",""time""
""fullscreenenter"",""5"",""15695""
","
","
","""event"",""trial"",""time""
""fullscreenenter"",""5"",""15695""
","
","598.5","","48","","","3000","1","","","images/tutgreenplanet.jpg","images/tutalien2","images/tutalien1","images/tutrocket2","images/tutalien2","images/nothing.png","2","practice","true","2","common","0","2022-02-13 17:01:31.887"
"two-step-fixation","102","467288","0.0-61.0-2.13","603","658","16","Male","false","false","false","false","""event"",""trial"",""time""
""fullscreenenter"",""5"",""15695""
","
","
","""event"",""trial"",""time""
""fullscreenenter"",""5"",""15695""
","
","","images/earth.jpg","","","","","","","","","","","","","","fixation","","","","","",""
"d3-animate-choice","103","469788","0.0-61.0-0.14","603","658","16","Male","false","false","false","false","""event"",""trial"",""time""
""fullscreenenter"",""5"",""15695""
","
","
","""event"",""trial"",""time""
""fullscreenenter"",""5"",""15695""
","
","484.30000000004657","","49","","","3000","1","","","images/earth.jpg","images/tutrocket1","images/tutrocket2","null","images/tutrocket2","","1","practice","null","1","","",""
"d3-animate-choice","104","472490","0.0-61.0-1.14","603","658","16","Male","false","false","false","false","""event"",""trial"",""time""
""fullscreenenter"",""5"",""15695""
","
","
","""event"",""trial"",""time""
""fullscreenenter"",""5"",""15695""
","
","687.5999999999767","","49","","","3000","1","","","images/tutgreenplanet.jpg","images/tutalien2","images/tutalien1","images/tutrocket2","images/tutalien1","images/t.png","2","practice","true","1","common","1","2022-02-13 17:01:38.104"
"two-step-fixation","105","473504","0.0-61.0-2.14","603","658","16","Male","false","false","false","false","""event"",""trial"",""time""
""fullscreenenter"",""5"",""15695""
","
","
","""event"",""trial"",""time""
""fullscreenenter"",""5"",""15695""
","
","","images/earth.jpg","","","","","","","","","","","","","","fixation","","","","","",""
"d3-animate-choice","106","475960","0.0-61.0-0.15","603","658","16","Male","false","false","false","false","""event"",""trial"",""time""
""fullscreenenter"",""5"",""15695""
","
","
","""event"",""trial"",""time""
""fullscreenenter"",""5"",""15695""
","
","439.5","","49","","","3000","1","","","images/earth.jpg","images/tutrocket1","images/tutrocket2","null","images/tutrocket2","","1","practice","null","1","","",""
"d3-animate-choice","107","478507","0.0-61.0-1.15","603","658","16","Male","false","false","false","false","""event"",""trial"",""time""
""fullscreenenter"",""5"",""15695""
","
","
","""event"",""trial"",""time""
""fullscreenenter"",""5"",""15695""
","
","531.4000000000233","","49","","","3000","1","","","images/tutgreenplanet.jpg","images/tutalien2","images/tutalien1","images/tutrocket2","images/tutalien1","images/nothing.png","2","practice","true","1","common","0","2022-02-13 17:01:44.120"
"two-step-fixation","108","479523","0.0-61.0-2.15","603","658","16","Male","false","false","false","false","""event"",""trial"",""time""
""fullscreenenter"",""5"",""15695""
","
","
","""event"",""trial"",""time""
""fullscreenenter"",""5"",""15695""
","
","","images/earth.jpg","","","","","","","","","","","","","","fixation","","","","","",""
"d3-animate-choice","109","481861","0.0-61.0-0.16","603","658","16","Male","false","false","false","false","""event"",""trial"",""time""
""fullscreenenter"",""5"",""15695""
","
","
","""event"",""trial"",""time""
""fullscreenenter"",""5"",""15695""
","
","320.4000000000233","","49","","","3000","1","","","images/earth.jpg","images/tutrocket1","images/tutrocket2","null","images/tutrocket2","","1","practice","null","1","","",""
"d3-animate-choice","110","484440","0.0-61.0-1.16","603","658","16","Male","false","false","false","false","""event"",""trial"",""time""
""fullscreenenter"",""5"",""15695""
","
","
","""event"",""trial"",""time""
""fullscreenenter"",""5"",""15695""
","
","562.5","","48","","","3000","1","","","images/tutyellowplanet.jpg","images/tutalien4","images/tutalien3","images/tutrocket2","images/tutalien4","images/nothing.png","2","practice","false","2","rare","0","2022-02-13 17:01:50.054"
"two-step-fixation","111","485455","0.0-61.0-2.16","603","658","16","Male","false","false","false","false","""event"",""trial"",""time""
""fullscreenenter"",""5"",""15695""
","
","
","""event"",""trial"",""time""
""fullscreenenter"",""5"",""15695""
","
","","images/earth.jpg","","","","","","","","","","","","","","fixation","","","","","",""
"d3-animate-choice","112","487783","0.0-61.0-0.17","603","658","16","Male","false","false","false","false","""event"",""trial"",""time""
""fullscreenenter"",""5"",""15695""
","
","
","""event"",""trial"",""time""
""fullscreenenter"",""5"",""15695""
","
","311.9000000000233","","49","","","3000","1","","","images/earth.jpg","images/tutrocket1","images/tutrocket2","null","images/tutrocket2","","1","practice","null","1","","",""
"d3-animate-choice","113","490686","0.0-61.0-1.17","603","658","16","Male","false","false","false","false","""event"",""trial"",""time""
""fullscreenenter"",""5"",""15695""
","
","
","""event"",""trial"",""time""
""fullscreenenter"",""5"",""15695""
","
","880.5","","48","","","3000","1","","","images/tutgreenplanet.jpg","images/tutalien2","images/tutalien1","images/tutrocket2","images/tutalien2","images/nothing.png","2","practice","true","2","common","0","2022-02-13 17:01:56.299"
"two-step-fixation","114","491701","0.0-61.0-2.17","603","658","16","Male","false","false","false","false","""event"",""trial"",""time""
""fullscreenenter"",""5"",""15695""
","
","
","""event"",""trial"",""time""
""fullscreenenter"",""5"",""15695""
","
","","images/earth.jpg","","","","","","","","","","","","","","fixation","","","","","",""
"d3-animate-choice","115","494054","0.0-61.0-0.18","603","658","16","Male","false","false","false","false","""event"",""trial"",""time""
""fullscreenenter"",""5"",""15695""
","
","
","""event"",""trial"",""time""
""fullscreenenter"",""5"",""15695""
","
","336.4000000000233","","49","","","3000","1","","","images/earth.jpg","images/tutrocket1","images/tutrocket2","null","images/tutrocket2","","1","practice","null","1","","",""
"d3-animate-choice","116","496903","0.0-61.0-1.18","603","658","16","Male","false","false","false","false","""event"",""trial"",""time""
""fullscreenenter"",""5"",""15695""
","
","
","""event"",""trial"",""time""
""fullscreenenter"",""5"",""15695""
","
","832.9000000000233","","49","","","3000","1","","","images/tutgreenplanet.jpg","images/tutalien2","images/tutalien1","images/tutrocket2","images/tutalien1","images/nothing.png","2","practice","true","1","common","0","2022-02-13 17:02:02.516"
"two-step-fixation","117","497917","0.0-61.0-2.18","603","658","16","Male","false","false","false","false","""event"",""trial"",""time""
""fullscreenenter"",""5"",""15695""
","
","
","""event"",""trial"",""time""
""fullscreenenter"",""5"",""15695""
","
","","images/earth.jpg","","","","","","","","","","","","","","fixation","","","","","",""
"d3-animate-choice","118","500254","0.0-61.0-0.19","603","658","16","Male","false","false","false","false","""event"",""trial"",""time""
""fullscreenenter"",""5"",""15695""
","
","
","""event"",""trial"",""time""
""fullscreenenter"",""5"",""15695""
","
","320.5999999999767","","49","","","3000","1","","","images/earth.jpg","images/tutrocket1","images/tutrocket2","null","images/tutrocket2","","1","practice","null","1","","",""
"d3-animate-choice","119","502808","0.0-61.0-1.19","603","658","16","Male","false","false","false","false","""event"",""trial"",""time""
""fullscreenenter"",""5"",""15695""
","
","
","""event"",""trial"",""time""
""fullscreenenter"",""5"",""15695""
","
","538.1999999999534","","49","","","3000","1","","","images/tutyellowplanet.jpg","images/tutalien4","images/tutalien3","images/tutrocket2","images/tutalien3","images/nothing.png","2","practice","false","1","rare","0","2022-02-13 17:02:08.421"
"two-step-fixation","120","503821","0.0-61.0-2.19","603","658","16","Male","false","false","false","false","""event"",""trial"",""time""
""fullscreenenter"",""5"",""15695""
","
","
","""event"",""trial"",""time""
""fullscreenenter"",""5"",""15695""
","
","","images/earth.jpg","","","","","","","","","","","","","","fixation","","","","","",""
"d3-instructions","121","509380","0.0-62.0","603","658","16","Male","false","false","false","false","""event"",""trial"",""time""
""fullscreenenter"",""5"",""15695""
","
","
","""event"",""trial"",""time""
""fullscreenenter"",""5"",""15695""
","
","","","","","","","","","","","","","","","","","","","","","",""
"audio-keyboard-response","122","511442","0.0-63.0","603","658","16","Male","false","false","false","false","""event"",""trial"",""time""
""fullscreenenter"",""5"",""15695""
","
","
","""event"",""trial"",""time""
""fullscreenenter"",""5"",""15695""
","
","2059","audio/instructions/treasure_feedback.wav","32","","","","","","","","","","","","","","","","","","",""
"d3-instructions","123","530537","0.0-64.0","603","658","16","Male","false","false","false","false","""event"",""trial"",""time""
""fullscreenenter"",""5"",""15695""
","
","
","""event"",""trial"",""time""
""fullscreenenter"",""5"",""15695""
","
","","","","","","","","","","","","","","","","","","","","","",""
"d3-instructions","124","544679","0.0-65.0","603","658","16","Male","false","false","false","false","""event"",""trial"",""time""
""fullscreenenter"",""5"",""15695""
","
","
","""event"",""trial"",""time""
""fullscreenenter"",""5"",""15695""
","
","","","","","","","","","","","","","","","","","","","","","",""
"d3-instructions","125","569806","0.0-66.0","603","658","16","Male","false","false","false","false","""event"",""trial"",""time""
""fullscreenenter"",""5"",""15695""
","
","
","""event"",""trial"",""time""
""fullscreenenter"",""5"",""15695""
","
","","","","","","","","","","","","","","","","","","","","","",""
"d3-instructions","126","586200","0.0-67.0","603","658","16","Male","false","false","false","false","""event"",""trial"",""time""
""fullscreenenter"",""5"",""15695""
","
","
","""event"",""trial"",""time""
""fullscreenenter"",""5"",""15695""
","
","","","","","","","","","","","","","","","","","","","","","",""
"d3-instructions","127","593934","0.0-68.0","603","658","16","Male","false","false","false","false","""event"",""trial"",""time""
""fullscreenenter"",""5"",""15695""
","
","
","""event"",""trial"",""time""
""fullscreenenter"",""5"",""15695""
","
","","","","","","","","","","","","","","","","","","","","","",""
"instructions-quiz","128","598723","0.0-69.0","603","658","16","Male","false","false","false","false","""event"",""trial"",""time""
""fullscreenenter"",""5"",""15695""
","
","
","""event"",""trial"",""time""
""fullscreenenter"",""5"",""15695""
","
","4781.100000000093","audio/quiz/Q1_Prompt.wav","","1","","","","","","","","","","","","","","","","","",""
"audio-keyboard-response","129","607719","0.0-70.0","603","658","16","Male","false","false","false","false","""event"",""trial"",""time""
""fullscreenenter"",""5"",""15695""
","
","
","""event"",""trial"",""time""
""fullscreenenter"",""5"",""15695""
","
","8992","audio/quiz/Q1_Correct.wav","32","","","","","","","","","","","","","","","","","","",""
"instructions-quiz","130","612100","0.0-71.0","603","658","16","Male","false","false","false","false","""event"",""trial"",""time""
""fullscreenenter"",""5"",""15695""
","
","
","""event"",""trial"",""time""
""fullscreenenter"",""5"",""15695""
","
","4374.600000000093","audio/quiz/Q2_Prompt.wav","","0","","","","","","","","","","","","","","","","","",""
"audio-keyboard-response","131","613206","0.0-72.0","603","658","16","Male","false","false","false","false","""event"",""trial"",""time""
""fullscreenenter"",""5"",""15695""
","
","
","""event"",""trial"",""time""
""fullscreenenter"",""5"",""15695""
","
","1099","audio/quiz/Q2_Correct.wav","32","","","","","","","","","","","","","","","","","","",""
"instructions-quiz","132","616414","0.0-73.0","603","658","16","Male","false","false","false","false","""event"",""trial"",""time""
""fullscreenenter"",""5"",""15695""
","
","
","""event"",""trial"",""time""
""fullscreenenter"",""5"",""15695""
","
","3199.1999999999534","audio/quiz/Q3_Prompt.wav","","1","","","","","","","","","","","","","","","","","",""
"audio-keyboard-response","133","617016","0.0-74.0","603","658","16","Male","false","false","false","false","""event"",""trial"",""time""
""fullscreenenter"",""5"",""15695""
","
","
","""event"",""trial"",""time""
""fullscreenenter"",""5"",""15695""
","
","597","audio/quiz/Q3_Correct.wav","32","","","","","","","","","","","","","","","","","","",""
"d3-instructions","134","628531","0.0-75.0","603","658","16","Male","false","false","false","false","""event"",""trial"",""time""
""fullscreenenter"",""5"",""15695""
","
","
","""event"",""trial"",""time""
""fullscreenenter"",""5"",""15695""
","
","","","","","","","","","","","","","","","","","","","","","",""
"d3-animate-choice","135","631977","0.0-76.0-0.0","603","658","16","Male","false","false","false","false","""event"",""trial"",""time""
""fullscreenenter"",""5"",""15695""
","
","
","""event"",""trial"",""time""
""fullscreenenter"",""5"",""15695""
","
","1433.6000000000931","","49","","","3000","1","","","images/earth.jpg","images/rocket1","images/rocket2","null","images/rocket2","","1","real","null","1","","",""
"d3-animate-choice","136","634514","0.0-76.0-1.0","603","658","16","Male","false","false","false","false","""event"",""trial"",""time""
""fullscreenenter"",""5"",""15695""
","
","
","""event"",""trial"",""time""
""fullscreenenter"",""5"",""15695""
","
","521.3000000000466","","49","","","3000","1","","","images/redplanet1.jpg","images/alien2","images/alien1","images/rocket2","images/alien1","images/t.png","2","real","true","1","common","1","2022-02-13 17:04:20.127"
"two-step-fixation","137","635529","0.0-76.0-2.0","603","658","16","Male","false","false","false","false","""event"",""trial"",""time""
""fullscreenenter"",""5"",""15695""
","
","
","""event"",""trial"",""time""
""fullscreenenter"",""5"",""15695""
","
","","images/earth.jpg","","","","","","","","","","","","","","fixation","","","","","",""
"d3-animate-choice","138","637809","0.0-76.0-0.1","603","658","16","Male","false","false","false","false","""event"",""trial"",""time""
""fullscreenenter"",""5"",""15695""
","
","
","""event"",""trial"",""time""
""fullscreenenter"",""5"",""15695""
","
","264.5","","49","","","3000","1","","","images/earth.jpg","images/rocket1","images/rocket2","null","images/rocket2","","1","real","null","1","","",""
"d3-animate-choice","139","640263","0.0-76.0-1.1","603","658","16","Male","false","false","false","false","""event"",""trial"",""time""
""fullscreenenter"",""5"",""15695""
","
","
","""event"",""trial"",""time""
""fullscreenenter"",""5"",""15695""
","
","436.69999999995343","","49","","","3000","1","","","images/redplanet1.jpg","images/alien2","images/alien1","images/rocket2","images/alien1","images/nothing.png","2","real","true","1","common","0","2022-02-13 17:04:25.877"
"two-step-fixation","140","641279","0.0-76.0-2.1","603","658","16","Male","false","false","false","false","""event"",""trial"",""time""
""fullscreenenter"",""5"",""15695""
","
","
","""event"",""trial"",""time""
""fullscreenenter"",""5"",""15695""
","
","","images/earth.jpg","","","","","","","","","","","","","","fixation","","","","","",""
"d3-animate-choice","141","643775","0.0-76.0-0.2","603","658","16","Male","false","false","false","false","""event"",""trial"",""time""
""fullscreenenter"",""5"",""15695""
","
","
","""event"",""trial"",""time""
""fullscreenenter"",""5"",""15695""
","
","481.10000000009313","","49","","","3000","1","","","images/earth.jpg","images/rocket1","images/rocket2","null","images/rocket2","","1","real","null","1","","",""
"d3-animate-choice","142","646191","0.0-76.0-1.2","603","658","16","Male","false","false","false","false","""event"",""trial"",""time""
""fullscreenenter"",""5"",""15695""
","
","
","""event"",""trial"",""time""
""fullscreenenter"",""5"",""15695""
","
","403.30000000004657","","49","","","3000","1","","","images/redplanet1.jpg","images/alien2","images/alien1","images/rocket2","images/alien1","images/nothing.png","2","real","true","1","common","0","2022-02-13 17:04:31.805"
"two-step-fixation","143","647205","0.0-76.0-2.2","603","658","16","Male","false","false","false","false","""event"",""trial"",""time""
""fullscreenenter"",""5"",""15695""
","
","
","""event"",""trial"",""time""
""fullscreenenter"",""5"",""15695""
","
","","images/earth.jpg","","","","","","","","","","","","","","fixation","","","","","",""
"d3-animate-choice","144","649537","0.0-76.0-0.3","603","658","16","Male","false","false","false","false","""event"",""trial"",""time""
""fullscreenenter"",""5"",""15695""
","
","
","""event"",""trial"",""time""
""fullscreenenter"",""5"",""15695""
","
","316.0999999998603","","49","","","3000","1","","","images/earth.jpg","images/rocket1","images/rocket2","null","images/rocket2","","1","real","null","1","","",""
"d3-animate-choice","145","652462","0.0-76.0-1.3","603","658","16","Male","false","false","false","false","""event"",""trial"",""time""
""fullscreenenter"",""5"",""15695""
","
","
","""event"",""trial"",""time""
""fullscreenenter"",""5"",""15695""
","
","910.2999999998137","","49","","","3000","1","","","images/purpleplanet.jpg","images/alien4","images/alien3","images/rocket2","images/alien3","images/nothing.png","2","real","false","1","rare","0","2022-02-13 17:04:38.075"
"two-step-fixation","146","653475","0.0-76.0-2.3","603","658","16","Male","false","false","false","false","""event"",""trial"",""time""
""fullscreenenter"",""5"",""15695""
","
","
","""event"",""trial"",""time""
""fullscreenenter"",""5"",""15695""
","
","","images/earth.jpg","","","","","","","","","","","","","","fixation","","","","","",""
"d3-animate-choice","147","655800","0.0-76.0-0.4","603","658","16","Male","false","false","false","false","""event"",""trial"",""time""
""fullscreenenter"",""5"",""15695""
","
","
","""event"",""trial"",""time""
""fullscreenenter"",""5"",""15695""
","
","310.19999999995343","","49","","","3000","1","","","images/earth.jpg","images/rocket1","images/rocket2","null","images/rocket2","","1","real","null","1","","",""
"d3-animate-choice","148","658193","0.0-76.0-1.4","603","658","16","Male","false","false","false","false","""event"",""trial"",""time""
""fullscreenenter"",""5"",""15695""
","
","
","""event"",""trial"",""time""
""fullscreenenter"",""5"",""15695""
","
","378.9000000001397","","48","","","3000","1","","","images/redplanet1.jpg","images/alien2","images/alien1","images/rocket2","images/alien2","images/t.png","2","real","true","2","common","1","2022-02-13 17:04:43.807"
"two-step-fixation","149","659207","0.0-76.0-2.4","603","658","16","Male","false","false","false","false","""event"",""trial"",""time""
""fullscreenenter"",""5"",""15695""
","
","
","""event"",""trial"",""time""
""fullscreenenter"",""5"",""15695""
","
","","images/earth.jpg","","","","","","","","","","","","","","fixation","","","","","",""
"d3-animate-choice","150","661763","0.0-76.0-0.5","603","658","16","Male","false","false","false","false","""event"",""trial"",""time""
""fullscreenenter"",""5"",""15695""
","
","
","""event"",""trial"",""time""
""fullscreenenter"",""5"",""15695""
","
","539.3999999999069","","49","","","3000","1","","","images/earth.jpg","images/rocket1","images/rocket2","null","images/rocket2","","1","real","null","1","","",""
"d3-animate-choice","151","664205","0.0-76.0-1.5","603","658","16","Male","false","false","false","false","""event"",""trial"",""time""
""fullscreenenter"",""5"",""15695""
","
","
","""event"",""trial"",""time""
""fullscreenenter"",""5"",""15695""
","
","425.70000000018626","","48","","","3000","1","","","images/redplanet1.jpg","images/alien2","images/alien1","images/rocket2","images/alien2","images/t.png","2","real","true","2","common","1","2022-02-13 17:04:49.818"
"two-step-fixation","152","665219","0.0-76.0-2.5","603","658","16","Male","false","false","false","false","""event"",""trial"",""time""
""fullscreenenter"",""5"",""15695""
","
","
","""event"",""trial"",""time""
""fullscreenenter"",""5"",""15695""
","
","","images/earth.jpg","","","","","","","","","","","","","","fixation","","","","","",""
"d3-animate-choice","153","667839","0.0-76.0-0.6","603","658","16","Male","false","false","false","false","""event"",""trial"",""time""
""fullscreenenter"",""5"",""15695""
","
","
","""event"",""trial"",""time""
""fullscreenenter"",""5"",""15695""
","
","603.2999999998137","","49","","","3000","1","","","images/earth.jpg","images/rocket1","images/rocket2","null","images/rocket2","","1","real","null","1","","",""
"d3-animate-choice","154","670265","0.0-76.0-1.6","603","658","16","Male","false","false","false","false","""event"",""trial"",""time""
""fullscreenenter"",""5"",""15695""
","
","
","""event"",""trial"",""time""
""fullscreenenter"",""5"",""15695""
","
","409.29999999981374","","48","","","3000","1","","","images/redplanet1.jpg","images/alien2","images/alien1","images/rocket2","images/alien2","images/t.png","2","real","true","2","common","1","2022-02-13 17:04:55.878"
"two-step-fixation","155","671278","0.0-76.0-2.6","603","658","16","Male","false","false","false","false","""event"",""trial"",""time""
""fullscreenenter"",""5"",""15695""
","
","
","""event"",""trial"",""time""
""fullscreenenter"",""5"",""15695""
","
","","images/earth.jpg","","","","","","","","","","","","","","fixation","","","","","",""
"d3-animate-choice","156","673577","0.0-76.0-0.7","603","658","16","Male","false","false","false","false","""event"",""trial"",""time""
""fullscreenenter"",""5"",""15695""
","
","
","""event"",""trial"",""time""
""fullscreenenter"",""5"",""15695""
","
","281","","49","","","3000","1","","","images/earth.jpg","images/rocket1","images/rocket2","null","images/rocket2","","1","real","null","1","","",""
"d3-animate-choice","157","676111","0.0-76.0-1.7","603","658","16","Male","false","false","false","false","""event"",""trial"",""time""
""fullscreenenter"",""5"",""15695""
","
","
","""event"",""trial"",""time""
""fullscreenenter"",""5"",""15695""
","
","518.8000000000466","","48","","","3000","1","","","images/redplanet1.jpg","images/alien2","images/alien1","images/rocket2","images/alien2","images/nothing.png","2","real","true","2","common","0","2022-02-13 17:05:01.725"
"two-step-fixation","158","677126","0.0-76.0-2.7","603","658","16","Male","false","false","false","false","""event"",""trial"",""time""
""fullscreenenter"",""5"",""15695""
","
","
","""event"",""trial"",""time""
""fullscreenenter"",""5"",""15695""
","
","","images/earth.jpg","","","","","","","","","","","","","","fixation","","","","","",""
"d3-animate-choice","159","679410","0.0-76.0-0.8","603","658","16","Male","false","false","false","false","""event"",""trial"",""time""
""fullscreenenter"",""5"",""15695""
","
","
","""event"",""trial"",""time""
""fullscreenenter"",""5"",""15695""
","
","268","","49","","","3000","1","","","images/earth.jpg","images/rocket1","images/rocket2","null","images/rocket2","","1","real","null","1","","",""
"d3-animate-choice","160","681801","0.0-76.0-1.8","603","658","16","Male","false","false","false","false","""event"",""trial"",""time""
""fullscreenenter"",""5"",""15695""
","
","
","""event"",""trial"",""time""
""fullscreenenter"",""5"",""15695""
","
","373.89999999990687","","48","","","3000","1","","","images/redplanet1.jpg","images/alien2","images/alien1","images/rocket2","images/alien2","images/t.png","2","real","true","2","common","1","2022-02-13 17:05:07.414"
"two-step-fixation","161","682816","0.0-76.0-2.8","603","658","16","Male","false","false","false","false","""event"",""trial"",""time""
""fullscreenenter"",""5"",""15695""
","
","
","""event"",""trial"",""time""
""fullscreenenter"",""5"",""15695""
","
","","images/earth.jpg","","","","","","","","","","","","","","fixation","","","","","",""
"d3-animate-choice","162","685289","0.0-76.0-0.9","603","658","16","Male","false","false","false","false","""event"",""trial"",""time""
""fullscreenenter"",""5"",""15695""
","
","
","""event"",""trial"",""time""
""fullscreenenter"",""5"",""15695""
","
","456.0999999998603","","49","","","3000","1","","","images/earth.jpg","images/rocket1","images/rocket2","null","images/rocket2","","1","real","null","1","","",""
"d3-animate-choice","163","688256","0.0-76.0-1.9","603","658","16","Male","false","false","false","false","""event"",""trial"",""time""
""fullscreenenter"",""5"",""15695""
","
","
","""event"",""trial"",""time""
""fullscreenenter"",""5"",""15695""
","
","950.6000000000931","","48","","","3000","1","","","images/purpleplanet.jpg","images/alien4","images/alien3","images/rocket2","images/alien4","images/t.png","2","real","false","2","rare","1","2022-02-13 17:05:13.869"
"two-step-fixation","164","689272","0.0-76.0-2.9","603","658","16","Male","false","false","false","false","""event"",""trial"",""time""
""fullscreenenter"",""5"",""15695""
","
","
","""event"",""trial"",""time""
""fullscreenenter"",""5"",""15695""
","
","","images/earth.jpg","","","","","","","","","","","","","","fixation","","","","","",""
"d3-animate-choice","165","691371","0.0-76.0-0.10","603","658","16","Male","false","false","false","false","""event"",""trial"",""time""
""fullscreenenter"",""5"",""15695""
","
","
","""event"",""trial"",""time""
""fullscreenenter"",""5"",""15695""
","
","80.30000000004657","","48","","","3000","1","","","images/earth.jpg","images/rocket1","images/rocket2","null","images/rocket1","","1","real","null","2","","",""
"d3-animate-choice","166","693777","0.0-76.0-1.10","603","658","16","Male","false","false","false","false","""event"",""trial"",""time""
""fullscreenenter"",""5"",""15695""
","
","
","""event"",""trial"",""time""
""fullscreenenter"",""5"",""15695""
","
","389.9000000001397","","48","","","3000","1","","","images/purpleplanet.jpg","images/alien4","images/alien3","images/rocket1","images/alien4","images/t.png","2","real","true","2","common","1","2022-02-13 17:05:19.390"
"two-step-fixation","167","694792","0.0-76.0-2.10","603","658","16","Male","false","false","false","false","""event"",""trial"",""time""
""fullscreenenter"",""5"",""15695""
","
","
","""event"",""trial"",""time""
""fullscreenenter"",""5"",""15695""
","
","","images/earth.jpg","","","","","","","","","","","","","","fixation","","","","","",""
"d3-animate-choice","168","697072","0.0-76.0-0.11","603","658","16","Male","false","false","false","false","""event"",""trial"",""time""
""fullscreenenter"",""5"",""15695""
","
","
","""event"",""trial"",""time""
""fullscreenenter"",""5"",""15695""
","
","263.60000000009313","","49","","","3000","1","","","images/earth.jpg","images/rocket1","images/rocket2","null","images/rocket2","","1","real","null","1","","",""
"d3-animate-choice","169","699499","0.0-76.0-1.11","603","658","16","Male","false","false","false","false","""event"",""trial"",""time""
""fullscreenenter"",""5"",""15695""
","
","
","""event"",""trial"",""time""
""fullscreenenter"",""5"",""15695""
","
","410.89999999990687","","48","","","3000","1","","","images/redplanet1.jpg","images/alien2","images/alien1","images/rocket2","images/alien2","images/t.png","2","real","true","2","common","1","2022-02-13 17:05:25.113"
"two-step-fixation","170","700514","0.0-76.0-2.11","603","658","16","Male","false","false","false","false","""event"",""trial"",""time""
""fullscreenenter"",""5"",""15695""
","
","
","""event"",""trial"",""time""
""fullscreenenter"",""5"",""15695""
","
","","images/earth.jpg","","","","","","","","","","","","","","fixation","","","","","",""
"d3-animate-choice","171","702645","0.0-76.0-0.12","603","658","16","Male","false","false","false","false","""event"",""trial"",""time""
""fullscreenenter"",""5"",""15695""
","
","
","""event"",""trial"",""time""
""fullscreenenter"",""5"",""15695""
","
","115.19999999995343","","48","","","3000","1","","","images/earth.jpg","images/rocket1","images/rocket2","null","images/rocket1","","1","real","null","2","","",""
"d3-animate-choice","172","705038","0.0-76.0-1.12","603","658","16","Male","false","false","false","false","""event"",""trial"",""time""
""fullscreenenter"",""5"",""15695""
","
","
","""event"",""trial"",""time""
""fullscreenenter"",""5"",""15695""
","
","373.89999999990687","","48","","","3000","1","","","images/purpleplanet.jpg","images/alien4","images/alien3","images/rocket1","images/alien4","images/nothing.png","2","real","true","2","common","0","2022-02-13 17:05:30.651"
"two-step-fixation","173","706052","0.0-76.0-2.12","603","658","16","Male","false","false","false","false","""event"",""trial"",""time""
""fullscreenenter"",""5"",""15695""
","
","
","""event"",""trial"",""time""
""fullscreenenter"",""5"",""15695""
","
","","images/earth.jpg","","","","","","","","","","","","","","fixation","","","","","",""
"d3-animate-choice","174","708467","0.0-76.0-0.13","603","658","16","Male","false","false","false","false","""event"",""trial"",""time""
""fullscreenenter"",""5"",""15695""
","
","
","""event"",""trial"",""time""
""fullscreenenter"",""5"",""15695""
","
","398.19999999995343","","48","","","3000","1","","","images/earth.jpg","images/rocket1","images/rocket2","null","images/rocket1","","1","real","null","2","","",""
"d3-animate-choice","175","710962","0.0-76.0-1.13","603","658","16","Male","false","false","false","false","""event"",""trial"",""time""
""fullscreenenter"",""5"",""15695""
","
","
","""event"",""trial"",""time""
""fullscreenenter"",""5"",""15695""
","
","479","","48","","","3000","1","","","images/redplanet1.jpg","images/alien2","images/alien1","images/rocket1","images/alien2","images/t.png","2","real","false","2","rare","1","2022-02-13 17:05:36.576"
"two-step-fixation","176","711979","0.0-76.0-2.13","603","658","16","Male","false","false","false","false","""event"",""trial"",""time""
""fullscreenenter"",""5"",""15695""
","
","
","""event"",""trial"",""time""
""fullscreenenter"",""5"",""15695""
","
","","images/earth.jpg","","","","","","","","","","","","","","fixation","","","","","",""
"d3-animate-choice","177","714301","0.0-76.0-0.14","603","658","16","Male","false","false","false","false","""event"",""trial"",""time""
""fullscreenenter"",""5"",""15695""
","
","
","""event"",""trial"",""time""
""fullscreenenter"",""5"",""15695""
","
","305.9000000001397","","48","","","3000","1","","","images/earth.jpg","images/rocket1","images/rocket2","null","images/rocket1","","1","real","null","2","","",""
"d3-animate-choice","178","716764","0.0-76.0-1.14","603","658","16","Male","false","false","false","false","""event"",""trial"",""time""
""fullscreenenter"",""5"",""15695""
","
","
","""event"",""trial"",""time""
""fullscreenenter"",""5"",""15695""
","
","445.69999999995343","","48","","","3000","1","","","images/purpleplanet.jpg","images/alien4","images/alien3","images/rocket1","images/alien4","images/t.png","2","real","true","2","common","1","2022-02-13 17:05:42.377"
"two-step-fixation","179","717779","0.0-76.0-2.14","603","658","16","Male","false","false","false","false","""event"",""trial"",""time""
""fullscreenenter"",""5"",""15695""
","
","
","""event"",""trial"",""time""
""fullscreenenter"",""5"",""15695""
","
","","images/earth.jpg","","","","","","","","","","","","","","fixation","","","","","",""
"d3-animate-choice","180","720101","0.0-76.0-0.15","603","658","16","Male","false","false","false","false","""event"",""trial"",""time""
""fullscreenenter"",""5"",""15695""
","
","
","""event"",""trial"",""time""
""fullscreenenter"",""5"",""15695""
","
","305.60000000009313","","48","","","3000","1","","","images/earth.jpg","images/rocket1","images/rocket2","null","images/rocket1","","1","real","null","2","","",""
"d3-animate-choice","181","722619","0.0-76.0-1.15","603","658","16","Male","false","false","false","false","""event"",""trial"",""time""
""fullscreenenter"",""5"",""15695""
","
","
","""event"",""trial"",""time""
""fullscreenenter"",""5"",""15695""
","
","500.5","","48","","","3000","1","","","images/purpleplanet.jpg","images/alien4","images/alien3","images/rocket1","images/alien4","images/nothing.png","2","real","true","2","common","0","2022-02-13 17:05:48.233"
"two-step-fixation","182","723634","0.0-76.0-2.15","603","658","16","Male","false","false","false","false","""event"",""trial"",""time""
""fullscreenenter"",""5"",""15695""
","
","
","""event"",""trial"",""time""
""fullscreenenter"",""5"",""15695""
","
","","images/earth.jpg","","","","","","","","","","","","","","fixation","","","","","",""
"d3-animate-choice","183","726234","0.0-76.0-0.16","603","658","16","Male","false","false","false","false","""event"",""trial"",""time""
""fullscreenenter"",""5"",""15695""
","
","
","""event"",""trial"",""time""
""fullscreenenter"",""5"",""15695""
","
","581.5","","48","","","3000","1","","","images/earth.jpg","images/rocket1","images/rocket2","null","images/rocket1","","1","real","null","2","","",""
"d3-animate-choice","184","728695","0.0-76.0-1.16","603","658","16","Male","false","false","false","false","""event"",""trial"",""time""
""fullscreenenter"",""5"",""15695""
","
","
","""event"",""trial"",""time""
""fullscreenenter"",""5"",""15695""
","
","444.30000000004657","","48","","","3000","1","","","images/purpleplanet.jpg","images/alien4","images/alien3","images/rocket1","images/alien4","images/t.png","2","real","true","2","common","1","2022-02-13 17:05:54.309"
"two-step-fixation","185","729711","0.0-76.0-2.16","603","658","16","Male","false","false","false","false","""event"",""trial"",""time""
""fullscreenenter"",""5"",""15695""
","
","
","""event"",""trial"",""time""
""fullscreenenter"",""5"",""15695""
","
","","images/earth.jpg","","","","","","","","","","","","","","fixation","","","","","",""
"d3-animate-choice","186","731823","0.0-76.0-0.17","603","658","16","Male","false","false","false","false","""event"",""trial"",""time""
""fullscreenenter"",""5"",""15695""
","
","
","""event"",""trial"",""time""
""fullscreenenter"",""5"",""15695""
","
","95.5999999998603","","49","","","3000","1","","","images/earth.jpg","images/rocket1","images/rocket2","null","images/rocket2","","1","real","null","1","","",""
"d3-animate-choice","187","734252","0.0-76.0-1.17","603","658","16","Male","false","false","false","false","""event"",""trial"",""time""
""fullscreenenter"",""5"",""15695""
","
","
","""event"",""trial"",""time""
""fullscreenenter"",""5"",""15695""
","
","412.39999999990687","","48","","","3000","1","","","images/redplanet1.jpg","images/alien2","images/alien1","images/rocket2","images/alien2","images/nothing.png","2","real","true","2","common","0","2022-02-13 17:05:59.866"
"two-step-fixation","188","735267","0.0-76.0-2.17","603","658","16","Male","false","false","false","false","""event"",""trial"",""time""
""fullscreenenter"",""5"",""15695""
","
","
","""event"",""trial"",""time""
""fullscreenenter"",""5"",""15695""
","
","","images/earth.jpg","","","","","","","","","","","","","","fixation","","","","","",""
"d3-animate-choice","189","737685","0.0-76.0-0.18","603","658","16","Male","false","false","false","false","""event"",""trial"",""time""
""fullscreenenter"",""5"",""15695""
","
","
","""event"",""trial"",""time""
""fullscreenenter"",""5"",""15695""
","
","401.4000000001397","","49","","","3000","1","","","images/earth.jpg","images/rocket1","images/rocket2","null","images/rocket2","","1","real","null","1","","",""
"d3-animate-choice","190","740265","0.0-76.0-1.18","603","658","16","Male","false","false","false","false","""event"",""trial"",""time""
""fullscreenenter"",""5"",""15695""
","
","
","""event"",""trial"",""time""
""fullscreenenter"",""5"",""15695""
","
","562.6999999999534","","48","","","3000","1","","","images/purpleplanet.jpg","images/alien4","images/alien3","images/rocket2","images/alien4","images/nothing.png","2","real","false","2","rare","0","2022-02-13 17:06:05.878"
"two-step-fixation","191","741283","0.0-76.0-2.18","603","658","16","Male","false","false","false","false","""event"",""trial"",""time""
""fullscreenenter"",""5"",""15695""
","
","
","""event"",""trial"",""time""
""fullscreenenter"",""5"",""15695""
","
","","images/earth.jpg","","","","","","","","","","","","","","fixation","","","","","",""
"d3-animate-choice","192","743777","0.0-76.0-0.19","603","658","16","Male","false","false","false","false","""event"",""trial"",""time""
""fullscreenenter"",""5"",""15695""
","
","
","""event"",""trial"",""time""
""fullscreenenter"",""5"",""15695""
","
","475.80000000004657","","48","","","3000","1","","","images/earth.jpg","images/rocket1","images/rocket2","null","images/rocket1","","1","real","null","2","","",""
"d3-animate-choice","193","746123","0.0-76.0-1.19","603","658","16","Male","false","false","false","false","""event"",""trial"",""time""
""fullscreenenter"",""5"",""15695""
","
","
","""event"",""trial"",""time""
""fullscreenenter"",""5"",""15695""
","
","327.89999999990687","","49","","","3000","1","1129.8000000000466","49","images/purpleplanet.jpg","images/alien4","images/alien3","images/rocket1","images/alien3","images/nothing.png","2","real","true","1","common","0","2022-02-13 17:06:11.736"
"two-step-fixation","194","747139","0.0-76.0-2.19","603","658","16","Male","false","false","false","false","""event"",""trial"",""time""
""fullscreenenter"",""5"",""15695""
","
","
","""event"",""trial"",""time""
""fullscreenenter"",""5"",""15695""
","
","","images/earth.jpg","","","","","","","","","","","","","","fixation","","","","","",""
"d3-animate-choice","195","749452","0.0-76.0-0.20","603","658","16","Male","false","false","false","false","""event"",""trial"",""time""
""fullscreenenter"",""5"",""15695""
","
","
","""event"",""trial"",""time""
""fullscreenenter"",""5"",""15695""
","
","296.4000000001397","","49","","","3000","1","","","images/earth.jpg","images/rocket1","images/rocket2","null","images/rocket2","","1","real","null","1","","",""
"d3-animate-choice","196","751919","0.0-76.0-1.20","603","658","16","Male","false","false","false","false","""event"",""trial"",""time""
""fullscreenenter"",""5"",""15695""
","
","
","""event"",""trial"",""time""
""fullscreenenter"",""5"",""15695""
","
","448.30000000004657","","48","","","3000","1","","","images/redplanet1.jpg","images/alien2","images/alien1","images/rocket2","images/alien2","images/t.png","2","real","true","2","common","1","2022-02-13 17:06:17.532"
"two-step-fixation","197","752934","0.0-76.0-2.20","603","658","16","Male","false","false","false","false","""event"",""trial"",""time""
""fullscreenenter"",""5"",""15695""
","
","
","""event"",""trial"",""time""
""fullscreenenter"",""5"",""15695""
","
","","images/earth.jpg","","","","","","","","","","","","","","fixation","","","","","",""
"d3-animate-choice","198","755094","0.0-76.0-0.21","603","658","16","Male","false","false","false","false","""event"",""trial"",""time""
""fullscreenenter"",""5"",""15695""
","
","
","""event"",""trial"",""time""
""fullscreenenter"",""5"",""15695""
","
","142","","49","","","3000","1","","","images/earth.jpg","images/rocket1","images/rocket2","null","images/rocket2","","1","real","null","1","","",""
"d3-animate-choice","199","757538","0.0-76.0-1.21","603","658","16","Male","false","false","false","false","""event"",""trial"",""time""
""fullscreenenter"",""5"",""15695""
","
","
","""event"",""trial"",""time""
""fullscreenenter"",""5"",""15695""
","
","427","","48","","","3000","1","","","images/redplanet1.jpg","images/alien2","images/alien1","images/rocket2","images/alien2","images/t.png","2","real","true","2","common","1","2022-02-13 17:06:23.151"
"two-step-fixation","200","758553","0.0-76.0-2.21","603","658","16","Male","false","false","false","false","""event"",""trial"",""time""
""fullscreenenter"",""5"",""15695""
","
","
","""event"",""trial"",""time""
""fullscreenenter"",""5"",""15695""
","
","","images/earth.jpg","","","","","","","","","","","","","","fixation","","","","","",""
"d3-animate-choice","201","760906","0.0-76.0-0.22","603","658","16","Male","false","false","false","false","""event"",""trial"",""time""
""fullscreenenter"",""5"",""15695""
","
","
","""event"",""trial"",""time""
""fullscreenenter"",""5"",""15695""
","
","336.5","","49","","","3000","1","","","images/earth.jpg","images/rocket1","images/rocket2","null","images/rocket2","","1","real","null","1","","",""
"d3-animate-choice","202","763522","0.0-76.0-1.22","603","658","16","Male","false","false","false","false","""event"",""trial"",""time""
""fullscreenenter"",""5"",""15695""
","
","
","""event"",""trial"",""time""
""fullscreenenter"",""5"",""15695""
","
","597","","48","","","3000","1","","","images/redplanet1.jpg","images/alien2","images/alien1","images/rocket2","images/alien2","images/t.png","2","real","true","2","common","1","2022-02-13 17:06:29.135"
"two-step-fixation","203","764537","0.0-76.0-2.22","603","658","16","Male","false","false","false","false","""event"",""trial"",""time""
""fullscreenenter"",""5"",""15695""
","
","
","""event"",""trial"",""time""
""fullscreenenter"",""5"",""15695""
","
","","images/earth.jpg","","","","","","","","","","","","","","fixation","","","","","",""
"d3-animate-choice","204","766951","0.0-76.0-0.23","603","658","16","Male","false","false","false","false","""event"",""trial"",""time""
""fullscreenenter"",""5"",""15695""
","
","
","""event"",""trial"",""time""
""fullscreenenter"",""5"",""15695""
","
","397","","49","","","3000","1","","","images/earth.jpg","images/rocket1","images/rocket2","null","images/rocket2","","1","real","null","1","","",""
"d3-animate-choice","205","769320","0.0-76.0-1.23","603","658","16","Male","false","false","false","false","""event"",""trial"",""time""
""fullscreenenter"",""5"",""15695""
","
","
","""event"",""trial"",""time""
""fullscreenenter"",""5"",""15695""
","
","352.4000000001397","","48","","","3000","1","","","images/redplanet1.jpg","images/alien2","images/alien1","images/rocket2","images/alien2","images/t.png","2","real","true","2","common","1","2022-02-13 17:06:34.934"
"two-step-fixation","206","770336","0.0-76.0-2.23","603","658","16","Male","false","false","false","false","""event"",""trial"",""time""
""fullscreenenter"",""5"",""15695""
","
","
","""event"",""trial"",""time""
""fullscreenenter"",""5"",""15695""
","
","","images/earth.jpg","","","","","","","","","","","","","","fixation","","","","","",""
"d3-animate-choice","207","772669","0.0-76.0-0.24","603","658","16","Male","false","false","false","false","""event"",""trial"",""time""
""fullscreenenter"",""5"",""15695""
","
","
","""event"",""trial"",""time""
""fullscreenenter"",""5"",""15695""
","
","316.5999999998603","","49","","","3000","1","","","images/earth.jpg","images/rocket1","images/rocket2","null","images/rocket2","","1","real","null","1","","",""
"d3-animate-choice","208","775102","0.0-76.0-1.24","603","658","16","Male","false","false","false","false","""event"",""trial"",""time""
""fullscreenenter"",""5"",""15695""
","
","
","""event"",""trial"",""time""
""fullscreenenter"",""5"",""15695""
","
","415","","48","","","3000","1","","","images/redplanet1.jpg","images/alien2","images/alien1","images/rocket2","images/alien2","images/t.png","2","real","true","2","common","1","2022-02-13 17:06:40.715"
"two-step-fixation","209","776118","0.0-76.0-2.24","603","658","16","Male","false","false","false","false","""event"",""trial"",""time""
""fullscreenenter"",""5"",""15695""
","
","
","""event"",""trial"",""time""
""fullscreenenter"",""5"",""15695""
","
","","images/earth.jpg","","","","","","","","","","","","","","fixation","","","","","",""
"d3-animate-choice","210","778468","0.0-76.0-0.25","603","658","16","Male","false","false","false","false","""event"",""trial"",""time""
""fullscreenenter"",""5"",""15695""
","
","
","""event"",""trial"",""time""
""fullscreenenter"",""5"",""15695""
","
","332.29999999981374","","49","","","3000","1","","","images/earth.jpg","images/rocket1","images/rocket2","null","images/rocket2","","1","real","null","1","","",""
"d3-animate-choice","211","780953","0.0-76.0-1.25","603","658","16","Male","false","false","false","false","""event"",""trial"",""time""
""fullscreenenter"",""5"",""15695""
","
","
","""event"",""trial"",""time""
""fullscreenenter"",""5"",""15695""
","
","467.39999999990687","","48","","","3000","1","","","images/redplanet1.jpg","images/alien2","images/alien1","images/rocket2","images/alien2","images/t.png","2","real","true","2","common","1","2022-02-13 17:06:46.567"
"two-step-fixation","212","781968","0.0-76.0-2.25","603","658","16","Male","false","false","false","false","""event"",""trial"",""time""
""fullscreenenter"",""5"",""15695""
","
","
","""event"",""trial"",""time""
""fullscreenenter"",""5"",""15695""
","
","","images/earth.jpg","","","","","","","","","","","","","","fixation","","","","","",""
"d3-animate-choice","213","784584","0.0-76.0-0.26","603","658","16","Male","false","false","false","false","""event"",""trial"",""time""
""fullscreenenter"",""5"",""15695""
","
","
","""event"",""trial"",""time""
""fullscreenenter"",""5"",""15695""
","
","597.5999999998603","","49","","","3000","1","","","images/earth.jpg","images/rocket1","images/rocket2","null","images/rocket2","","1","real","null","1","","",""
"d3-animate-choice","214","786973","0.0-76.0-1.26","603","658","16","Male","false","false","false","false","""event"",""trial"",""time""
""fullscreenenter"",""5"",""15695""
","
","
","""event"",""trial"",""time""
""fullscreenenter"",""5"",""15695""
","
","370.5","","48","","","3000","1","","","images/redplanet1.jpg","images/alien2","images/alien1","images/rocket2","images/alien2","images/nothing.png","2","real","true","2","common","0","2022-02-13 17:06:52.586"
"two-step-fixation","215","787988","0.0-76.0-2.26","603","658","16","Male","false","false","false","false","""event"",""trial"",""time""
""fullscreenenter"",""5"",""15695""
","
","
","""event"",""trial"",""time""
""fullscreenenter"",""5"",""15695""
","
","","images/earth.jpg","","","","","","","","","","","","","","fixation","","","","","",""
"d3-animate-choice","216","790202","0.0-76.0-0.27","603","658","16","Male","false","false","false","false","""event"",""trial"",""time""
""fullscreenenter"",""5"",""15695""
","
","
","""event"",""trial"",""time""
""fullscreenenter"",""5"",""15695""
","
","195.10000000009313","","48","","","3000","1","","","images/earth.jpg","images/rocket1","images/rocket2","null","images/rocket1","","1","real","null","2","","",""
"d3-animate-choice","217","792540","0.0-76.0-1.27","603","658","16","Male","false","false","false","false","""event"",""trial"",""time""
""fullscreenenter"",""5"",""15695""
","
","
","""event"",""trial"",""time""
""fullscreenenter"",""5"",""15695""
","
","320.10000000009313","","48","","","3000","1","","","images/purpleplanet.jpg","images/alien4","images/alien3","images/rocket1","images/alien4","images/nothing.png","2","real","true","2","common","0","2022-02-13 17:06:58.154"
"two-step-fixation","218","793556","0.0-76.0-2.27","603","658","16","Male","false","false","false","false","""event"",""trial"",""time""
""fullscreenenter"",""5"",""15695""
","
","
","""event"",""trial"",""time""
""fullscreenenter"",""5"",""15695""
","
","","images/earth.jpg","","","","","","","","","","","","","","fixation","","","","","",""
"d3-animate-choice","219","795941","0.0-76.0-0.28","603","658","16","Male","false","false","false","false","""event"",""trial"",""time""
""fullscreenenter"",""5"",""15695""
","
","
","""event"",""trial"",""time""
""fullscreenenter"",""5"",""15695""
","
","366.9000000001397","","49","","","3000","1","","","images/earth.jpg","images/rocket1","images/rocket2","null","images/rocket2","","1","real","null","1","","",""
"d3-animate-choice","220","798780","0.0-76.0-1.28","603","658","16","Male","false","false","false","false","""event"",""trial"",""time""
""fullscreenenter"",""5"",""15695""
","
","
","""event"",""trial"",""time""
""fullscreenenter"",""5"",""15695""
","
","820.5999999998603","","49","","","3000","1","","","images/purpleplanet.jpg","images/alien4","images/alien3","images/rocket2","images/alien3","images/t.png","2","real","false","1","rare","1","2022-02-13 17:07:04.394"
"two-step-fixation","221","799795","0.0-76.0-2.28","603","658","16","Male","false","false","false","false","""event"",""trial"",""time""
""fullscreenenter"",""5"",""15695""
","
","
","""event"",""trial"",""time""
""fullscreenenter"",""5"",""15695""
","
","","images/earth.jpg","","","","","","","","","","","","","","fixation","","","","","",""
"d3-animate-choice","222","802295","0.0-76.0-0.29","603","658","16","Male","false","false","false","false","""event"",""trial"",""time""
""fullscreenenter"",""5"",""15695""
","
","
","""event"",""trial"",""time""
""fullscreenenter"",""5"",""15695""
","
","486.5","","49","","","3000","1","1049.5","8","images/earth.jpg","images/rocket1","images/rocket2","null","images/rocket2","","1","real","null","1","","",""
"d3-animate-choice","223","804833","0.0-76.0-1.29","603","658","16","Male","false","false","false","false","""event"",""trial"",""time""
""fullscreenenter"",""5"",""15695""
","
","
","""event"",""trial"",""time""
""fullscreenenter"",""5"",""15695""
","
","520","","48","","","3000","1","","","images/redplanet1.jpg","images/alien2","images/alien1","images/rocket2","images/alien2","images/nothing.png","2","real","true","2","common","0","2022-02-13 17:07:10.447"
"two-step-fixation","224","805850","0.0-76.0-2.29","603","658","16","Male","false","false","false","false","""event"",""trial"",""time""
""fullscreenenter"",""5"",""15695""
","
","
","""event"",""trial"",""time""
""fullscreenenter"",""5"",""15695""
","
","","images/earth.jpg","","","","","","","","","","","","","","fixation","","","","","",""
"d3-animate-choice","225","808127","0.0-76.0-0.30","603","658","16","Male","false","false","false","false","""event"",""trial"",""time""
""fullscreenenter"",""5"",""15695""
","
","
","""event"",""trial"",""time""
""fullscreenenter"",""5"",""15695""
","
","258.9000000001397","","49","","","3000","1","","","images/earth.jpg","images/rocket1","images/rocket2","null","images/rocket2","","1","real","null","1","","",""
"d3-animate-choice","226","810971","0.0-76.0-1.30","603","658","16","Male","false","false","false","false","""event"",""trial"",""time""
""fullscreenenter"",""5"",""15695""
","
","
","""event"",""trial"",""time""
""fullscreenenter"",""5"",""15695""
","
","827.5999999998603","","49","","","3000","1","","","images/purpleplanet.jpg","images/alien4","images/alien3","images/rocket2","images/alien3","images/t.png","2","real","false","1","rare","1","2022-02-13 17:07:16.585"
"two-step-fixation","227","811987","0.0-76.0-2.30","603","658","16","Male","false","false","false","false","""event"",""trial"",""time""
""fullscreenenter"",""5"",""15695""
","
","
","""event"",""trial"",""time""
""fullscreenenter"",""5"",""15695""
","
","","images/earth.jpg","","","","","","","","","","","","","","fixation","","","","","",""
"d3-animate-choice","228","814241","0.0-76.0-0.31","603","658","16","Male","false","false","false","false","""event"",""trial"",""time""
""fullscreenenter"",""5"",""15695""
","
","
","""event"",""trial"",""time""
""fullscreenenter"",""5"",""15695""
","
","233.39999999990687","","49","","","3000","1","","","images/earth.jpg","images/rocket1","images/rocket2","null","images/rocket2","","1","real","null","1","","",""
"d3-animate-choice","229","816660","0.0-76.0-1.31","603","658","16","Male","false","false","false","false","""event"",""trial"",""time""
""fullscreenenter"",""5"",""15695""
","
","
","""event"",""trial"",""time""
""fullscreenenter"",""5"",""15695""
","
","398.19999999995343","","49","","","3000","1","","","images/redplanet1.jpg","images/alien2","images/alien1","images/rocket2","images/alien1","images/t.png","2","real","true","1","common","1","2022-02-13 17:07:22.273"
"two-step-fixation","230","817675","0.0-76.0-2.31","603","658","16","Male","false","false","false","false","""event"",""trial"",""time""
""fullscreenenter"",""5"",""15695""
","
","
","""event"",""trial"",""time""
""fullscreenenter"",""5"",""15695""
","
","","images/earth.jpg","","","","","","","","","","","","","","fixation","","","","","",""
"d3-animate-choice","231","819993","0.0-76.0-0.32","603","658","16","Male","false","false","false","false","""event"",""trial"",""time""
""fullscreenenter"",""5"",""15695""
","
","
","""event"",""trial"",""time""
""fullscreenenter"",""5"",""15695""
","
","298.10000000009313","","49","","","3000","1","","","images/earth.jpg","images/rocket1","images/rocket2","null","images/rocket2","","1","real","null","1","","",""
"d3-animate-choice","232","822371","0.0-76.0-1.32","603","658","16","Male","false","false","false","false","""event"",""trial"",""time""
""fullscreenenter"",""5"",""15695""
","
","
","""event"",""trial"",""time""
""fullscreenenter"",""5"",""15695""
","
","358.39999999990687","","49","","","3000","1","","","images/redplanet1.jpg","images/alien2","images/alien1","images/rocket2","images/alien1","images/t.png","2","real","true","1","common","1","2022-02-13 17:07:27.984"
"two-step-fixation","233","823387","0.0-76.0-2.32","603","658","16","Male","false","false","false","false","""event"",""trial"",""time""
""fullscreenenter"",""5"",""15695""
","
","
","""event"",""trial"",""time""
""fullscreenenter"",""5"",""15695""
","
","","images/earth.jpg","","","","","","","","","","","","","","fixation","","","","","",""
"d3-animate-choice","234","825732","0.0-76.0-0.33","603","658","16","Male","false","false","false","false","""event"",""trial"",""time""
""fullscreenenter"",""5"",""15695""
","
","
","""event"",""trial"",""time""
""fullscreenenter"",""5"",""15695""
","
","326.19999999995343","","48","","","3000","1","","","images/earth.jpg","images/rocket1","images/rocket2","null","images/rocket1","","1","real","null","2","","",""
"d3-animate-choice","235","828258","0.0-76.0-1.33","603","658","16","Male","false","false","false","false","""event"",""trial"",""time""
""fullscreenenter"",""5"",""15695""
","
","
","""event"",""trial"",""time""
""fullscreenenter"",""5"",""15695""
","
","508.5","","49","","","3000","1","","","images/purpleplanet.jpg","images/alien4","images/alien3","images/rocket1","images/alien3","images/nothing.png","2","real","true","1","common","0","2022-02-13 17:07:33.872"
"two-step-fixation","236","829274","0.0-76.0-2.33","603","658","16","Male","false","false","false","false","""event"",""trial"",""time""
""fullscreenenter"",""5"",""15695""
","
","
","""event"",""trial"",""time""
""fullscreenenter"",""5"",""15695""
","
","","images/earth.jpg","","","","","","","","","","","","","","fixation","","","","","",""
"d3-animate-choice","237","831542","0.0-76.0-0.34","603","658","16","Male","false","false","false","false","""event"",""trial"",""time""
""fullscreenenter"",""5"",""15695""
","
","
","""event"",""trial"",""time""
""fullscreenenter"",""5"",""15695""
","
","249.10000000009313","","49","","","3000","1","","","images/earth.jpg","images/rocket1","images/rocket2","null","images/rocket2","","1","real","null","1","","",""
"d3-animate-choice","238","833888","0.0-76.0-1.34","603","658","16","Male","false","false","false","false","""event"",""trial"",""time""
""fullscreenenter"",""5"",""15695""
","
","
","""event"",""trial"",""time""
""fullscreenenter"",""5"",""15695""
","
","325.5","","49","","","3000","1","1205.9000000001397","49","images/redplanet1.jpg","images/alien2","images/alien1","images/rocket2","images/alien1","images/t.png","2","real","true","1","common","1","2022-02-13 17:07:39.501"
"two-step-fixation","239","834903","0.0-76.0-2.34","603","658","16","Male","false","false","false","false","""event"",""trial"",""time""
""fullscreenenter"",""5"",""15695""
","
","
","""event"",""trial"",""time""
""fullscreenenter"",""5"",""15695""
","
","","images/earth.jpg","","","","","","","","","","","","","","fixation","","","","","",""
"d3-animate-choice","240","837318","0.0-76.0-0.35","603","658","16","Male","false","false","false","false","""event"",""trial"",""time""
""fullscreenenter"",""5"",""15695""
","
","
","""event"",""trial"",""time""
""fullscreenenter"",""5"",""15695""
","
","395.30000000004657","","49","","","3000","1","","","images/earth.jpg","images/rocket1","images/rocket2","null","images/rocket2","","1","real","null","1","","",""
"d3-animate-choice","241","839625","0.0-76.0-1.35","603","658","16","Male","false","false","false","false","""event"",""trial"",""time""
""fullscreenenter"",""5"",""15695""
","
","
","""event"",""trial"",""time""
""fullscreenenter"",""5"",""15695""
","
","289.0999999998603","","49","","","3000","1","2022.8999999999069","49","images/redplanet1.jpg","images/alien2","images/alien1","images/rocket2","images/alien1","images/nothing.png","2","real","true","1","common","0","2022-02-13 17:07:45.238"
"two-step-fixation","242","840660","0.0-76.0-2.35","603","658","16","Male","false","false","false","false","""event"",""trial"",""time""
""fullscreenenter"",""5"",""15695""
","
","
","""event"",""trial"",""time""
""fullscreenenter"",""5"",""15695""
","
","","images/earth.jpg","","","","","","","","","","","","","","fixation","","","","","",""
"d3-animate-choice","243","843113","0.0-76.0-0.36","603","658","16","Male","false","false","false","false","""event"",""trial"",""time""
""fullscreenenter"",""5"",""15695""
","
","
","""event"",""trial"",""time""
""fullscreenenter"",""5"",""15695""
","
","434.89999999990687","","49","","","3000","1","","","images/earth.jpg","images/rocket1","images/rocket2","null","images/rocket2","","1","real","null","1","","",""
"d3-animate-choice","244","845594","0.0-76.0-1.36","603","658","16","Male","false","false","false","false","""event"",""trial"",""time""
""fullscreenenter"",""5"",""15695""
","
","
","""event"",""trial"",""time""
""fullscreenenter"",""5"",""15695""
","
","455.5","","49","","","3000","1","","","images/redplanet1.jpg","images/alien2","images/alien1","images/rocket2","images/alien1","images/t.png","2","real","true","1","common","1","2022-02-13 17:07:51.208"
"two-step-fixation","245","846610","0.0-76.0-2.36","603","658","16","Male","false","false","false","false","""event"",""trial"",""time""
""fullscreenenter"",""5"",""15695""
","
","
","""event"",""trial"",""time""
""fullscreenenter"",""5"",""15695""
","
","","images/earth.jpg","","","","","","","","","","","","","","fixation","","","","","",""
"d3-animate-choice","246","848965","0.0-76.0-0.37","603","658","16","Male","false","false","false","false","""event"",""trial"",""time""
""fullscreenenter"",""5"",""15695""
","
","
","""event"",""trial"",""time""
""fullscreenenter"",""5"",""15695""
","
