"trial_type","trial_index","time_elapsed","internal_node_id","participant_id","subject_id","age","gender","rocket_sides","red_planet_first_rocket","red_display_order","purple_display_order","interactions","blur_events","focus_events","fullscreenenter_events","fullscreenexit_events","rt","stimulus","key_press","button_pressed","success","duration","valid_pressed","rts","keys","planet_text","right_text","left_text","center_text","chosen_text","reward_text","trial_stage","practice_trial","transition_type","choice","transition","reward","timestamp"
"pavlovia","0","9","0.0-0.0","1250","1278","18","Female","false","false","true","false","
","
","
","
","
","","","","","","","","","","","","","","","","","","","","","",""
"html-keyboard-response","1","15868","0.0-1.0","1250","1278","18","Female","false","false","true","false","
","
","
","
","
","15856.900000000023","Welcome! Press the space bar to begin.","32","","","","","","","","","","","","","","","","","","",""
"audio-keyboard-response","2","20074","0.0-2.0","1250","1278","18","Female","false","false","true","false","
","
","
","
","
","4203","audio/beep_loop.wav","32","","","","","","","","","","","","","","","","","","",""
"audio-button-response","3","21897","0.0-3.0","1250","1278","18","Female","false","false","true","false","
","
","
","
","
","NaN","audio/fish.mp3","","1","","","","","","","","","","","","","","","","","",""
"audio-button-response","4","24388","0.0-4.0","1250","1278","18","Female","false","false","true","false","""event"",""trial"",""time""
""fullscreenenter"",""5"",""27326""
","
","
","""event"",""trial"",""time""
""fullscreenenter"",""5"",""27326""
","
","NaN","audio/tiger.mp3","","4","","","","","","","","","","","","","","","","","",""
"fullscreen","5","28316","0.0-5.0","1250","1278","18","Female","false","false","true","false","""event"",""trial"",""time""
""fullscreenenter"",""5"",""27326""
","
","
","""event"",""trial"",""time""
""fullscreenenter"",""5"",""27326""
","
","","","","","true","","","","","","","","","","","","","","","","",""
"d3-instructions","6","41272","0.0-6.0","1250","1278","18","Female","false","false","true","false","""event"",""trial"",""time""
""fullscreenenter"",""5"",""27326""
","
","
","""event"",""trial"",""time""
""fullscreenenter"",""5"",""27326""
","
","","","","","","","","","","","","","","","","","","","","","",""
"d3-instructions","7","46562","0.0-7.0","1250","1278","18","Female","false","false","true","false","""event"",""trial"",""time""
""fullscreenenter"",""5"",""27326""
","
","
","""event"",""trial"",""time""
""fullscreenenter"",""5"",""27326""
","
","","","","","","","","","","","","","","","","","","","","","",""
"d3-instructions","8","52874","0.0-8.0","1250","1278","18","Female","false","false","true","false","""event"",""trial"",""time""
""fullscreenenter"",""5"",""27326""
","
","
","""event"",""trial"",""time""
""fullscreenenter"",""5"",""27326""
","
","","","","","","","","","","","","","","","","","","","","","",""
"d3-instructions","9","63077","0.0-9.0","1250","1278","18","Female","false","false","true","false","""event"",""trial"",""time""
""fullscreenenter"",""5"",""27326""
","
","
","""event"",""trial"",""time""
""fullscreenenter"",""5"",""27326""
","
","","","","","","","","","","","","","","","","","","","","","",""
"d3-instructions","10","125499","0.0-10.0","1250","1278","18","Female","false","false","true","false","""event"",""trial"",""time""
""fullscreenenter"",""5"",""27326""
","
","
","""event"",""trial"",""time""
""fullscreenenter"",""5"",""27326""
","
","","","","","","","","","","","","","","","","","","","","","",""
"d3-animate-choice","11","128751","0.0-11.0","1250","1278","18","Female","false","false","true","false","""event"",""trial"",""time""
""fullscreenenter"",""5"",""27326""
","
","
","""event"",""trial"",""time""
""fullscreenenter"",""5"",""27326""
","
","1240.5999999999767","","48","","","3000","1","","","images/tutgreenplanet.jpg","images/tutalien1","images/tutalien2","null","images/tutalien1","","NA","practice","null","","","",""
"d3-animate-choice","12","131044","0.0-12.0","1250","1278","18","Female","false","false","true","false","""event"",""trial"",""time""
""fullscreenenter"",""5"",""27326""
","
","
","""event"",""trial"",""time""
""fullscreenenter"",""5"",""27326""
","
","286.20000000006985","","49","","","3000","1","","","images/tutgreenplanet.jpg","images/tutalien1","images/tutalien2","null","images/tutalien2","","NA","practice","null","","","",""
"d3-animate-choice","13","133326","0.0-13.0","1250","1278","18","Female","false","false","true","false","""event"",""trial"",""time""
""fullscreenenter"",""5"",""27326""
","
","
","""event"",""trial"",""time""
""fullscreenenter"",""5"",""27326""
","
","276.0999999999767","","48","","","3000","1","","","images/tutgreenplanet.jpg","images/tutalien1","images/tutalien2","null","images/tutalien1","","NA","practice","null","","","",""
"d3-animate-choice","14","135558","0.0-14.0","1250","1278","18","Female","false","false","true","false","""event"",""trial"",""time""
""fullscreenenter"",""5"",""27326""
","
","
","""event"",""trial"",""time""
""fullscreenenter"",""5"",""27326""
","
","226.39999999990687","","49","","","3000","1","","","images/tutgreenplanet.jpg","images/tutalien1","images/tutalien2","null","images/tutalien2","","NA","practice","null","","","",""
"d3-instructions","15","139989","0.0-15.0","1250","1278","18","Female","false","false","true","false","""event"",""trial"",""time""
""fullscreenenter"",""5"",""27326""
","
","
","""event"",""trial"",""time""
""fullscreenenter"",""5"",""27326""
","
","","","","","","","","","","","","","","","","","","","","","",""
"d3-instructions","16","144477","0.0-16.0","1250","1278","18","Female","false","false","true","false","""event"",""trial"",""time""
""fullscreenenter"",""5"",""27326""
","
","
","""event"",""trial"",""time""
""fullscreenenter"",""5"",""27326""
","
","","","","","","","","","","","","","","","","","","","","","",""
"d3-instructions","17","149098","0.0-17.0","1250","1278","18","Female","false","false","true","false","""event"",""trial"",""time""
""fullscreenenter"",""5"",""27326""
","
","
","""event"",""trial"",""time""
""fullscreenenter"",""5"",""27326""
","
","","","","","","","","","","","","","","","","","","","","","",""
"d3-instructions","18","156637","0.0-18.0","1250","1278","18","Female","false","false","true","false","""event"",""trial"",""time""
""fullscreenenter"",""5"",""27326""
","
","
","""event"",""trial"",""time""
""fullscreenenter"",""5"",""27326""
","
","","","","","","","","","","","","","","","","","","","","","",""
"d3-instructions","19","163130","0.0-19.0","1250","1278","18","Female","false","false","true","false","""event"",""trial"",""time""
""fullscreenenter"",""5"",""27326""
","
","
","""event"",""trial"",""time""
""fullscreenenter"",""5"",""27326""
","
","","","","","","","","","","","","","","","","","","","","","",""
"d3-animate-choice","20","165772","0.0-20.0","1250","1278","18","Female","false","false","true","false","""event"",""trial"",""time""
""fullscreenenter"",""5"",""27326""
","
","
","""event"",""trial"",""time""
""fullscreenenter"",""5"",""27326""
","
","635.7000000000698","","49","","","3000","1","2081.3000000000466","49","images/tutyellowplanet.jpg","null","images/tutalien3","null","images/tutalien3","images/t.png","NA","practice","null","","","",""
"d3-animate-choice","21","168108","0.0-21.0","1250","1278","18","Female","false","false","true","false","""event"",""trial"",""time""
""fullscreenenter"",""5"",""27326""
","
","
","""event"",""trial"",""time""
""fullscreenenter"",""5"",""27326""
","
","330.5","","49","","","3000","1","","","images/tutyellowplanet.jpg","null","images/tutalien3","null","images/tutalien3","images/t.png","NA","practice","null","","","",""
"d3-animate-choice","22","170363","0.0-22.0","1250","1278","18","Female","false","false","true","false","""event"",""trial"",""time""
""fullscreenenter"",""5"",""27326""
","
","
","""event"",""trial"",""time""
""fullscreenenter"",""5"",""27326""
","
","249.5","","49","","","3000","1","","","images/tutyellowplanet.jpg","null","images/tutalien3","null","images/tutalien3","images/t.png","NA","practice","null","","","",""
"d3-animate-choice","23","172665","0.0-23.0","1250","1278","18","Female","false","false","true","false","""event"",""trial"",""time""
""fullscreenenter"",""5"",""27326""
","
","
","""event"",""trial"",""time""
""fullscreenenter"",""5"",""27326""
","
","295.89999999990687","","49","","","3000","1","","","images/tutyellowplanet.jpg","null","images/tutalien3","null","images/tutalien3","images/t.png","NA","practice","null","","","",""
"d3-animate-choice","24","174977","0.0-24.0","1250","1278","18","Female","false","false","true","false","""event"",""trial"",""time""
""fullscreenenter"",""5"",""27326""
","
","
","""event"",""trial"",""time""
""fullscreenenter"",""5"",""27326""
","
","305.0999999999767","","49","","","3000","1","","","images/tutyellowplanet.jpg","null","images/tutalien3","null","images/tutalien3","images/t.png","NA","practice","null","","","",""
"d3-animate-choice","25","177523","0.0-25.0","1250","1278","18","Female","false","false","true","false","""event"",""trial"",""time""
""fullscreenenter"",""5"",""27326""
","
","
","""event"",""trial"",""time""
""fullscreenenter"",""5"",""27326""
","
","541.5","","49","","","3000","1","","","images/tutyellowplanet.jpg","null","images/tutalien3","null","images/tutalien3","images/t.png","NA","practice","null","","","",""
"d3-animate-choice","26","179910","0.0-26.0","1250","1278","18","Female","false","false","true","false","""event"",""trial"",""time""
""fullscreenenter"",""5"",""27326""
","
","
","""event"",""trial"",""time""
""fullscreenenter"",""5"",""27326""
","
","380.39999999990687","","49","","","3000","1","","","images/tutyellowplanet.jpg","null","images/tutalien3","null","images/tutalien3","images/t.png","NA","practice","null","","","",""
"d3-animate-choice","27","182361","0.0-27.0","1250","1278","18","Female","false","false","true","false","""event"",""trial"",""time""
""fullscreenenter"",""5"",""27326""
","
","
","""event"",""trial"",""time""
""fullscreenenter"",""5"",""27326""
","
","446","","49","","","3000","1","","","images/tutyellowplanet.jpg","null","images/tutalien3","null","images/tutalien3","images/t.png","NA","practice","null","","","",""
"d3-animate-choice","28","184837","0.0-28.0","1250","1278","18","Female","false","false","true","false","""event"",""trial"",""time""
""fullscreenenter"",""5"",""27326""
","
","
","""event"",""trial"",""time""
""fullscreenenter"",""5"",""27326""
","
","469.4000000000233","","49","","","3000","1","","","images/tutyellowplanet.jpg","null","images/tutalien3","null","images/tutalien3","images/t.png","NA","practice","null","","","",""
"d3-animate-choice","29","187121","0.0-29.0","1250","1278","18","Female","false","false","true","false","""event"",""trial"",""time""
""fullscreenenter"",""5"",""27326""
","
","
","""event"",""trial"",""time""
""fullscreenenter"",""5"",""27326""
","
","277.30000000004657","","49","","","3000","1","","","images/tutyellowplanet.jpg","null","images/tutalien3","null","images/tutalien3","images/t.png","NA","practice","null","","","",""
"d3-instructions","30","592652","0.0-30.0","1250","1278","18","Female","false","false","true","false","""event"",""trial"",""time""
""fullscreenenter"",""5"",""27326""
","
","
","""event"",""trial"",""time""
""fullscreenenter"",""5"",""27326""
","
","","","","","","","","","","","","","","","","","","","","","",""
"d3-instructions","31","603748","0.0-31.0","1250","1278","18","Female","false","false","true","false","""event"",""trial"",""time""
""fullscreenenter"",""5"",""27326""
","
","
","""event"",""trial"",""time""
""fullscreenenter"",""5"",""27326""
","
","","","","","","","","","","","","","","","","","","","","","",""
"d3-instructions","32","613071","0.0-32.0","1250","1278","18","Female","false","false","true","false","""event"",""trial"",""time""
""fullscreenenter"",""5"",""27326""
","
","
","""event"",""trial"",""time""
""fullscreenenter"",""5"",""27326""
","
","","","","","","","","","","","","","","","","","","","","","",""
"d3-instructions","33","619823","0.0-33.0","1250","1278","18","Female","false","false","true","false","""event"",""trial"",""time""
""fullscreenenter"",""5"",""27326""
","
","
","""event"",""trial"",""time""
""fullscreenenter"",""5"",""27326""
","
","","","","","","","","","","","","","","","","","","","","","",""
"d3-animate-choice","34","622601","0.0-34.0","1250","1278","18","Female","false","false","true","false","""event"",""trial"",""time""
""fullscreenenter"",""5"",""27326""
","
","
","""event"",""trial"",""time""
""fullscreenenter"",""5"",""27326""
","
","770.9000000001397","","48","","","3000","1","","","images/tutgreenplanet.jpg","images/tutalien1","images/tutalien2","null","images/tutalien1","images/nothing.png","NA","practice","null","","","",""
"d3-animate-choice","35","624922","0.0-35.0","1250","1278","18","Female","false","false","true","false","""event"",""trial"",""time""
""fullscreenenter"",""5"",""27326""
","
","
","""event"",""trial"",""time""
""fullscreenenter"",""5"",""27326""
","
","314.19999999995343","","49","","","3000","1","","","images/tutgreenplanet.jpg","images/tutalien1","images/tutalien2","null","images/tutalien2","images/t.png","NA","practice","null","","","",""
"d3-animate-choice","36","627254","0.0-36.0","1250","1278","18","Female","false","false","true","false","""event"",""trial"",""time""
""fullscreenenter"",""5"",""27326""
","
","
","""event"",""trial"",""time""
""fullscreenenter"",""5"",""27326""
","
","323.19999999995343","","49","","","3000","1","","","images/tutgreenplanet.jpg","images/tutalien1","images/tutalien2","null","images/tutalien2","images/nothing.png","NA","practice","null","","","",""
"d3-animate-choice","37","629534","0.0-37.0","1250","1278","18","Female","false","false","true","false","""event"",""trial"",""time""
""fullscreenenter"",""5"",""27326""
","
","
","""event"",""trial"",""time""
""fullscreenenter"",""5"",""27326""
","
","272.70000000018626","","48","","","3000","1","","","images/tutgreenplanet.jpg","images/tutalien1","images/tutalien2","null","images/tutalien1","images/t.png","NA","practice","null","","","",""
"d3-animate-choice","38","632138","0.0-38.0","1250","1278","18","Female","false","false","true","false","""event"",""trial"",""time""
""fullscreenenter"",""5"",""27326""
","
","
","""event"",""trial"",""time""
""fullscreenenter"",""5"",""27326""
","
","596.7000000001863","","48","","","3000","1","","","images/tutgreenplanet.jpg","images/tutalien1","images/tutalien2","null","images/tutalien1","images/nothing.png","NA","practice","null","","","",""
"d3-animate-choice","39","634579","0.0-39.0","1250","1278","18","Female","false","false","true","false","""event"",""trial"",""time""
""fullscreenenter"",""5"",""27326""
","
","
","""event"",""trial"",""time""
""fullscreenenter"",""5"",""27326""
","
","433.9000000001397","","49","","","3000","1","","","images/tutgreenplanet.jpg","images/tutalien1","images/tutalien2","null","images/tutalien2","images/t.png","NA","practice","null","","","",""
"d3-animate-choice","40","636931","0.0-40.0","1250","1278","18","Female","false","false","true","false","""event"",""trial"",""time""
""fullscreenenter"",""5"",""27326""
","
","
","""event"",""trial"",""time""
""fullscreenenter"",""5"",""27326""
","
","344.69999999995343","","48","","","3000","1","","","images/tutgreenplanet.jpg","images/tutalien1","images/tutalien2","null","images/tutalien1","images/nothing.png","NA","practice","null","","","",""
"d3-animate-choice","41","639240","0.0-41.0","1250","1278","18","Female","false","false","true","false","""event"",""trial"",""time""
""fullscreenenter"",""5"",""27326""
","
","
","""event"",""trial"",""time""
""fullscreenenter"",""5"",""27326""
","
","302.4000000001397","","49","","","3000","1","","","images/tutgreenplanet.jpg","images/tutalien1","images/tutalien2","null","images/tutalien2","images/t.png","NA","practice","null","","","",""
"d3-animate-choice","42","641855","0.0-42.0","1250","1278","18","Female","false","false","true","false","""event"",""trial"",""time""
""fullscreenenter"",""5"",""27326""
","
","
","""event"",""trial"",""time""
""fullscreenenter"",""5"",""27326""
","
","608","","49","","","3000","1","","","images/tutgreenplanet.jpg","images/tutalien1","images/tutalien2","null","images/tutalien2","images/nothing.png","NA","practice","null","","","",""
"d3-animate-choice","43","644079","0.0-43.0","1250","1278","18","Female","false","false","true","false","""event"",""trial"",""time""
""fullscreenenter"",""5"",""27326""
","
","
","""event"",""trial"",""time""
""fullscreenenter"",""5"",""27326""
","
","216.10000000009313","","48","","","3000","1","","","images/tutgreenplanet.jpg","images/tutalien1","images/tutalien2","null","images/tutalien1","images/nothing.png","NA","practice","null","","","",""
"d3-instructions","44","805967","0.0-44.0","1250","1278","18","Female","false","false","true","false","""event"",""trial"",""time""
""fullscreenenter"",""5"",""27326""
","
","
","""event"",""trial"",""time""
""fullscreenenter"",""5"",""27326""
","
","","","","","","","","","","","","","","","","","","","","","",""
"d3-instructions","45","813031","0.0-45.0","1250","1278","18","Female","false","false","true","false","""event"",""trial"",""time""
""fullscreenenter"",""5"",""27326""
","
","
","""event"",""trial"",""time""
""fullscreenenter"",""5"",""27326""
","
","","","","","","","","","","","","","","","","","","","","","",""
"d3-instructions","46","820106","0.0-46.0","1250","1278","18","Female","false","false","true","false","""event"",""trial"",""time""
""fullscreenenter"",""5"",""27326""
","
","
","""event"",""trial"",""time""
""fullscreenenter"",""5"",""27326""
","
","","","","","","","","","","","","","","","","","","","","","",""
"d3-instructions","47","846634","0.0-47.0","1250","1278","18","Female","false","false","true","false","""event"",""trial"",""time""
""fullscreenenter"",""5"",""27326""
","
","
","""event"",""trial"",""time""
""fullscreenenter"",""5"",""27326""
","
","","","","","","","","","","","","","","","","","","","","","",""
"d3-instructions","48","855760","0.0-48.0","1250","1278","18","Female","false","false","true","false","""event"",""trial"",""time""
""fullscreenenter"",""5"",""27326""
","
","
","""event"",""trial"",""time""
""fullscreenenter"",""5"",""27326""
","
","","","","","","","","","","","","","","","","","","","","","",""
"d3-instructions","49","878481","0.0-49.0","1250","1278","18","Female","false","false","true","false","""event"",""trial"",""time""
""fullscreenenter"",""5"",""27326""
","
","
","""event"",""trial"",""time""
""fullscreenenter"",""5"",""27326""
","
","","","","","","","","","","","","","","","","","","","","","",""
"d3-instructions","50","918910","0.0-50.0","1250","1278","18","Female","false","false","true","false","""event"",""trial"",""time""
""fullscreenenter"",""5"",""27326""
","
","
","""event"",""trial"",""time""
""fullscreenenter"",""5"",""27326""
","
","","","","","","","","","","","","","","","","","","","","","",""
"d3-instructions","51","924653","0.0-51.0","1250","1278","18","Female","false","false","true","false","""event"",""trial"",""time""
""fullscreenenter"",""5"",""27326""
","
","
","""event"",""trial"",""time""
""fullscreenenter"",""5"",""27326""
","
","","","","","","","","","","","","","","","","","","","","","",""
"d3-instructions","52","928483","0.0-52.0","1250","1278","18","Female","false","false","true","false","""event"",""trial"",""time""
""fullscreenenter"",""5"",""27326""
","
","
","""event"",""trial"",""time""
""fullscreenenter"",""5"",""27326""
","
","","","","","","","","","","","","","","","","","","","","","",""
"d3-instructions","53","941425","0.0-53.0","1250","1278","18","Female","false","false","true","false","""event"",""trial"",""time""
""fullscreenenter"",""5"",""27326""
","
","
","""event"",""trial"",""time""
""fullscreenenter"",""5"",""27326""
","
","","","","","","","","","","","","","","","","","","","","","",""
"d3-instructions","54","954246","0.0-54.0","1250","1278","18","Female","false","false","true","false","""event"",""trial"",""time""
""fullscreenenter"",""5"",""27326""
","
","
","""event"",""trial"",""time""
""fullscreenenter"",""5"",""27326""
","
","","","","","","","","","","","","","","","","","","","","","",""
"d3-instructions","55","972384","0.0-55.0","1250","1278","18","Female","false","false","true","false","""event"",""trial"",""time""
""fullscreenenter"",""5"",""27326""
","
","
","""event"",""trial"",""time""
""fullscreenenter"",""5"",""27326""
","
","","","","","","","","","","","","","","","","","","","","","",""
"d3-instructions","56","984681","0.0-56.0","1250","1278","18","Female","false","false","true","false","""event"",""trial"",""time""
""fullscreenenter"",""5"",""27326""
","
","
","""event"",""trial"",""time""
""fullscreenenter"",""5"",""27326""
","
","","","","","","","","","","","","","","","","","","","","","",""
"d3-instructions","57","995548","0.0-57.0","1250","1278","18","Female","false","false","true","false","""event"",""trial"",""time""
""fullscreenenter"",""5"",""27326""
","
","
","""event"",""trial"",""time""
""fullscreenenter"",""5"",""27326""
","
","","","","","","","","","","","","","","","","","","","","","",""
"d3-instructions","58","1006190","0.0-58.0","1250","1278","18","Female","false","false","true","false","""event"",""trial"",""time""
""fullscreenenter"",""5"",""27326""
","
","
","""event"",""trial"",""time""
""fullscreenenter"",""5"",""27326""
","
","","","","","","","","","","","","","","","","","","","","","",""
"d3-instructions","59","1007691","0.0-59.0","1250","1278","18","Female","false","false","true","false","""event"",""trial"",""time""
""fullscreenenter"",""5"",""27326""
","
","
","""event"",""trial"",""time""
""fullscreenenter"",""5"",""27326""
","
","","","","","","","","","","","","","","","","","","","","","",""
"d3-instructions","60","1010278","0.0-60.0","1250","1278","18","Female","false","false","true","false","""event"",""trial"",""time""
""fullscreenenter"",""5"",""27326""
","
","
","""event"",""trial"",""time""
""fullscreenenter"",""5"",""27326""
","
","","","","","","","","","","","","","","","","","","","","","",""
"d3-animate-choice","61","1013210","0.0-61.0-0.0","1250","1278","18","Female","false","false","true","false","""event"",""trial"",""time""
""fullscreenenter"",""5"",""27326""
","
","
","""event"",""trial"",""time""
""fullscreenenter"",""5"",""27326""
","
","925.3999999999069","","49","","","3000","1","","","images/earth.jpg","images/tutrocket2","images/tutrocket1","null","images/tutrocket1","","1","practice","null","1","","",""
"d3-animate-choice","62","1015734","0.0-61.0-1.0","1250","1278","18","Female","false","false","true","false","""event"",""trial"",""time""
""fullscreenenter"",""5"",""27326""
","
","
","""event"",""trial"",""time""
""fullscreenenter"",""5"",""27326""
","
","512.2000000001863","","49","","","3000","1","605.1000000000931","48","images/tutyellowplanet.jpg","images/tutalien4","images/tutalien3","images/tutrocket1","images/tutalien3","images/nothing.png","2","practice","true","1","common","0","2022-04-03 19:34:20.565"
"two-step-fixation","63","1016740","0.0-61.0-2.0","1250","1278","18","Female","false","false","true","false","""event"",""trial"",""time""
""fullscreenenter"",""5"",""27326""
","
","
","""event"",""trial"",""time""
""fullscreenenter"",""5"",""27326""
","
","","images/earth.jpg","","","","","","","","","","","","","","fixation","","","","","",""
"d3-animate-choice","64","1018971","0.0-61.0-0.1","1250","1278","18","Female","false","false","true","false","""event"",""trial"",""time""
""fullscreenenter"",""5"",""27326""
","
","
","""event"",""trial"",""time""
""fullscreenenter"",""5"",""27326""
","
","224.5","","48","","","3000","1","","","images/earth.jpg","images/tutrocket2","images/tutrocket1","null","images/tutrocket2","","1","practice","null","2","","",""
"d3-animate-choice","65","1021236","0.0-61.0-1.1","1250","1278","18","Female","false","false","true","false","""event"",""trial"",""time""
""fullscreenenter"",""5"",""27326""
","
","
","""event"",""trial"",""time""
""fullscreenenter"",""5"",""27326""
","
","258","","48","","","3000","1","","","images/tutyellowplanet.jpg","images/tutalien4","images/tutalien3","images/tutrocket2","images/tutalien4","images/t.png","2","practice","false","2","rare","1","2022-04-03 19:34:26.067"
"two-step-fixation","66","1022241","0.0-61.0-2.1","1250","1278","18","Female","false","false","true","false","""event"",""trial"",""time""
""fullscreenenter"",""5"",""27326""
","
","
","""event"",""trial"",""time""
""fullscreenenter"",""5"",""27326""
","
","","images/earth.jpg","","","","","","","","","","","","","","fixation","","","","","",""
"d3-animate-choice","67","1024543","0.0-61.0-0.2","1250","1278","18","Female","false","false","true","false","""event"",""trial"",""time""
""fullscreenenter"",""5"",""27326""
","
","
","""event"",""trial"",""time""
""fullscreenenter"",""5"",""27326""
","
","293.5","","48","","","3000","1","","","images/earth.jpg","images/tutrocket2","images/tutrocket1","null","images/tutrocket2","","1","practice","null","2","","",""
"d3-animate-choice","68","1026970","0.0-61.0-1.2","1250","1278","18","Female","false","false","true","false","""event"",""trial"",""time""
""fullscreenenter"",""5"",""27326""
","
","
","""event"",""trial"",""time""
""fullscreenenter"",""5"",""27326""
","
","420.60000000009313","","49","","","3000","1","","","images/tutgreenplanet.jpg","images/tutalien2","images/tutalien1","images/tutrocket2","images/tutalien1","images/t.png","2","practice","true","1","common","1","2022-04-03 19:34:31.801"
"two-step-fixation","69","1027975","0.0-61.0-2.2","1250","1278","18","Female","false","false","true","false","""event"",""trial"",""time""
""fullscreenenter"",""5"",""27326""
","
","
","""event"",""trial"",""time""
""fullscreenenter"",""5"",""27326""
","
","","images/earth.jpg","","","","","","","","","","","","","","fixation","","","","","",""
"d3-animate-choice","70","1030204","0.0-61.0-0.3","1250","1278","18","Female","false","false","true","false","""event"",""trial"",""time""
""fullscreenenter"",""5"",""27326""
","
","
","""event"",""trial"",""time""
""fullscreenenter"",""5"",""27326""
","
","221.5","","49","","","3000","1","","","images/earth.jpg","images/tutrocket2","images/tutrocket1","null","images/tutrocket1","","1","practice","null","1","","",""
"d3-animate-choice","71","1032627","0.0-61.0-1.3","1250","1278","18","Female","false","false","true","false","""event"",""trial"",""time""
""fullscreenenter"",""5"",""27326""
","
","
","""event"",""trial"",""time""
""fullscreenenter"",""5"",""27326""
","
","416.39999999990687","","48","","","3000","1","","","images/tutgreenplanet.jpg","images/tutalien2","images/tutalien1","images/tutrocket1","images/tutalien2","images/nothing.png","2","practice","false","2","rare","0","2022-04-03 19:34:37.458"
"two-step-fixation","72","1033632","0.0-61.0-2.3","1250","1278","18","Female","false","false","true","false","""event"",""trial"",""time""
""fullscreenenter"",""5"",""27326""
","
","
","""event"",""trial"",""time""
""fullscreenenter"",""5"",""27326""
","
","","images/earth.jpg","","","","","","","","","","","","","","fixation","","","","","",""
"d3-animate-choice","73","1035853","0.0-61.0-0.4","1250","1278","18","Female","false","false","true","false","""event"",""trial"",""time""
""fullscreenenter"",""5"",""27326""
","
","
","""event"",""trial"",""time""
""fullscreenenter"",""5"",""27326""
","
","214.60000000009313","","49","","","3000","1","","","images/earth.jpg","images/tutrocket2","images/tutrocket1","null","images/tutrocket1","","1","practice","null","1","","",""
"d3-animate-choice","74","1038507","0.0-61.0-1.4","1250","1278","18","Female","false","false","true","false","""event"",""trial"",""time""
""fullscreenenter"",""5"",""27326""
","
","
","""event"",""trial"",""time""
""fullscreenenter"",""5"",""27326""
","
","648.1000000000931","","48","","","3000","1","","","images/tutyellowplanet.jpg","images/tutalien4","images/tutalien3","images/tutrocket1","images/tutalien4","images/nothing.png","2","practice","true","2","common","0","2022-04-03 19:34:43.338"
"two-step-fixation","75","1039519","0.0-61.0-2.4","1250","1278","18","Female","false","false","true","false","""event"",""trial"",""time""
""fullscreenenter"",""5"",""27326""
","
","
","""event"",""trial"",""time""
""fullscreenenter"",""5"",""27326""
","
","","images/earth.jpg","","","","","","","","","","","","","","fixation","","","","","",""
"d3-animate-choice","76","1041774","0.0-61.0-0.5","1250","1278","18","Female","false","false","true","false","""event"",""trial"",""time""
""fullscreenenter"",""5"",""27326""
","
","
","""event"",""trial"",""time""
""fullscreenenter"",""5"",""27326""
","
","247.89999999990687","","48","","","3000","1","","","images/earth.jpg","images/tutrocket2","images/tutrocket1","null","images/tutrocket2","","1","practice","null","2","","",""
"d3-animate-choice","77","1044147","0.0-61.0-1.5","1250","1278","18","Female","false","false","true","false","""event"",""trial"",""time""
""fullscreenenter"",""5"",""27326""
","
","
","""event"",""trial"",""time""
""fullscreenenter"",""5"",""27326""
","
","367.70000000018626","","49","","","3000","1","","","images/tutgreenplanet.jpg","images/tutalien2","images/tutalien1","images/tutrocket2","images/tutalien1","images/nothing.png","2","practice","true","1","common","0","2022-04-03 19:34:48.979"
"two-step-fixation","78","1045153","0.0-61.0-2.5","1250","1278","18","Female","false","false","true","false","""event"",""trial"",""time""
""fullscreenenter"",""5"",""27326""
","
","
","""event"",""trial"",""time""
""fullscreenenter"",""5"",""27326""
","
","","images/earth.jpg","","","","","","","","","","","","","","fixation","","","","","",""
"d3-animate-choice","79","1047400","0.0-61.0-0.6","1250","1278","18","Female","false","false","true","false","""event"",""trial"",""time""
""fullscreenenter"",""5"",""27326""
","
","
","""event"",""trial"",""time""
""fullscreenenter"",""5"",""27326""
","
","240.5","","49","","","3000","1","","","images/earth.jpg","images/tutrocket2","images/tutrocket1","null","images/tutrocket1","","1","practice","null","1","","",""
"d3-animate-choice","80","1049870","0.0-61.0-1.6","1250","1278","18","Female","false","false","true","false","""event"",""trial"",""time""
""fullscreenenter"",""5"",""27326""
","
","
","""event"",""trial"",""time""
""fullscreenenter"",""5"",""27326""
","
","462.1999999997206","","48","","","3000","1","","","images/tutyellowplanet.jpg","images/tutalien4","images/tutalien3","images/tutrocket1","images/tutalien4","images/nothing.png","2","practice","true","2","common","0","2022-04-03 19:34:54.701"
"two-step-fixation","81","1050875","0.0-61.0-2.6","1250","1278","18","Female","false","false","true","false","""event"",""trial"",""time""
""fullscreenenter"",""5"",""27326""
","
","
","""event"",""trial"",""time""
""fullscreenenter"",""5"",""27326""
","
","","images/earth.jpg","","","","","","","","","","","","","","fixation","","","","","",""
"d3-animate-choice","82","1053137","0.0-61.0-0.7","1250","1278","18","Female","false","false","true","false","""event"",""trial"",""time""
""fullscreenenter"",""5"",""27326""
","
","
","""event"",""trial"",""time""
""fullscreenenter"",""5"",""27326""
","
","254.5","","49","","","3000","1","","","images/earth.jpg","images/tutrocket2","images/tutrocket1","null","images/tutrocket1","","1","practice","null","1","","",""
"d3-animate-choice","83","1055509","0.0-61.0-1.7","1250","1278","18","Female","false","false","true","false","""event"",""trial"",""time""
""fullscreenenter"",""5"",""27326""
","
","
","""event"",""trial"",""time""
""fullscreenenter"",""5"",""27326""
","
","365.10000000009313","","48","","","3000","1","","","images/tutgreenplanet.jpg","images/tutalien2","images/tutalien1","images/tutrocket1","images/tutalien2","images/nothing.png","2","practice","false","2","rare","0","2022-04-03 19:35:00.340"
"two-step-fixation","84","1056514","0.0-61.0-2.7","1250","1278","18","Female","false","false","true","false","""event"",""trial"",""time""
""fullscreenenter"",""5"",""27326""
","
","
","""event"",""trial"",""time""
""fullscreenenter"",""5"",""27326""
","
","","images/earth.jpg","","","","","","","","","","","","","","fixation","","","","","",""
"d3-animate-choice","85","1058825","0.0-61.0-0.8","1250","1278","18","Female","false","false","true","false","""event"",""trial"",""time""
""fullscreenenter"",""5"",""27326""
","
","
","""event"",""trial"",""time""
""fullscreenenter"",""5"",""27326""
","
","303.89999999990687","","49","","","3000","1","","","images/earth.jpg","images/tutrocket2","images/tutrocket1","null","images/tutrocket1","","1","practice","null","1","","",""
"d3-animate-choice","86","1061128","0.0-61.0-1.8","1250","1278","18","Female","false","false","true","false","""event"",""trial"",""time""
""fullscreenenter"",""5"",""27326""
","
","
","""event"",""trial"",""time""
""fullscreenenter"",""5"",""27326""
","
","295.5","","49","","","3000","1","","","images/tutyellowplanet.jpg","images/tutalien4","images/tutalien3","images/tutrocket1","images/tutalien3","images/nothing.png","2","practice","true","1","common","0","2022-04-03 19:35:05.959"
"two-step-fixation","87","1062134","0.0-61.0-2.8","1250","1278","18","Female","false","false","true","false","""event"",""trial"",""time""
""fullscreenenter"",""5"",""27326""
","
","
","""event"",""trial"",""time""
""fullscreenenter"",""5"",""27326""
","
","","images/earth.jpg","","","","","","","","","","","","","","fixation","","","","","",""
"d3-animate-choice","88","1064402","0.0-61.0-0.9","1250","1278","18","Female","false","false","true","false","""event"",""trial"",""time""
""fullscreenenter"",""5"",""27326""
","
","
","""event"",""trial"",""time""
""fullscreenenter"",""5"",""27326""
","
","261.1999999997206","","48","","","3000","1","","","images/earth.jpg","images/tutrocket2","images/tutrocket1","null","images/tutrocket2","","1","practice","null","2","","",""
"d3-animate-choice","89","1066764","0.0-61.0-1.9","1250","1278","18","Female","false","false","true","false","""event"",""trial"",""time""
""fullscreenenter"",""5"",""27326""
","
","
","""event"",""trial"",""time""
""fullscreenenter"",""5"",""27326""
","
","354.60000000009313","","49","","","3000","1","","","images/tutgreenplanet.jpg","images/tutalien2","images/tutalien1","images/tutrocket2","images/tutalien1","images/nothing.png","2","practice","true","1","common","0","2022-04-03 19:35:11.595"
"two-step-fixation","90","1067769","0.0-61.0-2.9","1250","1278","18","Female","false","false","true","false","""event"",""trial"",""time""
""fullscreenenter"",""5"",""27326""
","
","
","""event"",""trial"",""time""
""fullscreenenter"",""5"",""27326""
","
","","images/earth.jpg","","","","","","","","","","","","","","fixation","","","","","",""
"d3-animate-choice","91","1070135","0.0-61.0-0.10","1250","1278","18","Female","false","false","true","false","""event"",""trial"",""time""
""fullscreenenter"",""5"",""27326""
","
","
","""event"",""trial"",""time""
""fullscreenenter"",""5"",""27326""
","
","359.20000000018626","","48","","","3000","1","","","images/earth.jpg","images/tutrocket2","images/tutrocket1","null","images/tutrocket2","","1","practice","null","2","","",""
"d3-animate-choice","92","1072695","0.0-61.0-1.10","1250","1278","18","Female","false","false","true","false","""event"",""trial"",""time""
""fullscreenenter"",""5"",""27326""
","
","
","""event"",""trial"",""time""
""fullscreenenter"",""5"",""27326""
","
","552.6999999997206","","49","","","3000","1","","","images/tutgreenplanet.jpg","images/tutalien2","images/tutalien1","images/tutrocket2","images/tutalien1","images/nothing.png","2","practice","true","1","common","0","2022-04-03 19:35:17.526"
"two-step-fixation","93","1073700","0.0-61.0-2.10","1250","1278","18","Female","false","false","true","false","""event"",""trial"",""time""
""fullscreenenter"",""5"",""27326""
","
","
","""event"",""trial"",""time""
""fullscreenenter"",""5"",""27326""
","
","","images/earth.jpg","","","","","","","","","","","","","","fixation","","","","","",""
"d3-animate-choice","94","1075889","0.0-61.0-0.11","1250","1278","18","Female","false","false","true","false","""event"",""trial"",""time""
""fullscreenenter"",""5"",""27326""
","
","
","""event"",""trial"",""time""
""fullscreenenter"",""5"",""27326""
","
","182.60000000009313","","48","","","3000","1","","","images/earth.jpg","images/tutrocket2","images/tutrocket1","null","images/tutrocket2","","1","practice","null","2","","",""
"d3-animate-choice","95","1078095","0.0-61.0-1.11","1250","1278","18","Female","false","false","true","false","""event"",""trial"",""time""
""fullscreenenter"",""5"",""27326""
","
","
","""event"",""trial"",""time""
""fullscreenenter"",""5"",""27326""
","
","199.60000000009313","","48","","","3000","1","","","images/tutyellowplanet.jpg","images/tutalien4","images/tutalien3","images/tutrocket2","images/tutalien4","images/t.png","2","practice","false","2","rare","1","2022-04-03 19:35:22.926"
"two-step-fixation","96","1079101","0.0-61.0-2.11","1250","1278","18","Female","false","false","true","false","""event"",""trial"",""time""
""fullscreenenter"",""5"",""27326""
","
","
","""event"",""trial"",""time""
""fullscreenenter"",""5"",""27326""
","
","","images/earth.jpg","","","","","","","","","","","","","","fixation","","","","","",""
"d3-animate-choice","97","1081413","0.0-61.0-0.12","1250","1278","18","Female","false","false","true","false","""event"",""trial"",""time""
""fullscreenenter"",""5"",""27326""
","
","
","""event"",""trial"",""time""
""fullscreenenter"",""5"",""27326""
","
","305.3000000002794","","49","","","3000","1","","","images/earth.jpg","images/tutrocket2","images/tutrocket1","null","images/tutrocket1","","1","practice","null","1","","",""
"d3-animate-choice","98","1083772","0.0-61.0-1.12","1250","1278","18","Female","false","false","true","false","""event"",""trial"",""time""
""fullscreenenter"",""5"",""27326""
","
","
","""event"",""trial"",""time""
""fullscreenenter"",""5"",""27326""
","
","352.40000000037253","","48","","","3000","1","","","images/tutyellowplanet.jpg","images/tutalien4","images/tutalien3","images/tutrocket1","images/tutalien4","images/nothing.png","2","practice","true","2","common","0","2022-04-03 19:35:28.603"
"two-step-fixation","99","1084778","0.0-61.0-2.12","1250","1278","18","Female","false","false","true","false","""event"",""trial"",""time""
""fullscreenenter"",""5"",""27326""
","
","
","""event"",""trial"",""time""
""fullscreenenter"",""5"",""27326""
","
","","images/earth.jpg","","","","","","","","","","","","","","fixation","","","","","",""
"d3-animate-choice","100","1087046","0.0-61.0-0.13","1250","1278","18","Female","false","false","true","false","""event"",""trial"",""time""
""fullscreenenter"",""5"",""27326""
","
","
","""event"",""trial"",""time""
""fullscreenenter"",""5"",""27326""
","
","261.70000000018626","","49","","","3000","1","","","images/earth.jpg","images/tutrocket2","images/tutrocket1","null","images/tutrocket1","","1","practice","null","1","","",""
"d3-animate-choice","101","1089479","0.0-61.0-1.13","1250","1278","18","Female","false","false","true","false","""event"",""trial"",""time""
""fullscreenenter"",""5"",""27326""
","
","
","""event"",""trial"",""time""
""fullscreenenter"",""5"",""27326""
","
","427","","48","","","3000","1","","","images/tutgreenplanet.jpg","images/tutalien2","images/tutalien1","images/tutrocket1","images/tutalien2","images/nothing.png","2","practice","false","2","rare","0","2022-04-03 19:35:34.310"
"two-step-fixation","102","1090485","0.0-61.0-2.13","1250","1278","18","Female","false","false","true","false","""event"",""trial"",""time""
""fullscreenenter"",""5"",""27326""
","
","
","""event"",""trial"",""time""
""fullscreenenter"",""5"",""27326""
","
","","images/earth.jpg","","","","","","","","","","","","","","fixation","","","","","",""
"d3-animate-choice","103","1093014","0.0-61.0-0.14","1250","1278","18","Female","false","false","true","false","""event"",""trial"",""time""
""fullscreenenter"",""5"",""27326""
","
","
","""event"",""trial"",""time""
""fullscreenenter"",""5"",""27326""
","
","523","","49","","","3000","1","","","images/earth.jpg","images/tutrocket2","images/tutrocket1","null","images/tutrocket1","","1","practice","null","1","","",""
"d3-animate-choice","104","1095478","0.0-61.0-1.14","1250","1278","18","Female","false","false","true","false","""event"",""trial"",""time""
""fullscreenenter"",""5"",""27326""
","
","
","""event"",""trial"",""time""
""fullscreenenter"",""5"",""27326""
","
","457.29999999981374","","48","","","3000","1","","","images/tutyellowplanet.jpg","images/tutalien4","images/tutalien3","images/tutrocket1","images/tutalien4","images/t.png","2","practice","true","2","common","1","2022-04-03 19:35:40.309"
"two-step-fixation","105","1096483","0.0-61.0-2.14","1250","1278","18","Female","false","false","true","false","""event"",""trial"",""time""
""fullscreenenter"",""5"",""27326""
","
","
","""event"",""trial"",""time""
""fullscreenenter"",""5"",""27326""
","
","","images/earth.jpg","","","","","","","","","","","","","","fixation","","","","","",""
"d3-animate-choice","106","1098808","0.0-61.0-0.15","1250","1278","18","Female","false","false","true","false","""event"",""trial"",""time""
""fullscreenenter"",""5"",""27326""
","
","
","""event"",""trial"",""time""
""fullscreenenter"",""5"",""27326""
","
","317.6999999997206","","49","","","3000","1","","","images/earth.jpg","images/tutrocket2","images/tutrocket1","null","images/tutrocket1","","1","practice","null","1","","",""
"d3-animate-choice","107","1101409","0.0-61.0-1.15","1250","1278","18","Female","false","false","true","false","""event"",""trial"",""time""
""fullscreenenter"",""5"",""27326""
","
","
","""event"",""trial"",""time""
""fullscreenenter"",""5"",""27326""
","
","594.3999999999069","","48","","","3000","1","","","images/tutgreenplanet.jpg","images/tutalien2","images/tutalien1","images/tutrocket1","images/tutalien2","images/nothing.png","2","practice","false","2","rare","0","2022-04-03 19:35:46.240"
"two-step-fixation","108","1102415","0.0-61.0-2.15","1250","1278","18","Female","false","false","true","false","""event"",""trial"",""time""
""fullscreenenter"",""5"",""27326""
","
","
","""event"",""trial"",""time""
""fullscreenenter"",""5"",""27326""
","
","","images/earth.jpg","","","","","","","","","","","","","","fixation","","","","","",""
"d3-animate-choice","109","1104753","0.0-61.0-0.16","1250","1278","18","Female","false","false","true","false","""event"",""trial"",""time""
""fullscreenenter"",""5"",""27326""
","
","
","""event"",""trial"",""time""
""fullscreenenter"",""5"",""27326""
","
","330.39999999990687","","49","","","3000","1","","","images/earth.jpg","images/tutrocket2","images/tutrocket1","null","images/tutrocket1","","1","practice","null","1","","",""
"d3-animate-choice","110","1107636","0.0-61.0-1.16","1250","1278","18","Female","false","false","true","false","""event"",""trial"",""time""
""fullscreenenter"",""5"",""27326""
","
","
","""event"",""trial"",""time""
""fullscreenenter"",""5"",""27326""
","
","875.6000000000931","","48","","","3000","1","","","images/tutgreenplanet.jpg","images/tutalien2","images/tutalien1","images/tutrocket1","images/tutalien2","images/t.png","2","practice","false","2","rare","1","2022-04-03 19:35:52.467"
"two-step-fixation","111","1108641","0.0-61.0-2.16","1250","1278","18","Female","false","false","true","false","""event"",""trial"",""time""
""fullscreenenter"",""5"",""27326""
","
","
","""event"",""trial"",""time""
""fullscreenenter"",""5"",""27326""
","
","","images/earth.jpg","","","","","","","","","","","","","","fixation","","","","","",""
"d3-animate-choice","112","1110953","0.0-61.0-0.17","1250","1278","18","Female","false","false","true","false","""event"",""trial"",""time""
""fullscreenenter"",""5"",""27326""
","
","
","""event"",""trial"",""time""
""fullscreenenter"",""5"",""27326""
","
","304.09999999962747","","49","","","3000","1","","","images/earth.jpg","images/tutrocket2","images/tutrocket1","null","images/tutrocket1","","1","practice","null","1","","",""
"d3-animate-choice","113","1113359","0.0-61.0-1.17","1250","1278","18","Female","false","false","true","false","""event"",""trial"",""time""
""fullscreenenter"",""5"",""27326""
","
","
","""event"",""trial"",""time""
""fullscreenenter"",""5"",""27326""
","
","399.8000000002794","","48","","","3000","1","","","images/tutgreenplanet.jpg","images/tutalien2","images/tutalien1","images/tutrocket1","images/tutalien2","images/t.png","2","practice","false","2","rare","1","2022-04-03 19:35:58.190"
"two-step-fixation","114","1114365","0.0-61.0-2.17","1250","1278","18","Female","false","false","true","false","""event"",""trial"",""time""
""fullscreenenter"",""5"",""27326""
","
","
","""event"",""trial"",""time""
""fullscreenenter"",""5"",""27326""
","
","","images/earth.jpg","","","","","","","","","","","","","","fixation","","","","","",""
"d3-animate-choice","115","1116689","0.0-61.0-0.18","1250","1278","18","Female","false","false","true","false","""event"",""trial"",""time""
""fullscreenenter"",""5"",""27326""
","
","
","""event"",""trial"",""time""
""fullscreenenter"",""5"",""27326""
","
","316.79999999981374","","48","","","3000","1","","","images/earth.jpg","images/tutrocket2","images/tutrocket1","null","images/tutrocket2","","1","practice","null","2","","",""
"d3-animate-choice","116","1119010","0.0-61.0-1.18","1250","1278","18","Female","false","false","true","false","""event"",""trial"",""time""
""fullscreenenter"",""5"",""27326""
","
","
","""event"",""trial"",""time""
""fullscreenenter"",""5"",""27326""
","
","314.8000000002794","","49","","","3000","1","","","images/tutgreenplanet.jpg","images/tutalien2","images/tutalien1","images/tutrocket2","images/tutalien1","images/nothing.png","2","practice","true","1","common","0","2022-04-03 19:36:03.841"
"two-step-fixation","117","1120016","0.0-61.0-2.18","1250","1278","18","Female","false","false","true","false","""event"",""trial"",""time""
""fullscreenenter"",""5"",""27326""
","
","
","""event"",""trial"",""time""
""fullscreenenter"",""5"",""27326""
","
","","images/earth.jpg","","","","","","","","","","","","","","fixation","","","","","",""
"d3-animate-choice","118","1122317","0.0-61.0-0.19","1250","1278","18","Female","false","false","true","false","""event"",""trial"",""time""
""fullscreenenter"",""5"",""27326""
","
","
","""event"",""trial"",""time""
""fullscreenenter"",""5"",""27326""
","
","294.10000000009313","","48","","","3000","1","","","images/earth.jpg","images/tutrocket2","images/tutrocket1","null","images/tutrocket2","","1","practice","null","2","","",""
"d3-animate-choice","119","1124626","0.0-61.0-1.19","1250","1278","18","Female","false","false","true","false","""event"",""trial"",""time""
""fullscreenenter"",""5"",""27326""
","
","
","""event"",""trial"",""time""
""fullscreenenter"",""5"",""27326""
","
","303","","49","","","3000","1","","","images/tutyellowplanet.jpg","images/tutalien4","images/tutalien3","images/tutrocket2","images/tutalien3","images/t.png","2","practice","false","1","rare","1","2022-04-03 19:36:09.458"
"two-step-fixation","120","1125632","0.0-61.0-2.19","1250","1278","18","Female","false","false","true","false","""event"",""trial"",""time""
""fullscreenenter"",""5"",""27326""
","
","
","""event"",""trial"",""time""
""fullscreenenter"",""5"",""27326""
","
","","images/earth.jpg","","","","","","","","","","","","","","fixation","","","","","",""
"d3-instructions","121","1130561","0.0-62.0","1250","1278","18","Female","false","false","true","false","""event"",""trial"",""time""
""fullscreenenter"",""5"",""27326""
","
","
","""event"",""trial"",""time""
""fullscreenenter"",""5"",""27326""
","
","","","","","","","","","","","","","","","","","","","","","",""
"audio-keyboard-response","122","1172907","0.0-63.0","1250","1278","18","Female","false","false","true","false","""event"",""trial"",""time""
""fullscreenenter"",""5"",""27326""
","
","
","""event"",""trial"",""time""
""fullscreenenter"",""5"",""27326""
","
","42347","audio/instructions/treasure_feedback.wav","32","","","","","","","","","","","","","","","","","","",""
"d3-instructions","123","1179686","0.0-64.0","1250","1278","18","Female","false","false","true","false","""event"",""trial"",""time""
""fullscreenenter"",""5"",""27326""
","
","
","""event"",""trial"",""time""
""fullscreenenter"",""5"",""27326""
","
","","","","","","","","","","","","","","","","","","","","","",""
"d3-instructions","124","1192581","0.0-65.0","1250","1278","18","Female","false","false","true","false","""event"",""trial"",""time""
""fullscreenenter"",""5"",""27326""
","
","
","""event"",""trial"",""time""
""fullscreenenter"",""5"",""27326""
","
","","","","","","","","","","","","","","","","","","","","","",""
"d3-instructions","125","1209125","0.0-66.0","1250","1278","18","Female","false","false","true","false","""event"",""trial"",""time""
""fullscreenenter"",""5"",""27326""
","
","
","""event"",""trial"",""time""
""fullscreenenter"",""5"",""27326""
","
","","","","","","","","","","","","","","","","","","","","","",""
"d3-instructions","126","1220180","0.0-67.0","1250","1278","18","Female","false","false","true","false","""event"",""trial"",""time""
""fullscreenenter"",""5"",""27326""
","
","
","""event"",""trial"",""time""
""fullscreenenter"",""5"",""27326""
","
","","","","","","","","","","","","","","","","","","","","","",""
"d3-instructions","127","1225433","0.0-68.0","1250","1278","18","Female","false","false","true","false","""event"",""trial"",""time""
""fullscreenenter"",""5"",""27326""
","
","
","""event"",""trial"",""time""
""fullscreenenter"",""5"",""27326""
","
","","","","","","","","","","","","","","","","","","","","","",""
"instructions-quiz","128","1228039","0.0-69.0","1250","1278","18","Female","false","false","true","false","""event"",""trial"",""time""
""fullscreenenter"",""5"",""27326""
","
","
","""event"",""trial"",""time""
""fullscreenenter"",""5"",""27326""
","
","2600.899999999907","audio/quiz/Q1_Prompt.wav","","1","","","","","","","","","","","","","","","","","",""
"audio-keyboard-response","129","1237211","0.0-70.0","1250","1278","18","Female","false","false","true","false","""event"",""trial"",""time""
""fullscreenenter"",""5"",""27326""
","
","
","""event"",""trial"",""time""
""fullscreenenter"",""5"",""27326""
","
","null","audio/quiz/Q1_Correct.wav","null","","","","","","","","","","","","","","","","","","",""
"instructions-quiz","130","1241178","0.0-71.0","1250","1278","18","Female","false","false","true","false","""event"",""trial"",""time""
""fullscreenenter"",""5"",""27326""
","
","
","""event"",""trial"",""time""
""fullscreenenter"",""5"",""27326""
","
","3962.3000000002794","audio/quiz/Q2_Prompt.wav","","0","","","","","","","","","","","","","","","","","",""
"audio-keyboard-response","131","1254054","0.0-72.0","1250","1278","18","Female","false","false","true","false","""event"",""trial"",""time""
""fullscreenenter"",""5"",""27326""
","
","
","""event"",""trial"",""time""
""fullscreenenter"",""5"",""27326""
","
","null","audio/quiz/Q2_Correct.wav","null","","","","","","","","","","","","","","","","","","",""
"instructions-quiz","132","1256702","0.0-73.0","1250","1278","18","Female","false","false","true","false","""event"",""trial"",""time""
""fullscreenenter"",""5"",""27326""
","
","
","""event"",""trial"",""time""
""fullscreenenter"",""5"",""27326""
","
","2643","audio/quiz/Q3_Prompt.wav","","1","","","","","","","","","","","","","","","","","",""
"audio-keyboard-response","133","1262501","0.0-74.0","1250","1278","18","Female","false","false","true","false","""event"",""trial"",""time""
""fullscreenenter"",""5"",""27326""
","
","
","""event"",""trial"",""time""
""fullscreenenter"",""5"",""27326""
","
","null","audio/quiz/Q3_Correct.wav","null","","","","","","","","","","","","","","","","","","",""
"d3-instructions","134","1269494","0.0-75.0","1250","1278","18","Female","false","false","true","false","""event"",""trial"",""time""
""fullscreenenter"",""5"",""27326""
","
","
","""event"",""trial"",""time""
""fullscreenenter"",""5"",""27326""
","
","","","","","","","","","","","","","","","","","","","","","",""
"d3-animate-choice","135","1272789","0.0-76.0-0.0","1250","1278","18","Female","false","false","true","false","""event"",""trial"",""time""
""fullscreenenter"",""5"",""27326""
","
","
","""event"",""trial"",""time""
""fullscreenenter"",""5"",""27326""
","
","1286.7000000001863","","48","","","3000","1","","","images/earth.jpg","images/rocket1","images/rocket2","null","images/rocket1","","1","real","null","2","","",""
"d3-animate-choice","136","1275075","0.0-76.0-1.0","1250","1278","18","Female","false","false","true","false","""event"",""trial"",""time""
""fullscreenenter"",""5"",""27326""
","
","
","""event"",""trial"",""time""
""fullscreenenter"",""5"",""27326""
","
","278.20000000018626","","49","","","3000","1","","","images/purpleplanet.jpg","images/alien4","images/alien3","images/rocket1","images/alien3","images/nothing.png","2","real","true","1","common","0","2022-04-03 19:38:39.906"
"two-step-fixation","137","1276083","0.0-76.0-2.0","1250","1278","18","Female","false","false","true","false","""event"",""trial"",""time""
""fullscreenenter"",""5"",""27326""
","
","
","""event"",""trial"",""time""
""fullscreenenter"",""5"",""27326""
","
","","images/earth.jpg","","","","","","","","","","","","","","fixation","","","","","",""
"d3-animate-choice","138","1278381","0.0-76.0-0.1","1250","1278","18","Female","false","false","true","false","""event"",""trial"",""time""
""fullscreenenter"",""5"",""27326""
","
","
","""event"",""trial"",""time""
""fullscreenenter"",""5"",""27326""
","
","290.29999999981374","","48","","","3000","1","1629.8999999999069","48","images/earth.jpg","images/rocket1","images/rocket2","null","images/rocket1","","1","real","null","2","","",""
"d3-animate-choice","139","1280583","0.0-76.0-1.1","1250","1278","18","Female","false","false","true","false","""event"",""trial"",""time""
""fullscreenenter"",""5"",""27326""
","
","
","""event"",""trial"",""time""
""fullscreenenter"",""5"",""27326""
","
","193.70000000018626","","48","","","3000","1","","","images/purpleplanet.jpg","images/alien4","images/alien3","images/rocket1","images/alien4","images/t.png","2","real","true","2","common","1","2022-04-03 19:38:45.414"
"two-step-fixation","140","1281589","0.0-76.0-2.1","1250","1278","18","Female","false","false","true","false","""event"",""trial"",""time""
""fullscreenenter"",""5"",""27326""
","
","
","""event"",""trial"",""time""
""fullscreenenter"",""5"",""27326""
","
","","images/earth.jpg","","","","","","","","","","","","","","fixation","","","","","",""
"d3-animate-choice","141","1283875","0.0-76.0-0.2","1250","1278","18","Female","false","false","true","false","""event"",""trial"",""time""
""fullscreenenter"",""5"",""27326""
","
","
","""event"",""trial"",""time""
""fullscreenenter"",""5"",""27326""
","
","277.89999999990687","","49","","","3000","1","","","images/earth.jpg","images/rocket1","images/rocket2","null","images/rocket2","","1","real","null","1","","",""
"d3-animate-choice","142","1286176","0.0-76.0-1.2","1250","1278","18","Female","false","false","true","false","""event"",""trial"",""time""
""fullscreenenter"",""5"",""27326""
","
","
","""event"",""trial"",""time""
""fullscreenenter"",""5"",""27326""
","
","292.79999999981374","","48","","","3000","1","","","images/redplanet1.jpg","images/alien2","images/alien1","images/rocket2","images/alien2","images/t.png","2","real","true","2","common","1","2022-04-03 19:38:51.007"
"two-step-fixation","143","1287182","0.0-76.0-2.2","1250","1278","18","Female","false","false","true","false","""event"",""trial"",""time""
""fullscreenenter"",""5"",""27326""
","
","
","""event"",""trial"",""time""
""fullscreenenter"",""5"",""27326""
","
","","images/earth.jpg","","","","","","","","","","","","","","fixation","","","","","",""
"d3-animate-choice","144","1289435","0.0-76.0-0.3","1250","1278","18","Female","false","false","true","false","""event"",""trial"",""time""
""fullscreenenter"",""5"",""27326""
","
","
","""event"",""trial"",""time""
""fullscreenenter"",""5"",""27326""
","
","244.70000000018626","","49","","","3000","1","","","images/earth.jpg","images/rocket1","images/rocket2","null","images/rocket2","","1","real","null","1","","",""
"d3-animate-choice","145","1291747","0.0-76.0-1.3","1250","1278","18","Female","false","false","true","false","""event"",""trial"",""time""
""fullscreenenter"",""5"",""27326""
","
","
","""event"",""trial"",""time""
""fullscreenenter"",""5"",""27326""
","
","304.59999999962747","","48","","","3000","1","","","images/redplanet1.jpg","images/alien2","images/alien1","images/rocket2","images/alien2","images/t.png","2","real","true","2","common","1","2022-04-03 19:38:56.579"
"two-step-fixation","146","1292754","0.0-76.0-2.3","1250","1278","18","Female","false","false","true","false","""event"",""trial"",""time""
""fullscreenenter"",""5"",""27326""
","
","
","""event"",""trial"",""time""
""fullscreenenter"",""5"",""27326""
","
","","images/earth.jpg","","","","","","","","","","","","","","fixation","","","","","",""
"d3-animate-choice","147","1295114","0.0-76.0-0.4","1250","1278","18","Female","false","false","true","false","""event"",""trial"",""time""
""fullscreenenter"",""5"",""27326""
","
","
","""event"",""trial"",""time""
""fullscreenenter"",""5"",""27326""
","
","352.10000000009313","","49","","","3000","1","","","images/earth.jpg","images/rocket1","images/rocket2","null","images/rocket2","","1","real","null","1","","",""
"d3-animate-choice","148","1297574","0.0-76.0-1.4","1250","1278","18","Female","false","false","true","false","""event"",""trial"",""time""
""fullscreenenter"",""5"",""27326""
","
","
","""event"",""trial"",""time""
""fullscreenenter"",""5"",""27326""
","
","452.20000000018626","","48","","","3000","1","","","images/redplanet1.jpg","images/alien2","images/alien1","images/rocket2","images/alien2","images/nothing.png","2","real","true","2","common","0","2022-04-03 19:39:02.405"
"two-step-fixation","149","1298580","0.0-76.0-2.4","1250","1278","18","Female","false","false","true","false","""event"",""trial"",""time""
""fullscreenenter"",""5"",""27326""
","
","
","""event"",""trial"",""time""
""fullscreenenter"",""5"",""27326""
","
","","images/earth.jpg","","","","","","","","","","","","","","fixation","","","","","",""
"d3-animate-choice","150","1300939","0.0-76.0-0.5","1250","1278","18","Female","false","false","true","false","""event"",""trial"",""time""
""fullscreenenter"",""5"",""27326""
","
","
","""event"",""trial"",""time""
""fullscreenenter"",""5"",""27326""
","
","352.10000000009313","","49","","","3000","1","","","images/earth.jpg","images/rocket1","images/rocket2","null","images/rocket2","","1","real","null","1","","",""
"d3-animate-choice","151","1303443","0.0-76.0-1.5","1250","1278","18","Female","false","false","true","false","""event"",""trial"",""time""
""fullscreenenter"",""5"",""27326""
","
","
","""event"",""trial"",""time""
""fullscreenenter"",""5"",""27326""
","
","496.20000000018626","","48","","","3000","1","","","images/purpleplanet.jpg","images/alien4","images/alien3","images/rocket2","images/alien4","images/t.png","2","real","false","2","rare","1","2022-04-03 19:39:08.274"
"two-step-fixation","152","1304449","0.0-76.0-2.5","1250","1278","18","Female","false","false","true","false","""event"",""trial"",""time""
""fullscreenenter"",""5"",""27326""
","
","
","""event"",""trial"",""time""
""fullscreenenter"",""5"",""27326""
","
","","images/earth.jpg","","","","","","","","","","","","","","fixation","","","","","",""
"d3-animate-choice","153","1306969","0.0-76.0-0.6","1250","1278","18","Female","false","false","true","false","""event"",""trial"",""time""
""fullscreenenter"",""5"",""27326""
","
","
","""event"",""trial"",""time""
""fullscreenenter"",""5"",""27326""
","
","512.5","","49","","","3000","1","","","images/earth.jpg","images/rocket1","images/rocket2","null","images/rocket2","","1","real","null","1","","",""
"d3-animate-choice","154","1309462","0.0-76.0-1.6","1250","1278","18","Female","false","false","true","false","""event"",""trial"",""time""
""fullscreenenter"",""5"",""27326""
","
","
","""event"",""trial"",""time""
""fullscreenenter"",""5"",""27326""
","
","484.40000000037253","","48","","","3000","1","","","images/redplanet1.jpg","images/alien2","images/alien1","images/rocket2","images/alien2","images/t.png","2","real","true","2","common","1","2022-04-03 19:39:14.293"
"two-step-fixation","155","1310469","0.0-76.0-2.6","1250","1278","18","Female","false","false","true","false","""event"",""trial"",""time""
""fullscreenenter"",""5"",""27326""
","
","
","""event"",""trial"",""time""
""fullscreenenter"",""5"",""27326""
","
","","images/earth.jpg","","","","","","","","","","","","","","fixation","","","","","",""
"d3-animate-choice","156","1312938","0.0-76.0-0.7","1250","1278","18","Female","false","false","true","false","""event"",""trial"",""time""
""fullscreenenter"",""5"",""27326""
","
","
","""event"",""trial"",""time""
""fullscreenenter"",""5"",""27326""
","
","461","","49","","","3000","1","","","images/earth.jpg","images/rocket1","images/rocket2","null","images/rocket2","","1","real","null","1","","",""
"d3-animate-choice","157","1315211","0.0-76.0-1.7","1250","1278","18","Female","false","false","true","false","""event"",""trial"",""time""
""fullscreenenter"",""5"",""27326""
","
","
","""event"",""trial"",""time""
""fullscreenenter"",""5"",""27326""
","
","265.29999999981374","","48","","","3000","1","","","images/redplanet1.jpg","images/alien2","images/alien1","images/rocket2","images/alien2","images/t.png","2","real","true","2","common","1","2022-04-03 19:39:20.042"
"two-step-fixation","158","1316218","0.0-76.0-2.7","1250","1278","18","Female","false","false","true","false","""event"",""trial"",""time""
""fullscreenenter"",""5"",""27326""
","
","
","""event"",""trial"",""time""
""fullscreenenter"",""5"",""27326""
","
","","images/earth.jpg","","","","","","","","","","","","","","fixation","","","","","",""
"d3-animate-choice","159","1318535","0.0-76.0-0.8","1250","1278","18","Female","false","false","true","false","""event"",""trial"",""time""
""fullscreenenter"",""5"",""27326""
","
","
","""event"",""trial"",""time""
""fullscreenenter"",""5"",""27326""
","
","308.6999999997206","","49","","","3000","1","","","images/earth.jpg","images/rocket1","images/rocket2","null","images/rocket2","","1","real","null","1","","",""
"d3-animate-choice","160","1321040","0.0-76.0-1.8","1250","1278","18","Female","false","false","true","false","""event"",""trial"",""time""
""fullscreenenter"",""5"",""27326""
","
","
","""event"",""trial"",""time""
""fullscreenenter"",""5"",""27326""
","
","497.10000000009313","","48","","","3000","1","","","images/purpleplanet.jpg","images/alien4","images/alien3","images/rocket2","images/alien4","images/t.png","2","real","false","2","rare","1","2022-04-03 19:39:25.871"
"two-step-fixation","161","1322046","0.0-76.0-2.8","1250","1278","18","Female","false","false","true","false","""event"",""trial"",""time""
""fullscreenenter"",""5"",""27326""
","
","
","""event"",""trial"",""time""
""fullscreenenter"",""5"",""27326""
","
","","images/earth.jpg","","","","","","","","","","","","","","fixation","","","","","",""
"d3-animate-choice","162","1324405","0.0-76.0-0.9","1250","1278","18","Female","false","false","true","false","""event"",""trial"",""time""
""fullscreenenter"",""5"",""27326""
","
","
","""event"",""trial"",""time""
""fullscreenenter"",""5"",""27326""
","
","351.20000000018626","","49","","","3000","1","","","images/earth.jpg","images/rocket1","images/rocket2","null","images/rocket2","","1","real","null","1","","",""
"d3-animate-choice","163","1326624","0.0-76.0-1.9","1250","1278","18","Female","false","false","true","false","""event"",""trial"",""time""
""fullscreenenter"",""5"",""27326""
","
","
","""event"",""trial"",""time""
""fullscreenenter"",""5"",""27326""
","
","211.40000000037253","","48","","","3000","1","","","images/redplanet1.jpg","images/alien2","images/alien1","images/rocket2","images/alien2","images/t.png","2","real","true","2","common","1","2022-04-03 19:39:31.455"
"two-step-fixation","164","1327630","0.0-76.0-2.9","1250","1278","18","Female","false","false","true","false","""event"",""trial"",""time""
""fullscreenenter"",""5"",""27326""
","
","
","""event"",""trial"",""time""
""fullscreenenter"",""5"",""27326""
","
","","images/earth.jpg","","","","","","","","","","","","","","fixation","","","","","",""
"d3-animate-choice","165","1329904","0.0-76.0-0.10","1250","1278","18","Female","false","false","true","false","""event"",""trial"",""time""
""fullscreenenter"",""5"",""27326""
","
","
","""event"",""trial"",""time""
""fullscreenenter"",""5"",""27326""
","
","266.89999999990687","","49","","","3000","1","","","images/earth.jpg","images/rocket1","images/rocket2","null","images/rocket2","","1","real","null","1","","",""
"d3-animate-choice","166","1332178","0.0-76.0-1.10","1250","1278","18","Female","false","false","true","false","""event"",""trial"",""time""
""fullscreenenter"",""5"",""27326""
","
","
","""event"",""trial"",""time""
""fullscreenenter"",""5"",""27326""
","
","268.8000000002794","","48","","","3000","1","","","images/purpleplanet.jpg","images/alien4","images/alien3","images/rocket2","images/alien4","images/nothing.png","2","real","false","2","rare","0","2022-04-03 19:39:37.009"
"two-step-fixation","167","1333183","0.0-76.0-2.10","1250","1278","18","Female","false","false","true","false","""event"",""trial"",""time""
""fullscreenenter"",""5"",""27326""
","
","
","""event"",""trial"",""time""
""fullscreenenter"",""5"",""27326""
","
","","images/earth.jpg","","","","","","","","","","","","","","fixation","","","","","",""
"d3-animate-choice","168","1335321","0.0-76.0-0.11","1250","1278","18","Female","false","false","true","false","""event"",""trial"",""time""
""fullscreenenter"",""5"",""27326""
","
","
","""event"",""trial"",""time""
""fullscreenenter"",""5"",""27326""
","
","131.5","","49","","","3000","1","","","images/earth.jpg","images/rocket1","images/rocket2","null","images/rocket2","","1","real","null","1","","",""
"d3-animate-choice","169","1337821","0.0-76.0-1.11","1250","1278","18","Female","false","false","true","false","""event"",""trial"",""time""
""fullscreenenter"",""5"",""27326""
","
","
","""event"",""trial"",""time""
""fullscreenenter"",""5"",""27326""
","
","494.40000000037253","","48","","","3000","1","","","images/redplanet1.jpg","images/alien2","images/alien1","images/rocket2","images/alien2","images/t.png","2","real","true","2","common","1","2022-04-03 19:39:42.652"
"two-step-fixation","170","1338826","0.0-76.0-2.11","1250","1278","18","Female","false","false","true","false","""event"",""trial"",""time""
""fullscreenenter"",""5"",""27326""
","
","
","""event"",""trial"",""time""
""fullscreenenter"",""5"",""27326""
","
","","images/earth.jpg","","","","","","","","","","","","","","fixation","","","","","",""
"d3-animate-choice","171","1341044","0.0-76.0-0.12","1250","1278","18","Female","false","false","true","false","""event"",""trial"",""time""
""fullscreenenter"",""5"",""27326""
","
","
","""event"",""trial"",""time""
""fullscreenenter"",""5"",""27326""
","
","212.10000000009313","","48","","","3000","1","","","images/earth.jpg","images/rocket1","images/rocket2","null","images/rocket1","","1","real","null","2","","",""
"d3-animate-choice","172","1343481","0.0-76.0-1.12","1250","1278","18","Female","false","false","true","false","""event"",""trial"",""time""
""fullscreenenter"",""5"",""27326""
","
","
","""event"",""trial"",""time""
""fullscreenenter"",""5"",""27326""
","
","432.1999999997206","","49","","","3000","1","","","images/purpleplanet.jpg","images/alien4","images/alien3","images/rocket1","images/alien3","images/nothing.png","2","real","true","1","common","0","2022-04-03 19:39:48.312"
"two-step-fixation","173","1344486","0.0-76.0-2.12","1250","1278","18","Female","false","false","true","false","""event"",""trial"",""time""
""fullscreenenter"",""5"",""27326""
","
","
","""event"",""trial"",""time""
""fullscreenenter"",""5"",""27326""
","
","","images/earth.jpg","","","","","","","","","","","","","","fixation","","","","","",""
"d3-animate-choice","174","1346794","0.0-76.0-0.13","1250","1278","18","Female","false","false","true","false","""event"",""trial"",""time""
""fullscreenenter"",""5"",""27326""
","
","
","""event"",""trial"",""time""
""fullscreenenter"",""5"",""27326""
","
","301.60000000009313","","48","","","3000","1","","","images/earth.jpg","images/rocket1","images/rocket2","null","images/rocket1","","1","real","null","2","","",""
"d3-animate-choice","175","1349163","0.0-76.0-1.13","1250","1278","18","Female","false","false","true","false","""event"",""trial"",""time""
""fullscreenenter"",""5"",""27326""
","
","
","""event"",""trial"",""time""
""fullscreenenter"",""5"",""27326""
","
","362.5","","49","","","3000","1","","","images/purpleplanet.jpg","images/alien4","images/alien3","images/rocket1","images/alien3","images/t.png","2","real","true","1","common","1","2022-04-03 19:39:53.994"
"two-step-fixation","176","1350168","0.0-76.0-2.13","1250","1278","18","Female","false","false","true","false","""event"",""trial"",""time""
""fullscreenenter"",""5"",""27326""
","
","
","""event"",""trial"",""time""
""fullscreenenter"",""5"",""27326""
","
","","images/earth.jpg","","","","","","","","","","","","","","fixation","","","","","",""
"d3-animate-choice","177","1352606","0.0-76.0-0.14","1250","1278","18","Female","false","false","true","false","""event"",""trial"",""time""
""fullscreenenter"",""5"",""27326""
","
","
","""event"",""trial"",""time""
""fullscreenenter"",""5"",""27326""
","
","431.40000000037253","","48","","","3000","1","","","images/earth.jpg","images/rocket1","images/rocket2","null","images/rocket1","","1","real","null","2","","",""
"d3-animate-choice","178","1354919","0.0-76.0-1.14","1250","1278","18","Female","false","false","true","false","""event"",""trial"",""time""
""fullscreenenter"",""5"",""27326""
","
","
","""event"",""trial"",""time""
""fullscreenenter"",""5"",""27326""
","
","307.1999999997206","","49","","","3000","1","","","images/purpleplanet.jpg","images/alien4","images/alien3","images/rocket1","images/alien3","images/nothing.png","2","real","true","1","common","0","2022-04-03 19:39:59.750"
"two-step-fixation","179","1355924","0.0-76.0-2.14","1250","1278","18","Female","false","false","true","false","""event"",""trial"",""time""
""fullscreenenter"",""5"",""27326""
","
","
","""event"",""trial"",""time""
""fullscreenenter"",""5"",""27326""
","
","","images/earth.jpg","","","","","","","","","","","","","","fixation","","","","","",""
"d3-animate-choice","180","1358291","0.0-76.0-0.15","1250","1278","18","Female","false","false","true","false","""event"",""trial"",""time""
""fullscreenenter"",""5"",""27326""
","
","
","""event"",""trial"",""time""
""fullscreenenter"",""5"",""27326""
","
","359.59999999962747","","48","","","3000","1","1785.6999999997206","49","images/earth.jpg","images/rocket1","images/rocket2","null","images/rocket1","","1","real","null","2","","",""
"d3-animate-choice","181","1360696","0.0-76.0-1.15","1250","1278","18","Female","false","false","true","false","""event"",""trial"",""time""
""fullscreenenter"",""5"",""27326""
","
","
","""event"",""trial"",""time""
""fullscreenenter"",""5"",""27326""
","
","399.70000000018626","","49","","","3000","1","","","images/purpleplanet.jpg","images/alien4","images/alien3","images/rocket1","images/alien3","images/t.png","2","real","true","1","common","1","2022-04-03 19:40:05.527"
"two-step-fixation","182","1361701","0.0-76.0-2.15","1250","1278","18","Female","false","false","true","false","""event"",""trial"",""time""
""fullscreenenter"",""5"",""27326""
","
","
","""event"",""trial"",""time""
""fullscreenenter"",""5"",""27326""
","
","","images/earth.jpg","","","","","","","","","","","","","","fixation","","","","","",""
"d3-animate-choice","183","1364401","0.0-76.0-0.16","1250","1278","18","Female","false","false","true","false","""event"",""trial"",""time""
""fullscreenenter"",""5"",""27326""
","
","
","""event"",""trial"",""time""
""fullscreenenter"",""5"",""27326""
","
","693.3999999999069","","48","","","3000","1","","","images/earth.jpg","images/rocket1","images/rocket2","null","images/rocket1","","1","real","null","2","","",""
"d3-animate-choice","184","1366996","0.0-76.0-1.16","1250","1278","18","Female","false","false","true","false","""event"",""trial"",""time""
""fullscreenenter"",""5"",""27326""
","
","
","""event"",""trial"",""time""
""fullscreenenter"",""5"",""27326""
","
","589.7000000001863","","48","","","3000","1","","","images/purpleplanet.jpg","images/alien4","images/alien3","images/rocket1","images/alien4","images/t.png","2","real","true","2","common","1","2022-04-03 19:40:11.827"
"two-step-fixation","185","1368001","0.0-76.0-2.16","1250","1278","18","Female","false","false","true","false","""event"",""trial"",""time""
""fullscreenenter"",""5"",""27326""
","
","
","""event"",""trial"",""time""
""fullscreenenter"",""5"",""27326""
","
","","images/earth.jpg","","","","","","","","","","","","","","fixation","","","","","",""
"d3-animate-choice","186","1370378","0.0-76.0-0.17","1250","1278","18","Female","false","false","true","false","""event"",""trial"",""time""
""fullscreenenter"",""5"",""27326""
","
","
","""event"",""trial"",""time""
""fullscreenenter"",""5"",""27326""
","
","369.1999999997206","","49","","","3000","1","","","images/earth.jpg","images/rocket1","images/rocket2","null","images/rocket2","","1","real","null","1","","",""
"d3-animate-choice","187","1372990","0.0-76.0-1.17","1250","1278","18","Female","false","false","true","false","""event"",""trial"",""time""
""fullscreenenter"",""5"",""27326""
","
","
","""event"",""trial"",""time""
""fullscreenenter"",""5"",""27326""
","
","606.7000000001863","","48","","","3000","1","","","images/redplanet1.jpg","images/alien2","images/alien1","images/rocket2","images/alien2","images/t.png","2","real","true","2","common","1","2022-04-03 19:40:17.823"
"two-step-fixation","188","1373997","0.0-76.0-2.17","1250","1278","18","Female","false","false","true","false","""event"",""trial"",""time""
""fullscreenenter"",""5"",""27326""
","
","
","""event"",""trial"",""time""
""fullscreenenter"",""5"",""27326""
","
","","images/earth.jpg","","","","","","","","","","","","","","fixation","","","","","",""
"d3-animate-choice","189","1376296","0.0-76.0-0.18","1250","1278","18","Female","false","false","true","false","""event"",""trial"",""time""
""fullscreenenter"",""5"",""27326""
","
","
","""event"",""trial"",""time""
""fullscreenenter"",""5"",""27326""
","
","292.39999999990687","","49","","","3000","1","","","images/earth.jpg","images/rocket1","images/rocket2","null","images/rocket2","","1","real","null","1","","",""
"d3-animate-choice","190","1378868","0.0-76.0-1.18","1250","1278","18","Female","false","false","true","false","""event"",""trial"",""time""
""fullscreenenter"",""5"",""27326""
","
","
","""event"",""trial"",""time""
""fullscreenenter"",""5"",""27326""
","
","566","","48","","","3000","1","","","images/redplanet1.jpg","images/alien2","images/alien1","images/rocket2","images/alien2","images/t.png","2","real","true","2","common","1","2022-04-03 19:40:23.699"
"two-step-fixation","191","1379873","0.0-76.0-2.18","1250","1278","18","Female","false","false","true","false","""event"",""trial"",""time""
""fullscreenenter"",""5"",""27326""
","
","
","""event"",""trial"",""time""
""fullscreenenter"",""5"",""27326""
","
","","images/earth.jpg","","","","","","","","","","","","","","fixation","","","","","",""
"d3-animate-choice","192","1382089","0.0-76.0-0.19","1250","1278","18","Female","false","false","true","false","""event"",""trial"",""time""
""fullscreenenter"",""5"",""27326""
","
","
","""event"",""trial"",""time""
""fullscreenenter"",""5"",""27326""
","
","210","","48","","","3000","1","","","images/earth.jpg","images/rocket1","images/rocket2","null","images/rocket1","","1","real","null","2","","",""
"d3-animate-choice","193","1384395","0.0-76.0-1.19","1250","1278","18","Female","false","false","true","false","""event"",""trial"",""time""
""fullscreenenter"",""5"",""27326""
","
","
","""event"",""trial"",""time""
""fullscreenenter"",""5"",""27326""
","
","299.1999999997206","","48","","","3000","1","","","images/purpleplanet.jpg","images/alien4","images/alien3","images/rocket1","images/alien4","images/t.png","2","real","true","2","common","1","2022-04-03 19:40:29.226"
"two-step-fixation","194","1385400","0.0-76.0-2.19","1250","1278","18","Female","false","false","true","false","""event"",""trial"",""time""
""fullscreenenter"",""5"",""27326""
","
","
","""event"",""trial"",""time""
""fullscreenenter"",""5"",""27326""
","
","","images/earth.jpg","","","","","","","","","","","","","","fixation","","","","","",""
"d3-animate-choice","195","1387693","0.0-76.0-0.20","1250","1278","18","Female","false","false","true","false","""event"",""trial"",""time""
""fullscreenenter"",""5"",""27326""
","
","
","""event"",""trial"",""time""
""fullscreenenter"",""5"",""27326""
","
","287","","49","","","3000","1","","","images/earth.jpg","images/rocket1","images/rocket2","null","images/rocket2","","1","real","null","1","","",""
"d3-animate-choice","196","1390011","0.0-76.0-1.20","1250","1278","18","Female","false","false","true","false","""event"",""trial"",""time""
""fullscreenenter"",""5"",""27326""
","
","
","""event"",""trial"",""time""
""fullscreenenter"",""5"",""27326""
","
","311.8000000002794","","48","","","3000","1","","","images/redplanet1.jpg","images/alien2","images/alien1","images/rocket2","images/alien2","images/nothing.png","2","real","true","2","common","0","2022-04-03 19:40:34.842"
"two-step-fixation","197","1391016","0.0-76.0-2.20","1250","1278","18","Female","false","false","true","false","""event"",""trial"",""time""
""fullscreenenter"",""5"",""27326""
","
","
","""event"",""trial"",""time""
""fullscreenenter"",""5"",""27326""
","
","","images/earth.jpg","","","","","","","","","","","","","","fixation","","","","","",""
"d3-animate-choice","198","1393407","0.0-76.0-0.21","1250","1278","18","Female","false","false","true","false","""event"",""trial"",""time""
""fullscreenenter"",""5"",""27326""
","
","
","""event"",""trial"",""time""
""fullscreenenter"",""5"",""27326""
","
","385.5","","48","","","3000","1","","","images/earth.jpg","images/rocket1","images/rocket2","null","images/rocket1","","1","real","null","2","","",""
"d3-animate-choice","199","1395774","0.0-76.0-1.21","1250","1278","18","Female","false","false","true","false","""event"",""trial"",""time""
""fullscreenenter"",""5"",""27326""
","
","
","""event"",""trial"",""time""
""fullscreenenter"",""5"",""27326""
","
","361.29999999981374","","49","","","3000","1","","","images/purpleplanet.jpg","images/alien4","images/alien3","images/rocket1","images/alien3","images/nothing.png","2","real","true","1","common","0","2022-04-03 19:40:40.605"
"two-step-fixation","200","1396779","0.0-76.0-2.21","1250","1278","18","Female","false","false","true","false","""event"",""trial"",""time""
""fullscreenenter"",""5"",""27326""
","
","
","""event"",""trial"",""time""
""fullscreenenter"",""5"",""27326""
","
","","images/earth.jpg","","","","","","","","","","","","","","fixation","","","","","",""
"d3-animate-choice","201","1399209","0.0-76.0-0.22","1250","1278","18","Female","false","false","true","false","""event"",""trial"",""time""
""fullscreenenter"",""5"",""27326""
","
","
","""event"",""trial"",""time""
""fullscreenenter"",""5"",""27326""
","
","423.3000000002794","","48","","","3000","1","","","images/earth.jpg","images/rocket1","images/rocket2","null","images/rocket1","","1","real","null","2","","",""
"d3-animate-choice","202","1401795","0.0-76.0-1.22","1250","1278","18","Female","false","false","true","false","""event"",""trial"",""time""
""fullscreenenter"",""5"",""27326""
","
","
","""event"",""trial"",""time""
""fullscreenenter"",""5"",""27326""
","
","579.4000000003725","","48","","","3000","1","","","images/purpleplanet.jpg","images/alien4","images/alien3","images/rocket1","images/alien4","images/t.png","2","real","true","2","common","1","2022-04-03 19:40:46.626"
"two-step-fixation","203","1402800","0.0-76.0-2.22","1250","1278","18","Female","false","false","true","false","""event"",""trial"",""time""
""fullscreenenter"",""5"",""27326""
","
","
","""event"",""trial"",""time""
""fullscreenenter"",""5"",""27326""
","
","","images/earth.jpg","","","","","","","","","","","","","","fixation","","","","","",""
"d3-animate-choice","204","1405019","0.0-76.0-0.23","1250","1278","18","Female","false","false","true","false","""event"",""trial"",""time""
""fullscreenenter"",""5"",""27326""
","
","
","""event"",""trial"",""time""
""fullscreenenter"",""5"",""27326""
","
","211.60000000009313","","48","","","3000","1","","","images/earth.jpg","images/rocket1","images/rocket2","null","images/rocket1","","1","real","null","2","","",""
"d3-animate-choice","205","1407523","0.0-76.0-1.23","1250","1278","18","Female","false","false","true","false","""event"",""trial"",""time""
""fullscreenenter"",""5"",""27326""
","
","
","""event"",""trial"",""time""
""fullscreenenter"",""5"",""27326""
","
","498.5","","48","","","3000","1","","","images/redplanet1.jpg","images/alien2","images/alien1","images/rocket1","images/alien2","images/nothing.png","2","real","false","2","rare","0","2022-04-03 19:40:52.354"
"two-step-fixation","206","1408528","0.0-76.0-2.23","1250","1278","18","Female","false","false","true","false","""event"",""trial"",""time""
""fullscreenenter"",""5"",""27326""
","
","
","""event"",""trial"",""time""
""fullscreenenter"",""5"",""27326""
","
","","images/earth.jpg","","","","","","","","","","","","","","fixation","","","","","",""
"d3-animate-choice","207","1410627","0.0-76.0-0.24","1250","1278","18","Female","false","false","true","false","""event"",""trial"",""time""
""fullscreenenter"",""5"",""27326""
","
","
","""event"",""trial"",""time""
""fullscreenenter"",""5"",""27326""
","
","92","","48","","","3000","1","","","images/earth.jpg","images/rocket1","images/rocket2","null","images/rocket1","","1","real","null","2","","",""
"d3-animate-choice","208","1413347","0.0-76.0-1.24","1250","1278","18","Female","false","false","true","false","""event"",""trial"",""time""
""fullscreenenter"",""5"",""27326""
","
","
","""event"",""trial"",""time""
""fullscreenenter"",""5"",""27326""
","
","714.1999999997206","","48","","","3000","1","","","images/purpleplanet.jpg","images/alien4","images/alien3","images/rocket1","images/alien4","images/t.png","2","real","true","2","common","1","2022-04-03 19:40:58.178"
"two-step-fixation","209","1414354","0.0-76.0-2.24","1250","1278","18","Female","false","false","true","false","""event"",""trial"",""time""
""fullscreenenter"",""5"",""27326""
","
","
","""event"",""trial"",""time""
""fullscreenenter"",""5"",""27326""
","
","","images/earth.jpg","","","","","","","","","","","","","","fixation","","","","","",""
"d3-animate-choice","210","1416864","0.0-76.0-0.25","1250","1278","18","Female","false","false","true","false","""event"",""trial"",""time""
""fullscreenenter"",""5"",""27326""
","
","
","""event"",""trial"",""time""
""fullscreenenter"",""5"",""27326""
","
","503.3000000002794","","48","","","3000","1","","","images/earth.jpg","images/rocket1","images/rocket2","null","images/rocket1","","1","real","null","2","","",""
"d3-animate-choice","211","1419133","0.0-76.0-1.25","1250","1278","18","Female","false","false","true","false","""event"",""trial"",""time""
""fullscreenenter"",""5"",""27326""
","
","
","""event"",""trial"",""time""
""fullscreenenter"",""5"",""27326""
","
","263.29999999981374","","49","","","3000","1","","","images/purpleplanet.jpg","images/alien4","images/alien3","images/rocket1","images/alien3","images/nothing.png","2","real","true","1","common","0","2022-04-03 19:41:03.964"
"two-step-fixation","212","1420137","0.0-76.0-2.25","1250","1278","18","Female","false","false","true","false","""event"",""trial"",""time""
""fullscreenenter"",""5"",""27326""
","
","
","""event"",""trial"",""time""
""fullscreenenter"",""5"",""27326""
","
","","images/earth.jpg","","","","","","","","","","","","","","fixation","","","","","",""
"d3-animate-choice","213","1422576","0.0-76.0-0.26","1250","1278","18","Female","false","false","true","false","""event"",""trial"",""time""
""fullscreenenter"",""5"",""27326""
","
","
","""event"",""trial"",""time""
""fullscreenenter"",""5"",""27326""
","
","430.59999999962747","","48","","","3000","1","1869.2999999998137","49","images/earth.jpg","images/rocket1","images/rocket2","null","images/rocket1","","1","real","null","2","","",""
"d3-animate-choice","214","1424839","0.0-76.0-1.26","1250","1278","18","Female","false","false","true","false","""event"",""trial"",""time""
""fullscreenenter"",""5"",""27326""
","
","
","""event"",""trial"",""time""
""fullscreenenter"",""5"",""27326""
","
","257.6999999997206","","49","","","3000","1","","","images/purpleplanet.jpg","images/alien4","images/alien3","images/rocket1","images/alien3","images/nothing.png","2","real","true","1","common","0","2022-04-03 19:41:09.670"
"two-step-fixation","215","1425844","0.0-76.0-2.26","1250","1278","18","Female","false","false","true","false","""event"",""trial"",""time""
""fullscreenenter"",""5"",""27326""
","
","
","""event"",""trial"",""time""
""fullscreenenter"",""5"",""27326""
","
","","images/earth.jpg","","","","","","","","","","","","","","fixation","","","","","",""
"d3-animate-choice","216","1428326","0.0-76.0-0.27","1250","1278","18","Female","false","false","true","false","""event"",""trial"",""time""
""fullscreenenter"",""5"",""27326""
","
","
","""event"",""trial"",""time""
""fullscreenenter"",""5"",""27326""
","
","475.20000000018626","","48","","","3000","1","","","images/earth.jpg","images/rocket1","images/rocket2","null","images/rocket1","","1","real","null","2","","",""
"d3-animate-choice","217","1430598","0.0-76.0-1.27","1250","1278","18","Female","false","false","true","false","""event"",""trial"",""time""
""fullscreenenter"",""5"",""27326""
","
","
","""event"",""trial"",""time""
""fullscreenenter"",""5"",""27326""
","
","265.59999999962747","","48","","","3000","1","","","images/purpleplanet.jpg","images/alien4","images/alien3","images/rocket1","images/alien4","images/t.png","2","real","true","2","common","1","2022-04-03 19:41:15.429"
"two-step-fixation","218","1431603","0.0-76.0-2.27","1250","1278","18","Female","false","false","true","false","""event"",""trial"",""time""
""fullscreenenter"",""5"",""27326""
","
","
","""event"",""trial"",""time""
""fullscreenenter"",""5"",""27326""
","
","","images/earth.jpg","","","","","","","","","","","","","","fixation","","","","","",""
"d3-animate-choice","219","1433988","0.0-76.0-0.28","1250","1278","18","Female","false","false","true","false","""event"",""trial"",""time""
""fullscreenenter"",""5"",""27326""
","
","
","""event"",""trial"",""time""
""fullscreenenter"",""5"",""27326""
","
","377.90000000037253","","48","","","3000","1","","","images/earth.jpg","images/rocket1","images/rocket2","null","images/rocket1","","1","real","null","2","","",""
"d3-animate-choice","220","1436472","0.0-76.0-1.28","1250","1278","18","Female","false","false","true","false","""event"",""trial"",""time""
""fullscreenenter"",""5"",""27326""
","
","
","""event"",""trial"",""time""
""fullscreenenter"",""5"",""27326""
","
","478.1999999997206","","48","","","3000","1","","","images/redplanet1.jpg","images/alien2","images/alien1","images/rocket1","images/alien2","images/nothing.png","2","real","false","2","rare","0","2022-04-03 19:41:21.304"
"two-step-fixation","221","1437478","0.0-76.0-2.28","1250","1278","18","Female","false","false","true","false","""event"",""trial"",""time""
""fullscreenenter"",""5"",""27326""
","
","
","""event"",""trial"",""time""
""fullscreenenter"",""5"",""27326""
","
","","images/earth.jpg","","","","","","","","","","","","","","fixation","","","","","",""
"d3-animate-choice","222","1439850","0.0-76.0-0.29","1250","1278","18","Female","false","false","true","false","""event"",""trial"",""time""
""fullscreenenter"",""5"",""27326""
","
","
","""event"",""trial"",""time""
""fullscreenenter"",""5"",""27326""
","
","365.40000000037253","","48","","","3000","1","","","images/earth.jpg","images/rocket1","images/rocket2","null","images/rocket1","","1","real","null","2","","",""
"d3-animate-choice","223","1442211","0.0-76.0-1.29","1250","1278","18","Female","false","false","true","false","""event"",""trial"",""time""
""fullscreenenter"",""5"",""27326""
","
","
","""event"",""trial"",""time""
""fullscreenenter"",""5"",""27326""
","
","354.40000000037253","","48","","","3000","1","","","images/redplanet1.jpg","images/alien2","images/alien1","images/rocket1","images/alien2","images/t.png","2","real","false","2","rare","1","2022-04-03 19:41:27.042"
"two-step-fixation","224","1443217","0.0-76.0-2.29","1250","1278","18","Female","false","false","true","false","""event"",""trial"",""time""
""fullscreenenter"",""5"",""27326""
","
","
","""event"",""trial"",""time""
""fullscreenenter"",""5"",""27326""
","
","","images/earth.jpg","","","","","","","","","","","","","","fixation","","","","","",""
"d3-animate-choice","225","1445550","0.0-76.0-0.30","1250","1278","18","Female","false","false","true","false","""event"",""trial"",""time""
""fullscreenenter"",""5"",""27326""
","
","
","""event"",""trial"",""time""
""fullscreenenter"",""5"",""27326""
","
","326.6999999997206","","49","","","3000","1","","","images/earth.jpg","images/rocket1","images/rocket2","null","images/rocket2","","1","real","null","1","","",""
"d3-animate-choice","226","1447976","0.0-76.0-1.30","1250","1278","18","Female","false","false","true","false","""event"",""trial"",""time""
""fullscreenenter"",""5"",""27326""
","
","
","""event"",""trial"",""time""
""fullscreenenter"",""5"",""27326""
","
","420.5","","48","","","3000","1","","","images/redplanet1.jpg","images/alien2","images/alien1","images/rocket2","images/alien2","images/nothing.png","2","real","true","2","common","0","2022-04-03 19:41:32.808"
"two-step-fixation","227","1448981","0.0-76.0-2.30","1250","1278","18","Female","false","false","true","false","""event"",""trial"",""time""
""fullscreenenter"",""5"",""27326""
","
","
","""event"",""trial"",""time""
""fullscreenenter"",""5"",""27326""
","
","","images/earth.jpg","","","","","","","","","","","","","","fixation","","","","","",""
"d3-animate-choice","228","1451257","0.0-76.0-0.31","1250","1278","18","Female","false","false","true","false","""event"",""trial"",""time""
""fullscreenenter"",""5"",""27326""
","
","
","""event"",""trial"",""time""
""fullscreenenter"",""5"",""27326""
","
","268.8000000002794","","48","","","3000","1","","","images/earth.jpg","images/rocket1","images/rocket2","null","images/rocket1","","1","real","null","2","","",""
"d3-animate-choice","229","1453687","0.0-76.0-1.31","1250","1278","18","Female","false","false","true","false","""event"",""trial"",""time""
""fullscreenenter"",""5"",""27326""
","
","
","""event"",""trial"",""time""
""fullscreenenter"",""5"",""27326""
","
","423.90000000037253","","48","","","3000","1","","","images/purpleplanet.jpg","images/alien4","images/alien3","images/rocket1","images/alien4","images/t.png","2","real","true","2","common","1","2022-04-03 19:41:38.519"
"two-step-fixation","230","1454693","0.0-76.0-2.31","1250","1278","18","Female","false","false","true","false","""event"",""trial"",""time""
""fullscreenenter"",""5"",""27326""
","
","
","""event"",""trial"",""time""
""fullscreenenter"",""5"",""27326""
","
","","images/earth.jpg","","","","","","","","","","","","","","fixation","","","","","",""
"d3-animate-choice","231","1457180","0.0-76.0-0.32","1250","1278","18","Female","false","false","true","false","""event"",""trial"",""time""
""fullscreenenter"",""5"",""27326""
","
","
","""event"",""trial"",""time""
""fullscreenenter"",""5"",""27326""
","
","478.79999999981374","","48","","","3000","1","","","images/earth.jpg","images/rocket1","images/rocket2","null","images/rocket1","","1","real","null","2","","",""
"d3-animate-choice","232","1459701","0.0-76.0-1.32","1250","1278","18","Female","false","false","true","false","""event"",""trial"",""time""
""fullscreenenter"",""5"",""27326""
","
","
","""event"",""trial"",""time""
""fullscreenenter"",""5"",""27326""
","
","514.8999999999069","","49","","","3000","1","","","images/purpleplanet.jpg","images/alien4","images/alien3","images/rocket1","images/alien3","images/t.png","2","real","true","1","common","1","2022-04-03 19:41:44.532"
"two-step-fixation","233","1460707","0.0-76.0-2.32","1250","1278","18","Female","false","false","true","false","""event"",""trial"",""time""
""fullscreenenter"",""5"",""27326""
","
","
","""event"",""trial"",""time""
""fullscreenenter"",""5"",""27326""
","
","","images/earth.jpg","","","","","","","","","","","","","","fixation","","","","","",""
"d3-animate-choice","234","1463054","0.0-76.0-0.33","1250","1278","18","Female","false","false","true","false","""event"",""trial"",""time""
""fullscreenenter"",""5"",""27326""
","
","
","""event"",""trial"",""time""
""fullscreenenter"",""5"",""27326""
","
","339.59999999962747","","48","","","3000","1","","","images/earth.jpg","images/rocket1","images/rocket2","null","images/rocket1","","1","real","null","2","","",""
"d3-animate-choice","235","1465572","0.0-76.0-1.33","1250","1278","18","Female","false","false","true","false","""event"",""trial"",""time""
""fullscreenenter"",""5"",""27326""
","
","
","""event"",""trial"",""time""
""fullscreenenter"",""5"",""27326""
","
","511.39999999990687","","48","","","3000","1","651.5999999996275","49","images/purpleplanet.jpg","images/alien4","images/alien3","images/rocket1","images/alien4","images/nothing.png","2","real","true","2","common","0","2022-04-03 19:41:50.403"
"two-step-fixation","236","1466577","0.0-76.0-2.33","1250","1278","18","Female","false","false","true","false","""event"",""trial"",""time""
""fullscreenenter"",""5"",""27326""
","
","
","""event"",""trial"",""time""
""fullscreenenter"",""5"",""27326""
","
","","images/earth.jpg","","","","","","","","","","","","","","fixation","","","","","",""
"d3-animate-choice","237","1468945","0.0-76.0-0.34","1250","1278","18","Female","false","false","true","false","""event"",""trial"",""time""
""fullscreenenter"",""5"",""27326""
","
","
","""event"",""trial"",""time""
""fullscreenenter"",""5"",""27326""
","
","360.29999999981374","","49","","","3000","1","","","images/earth.jpg","images/rocket1","images/rocket2","null","images/rocket2","","1","real","null","1","","",""
"d3-animate-choice","238","1471251","0.0-76.0-1.34","1250","1278","18","Female","false","false","true","false","""event"",""trial"",""time""
""fullscreenenter"",""5"",""27326""
","
","
","""event"",""trial"",""time""
""fullscreenenter"",""5"",""27326""
","
","300.1999999997206","","48","","","3000","1","","","images/redplanet1.jpg","images/alien2","images/alien1","images/rocket2","images/alien2","images/nothing.png","2","real","true","2","common","0","2022-04-03 19:41:56.082"
"two-step-fixation","239","1472257","0.0-76.0-2.34","1250","1278","18","Female","false","false","true","false","""event"",""trial"",""time""
""fullscreenenter"",""5"",""27326""
","
","
","""event"",""trial"",""time""
""fullscreenenter"",""5"",""27326""
","
","","images/earth.jpg","","","","","","","","","","","","","","fixation","","","","","",""
"d3-animate-choice","240","1474707","0.0-76.0-0.35","1250","1278","18","Female","false","false","true","false","""event"",""trial"",""time""
""fullscreenenter"",""5"",""27326""
","
","
","""event"",""trial"",""time""
""fullscreenenter"",""5"",""27326""
","
","443.29999999981374","","48","","","3000","1","","","images/earth.jpg","images/rocket1","images/rocket2","null","images/rocket1","","1","real","null","2","","",""
"d3-animate-choice","241","1477160","0.0-76.0-1.35","1250","1278","18","Female","false","false","true","false","""event"",""trial"",""time""
""fullscreenenter"",""5"",""27326""
","
","
","""event"",""trial"",""time""
""fullscreenenter"",""5"",""27326""
","
","447.39999999990687","","48","","","3000","1","","","images/purpleplanet.jpg","images/alien4","images/alien3","images/rocket1","images/alien4","images/t.png","2","real","true","2","common","1","2022-04-03 19:42:01.991"
"two-step-fixation","242","1478167","0.0-76.0-2.35","1250","1278","18","Female","false","false","true","false","""event"",""trial"",""time""
""fullscreenenter"",""5"",""27326""
","
","
","""event"",""trial"",""time""
""fullscreenenter"",""5"",""27326""
","
","","images/earth.jpg","","","","","","","","","","","","","","fixation","","","","","",""
"d3-animate-choice","243","1480597","0.0-76.0-0.36","1250","1278","18","Female","false","false","true","false","""event"",""trial"",""time""
""fullscreenenter"",""5"",""27326""
","
","
","""event"",""trial"",""time""
""fullscreenenter"",""5"",""27326""
","
","423.39999999990687","","49","","","3000","1","","","images/earth.jpg","images/rocket1","images/rocket2","null","images/rocket2","","1","real","null","1","","",""
"d3-animate-choice","244","1483189","0.0-76.0-1.36","1250","1278","18","Female","false","false","true","false","""event"",""trial"",""time""
