"trial_type","trial_index","time_elapsed","internal_node_id","participant_id","subject_id","age","gender","rocket_sides","red_planet_first_rocket","red_display_order","purple_display_order","interactions","blur_events","focus_events","fullscreenenter_events","fullscreenexit_events","rt","stimulus","key_press","button_pressed","success","duration","valid_pressed","rts","keys","planet_text","right_text","left_text","center_text","chosen_text","reward_text","trial_stage","practice_trial","transition_type","choice","transition","reward","timestamp"
"pavlovia","0","5","0.0-0.0","1288","4985","21","Female","true","true","true","true","""event"",""trial"",""time""
""blur"",""0"",""0""
""focus"",""1"",""77251""
","""event"",""trial"",""time""
""blur"",""0"",""0""
","""event"",""trial"",""time""
""focus"",""1"",""77251""
","
","
","","","","","","","","","","","","","","","","","","","","","",""
"html-keyboard-response","1","78389","0.0-1.0","1288","4985","21","Female","true","true","true","true","""event"",""trial"",""time""
""blur"",""0"",""0""
""focus"",""1"",""77251""
","""event"",""trial"",""time""
""blur"",""0"",""0""
","""event"",""trial"",""time""
""focus"",""1"",""77251""
","
","
","78380.69999998808","Welcome! Press the space bar to begin.","32","","","","","","","","","","","","","","","","","","",""
"audio-keyboard-response","2","81177","0.0-2.0","1288","4985","21","Female","true","true","true","true","""event"",""trial"",""time""
""blur"",""0"",""0""
""focus"",""1"",""77251""
","""event"",""trial"",""time""
""blur"",""0"",""0""
","""event"",""trial"",""time""
""focus"",""1"",""77251""
","
","
","2659","audio/beep_loop.wav","32","","","","","","","","","","","","","","","","","","",""
"audio-button-response","3","83308","0.0-3.0","1288","4985","21","Female","true","true","true","true","""event"",""trial"",""time""
""blur"",""0"",""0""
""focus"",""1"",""77251""
","""event"",""trial"",""time""
""blur"",""0"",""0""
","""event"",""trial"",""time""
""focus"",""1"",""77251""
","
","
","NaN","audio/fish.mp3","","1","","","","","","","","","","","","","","","","","",""
"audio-button-response","4","86015","0.0-4.0","1288","4985","21","Female","true","true","true","true","""event"",""trial"",""time""
""blur"",""0"",""0""
""focus"",""1"",""77251""
""fullscreenenter"",""5"",""89751""
","""event"",""trial"",""time""
""blur"",""0"",""0""
","""event"",""trial"",""time""
""focus"",""1"",""77251""
","""event"",""trial"",""time""
""fullscreenenter"",""5"",""89751""
","
","NaN","audio/tiger.mp3","","4","","","","","","","","","","","","","","","","","",""
"fullscreen","5","90737","0.0-5.0","1288","4985","21","Female","true","true","true","true","""event"",""trial"",""time""
""blur"",""0"",""0""
""focus"",""1"",""77251""
""fullscreenenter"",""5"",""89751""
","""event"",""trial"",""time""
""blur"",""0"",""0""
","""event"",""trial"",""time""
""focus"",""1"",""77251""
","""event"",""trial"",""time""
""fullscreenenter"",""5"",""89751""
","
","","","","","true","","","","","","","","","","","","","","","","",""
"d3-instructions","6","105168","0.0-6.0","1288","4985","21","Female","true","true","true","true","""event"",""trial"",""time""
""blur"",""0"",""0""
""focus"",""1"",""77251""
""fullscreenenter"",""5"",""89751""
","""event"",""trial"",""time""
""blur"",""0"",""0""
","""event"",""trial"",""time""
""focus"",""1"",""77251""
","""event"",""trial"",""time""
""fullscreenenter"",""5"",""89751""
","
","","","","","","","","","","","","","","","","","","","","","",""
"d3-instructions","7","113498","0.0-7.0","1288","4985","21","Female","true","true","true","true","""event"",""trial"",""time""
""blur"",""0"",""0""
""focus"",""1"",""77251""
""fullscreenenter"",""5"",""89751""
","""event"",""trial"",""time""
""blur"",""0"",""0""
","""event"",""trial"",""time""
""focus"",""1"",""77251""
","""event"",""trial"",""time""
""fullscreenenter"",""5"",""89751""
","
","","","","","","","","","","","","","","","","","","","","","",""
"d3-instructions","8","120639","0.0-8.0","1288","4985","21","Female","true","true","true","true","""event"",""trial"",""time""
""blur"",""0"",""0""
""focus"",""1"",""77251""
""fullscreenenter"",""5"",""89751""
","""event"",""trial"",""time""
""blur"",""0"",""0""
","""event"",""trial"",""time""
""focus"",""1"",""77251""
","""event"",""trial"",""time""
""fullscreenenter"",""5"",""89751""
","
","","","","","","","","","","","","","","","","","","","","","",""
"d3-instructions","9","131525","0.0-9.0","1288","4985","21","Female","true","true","true","true","""event"",""trial"",""time""
""blur"",""0"",""0""
""focus"",""1"",""77251""
""fullscreenenter"",""5"",""89751""
","""event"",""trial"",""time""
""blur"",""0"",""0""
","""event"",""trial"",""time""
""focus"",""1"",""77251""
","""event"",""trial"",""time""
""fullscreenenter"",""5"",""89751""
","
","","","","","","","","","","","","","","","","","","","","","",""
"d3-instructions","10","152712","0.0-10.0","1288","4985","21","Female","true","true","true","true","""event"",""trial"",""time""
""blur"",""0"",""0""
""focus"",""1"",""77251""
""fullscreenenter"",""5"",""89751""
","""event"",""trial"",""time""
""blur"",""0"",""0""
","""event"",""trial"",""time""
""focus"",""1"",""77251""
","""event"",""trial"",""time""
""fullscreenenter"",""5"",""89751""
","
","","","","","","","","","","","","","","","","","","","","","",""
"d3-animate-choice","11","155992","0.0-11.0","1288","4985","21","Female","true","true","true","true","""event"",""trial"",""time""
""blur"",""0"",""0""
""focus"",""1"",""77251""
""fullscreenenter"",""5"",""89751""
","""event"",""trial"",""time""
""blur"",""0"",""0""
","""event"",""trial"",""time""
""focus"",""1"",""77251""
","""event"",""trial"",""time""
""fullscreenenter"",""5"",""89751""
","
","1273.5999999940395","","48","","","3000","1","","","images/tutgreenplanet.jpg","images/tutalien1","images/tutalien2","null","images/tutalien1","","NA","practice","null","","","",""
"d3-animate-choice","12","159031","0.0-12.0","1288","4985","21","Female","true","true","true","true","""event"",""trial"",""time""
""blur"",""0"",""0""
""focus"",""1"",""77251""
""fullscreenenter"",""5"",""89751""
","""event"",""trial"",""time""
""blur"",""0"",""0""
","""event"",""trial"",""time""
""focus"",""1"",""77251""
","""event"",""trial"",""time""
""fullscreenenter"",""5"",""89751""
","
","1032.800000011921","","49","","","3000","1","","","images/tutgreenplanet.jpg","images/tutalien1","images/tutalien2","null","images/tutalien2","","NA","practice","null","","","",""
"d3-animate-choice","13","163641","0.0-13.0","1288","4985","21","Female","true","true","true","true","""event"",""trial"",""time""
""blur"",""0"",""0""
""focus"",""1"",""77251""
""fullscreenenter"",""5"",""89751""
","""event"",""trial"",""time""
""blur"",""0"",""0""
","""event"",""trial"",""time""
""focus"",""1"",""77251""
","""event"",""trial"",""time""
""fullscreenenter"",""5"",""89751""
","
","1211.800000011921","","50","","","3000","1","2606.7000000178814","48","images/tutgreenplanet.jpg","images/tutalien1","images/tutalien2","null","images/tutalien1","","NA","practice","null","","","",""
"d3-animate-choice","14","166128","0.0-14.0","1288","4985","21","Female","true","true","true","true","""event"",""trial"",""time""
""blur"",""0"",""0""
""focus"",""1"",""77251""
""fullscreenenter"",""5"",""89751""
","""event"",""trial"",""time""
""blur"",""0"",""0""
","""event"",""trial"",""time""
""focus"",""1"",""77251""
","""event"",""trial"",""time""
""fullscreenenter"",""5"",""89751""
","
","484.30000001192093","","48","","","3000","1","","","images/tutgreenplanet.jpg","images/tutalien1","images/tutalien2","null","images/tutalien1","","NA","practice","null","","","",""
"d3-instructions","15","175793","0.0-15.0","1288","4985","21","Female","true","true","true","true","""event"",""trial"",""time""
""blur"",""0"",""0""
""focus"",""1"",""77251""
""fullscreenenter"",""5"",""89751""
","""event"",""trial"",""time""
""blur"",""0"",""0""
","""event"",""trial"",""time""
""focus"",""1"",""77251""
","""event"",""trial"",""time""
""fullscreenenter"",""5"",""89751""
","
","","","","","","","","","","","","","","","","","","","","","",""
"d3-instructions","16","189080","0.0-16.0","1288","4985","21","Female","true","true","true","true","""event"",""trial"",""time""
""blur"",""0"",""0""
""focus"",""1"",""77251""
""fullscreenenter"",""5"",""89751""
","""event"",""trial"",""time""
""blur"",""0"",""0""
","""event"",""trial"",""time""
""focus"",""1"",""77251""
","""event"",""trial"",""time""
""fullscreenenter"",""5"",""89751""
","
","","","","","","","","","","","","","","","","","","","","","",""
"d3-instructions","17","201843","0.0-17.0","1288","4985","21","Female","true","true","true","true","""event"",""trial"",""time""
""blur"",""0"",""0""
""focus"",""1"",""77251""
""fullscreenenter"",""5"",""89751""
","""event"",""trial"",""time""
""blur"",""0"",""0""
","""event"",""trial"",""time""
""focus"",""1"",""77251""
","""event"",""trial"",""time""
""fullscreenenter"",""5"",""89751""
","
","","","","","","","","","","","","","","","","","","","","","",""
"d3-instructions","18","215852","0.0-18.0","1288","4985","21","Female","true","true","true","true","""event"",""trial"",""time""
""blur"",""0"",""0""
""focus"",""1"",""77251""
""fullscreenenter"",""5"",""89751""
","""event"",""trial"",""time""
""blur"",""0"",""0""
","""event"",""trial"",""time""
""focus"",""1"",""77251""
","""event"",""trial"",""time""
""fullscreenenter"",""5"",""89751""
","
","","","","","","","","","","","","","","","","","","","","","",""
"d3-instructions","19","229452","0.0-19.0","1288","4985","21","Female","true","true","true","true","""event"",""trial"",""time""
""blur"",""0"",""0""
""focus"",""1"",""77251""
""fullscreenenter"",""5"",""89751""
","""event"",""trial"",""time""
""blur"",""0"",""0""
","""event"",""trial"",""time""
""focus"",""1"",""77251""
","""event"",""trial"",""time""
""fullscreenenter"",""5"",""89751""
","
","","","","","","","","","","","","","","","","","","","","","",""
"d3-animate-choice","20","233099","0.0-20.0","1288","4985","21","Female","true","true","true","true","""event"",""trial"",""time""
""blur"",""0"",""0""
""focus"",""1"",""77251""
""fullscreenenter"",""5"",""89751""
","""event"",""trial"",""time""
""blur"",""0"",""0""
","""event"",""trial"",""time""
""focus"",""1"",""77251""
","""event"",""trial"",""time""
""fullscreenenter"",""5"",""89751""
","
","1640.5","","49","","","3000","1","","","images/tutyellowplanet.jpg","null","images/tutalien3","null","images/tutalien3","images/t.png","NA","practice","null","","","",""
"d3-animate-choice","21","235964","0.0-21.0","1288","4985","21","Female","true","true","true","true","""event"",""trial"",""time""
""blur"",""0"",""0""
""focus"",""1"",""77251""
""fullscreenenter"",""5"",""89751""
","""event"",""trial"",""time""
""blur"",""0"",""0""
","""event"",""trial"",""time""
""focus"",""1"",""77251""
","""event"",""trial"",""time""
""fullscreenenter"",""5"",""89751""
","
","862.6000000238419","","49","","","3000","1","","","images/tutyellowplanet.jpg","null","images/tutalien3","null","images/tutalien3","images/t.png","NA","practice","null","","","",""
"d3-animate-choice","22","238823","0.0-22.0","1288","4985","21","Female","true","true","true","true","""event"",""trial"",""time""
""blur"",""0"",""0""
""focus"",""1"",""77251""
""fullscreenenter"",""5"",""89751""
","""event"",""trial"",""time""
""blur"",""0"",""0""
","""event"",""trial"",""time""
""focus"",""1"",""77251""
","""event"",""trial"",""time""
""fullscreenenter"",""5"",""89751""
","
","853.7999999821186","","49","","","3000","1","","","images/tutyellowplanet.jpg","null","images/tutalien3","null","images/tutalien3","images/t.png","NA","practice","null","","","",""
"d3-animate-choice","23","242156","0.0-23.0","1288","4985","21","Female","true","true","true","true","""event"",""trial"",""time""
""blur"",""0"",""0""
""focus"",""1"",""77251""
""fullscreenenter"",""5"",""89751""
","""event"",""trial"",""time""
""blur"",""0"",""0""
","""event"",""trial"",""time""
""focus"",""1"",""77251""
","""event"",""trial"",""time""
""fullscreenenter"",""5"",""89751""
","
","1329.6000000238419","","49","","","3000","1","","","images/tutyellowplanet.jpg","null","images/tutalien3","null","images/tutalien3","images/t.png","NA","practice","null","","","",""
"d3-animate-choice","24","244826","0.0-24.0","1288","4985","21","Female","true","true","true","true","""event"",""trial"",""time""
""blur"",""0"",""0""
""focus"",""1"",""77251""
""fullscreenenter"",""5"",""89751""
","""event"",""trial"",""time""
""blur"",""0"",""0""
","""event"",""trial"",""time""
""focus"",""1"",""77251""
","""event"",""trial"",""time""
""fullscreenenter"",""5"",""89751""
","
","663","","49","","","3000","1","","","images/tutyellowplanet.jpg","null","images/tutalien3","null","images/tutalien3","images/t.png","NA","practice","null","","","",""
"d3-animate-choice","25","247250","0.0-25.0","1288","4985","21","Female","true","true","true","true","""event"",""trial"",""time""
""blur"",""0"",""0""
""focus"",""1"",""77251""
""fullscreenenter"",""5"",""89751""
","""event"",""trial"",""time""
""blur"",""0"",""0""
","""event"",""trial"",""time""
""focus"",""1"",""77251""
","""event"",""trial"",""time""
""fullscreenenter"",""5"",""89751""
","
","418.90000000596046","","49","","","3000","1","","","images/tutyellowplanet.jpg","null","images/tutalien3","null","images/tutalien3","images/t.png","NA","practice","null","","","",""
"d3-animate-choice","26","249696","0.0-26.0","1288","4985","21","Female","true","true","true","true","""event"",""trial"",""time""
""blur"",""0"",""0""
""focus"",""1"",""77251""
""fullscreenenter"",""5"",""89751""
","""event"",""trial"",""time""
""blur"",""0"",""0""
","""event"",""trial"",""time""
""focus"",""1"",""77251""
","""event"",""trial"",""time""
""fullscreenenter"",""5"",""89751""
","
","443","","49","","","3000","1","","","images/tutyellowplanet.jpg","null","images/tutalien3","null","images/tutalien3","images/t.png","NA","practice","null","","","",""
"d3-animate-choice","27","252129","0.0-27.0","1288","4985","21","Female","true","true","true","true","""event"",""trial"",""time""
""blur"",""0"",""0""
""focus"",""1"",""77251""
""fullscreenenter"",""5"",""89751""
","""event"",""trial"",""time""
""blur"",""0"",""0""
","""event"",""trial"",""time""
""focus"",""1"",""77251""
","""event"",""trial"",""time""
""fullscreenenter"",""5"",""89751""
","
","428.40000000596046","","49","","","3000","1","","","images/tutyellowplanet.jpg","null","images/tutalien3","null","images/tutalien3","images/t.png","NA","practice","null","","","",""
"d3-animate-choice","28","254660","0.0-28.0","1288","4985","21","Female","true","true","true","true","""event"",""trial"",""time""
""blur"",""0"",""0""
""focus"",""1"",""77251""
""fullscreenenter"",""5"",""89751""
","""event"",""trial"",""time""
""blur"",""0"",""0""
","""event"",""trial"",""time""
""focus"",""1"",""77251""
","""event"",""trial"",""time""
""fullscreenenter"",""5"",""89751""
","
","526.7000000178814","","49","","","3000","1","","","images/tutyellowplanet.jpg","null","images/tutalien3","null","images/tutalien3","images/nothing.png","NA","practice","null","","","",""
"d3-animate-choice","29","257227","0.0-29.0","1288","4985","21","Female","true","true","true","true","""event"",""trial"",""time""
""blur"",""0"",""0""
""focus"",""1"",""77251""
""fullscreenenter"",""5"",""89751""
","""event"",""trial"",""time""
""blur"",""0"",""0""
","""event"",""trial"",""time""
""focus"",""1"",""77251""
","""event"",""trial"",""time""
""fullscreenenter"",""5"",""89751""
","
","563.5","","49","","","3000","1","","","images/tutyellowplanet.jpg","null","images/tutalien3","null","images/tutalien3","images/t.png","NA","practice","null","","","",""
"d3-instructions","30","265342","0.0-30.0","1288","4985","21","Female","true","true","true","true","""event"",""trial"",""time""
""blur"",""0"",""0""
""focus"",""1"",""77251""
""fullscreenenter"",""5"",""89751""
","""event"",""trial"",""time""
""blur"",""0"",""0""
","""event"",""trial"",""time""
""focus"",""1"",""77251""
","""event"",""trial"",""time""
""fullscreenenter"",""5"",""89751""
","
","","","","","","","","","","","","","","","","","","","","","",""
"d3-instructions","31","275601","0.0-31.0","1288","4985","21","Female","true","true","true","true","""event"",""trial"",""time""
""blur"",""0"",""0""
""focus"",""1"",""77251""
""fullscreenenter"",""5"",""89751""
","""event"",""trial"",""time""
""blur"",""0"",""0""
","""event"",""trial"",""time""
""focus"",""1"",""77251""
","""event"",""trial"",""time""
""fullscreenenter"",""5"",""89751""
","
","","","","","","","","","","","","","","","","","","","","","",""
"d3-instructions","32","284043","0.0-32.0","1288","4985","21","Female","true","true","true","true","""event"",""trial"",""time""
""blur"",""0"",""0""
""focus"",""1"",""77251""
""fullscreenenter"",""5"",""89751""
","""event"",""trial"",""time""
""blur"",""0"",""0""
","""event"",""trial"",""time""
""focus"",""1"",""77251""
","""event"",""trial"",""time""
""fullscreenenter"",""5"",""89751""
","
","","","","","","","","","","","","","","","","","","","","","",""
"d3-instructions","33","291410","0.0-33.0","1288","4985","21","Female","true","true","true","true","""event"",""trial"",""time""
""blur"",""0"",""0""
""focus"",""1"",""77251""
""fullscreenenter"",""5"",""89751""
","""event"",""trial"",""time""
""blur"",""0"",""0""
","""event"",""trial"",""time""
""focus"",""1"",""77251""
","""event"",""trial"",""time""
""fullscreenenter"",""5"",""89751""
","
","","","","","","","","","","","","","","","","","","","","","",""
"d3-animate-choice","34","294616","0.0-34.0","1288","4985","21","Female","true","true","true","true","""event"",""trial"",""time""
""blur"",""0"",""0""
""focus"",""1"",""77251""
""fullscreenenter"",""5"",""89751""
","""event"",""trial"",""time""
""blur"",""0"",""0""
","""event"",""trial"",""time""
""focus"",""1"",""77251""
","""event"",""trial"",""time""
""fullscreenenter"",""5"",""89751""
","
","1202.2000000178814","","48","","","3000","1","","","images/tutgreenplanet.jpg","images/tutalien1","images/tutalien2","null","images/tutalien1","images/nothing.png","NA","practice","null","","","",""
"d3-animate-choice","35","297014","0.0-35.0","1288","4985","21","Female","true","true","true","true","""event"",""trial"",""time""
""blur"",""0"",""0""
""focus"",""1"",""77251""
""fullscreenenter"",""5"",""89751""
","""event"",""trial"",""time""
""blur"",""0"",""0""
","""event"",""trial"",""time""
""focus"",""1"",""77251""
","""event"",""trial"",""time""
""fullscreenenter"",""5"",""89751""
","
","390","","49","","","3000","1","","","images/tutgreenplanet.jpg","images/tutalien1","images/tutalien2","null","images/tutalien2","images/t.png","NA","practice","null","","","",""
"d3-animate-choice","36","299412","0.0-36.0","1288","4985","21","Female","true","true","true","true","""event"",""trial"",""time""
""blur"",""0"",""0""
""focus"",""1"",""77251""
""fullscreenenter"",""5"",""89751""
","""event"",""trial"",""time""
""blur"",""0"",""0""
","""event"",""trial"",""time""
""focus"",""1"",""77251""
","""event"",""trial"",""time""
""fullscreenenter"",""5"",""89751""
","
","391","","49","","","3000","1","","","images/tutgreenplanet.jpg","images/tutalien1","images/tutalien2","null","images/tutalien2","images/t.png","NA","practice","null","","","",""
"d3-animate-choice","37","301803","0.0-37.0","1288","4985","21","Female","true","true","true","true","""event"",""trial"",""time""
""blur"",""0"",""0""
""focus"",""1"",""77251""
""fullscreenenter"",""5"",""89751""
","""event"",""trial"",""time""
""blur"",""0"",""0""
","""event"",""trial"",""time""
""focus"",""1"",""77251""
","""event"",""trial"",""time""
""fullscreenenter"",""5"",""89751""
","
","386.5","","49","","","3000","1","","","images/tutgreenplanet.jpg","images/tutalien1","images/tutalien2","null","images/tutalien2","images/t.png","NA","practice","null","","","",""
"d3-animate-choice","38","304184","0.0-38.0","1288","4985","21","Female","true","true","true","true","""event"",""trial"",""time""
""blur"",""0"",""0""
""focus"",""1"",""77251""
""fullscreenenter"",""5"",""89751""
","""event"",""trial"",""time""
""blur"",""0"",""0""
","""event"",""trial"",""time""
""focus"",""1"",""77251""
","""event"",""trial"",""time""
""fullscreenenter"",""5"",""89751""
","
","372.7999999821186","","49","","","3000","1","","","images/tutgreenplanet.jpg","images/tutalien1","images/tutalien2","null","images/tutalien2","images/t.png","NA","practice","null","","","",""
"d3-animate-choice","39","306552","0.0-39.0","1288","4985","21","Female","true","true","true","true","""event"",""trial"",""time""
""blur"",""0"",""0""
""focus"",""1"",""77251""
""fullscreenenter"",""5"",""89751""
","""event"",""trial"",""time""
""blur"",""0"",""0""
","""event"",""trial"",""time""
""focus"",""1"",""77251""
","""event"",""trial"",""time""
""fullscreenenter"",""5"",""89751""
","
","361.19999998807907","","49","","","3000","1","","","images/tutgreenplanet.jpg","images/tutalien1","images/tutalien2","null","images/tutalien2","images/t.png","NA","practice","null","","","",""
"d3-animate-choice","40","308935","0.0-40.0","1288","4985","21","Female","true","true","true","true","""event"",""trial"",""time""
""blur"",""0"",""0""
""focus"",""1"",""77251""
""fullscreenenter"",""5"",""89751""
","""event"",""trial"",""time""
""blur"",""0"",""0""
","""event"",""trial"",""time""
""focus"",""1"",""77251""
","""event"",""trial"",""time""
""fullscreenenter"",""5"",""89751""
","
","379.59999999403954","","49","","","3000","1","","","images/tutgreenplanet.jpg","images/tutalien1","images/tutalien2","null","images/tutalien2","images/t.png","NA","practice","null","","","",""
"d3-animate-choice","41","311377","0.0-41.0","1288","4985","21","Female","true","true","true","true","""event"",""trial"",""time""
""blur"",""0"",""0""
""focus"",""1"",""77251""
""fullscreenenter"",""5"",""89751""
","""event"",""trial"",""time""
""blur"",""0"",""0""
","""event"",""trial"",""time""
""focus"",""1"",""77251""
","""event"",""trial"",""time""
""fullscreenenter"",""5"",""89751""
","
","439.2999999821186","","49","","","3000","1","","","images/tutgreenplanet.jpg","images/tutalien1","images/tutalien2","null","images/tutalien2","images/t.png","NA","practice","null","","","",""
"d3-animate-choice","42","313750","0.0-42.0","1288","4985","21","Female","true","true","true","true","""event"",""trial"",""time""
""blur"",""0"",""0""
""focus"",""1"",""77251""
""fullscreenenter"",""5"",""89751""
","""event"",""trial"",""time""
""blur"",""0"",""0""
","""event"",""trial"",""time""
""focus"",""1"",""77251""
","""event"",""trial"",""time""
""fullscreenenter"",""5"",""89751""
","
","368.09999999403954","","49","","","3000","1","","","images/tutgreenplanet.jpg","images/tutalien1","images/tutalien2","null","images/tutalien2","images/t.png","NA","practice","null","","","",""
"d3-animate-choice","43","316119","0.0-43.0","1288","4985","21","Female","true","true","true","true","""event"",""trial"",""time""
""blur"",""0"",""0""
""focus"",""1"",""77251""
""fullscreenenter"",""5"",""89751""
","""event"",""trial"",""time""
""blur"",""0"",""0""
","""event"",""trial"",""time""
""focus"",""1"",""77251""
","""event"",""trial"",""time""
""fullscreenenter"",""5"",""89751""
","
","365.19999998807907","","49","","","3000","1","","","images/tutgreenplanet.jpg","images/tutalien1","images/tutalien2","null","images/tutalien2","images/t.png","NA","practice","null","","","",""
"d3-instructions","44","328913","0.0-44.0","1288","4985","21","Female","true","true","true","true","""event"",""trial"",""time""
""blur"",""0"",""0""
""focus"",""1"",""77251""
""fullscreenenter"",""5"",""89751""
","""event"",""trial"",""time""
""blur"",""0"",""0""
","""event"",""trial"",""time""
""focus"",""1"",""77251""
","""event"",""trial"",""time""
""fullscreenenter"",""5"",""89751""
","
","","","","","","","","","","","","","","","","","","","","","",""
"d3-instructions","45","335886","0.0-45.0","1288","4985","21","Female","true","true","true","true","""event"",""trial"",""time""
""blur"",""0"",""0""
""focus"",""1"",""77251""
""fullscreenenter"",""5"",""89751""
","""event"",""trial"",""time""
""blur"",""0"",""0""
","""event"",""trial"",""time""
""focus"",""1"",""77251""
","""event"",""trial"",""time""
""fullscreenenter"",""5"",""89751""
","
","","","","","","","","","","","","","","","","","","","","","",""
"d3-instructions","46","340743","0.0-46.0","1288","4985","21","Female","true","true","true","true","""event"",""trial"",""time""
""blur"",""0"",""0""
""focus"",""1"",""77251""
""fullscreenenter"",""5"",""89751""
","""event"",""trial"",""time""
""blur"",""0"",""0""
","""event"",""trial"",""time""
""focus"",""1"",""77251""
","""event"",""trial"",""time""
""fullscreenenter"",""5"",""89751""
","
","","","","","","","","","","","","","","","","","","","","","",""
"d3-instructions","47","358144","0.0-47.0","1288","4985","21","Female","true","true","true","true","""event"",""trial"",""time""
""blur"",""0"",""0""
""focus"",""1"",""77251""
""fullscreenenter"",""5"",""89751""
","""event"",""trial"",""time""
""blur"",""0"",""0""
","""event"",""trial"",""time""
""focus"",""1"",""77251""
","""event"",""trial"",""time""
""fullscreenenter"",""5"",""89751""
","
","","","","","","","","","","","","","","","","","","","","","",""
"d3-instructions","48","365649","0.0-48.0","1288","4985","21","Female","true","true","true","true","""event"",""trial"",""time""
""blur"",""0"",""0""
""focus"",""1"",""77251""
""fullscreenenter"",""5"",""89751""
","""event"",""trial"",""time""
""blur"",""0"",""0""
","""event"",""trial"",""time""
""focus"",""1"",""77251""
","""event"",""trial"",""time""
""fullscreenenter"",""5"",""89751""
","
","","","","","","","","","","","","","","","","","","","","","",""
"d3-instructions","49","376461","0.0-49.0","1288","4985","21","Female","true","true","true","true","""event"",""trial"",""time""
""blur"",""0"",""0""
""focus"",""1"",""77251""
""fullscreenenter"",""5"",""89751""
","""event"",""trial"",""time""
""blur"",""0"",""0""
","""event"",""trial"",""time""
""focus"",""1"",""77251""
","""event"",""trial"",""time""
""fullscreenenter"",""5"",""89751""
","
","","","","","","","","","","","","","","","","","","","","","",""
"d3-instructions","50","385022","0.0-50.0","1288","4985","21","Female","true","true","true","true","""event"",""trial"",""time""
""blur"",""0"",""0""
""focus"",""1"",""77251""
""fullscreenenter"",""5"",""89751""
","""event"",""trial"",""time""
""blur"",""0"",""0""
","""event"",""trial"",""time""
""focus"",""1"",""77251""
","""event"",""trial"",""time""
""fullscreenenter"",""5"",""89751""
","
","","","","","","","","","","","","","","","","","","","","","",""
"d3-instructions","51","387345","0.0-51.0","1288","4985","21","Female","true","true","true","true","""event"",""trial"",""time""
""blur"",""0"",""0""
""focus"",""1"",""77251""
""fullscreenenter"",""5"",""89751""
","""event"",""trial"",""time""
""blur"",""0"",""0""
","""event"",""trial"",""time""
""focus"",""1"",""77251""
","""event"",""trial"",""time""
""fullscreenenter"",""5"",""89751""
","
","","","","","","","","","","","","","","","","","","","","","",""
"d3-instructions","52","389832","0.0-52.0","1288","4985","21","Female","true","true","true","true","""event"",""trial"",""time""
""blur"",""0"",""0""
""focus"",""1"",""77251""
""fullscreenenter"",""5"",""89751""
","""event"",""trial"",""time""
""blur"",""0"",""0""
","""event"",""trial"",""time""
""focus"",""1"",""77251""
","""event"",""trial"",""time""
""fullscreenenter"",""5"",""89751""
","
","","","","","","","","","","","","","","","","","","","","","",""
"d3-instructions","53","401783","0.0-53.0","1288","4985","21","Female","true","true","true","true","""event"",""trial"",""time""
""blur"",""0"",""0""
""focus"",""1"",""77251""
""fullscreenenter"",""5"",""89751""
","""event"",""trial"",""time""
""blur"",""0"",""0""
","""event"",""trial"",""time""
""focus"",""1"",""77251""
","""event"",""trial"",""time""
""fullscreenenter"",""5"",""89751""
","
","","","","","","","","","","","","","","","","","","","","","",""
"d3-instructions","54","414439","0.0-54.0","1288","4985","21","Female","true","true","true","true","""event"",""trial"",""time""
""blur"",""0"",""0""
""focus"",""1"",""77251""
""fullscreenenter"",""5"",""89751""
","""event"",""trial"",""time""
""blur"",""0"",""0""
","""event"",""trial"",""time""
""focus"",""1"",""77251""
","""event"",""trial"",""time""
""fullscreenenter"",""5"",""89751""
","
","","","","","","","","","","","","","","","","","","","","","",""
"d3-instructions","55","427643","0.0-55.0","1288","4985","21","Female","true","true","true","true","""event"",""trial"",""time""
""blur"",""0"",""0""
""focus"",""1"",""77251""
""fullscreenenter"",""5"",""89751""
","""event"",""trial"",""time""
""blur"",""0"",""0""
","""event"",""trial"",""time""
""focus"",""1"",""77251""
","""event"",""trial"",""time""
""fullscreenenter"",""5"",""89751""
","
","","","","","","","","","","","","","","","","","","","","","",""
"d3-instructions","56","436326","0.0-56.0","1288","4985","21","Female","true","true","true","true","""event"",""trial"",""time""
""blur"",""0"",""0""
""focus"",""1"",""77251""
""fullscreenenter"",""5"",""89751""
","""event"",""trial"",""time""
""blur"",""0"",""0""
","""event"",""trial"",""time""
""focus"",""1"",""77251""
","""event"",""trial"",""time""
""fullscreenenter"",""5"",""89751""
","
","","","","","","","","","","","","","","","","","","","","","",""
"d3-instructions","57","447679","0.0-57.0","1288","4985","21","Female","true","true","true","true","""event"",""trial"",""time""
""blur"",""0"",""0""
""focus"",""1"",""77251""
""fullscreenenter"",""5"",""89751""
","""event"",""trial"",""time""
""blur"",""0"",""0""
","""event"",""trial"",""time""
""focus"",""1"",""77251""
","""event"",""trial"",""time""
""fullscreenenter"",""5"",""89751""
","
","","","","","","","","","","","","","","","","","","","","","",""
"d3-instructions","58","459727","0.0-58.0","1288","4985","21","Female","true","true","true","true","""event"",""trial"",""time""
""blur"",""0"",""0""
""focus"",""1"",""77251""
""fullscreenenter"",""5"",""89751""
","""event"",""trial"",""time""
""blur"",""0"",""0""
","""event"",""trial"",""time""
""focus"",""1"",""77251""
","""event"",""trial"",""time""
""fullscreenenter"",""5"",""89751""
","
","","","","","","","","","","","","","","","","","","","","","",""
"d3-instructions","59","464586","0.0-59.0","1288","4985","21","Female","true","true","true","true","""event"",""trial"",""time""
""blur"",""0"",""0""
""focus"",""1"",""77251""
""fullscreenenter"",""5"",""89751""
","""event"",""trial"",""time""
""blur"",""0"",""0""
","""event"",""trial"",""time""
""focus"",""1"",""77251""
","""event"",""trial"",""time""
""fullscreenenter"",""5"",""89751""
","
","","","","","","","","","","","","","","","","","","","","","",""
"d3-instructions","60","471874","0.0-60.0","1288","4985","21","Female","true","true","true","true","""event"",""trial"",""time""
""blur"",""0"",""0""
""focus"",""1"",""77251""
""fullscreenenter"",""5"",""89751""
","""event"",""trial"",""time""
""blur"",""0"",""0""
","""event"",""trial"",""time""
""focus"",""1"",""77251""
","""event"",""trial"",""time""
""fullscreenenter"",""5"",""89751""
","
","","","","","","","","","","","","","","","","","","","","","",""
"d3-animate-choice","61","474651","0.0-61.0-0.0","1288","4985","21","Female","true","true","true","true","""event"",""trial"",""time""
""blur"",""0"",""0""
""focus"",""1"",""77251""
""fullscreenenter"",""5"",""89751""
","""event"",""trial"",""time""
""blur"",""0"",""0""
","""event"",""trial"",""time""
""focus"",""1"",""77251""
","""event"",""trial"",""time""
""fullscreenenter"",""5"",""89751""
","
","773.1999999880791","","48","","","3000","1","","","images/earth.jpg","images/tutrocket1","images/tutrocket2","null","images/tutrocket1","","1","practice","null","2","","",""
"d3-animate-choice","62","477811","0.0-61.0-1.0","1288","4985","21","Female","true","true","true","true","""event"",""trial"",""time""
""blur"",""0"",""0""
""focus"",""1"",""77251""
""fullscreenenter"",""5"",""89751""
","""event"",""trial"",""time""
""blur"",""0"",""0""
","""event"",""trial"",""time""
""focus"",""1"",""77251""
","""event"",""trial"",""time""
""fullscreenenter"",""5"",""89751""
","
","1156.0999999940395","","48","","","3000","1","","","images/tutgreenplanet.jpg","images/tutalien2","images/tutalien1","images/tutrocket1","images/tutalien2","images/nothing.png","2","practice","true","2","common","0","2022-12-05 21:23:45.243"
"two-step-fixation","63","478815","0.0-61.0-2.0","1288","4985","21","Female","true","true","true","true","""event"",""trial"",""time""
""blur"",""0"",""0""
""focus"",""1"",""77251""
""fullscreenenter"",""5"",""89751""
","""event"",""trial"",""time""
""blur"",""0"",""0""
","""event"",""trial"",""time""
""focus"",""1"",""77251""
","""event"",""trial"",""time""
""fullscreenenter"",""5"",""89751""
","
","","images/earth.jpg","","","","","","","","","","","","","","fixation","","","","","",""
"d3-animate-choice","64","481337","0.0-61.0-0.1","1288","4985","21","Female","true","true","true","true","""event"",""trial"",""time""
""blur"",""0"",""0""
""focus"",""1"",""77251""
""fullscreenenter"",""5"",""89751""
","""event"",""trial"",""time""
""blur"",""0"",""0""
","""event"",""trial"",""time""
""focus"",""1"",""77251""
","""event"",""trial"",""time""
""fullscreenenter"",""5"",""89751""
","
","518.9000000059605","","48","","","3000","1","","","images/earth.jpg","images/tutrocket1","images/tutrocket2","null","images/tutrocket1","","1","practice","null","2","","",""
"d3-animate-choice","65","483882","0.0-61.0-1.1","1288","4985","21","Female","true","true","true","true","""event"",""trial"",""time""
""blur"",""0"",""0""
""focus"",""1"",""77251""
""fullscreenenter"",""5"",""89751""
","""event"",""trial"",""time""
""blur"",""0"",""0""
","""event"",""trial"",""time""
""focus"",""1"",""77251""
","""event"",""trial"",""time""
""fullscreenenter"",""5"",""89751""
","
","539.1000000238419","","49","","","3000","1","","","images/tutgreenplanet.jpg","images/tutalien2","images/tutalien1","images/tutrocket1","images/tutalien1","images/nothing.png","2","practice","true","1","common","0","2022-12-05 21:23:51.314"
"two-step-fixation","66","484887","0.0-61.0-2.1","1288","4985","21","Female","true","true","true","true","""event"",""trial"",""time""
""blur"",""0"",""0""
""focus"",""1"",""77251""
""fullscreenenter"",""5"",""89751""
","""event"",""trial"",""time""
""blur"",""0"",""0""
","""event"",""trial"",""time""
""focus"",""1"",""77251""
","""event"",""trial"",""time""
""fullscreenenter"",""5"",""89751""
","
","","images/earth.jpg","","","","","","","","","","","","","","fixation","","","","","",""
"d3-animate-choice","67","487269","0.0-61.0-0.2","1288","4985","21","Female","true","true","true","true","""event"",""trial"",""time""
""blur"",""0"",""0""
""focus"",""1"",""77251""
""fullscreenenter"",""5"",""89751""
","""event"",""trial"",""time""
""blur"",""0"",""0""
","""event"",""trial"",""time""
""focus"",""1"",""77251""
","""event"",""trial"",""time""
""fullscreenenter"",""5"",""89751""
","
","377.19999998807907","","49","","","3000","1","","","images/earth.jpg","images/tutrocket1","images/tutrocket2","null","images/tutrocket2","","1","practice","null","1","","",""
"d3-animate-choice","68","489819","0.0-61.0-1.2","1288","4985","21","Female","true","true","true","true","""event"",""trial"",""time""
""blur"",""0"",""0""
""focus"",""1"",""77251""
""fullscreenenter"",""5"",""89751""
","""event"",""trial"",""time""
""blur"",""0"",""0""
","""event"",""trial"",""time""
""focus"",""1"",""77251""
","""event"",""trial"",""time""
""fullscreenenter"",""5"",""89751""
","
","546.1999999880791","","48","","","3000","1","","","images/tutyellowplanet.jpg","images/tutalien4","images/tutalien3","images/tutrocket2","images/tutalien4","images/nothing.png","2","practice","true","2","common","0","2022-12-05 21:23:57.252"
"two-step-fixation","69","490825","0.0-61.0-2.2","1288","4985","21","Female","true","true","true","true","""event"",""trial"",""time""
""blur"",""0"",""0""
""focus"",""1"",""77251""
""fullscreenenter"",""5"",""89751""
","""event"",""trial"",""time""
""blur"",""0"",""0""
","""event"",""trial"",""time""
""focus"",""1"",""77251""
","""event"",""trial"",""time""
""fullscreenenter"",""5"",""89751""
","
","","images/earth.jpg","","","","","","","","","","","","","","fixation","","","","","",""
"d3-animate-choice","70","493226","0.0-61.0-0.3","1288","4985","21","Female","true","true","true","true","""event"",""trial"",""time""
""blur"",""0"",""0""
""focus"",""1"",""77251""
""fullscreenenter"",""5"",""89751""
","""event"",""trial"",""time""
""blur"",""0"",""0""
","""event"",""trial"",""time""
""focus"",""1"",""77251""
","""event"",""trial"",""time""
""fullscreenenter"",""5"",""89751""
","
","397.40000000596046","","49","","","3000","1","","","images/earth.jpg","images/tutrocket1","images/tutrocket2","null","images/tutrocket2","","1","practice","null","1","","",""
"d3-animate-choice","71","495777","0.0-61.0-1.3","1288","4985","21","Female","true","true","true","true","""event"",""trial"",""time""
""blur"",""0"",""0""
""focus"",""1"",""77251""
""fullscreenenter"",""5"",""89751""
","""event"",""trial"",""time""
""blur"",""0"",""0""
","""event"",""trial"",""time""
""focus"",""1"",""77251""
","""event"",""trial"",""time""
""fullscreenenter"",""5"",""89751""
","
","546.2999999821186","","49","","","3000","1","","","images/tutyellowplanet.jpg","images/tutalien4","images/tutalien3","images/tutrocket2","images/tutalien3","images/t.png","2","practice","true","1","common","1","2022-12-05 21:24:03.209"
"two-step-fixation","72","496781","0.0-61.0-2.3","1288","4985","21","Female","true","true","true","true","""event"",""trial"",""time""
""blur"",""0"",""0""
""focus"",""1"",""77251""
""fullscreenenter"",""5"",""89751""
","""event"",""trial"",""time""
""blur"",""0"",""0""
","""event"",""trial"",""time""
""focus"",""1"",""77251""
","""event"",""trial"",""time""
""fullscreenenter"",""5"",""89751""
","
","","images/earth.jpg","","","","","","","","","","","","","","fixation","","","","","",""
"d3-animate-choice","73","499229","0.0-61.0-0.4","1288","4985","21","Female","true","true","true","true","""event"",""trial"",""time""
""blur"",""0"",""0""
""focus"",""1"",""77251""
""fullscreenenter"",""5"",""89751""
","""event"",""trial"",""time""
""blur"",""0"",""0""
","""event"",""trial"",""time""
""focus"",""1"",""77251""
","""event"",""trial"",""time""
""fullscreenenter"",""5"",""89751""
","
","443.90000000596046","","49","","","3000","1","","","images/earth.jpg","images/tutrocket1","images/tutrocket2","null","images/tutrocket2","","1","practice","null","1","","",""
"d3-animate-choice","74","501758","0.0-61.0-1.4","1288","4985","21","Female","true","true","true","true","""event"",""trial"",""time""
""blur"",""0"",""0""
""focus"",""1"",""77251""
""fullscreenenter"",""5"",""89751""
","""event"",""trial"",""time""
""blur"",""0"",""0""
","""event"",""trial"",""time""
""focus"",""1"",""77251""
","""event"",""trial"",""time""
""fullscreenenter"",""5"",""89751""
","
","524.9000000059605","","49","","","3000","1","","","images/tutyellowplanet.jpg","images/tutalien4","images/tutalien3","images/tutrocket2","images/tutalien3","images/nothing.png","2","practice","true","1","common","0","2022-12-05 21:24:09.190"
"two-step-fixation","75","502762","0.0-61.0-2.4","1288","4985","21","Female","true","true","true","true","""event"",""trial"",""time""
""blur"",""0"",""0""
""focus"",""1"",""77251""
""fullscreenenter"",""5"",""89751""
","""event"",""trial"",""time""
""blur"",""0"",""0""
","""event"",""trial"",""time""
""focus"",""1"",""77251""
","""event"",""trial"",""time""
""fullscreenenter"",""5"",""89751""
","
","","images/earth.jpg","","","","","","","","","","","","","","fixation","","","","","",""
"d3-animate-choice","76","505356","0.0-61.0-0.5","1288","4985","21","Female","true","true","true","true","""event"",""trial"",""time""
""blur"",""0"",""0""
""focus"",""1"",""77251""
""fullscreenenter"",""5"",""89751""
","""event"",""trial"",""time""
""blur"",""0"",""0""
","""event"",""trial"",""time""
""focus"",""1"",""77251""
","""event"",""trial"",""time""
""fullscreenenter"",""5"",""89751""
","
","591.5999999940395","","49","","","3000","1","","","images/earth.jpg","images/tutrocket1","images/tutrocket2","null","images/tutrocket2","","1","practice","null","1","","",""
"d3-animate-choice","77","507867","0.0-61.0-1.5","1288","4985","21","Female","true","true","true","true","""event"",""trial"",""time""
""blur"",""0"",""0""
""focus"",""1"",""77251""
""fullscreenenter"",""5"",""89751""
","""event"",""trial"",""time""
""blur"",""0"",""0""
","""event"",""trial"",""time""
""focus"",""1"",""77251""
","""event"",""trial"",""time""
""fullscreenenter"",""5"",""89751""
","
","507.40000000596046","","49","","","3000","1","","","images/tutyellowplanet.jpg","images/tutalien4","images/tutalien3","images/tutrocket2","images/tutalien3","images/nothing.png","2","practice","true","1","common","0","2022-12-05 21:24:15.299"
"two-step-fixation","78","508872","0.0-61.0-2.5","1288","4985","21","Female","true","true","true","true","""event"",""trial"",""time""
""blur"",""0"",""0""
""focus"",""1"",""77251""
""fullscreenenter"",""5"",""89751""
","""event"",""trial"",""time""
""blur"",""0"",""0""
","""event"",""trial"",""time""
""focus"",""1"",""77251""
","""event"",""trial"",""time""
""fullscreenenter"",""5"",""89751""
","
","","images/earth.jpg","","","","","","","","","","","","","","fixation","","","","","",""
"d3-animate-choice","79","511493","0.0-61.0-0.6","1288","4985","21","Female","true","true","true","true","""event"",""trial"",""time""
""blur"",""0"",""0""
""focus"",""1"",""77251""
""fullscreenenter"",""5"",""89751""
","""event"",""trial"",""time""
""blur"",""0"",""0""
","""event"",""trial"",""time""
""focus"",""1"",""77251""
","""event"",""trial"",""time""
""fullscreenenter"",""5"",""89751""
","
","615.2000000178814","","48","","","3000","1","","","images/earth.jpg","images/tutrocket1","images/tutrocket2","null","images/tutrocket1","","1","practice","null","2","","",""
"d3-animate-choice","80","513977","0.0-61.0-1.6","1288","4985","21","Female","true","true","true","true","""event"",""trial"",""time""
""blur"",""0"",""0""
""focus"",""1"",""77251""
""fullscreenenter"",""5"",""89751""
","""event"",""trial"",""time""
""blur"",""0"",""0""
","""event"",""trial"",""time""
""focus"",""1"",""77251""
","""event"",""trial"",""time""
""fullscreenenter"",""5"",""89751""
","
","480.90000000596046","","49","","","3000","1","","","images/tutyellowplanet.jpg","images/tutalien4","images/tutalien3","images/tutrocket1","images/tutalien3","images/nothing.png","2","practice","false","1","rare","0","2022-12-05 21:24:21.409"
"two-step-fixation","81","514982","0.0-61.0-2.6","1288","4985","21","Female","true","true","true","true","""event"",""trial"",""time""
""blur"",""0"",""0""
""focus"",""1"",""77251""
""fullscreenenter"",""5"",""89751""
","""event"",""trial"",""time""
""blur"",""0"",""0""
","""event"",""trial"",""time""
""focus"",""1"",""77251""
","""event"",""trial"",""time""
""fullscreenenter"",""5"",""89751""
","
","","images/earth.jpg","","","","","","","","","","","","","","fixation","","","","","",""
"d3-animate-choice","82","517466","0.0-61.0-0.7","1288","4985","21","Female","true","true","true","true","""event"",""trial"",""time""
""blur"",""0"",""0""
""focus"",""1"",""77251""
""fullscreenenter"",""5"",""89751""
","""event"",""trial"",""time""
""blur"",""0"",""0""
","""event"",""trial"",""time""
""focus"",""1"",""77251""
","""event"",""trial"",""time""
""fullscreenenter"",""5"",""89751""
","
","477.59999999403954","","48","","","3000","1","","","images/earth.jpg","images/tutrocket1","images/tutrocket2","null","images/tutrocket1","","1","practice","null","2","","",""
"d3-animate-choice","83","520076","0.0-61.0-1.7","1288","4985","21","Female","true","true","true","true","""event"",""trial"",""time""
""blur"",""0"",""0""
""focus"",""1"",""77251""
""fullscreenenter"",""5"",""89751""
","""event"",""trial"",""time""
""blur"",""0"",""0""
","""event"",""trial"",""time""
""focus"",""1"",""77251""
","""event"",""trial"",""time""
""fullscreenenter"",""5"",""89751""
","
","606.5","","48","","","3000","1","","","images/tutgreenplanet.jpg","images/tutalien2","images/tutalien1","images/tutrocket1","images/tutalien2","images/nothing.png","2","practice","true","2","common","0","2022-12-05 21:24:27.508"
"two-step-fixation","84","521081","0.0-61.0-2.7","1288","4985","21","Female","true","true","true","true","""event"",""trial"",""time""
""blur"",""0"",""0""
""focus"",""1"",""77251""
""fullscreenenter"",""5"",""89751""
","""event"",""trial"",""time""
""blur"",""0"",""0""
","""event"",""trial"",""time""
""focus"",""1"",""77251""
","""event"",""trial"",""time""
""fullscreenenter"",""5"",""89751""
","
","","images/earth.jpg","","","","","","","","","","","","","","fixation","","","","","",""
"d3-animate-choice","85","523660","0.0-61.0-0.8","1288","4985","21","Female","true","true","true","true","""event"",""trial"",""time""
""blur"",""0"",""0""
""focus"",""1"",""77251""
""fullscreenenter"",""5"",""89751""
","""event"",""trial"",""time""
""blur"",""0"",""0""
","""event"",""trial"",""time""
""focus"",""1"",""77251""
","""event"",""trial"",""time""
""fullscreenenter"",""5"",""89751""
","
","574.8000000119209","","48","","","3000","1","","","images/earth.jpg","images/tutrocket1","images/tutrocket2","null","images/tutrocket1","","1","practice","null","2","","",""
"d3-animate-choice","86","526171","0.0-61.0-1.8","1288","4985","21","Female","true","true","true","true","""event"",""trial"",""time""
""blur"",""0"",""0""
""focus"",""1"",""77251""
""fullscreenenter"",""5"",""89751""
","""event"",""trial"",""time""
""blur"",""0"",""0""
","""event"",""trial"",""time""
""focus"",""1"",""77251""
","""event"",""trial"",""time""
""fullscreenenter"",""5"",""89751""
","
","507.80000001192093","","49","","","3000","1","","","images/tutgreenplanet.jpg","images/tutalien2","images/tutalien1","images/tutrocket1","images/tutalien1","images/nothing.png","2","practice","true","1","common","0","2022-12-05 21:24:33.604"
"two-step-fixation","87","527175","0.0-61.0-2.8","1288","4985","21","Female","true","true","true","true","""event"",""trial"",""time""
""blur"",""0"",""0""
""focus"",""1"",""77251""
""fullscreenenter"",""5"",""89751""
","""event"",""trial"",""time""
""blur"",""0"",""0""
","""event"",""trial"",""time""
""focus"",""1"",""77251""
","""event"",""trial"",""time""
""fullscreenenter"",""5"",""89751""
","
","","images/earth.jpg","","","","","","","","","","","","","","fixation","","","","","",""
"d3-animate-choice","88","529553","0.0-61.0-0.9","1288","4985","21","Female","true","true","true","true","""event"",""trial"",""time""
""blur"",""0"",""0""
""focus"",""1"",""77251""
""fullscreenenter"",""5"",""89751""
","""event"",""trial"",""time""
""blur"",""0"",""0""
","""event"",""trial"",""time""
""focus"",""1"",""77251""
","""event"",""trial"",""time""
""fullscreenenter"",""5"",""89751""
","
","370.7999999821186","","49","","","3000","1","","","images/earth.jpg","images/tutrocket1","images/tutrocket2","null","images/tutrocket2","","1","practice","null","1","","",""
"d3-animate-choice","89","532740","0.0-61.0-1.9","1288","4985","21","Female","true","true","true","true","""event"",""trial"",""time""
""blur"",""0"",""0""
""focus"",""1"",""77251""
""fullscreenenter"",""5"",""89751""
","""event"",""trial"",""time""
""blur"",""0"",""0""
","""event"",""trial"",""time""
""focus"",""1"",""77251""
","""event"",""trial"",""time""
""fullscreenenter"",""5"",""89751""
","
","1179.7000000178814","","49","","","3000","1","","","images/tutgreenplanet.jpg","images/tutalien2","images/tutalien1","images/tutrocket2","images/tutalien1","images/nothing.png","2","practice","false","1","rare","0","2022-12-05 21:24:40.172"
"two-step-fixation","90","533744","0.0-61.0-2.9","1288","4985","21","Female","true","true","true","true","""event"",""trial"",""time""
""blur"",""0"",""0""
""focus"",""1"",""77251""
""fullscreenenter"",""5"",""89751""
","""event"",""trial"",""time""
""blur"",""0"",""0""
","""event"",""trial"",""time""
""focus"",""1"",""77251""
","""event"",""trial"",""time""
""fullscreenenter"",""5"",""89751""
","
","","images/earth.jpg","","","","","","","","","","","","","","fixation","","","","","",""
"d3-animate-choice","91","536321","0.0-61.0-0.10","1288","4985","21","Female","true","true","true","true","""event"",""trial"",""time""
""blur"",""0"",""0""
""focus"",""1"",""77251""
""fullscreenenter"",""5"",""89751""
","""event"",""trial"",""time""
""blur"",""0"",""0""
","""event"",""trial"",""time""
""focus"",""1"",""77251""
","""event"",""trial"",""time""
""fullscreenenter"",""5"",""89751""
","
","572.0999999940395","","49","","","3000","1","","","images/earth.jpg","images/tutrocket1","images/tutrocket2","null","images/tutrocket2","","1","practice","null","1","","",""
"d3-animate-choice","92","539030","0.0-61.0-1.10","1288","4985","21","Female","true","true","true","true","""event"",""trial"",""time""
""blur"",""0"",""0""
""focus"",""1"",""77251""
""fullscreenenter"",""5"",""89751""
","""event"",""trial"",""time""
""blur"",""0"",""0""
","""event"",""trial"",""time""
""focus"",""1"",""77251""
","""event"",""trial"",""time""
""fullscreenenter"",""5"",""89751""
","
","703","","49","","","3000","1","","","images/tutyellowplanet.jpg","images/tutalien4","images/tutalien3","images/tutrocket2","images/tutalien3","images/t.png","2","practice","true","1","common","1","2022-12-05 21:24:46.462"
"two-step-fixation","93","540036","0.0-61.0-2.10","1288","4985","21","Female","true","true","true","true","""event"",""trial"",""time""
""blur"",""0"",""0""
""focus"",""1"",""77251""
""fullscreenenter"",""5"",""89751""
","""event"",""trial"",""time""
""blur"",""0"",""0""
","""event"",""trial"",""time""
""focus"",""1"",""77251""
","""event"",""trial"",""time""
""fullscreenenter"",""5"",""89751""
","
","","images/earth.jpg","","","","","","","","","","","","","","fixation","","","","","",""
"d3-animate-choice","94","542494","0.0-61.0-0.11","1288","4985","21","Female","true","true","true","true","""event"",""trial"",""time""
""blur"",""0"",""0""
""focus"",""1"",""77251""
""fullscreenenter"",""5"",""89751""
","""event"",""trial"",""time""
""blur"",""0"",""0""
","""event"",""trial"",""time""
""focus"",""1"",""77251""
","""event"",""trial"",""time""
""fullscreenenter"",""5"",""89751""
","
","455.2999999821186","","49","","","3000","1","","","images/earth.jpg","images/tutrocket1","images/tutrocket2","null","images/tutrocket2","","1","practice","null","1","","",""
"d3-animate-choice","95","544975","0.0-61.0-1.11","1288","4985","21","Female","true","true","true","true","""event"",""trial"",""time""
""blur"",""0"",""0""
""focus"",""1"",""77251""
""fullscreenenter"",""5"",""89751""
","""event"",""trial"",""time""
""blur"",""0"",""0""
","""event"",""trial"",""time""
""focus"",""1"",""77251""
","""event"",""trial"",""time""
""fullscreenenter"",""5"",""89751""
","
","474.2000000178814","","49","","","3000","1","","","images/tutgreenplanet.jpg","images/tutalien2","images/tutalien1","images/tutrocket2","images/tutalien1","images/t.png","2","practice","false","1","rare","1","2022-12-05 21:24:52.408"
"two-step-fixation","96","545981","0.0-61.0-2.11","1288","4985","21","Female","true","true","true","true","""event"",""trial"",""time""
""blur"",""0"",""0""
""focus"",""1"",""77251""
""fullscreenenter"",""5"",""89751""
","""event"",""trial"",""time""
""blur"",""0"",""0""
","""event"",""trial"",""time""
""focus"",""1"",""77251""
","""event"",""trial"",""time""
""fullscreenenter"",""5"",""89751""
","
","","images/earth.jpg","","","","","","","","","","","","","","fixation","","","","","",""
"d3-animate-choice","97","548425","0.0-61.0-0.12","1288","4985","21","Female","true","true","true","true","""event"",""trial"",""time""
""blur"",""0"",""0""
""focus"",""1"",""77251""
""fullscreenenter"",""5"",""89751""
","""event"",""trial"",""time""
""blur"",""0"",""0""
","""event"",""trial"",""time""
""focus"",""1"",""77251""
","""event"",""trial"",""time""
""fullscreenenter"",""5"",""89751""
","
","436.2000000178814","","49","","","3000","1","","","images/earth.jpg","images/tutrocket1","images/tutrocket2","null","images/tutrocket2","","1","practice","null","1","","",""
"d3-animate-choice","98","550898","0.0-61.0-1.12","1288","4985","21","Female","true","true","true","true","""event"",""trial"",""time""
""blur"",""0"",""0""
""focus"",""1"",""77251""
""fullscreenenter"",""5"",""89751""
","""event"",""trial"",""time""
""blur"",""0"",""0""
","""event"",""trial"",""time""
""focus"",""1"",""77251""
","""event"",""trial"",""time""
""fullscreenenter"",""5"",""89751""
","
","467.40000000596046","","49","","","3000","1","","","images/tutyellowplanet.jpg","images/tutalien4","images/tutalien3","images/tutrocket2","images/tutalien3","images/t.png","2","practice","true","1","common","1","2022-12-05 21:24:58.330"
"two-step-fixation","99","551903","0.0-61.0-2.12","1288","4985","21","Female","true","true","true","true","""event"",""trial"",""time""
""blur"",""0"",""0""
""focus"",""1"",""77251""
""fullscreenenter"",""5"",""89751""
","""event"",""trial"",""time""
""blur"",""0"",""0""
","""event"",""trial"",""time""
""focus"",""1"",""77251""
","""event"",""trial"",""time""
""fullscreenenter"",""5"",""89751""
","
","","images/earth.jpg","","","","","","","","","","","","","","fixation","","","","","",""
"d3-animate-choice","100","554372","0.0-61.0-0.13","1288","4985","21","Female","true","true","true","true","""event"",""trial"",""time""
""blur"",""0"",""0""
""focus"",""1"",""77251""
""fullscreenenter"",""5"",""89751""
","""event"",""trial"",""time""
""blur"",""0"",""0""
","""event"",""trial"",""time""
""focus"",""1"",""77251""
","""event"",""trial"",""time""
""fullscreenenter"",""5"",""89751""
","
","466.19999998807907","","49","","","3000","1","","","images/earth.jpg","images/tutrocket1","images/tutrocket2","null","images/tutrocket2","","1","practice","null","1","","",""
"d3-animate-choice","101","556816","0.0-61.0-1.13","1288","4985","21","Female","true","true","true","true","""event"",""trial"",""time""
""blur"",""0"",""0""
""focus"",""1"",""77251""
""fullscreenenter"",""5"",""89751""
","""event"",""trial"",""time""
""blur"",""0"",""0""
","""event"",""trial"",""time""
""focus"",""1"",""77251""
","""event"",""trial"",""time""
""fullscreenenter"",""5"",""89751""
","
","440.59999999403954","","49","","","3000","1","","","images/tutyellowplanet.jpg","images/tutalien4","images/tutalien3","images/tutrocket2","images/tutalien3","images/nothing.png","2","practice","true","1","common","0","2022-12-05 21:25:04.248"
"two-step-fixation","102","557821","0.0-61.0-2.13","1288","4985","21","Female","true","true","true","true","""event"",""trial"",""time""
""blur"",""0"",""0""
""focus"",""1"",""77251""
""fullscreenenter"",""5"",""89751""
","""event"",""trial"",""time""
""blur"",""0"",""0""
","""event"",""trial"",""time""
""focus"",""1"",""77251""
","""event"",""trial"",""time""
""fullscreenenter"",""5"",""89751""
","
","","images/earth.jpg","","","","","","","","","","","","","","fixation","","","","","",""
"d3-animate-choice","103","560335","0.0-61.0-0.14","1288","4985","21","Female","true","true","true","true","""event"",""trial"",""time""
""blur"",""0"",""0""
""focus"",""1"",""77251""
""fullscreenenter"",""5"",""89751""
","""event"",""trial"",""time""
""blur"",""0"",""0""
","""event"",""trial"",""time""
""focus"",""1"",""77251""
","""event"",""trial"",""time""
""fullscreenenter"",""5"",""89751""
","
","510.7999999821186","","49","","","3000","1","","","images/earth.jpg","images/tutrocket1","images/tutrocket2","null","images/tutrocket2","","1","practice","null","1","","",""
"d3-animate-choice","104","562893","0.0-61.0-1.14","1288","4985","21","Female","true","true","true","true","""event"",""trial"",""time""
""blur"",""0"",""0""
""focus"",""1"",""77251""
""fullscreenenter"",""5"",""89751""
","""event"",""trial"",""time""
""blur"",""0"",""0""
","""event"",""trial"",""time""
""focus"",""1"",""77251""
","""event"",""trial"",""time""
""fullscreenenter"",""5"",""89751""
","
","554.3000000119209","","49","","","3000","1","","","images/tutyellowplanet.jpg","images/tutalien4","images/tutalien3","images/tutrocket2","images/tutalien3","images/nothing.png","2","practice","true","1","common","0","2022-12-05 21:25:10.325"
"two-step-fixation","105","563896","0.0-61.0-2.14","1288","4985","21","Female","true","true","true","true","""event"",""trial"",""time""
""blur"",""0"",""0""
""focus"",""1"",""77251""
""fullscreenenter"",""5"",""89751""
","""event"",""trial"",""time""
""blur"",""0"",""0""
","""event"",""trial"",""time""
""focus"",""1"",""77251""
","""event"",""trial"",""time""
""fullscreenenter"",""5"",""89751""
","
","","images/earth.jpg","","","","","","","","","","","","","","fixation","","","","","",""
"d3-animate-choice","106","566433","0.0-61.0-0.15","1288","4985","21","Female","true","true","true","true","""event"",""trial"",""time""
""blur"",""0"",""0""
""focus"",""1"",""77251""
""fullscreenenter"",""5"",""89751""
","""event"",""trial"",""time""
""blur"",""0"",""0""
","""event"",""trial"",""time""
""focus"",""1"",""77251""
","""event"",""trial"",""time""
""fullscreenenter"",""5"",""89751""
","
","529.3000000119209","","49","","","3000","1","","","images/earth.jpg","images/tutrocket1","images/tutrocket2","null","images/tutrocket2","","1","practice","null","1","","",""
"d3-animate-choice","107","568807","0.0-61.0-1.15","1288","4985","21","Female","true","true","true","true","""event"",""trial"",""time""
""blur"",""0"",""0""
""focus"",""1"",""77251""
""fullscreenenter"",""5"",""89751""
","""event"",""trial"",""time""
""blur"",""0"",""0""
","""event"",""trial"",""time""
""focus"",""1"",""77251""
","""event"",""trial"",""time""
""fullscreenenter"",""5"",""89751""
","
","369.5","","48","","","3000","1","","","images/tutgreenplanet.jpg","images/tutalien2","images/tutalien1","images/tutrocket2","images/tutalien2","images/t.png","2","practice","false","2","rare","1","2022-12-05 21:25:16.239"
"two-step-fixation","108","569811","0.0-61.0-2.15","1288","4985","21","Female","true","true","true","true","""event"",""trial"",""time""
""blur"",""0"",""0""
""focus"",""1"",""77251""
""fullscreenenter"",""5"",""89751""
","""event"",""trial"",""time""
""blur"",""0"",""0""
","""event"",""trial"",""time""
""focus"",""1"",""77251""
","""event"",""trial"",""time""
""fullscreenenter"",""5"",""89751""
","
","","images/earth.jpg","","","","","","","","","","","","","","fixation","","","","","",""
"d3-animate-choice","109","572248","0.0-61.0-0.16","1288","4985","21","Female","true","true","true","true","""event"",""trial"",""time""
""blur"",""0"",""0""
""focus"",""1"",""77251""
""fullscreenenter"",""5"",""89751""
","""event"",""trial"",""time""
""blur"",""0"",""0""
","""event"",""trial"",""time""
""focus"",""1"",""77251""
","""event"",""trial"",""time""
""fullscreenenter"",""5"",""89751""
","
","432.90000000596046","","48","","","3000","1","","","images/earth.jpg","images/tutrocket1","images/tutrocket2","null","images/tutrocket1","","1","practice","null","2","","",""
"d3-animate-choice","110","575146","0.0-61.0-1.16","1288","4985","21","Female","true","true","true","true","""event"",""trial"",""time""
""blur"",""0"",""0""
""focus"",""1"",""77251""
""fullscreenenter"",""5"",""89751""
","""event"",""trial"",""time""
""blur"",""0"",""0""
","""event"",""trial"",""time""
""focus"",""1"",""77251""
","""event"",""trial"",""time""
""fullscreenenter"",""5"",""89751""
","
","893.3000000119209","","48","","","3000","1","","","images/tutgreenplanet.jpg","images/tutalien2","images/tutalien1","images/tutrocket1","images/tutalien2","images/t.png","2","practice","true","2","common","1","2022-12-05 21:25:22.579"
"two-step-fixation","111","576150","0.0-61.0-2.16","1288","4985","21","Female","true","true","true","true","""event"",""trial"",""time""
""blur"",""0"",""0""
""focus"",""1"",""77251""
""fullscreenenter"",""5"",""89751""
","""event"",""trial"",""time""
""blur"",""0"",""0""
","""event"",""trial"",""time""
""focus"",""1"",""77251""
","""event"",""trial"",""time""
""fullscreenenter"",""5"",""89751""
","
","","images/earth.jpg","","","","","","","","","","","","","","fixation","","","","","",""
"d3-animate-choice","112","578717","0.0-61.0-0.17","1288","4985","21","Female","true","true","true","true","""event"",""trial"",""time""
""blur"",""0"",""0""
""focus"",""1"",""77251""
""fullscreenenter"",""5"",""89751""
","""event"",""trial"",""time""
""blur"",""0"",""0""
","""event"",""trial"",""time""
""focus"",""1"",""77251""
","""event"",""trial"",""time""
""fullscreenenter"",""5"",""89751""
","
","563.4000000059605","","48","","","3000","1","","","images/earth.jpg","images/tutrocket1","images/tutrocket2","null","images/tutrocket1","","1","practice","null","2","","",""
"d3-animate-choice","113","581398","0.0-61.0-1.17","1288","4985","21","Female","true","true","true","true","""event"",""trial"",""time""
""blur"",""0"",""0""
""focus"",""1"",""77251""
""fullscreenenter"",""5"",""89751""
","""event"",""trial"",""time""
""blur"",""0"",""0""
","""event"",""trial"",""time""
""focus"",""1"",""77251""
","""event"",""trial"",""time""
""fullscreenenter"",""5"",""89751""
","
","676.1000000238419","","48","","","3000","1","","","images/tutgreenplanet.jpg","images/tutalien2","images/tutalien1","images/tutrocket1","images/tutalien2","images/nothing.png","2","practice","true","2","common","0","2022-12-05 21:25:28.830"
"two-step-fixation","114","582403","0.0-61.0-2.17","1288","4985","21","Female","true","true","true","true","""event"",""trial"",""time""
""blur"",""0"",""0""
""focus"",""1"",""77251""
""fullscreenenter"",""5"",""89751""
","""event"",""trial"",""time""
""blur"",""0"",""0""
","""event"",""trial"",""time""
""focus"",""1"",""77251""
","""event"",""trial"",""time""
""fullscreenenter"",""5"",""89751""
","
","","images/earth.jpg","","","","","","","","","","","","","","fixation","","","","","",""
"d3-animate-choice","115","584910","0.0-61.0-0.18","1288","4985","21","Female","true","true","true","true","""event"",""trial"",""time""
""blur"",""0"",""0""
""focus"",""1"",""77251""
""fullscreenenter"",""5"",""89751""
","""event"",""trial"",""time""
""blur"",""0"",""0""
","""event"",""trial"",""time""
""focus"",""1"",""77251""
","""event"",""trial"",""time""
""fullscreenenter"",""5"",""89751""
","
","500","","48","","","3000","1","","","images/earth.jpg","images/tutrocket1","images/tutrocket2","null","images/tutrocket1","","1","practice","null","2","","",""
"d3-animate-choice","116","587348","0.0-61.0-1.18","1288","4985","21","Female","true","true","true","true","""event"",""trial"",""time""
""blur"",""0"",""0""
""focus"",""1"",""77251""
""fullscreenenter"",""5"",""89751""
","""event"",""trial"",""time""
""blur"",""0"",""0""
","""event"",""trial"",""time""
""focus"",""1"",""77251""
","""event"",""trial"",""time""
""fullscreenenter"",""5"",""89751""
","
","432.5","","48","","","3000","1","","","images/tutgreenplanet.jpg","images/tutalien2","images/tutalien1","images/tutrocket1","images/tutalien2","images/t.png","2","practice","true","2","common","1","2022-12-05 21:25:34.780"
"two-step-fixation","117","588353","0.0-61.0-2.18","1288","4985","21","Female","true","true","true","true","""event"",""trial"",""time""
""blur"",""0"",""0""
""focus"",""1"",""77251""
""fullscreenenter"",""5"",""89751""
","""event"",""trial"",""time""
""blur"",""0"",""0""
","""event"",""trial"",""time""
""focus"",""1"",""77251""
","""event"",""trial"",""time""
""fullscreenenter"",""5"",""89751""
","
","","images/earth.jpg","","","","","","","","","","","","","","fixation","","","","","",""
"d3-animate-choice","118","590855","0.0-61.0-0.19","1288","4985","21","Female","true","true","true","true","""event"",""trial"",""time""
""blur"",""0"",""0""
""focus"",""1"",""77251""
""fullscreenenter"",""5"",""89751""
","""event"",""trial"",""time""
""blur"",""0"",""0""
","""event"",""trial"",""time""
""focus"",""1"",""77251""
","""event"",""trial"",""time""
""fullscreenenter"",""5"",""89751""
","
","496.5","","48","","","3000","1","","","images/earth.jpg","images/tutrocket1","images/tutrocket2","null","images/tutrocket1","","1","practice","null","2","","",""
"d3-animate-choice","119","593346","0.0-61.0-1.19","1288","4985","21","Female","true","true","true","true","""event"",""trial"",""time""
""blur"",""0"",""0""
""focus"",""1"",""77251""
""fullscreenenter"",""5"",""89751""
","""event"",""trial"",""time""
""blur"",""0"",""0""
","""event"",""trial"",""time""
""focus"",""1"",""77251""
","""event"",""trial"",""time""
""fullscreenenter"",""5"",""89751""
","
","487.69999998807907","","48","","","3000","1","","","images/tutgreenplanet.jpg","images/tutalien2","images/tutalien1","images/tutrocket1","images/tutalien2","images/nothing.png","2","practice","true","2","common","0","2022-12-05 21:25:40.778"
"two-step-fixation","120","594350","0.0-61.0-2.19","1288","4985","21","Female","true","true","true","true","""event"",""trial"",""time""
""blur"",""0"",""0""
""focus"",""1"",""77251""
""fullscreenenter"",""5"",""89751""
","""event"",""trial"",""time""
""blur"",""0"",""0""
","""event"",""trial"",""time""
""focus"",""1"",""77251""
","""event"",""trial"",""time""
""fullscreenenter"",""5"",""89751""
","
","","images/earth.jpg","","","","","","","","","","","","","","fixation","","","","","",""
"d3-instructions","121","598742","0.0-62.0","1288","4985","21","Female","true","true","true","true","""event"",""trial"",""time""
""blur"",""0"",""0""
""focus"",""1"",""77251""
""fullscreenenter"",""5"",""89751""
","""event"",""trial"",""time""
""blur"",""0"",""0""
","""event"",""trial"",""time""
""focus"",""1"",""77251""
","""event"",""trial"",""time""
""fullscreenenter"",""5"",""89751""
","
","","","","","","","","","","","","","","","","","","","","","",""
"audio-keyboard-response","122","601123","0.0-63.0","1288","4985","21","Female","true","true","true","true","""event"",""trial"",""time""
""blur"",""0"",""0""
""focus"",""1"",""77251""
""fullscreenenter"",""5"",""89751""
","""event"",""trial"",""time""
""blur"",""0"",""0""
","""event"",""trial"",""time""
""focus"",""1"",""77251""
","""event"",""trial"",""time""
""fullscreenenter"",""5"",""89751""
","
","2380","audio/instructions/treasure_feedback.wav","32","","","","","","","","","","","","","","","","","","",""
"d3-instructions","123","620333","0.0-64.0","1288","4985","21","Female","true","true","true","true","""event"",""trial"",""time""
""blur"",""0"",""0""
""focus"",""1"",""77251""
""fullscreenenter"",""5"",""89751""
","""event"",""trial"",""time""
""blur"",""0"",""0""
","""event"",""trial"",""time""
""focus"",""1"",""77251""
","""event"",""trial"",""time""
""fullscreenenter"",""5"",""89751""
","
","","","","","","","","","","","","","","","","","","","","","",""
"d3-instructions","124","634145","0.0-65.0","1288","4985","21","Female","true","true","true","true","""event"",""trial"",""time""
""blur"",""0"",""0""
""focus"",""1"",""77251""
""fullscreenenter"",""5"",""89751""
","""event"",""trial"",""time""
""blur"",""0"",""0""
","""event"",""trial"",""time""
""focus"",""1"",""77251""
","""event"",""trial"",""time""
""fullscreenenter"",""5"",""89751""
","
","","","","","","","","","","","","","","","","","","","","","",""
"d3-instructions","125","664441","0.0-66.0","1288","4985","21","Female","true","true","true","true","""event"",""trial"",""time""
""blur"",""0"",""0""
""focus"",""1"",""77251""
""fullscreenenter"",""5"",""89751""
","""event"",""trial"",""time""
""blur"",""0"",""0""
","""event"",""trial"",""time""
""focus"",""1"",""77251""
","""event"",""trial"",""time""
""fullscreenenter"",""5"",""89751""
","
","","","","","","","","","","","","","","","","","","","","","",""
"d3-instructions","126","680640","0.0-67.0","1288","4985","21","Female","true","true","true","true","""event"",""trial"",""time""
""blur"",""0"",""0""
""focus"",""1"",""77251""
""fullscreenenter"",""5"",""89751""
","""event"",""trial"",""time""
""blur"",""0"",""0""
","""event"",""trial"",""time""
""focus"",""1"",""77251""
","""event"",""trial"",""time""
""fullscreenenter"",""5"",""89751""
","
","","","","","","","","","","","","","","","","","","","","","",""
"d3-instructions","127","687788","0.0-68.0","1288","4985","21","Female","true","true","true","true","""event"",""trial"",""time""
""blur"",""0"",""0""
""focus"",""1"",""77251""
""fullscreenenter"",""5"",""89751""
","""event"",""trial"",""time""
""blur"",""0"",""0""
","""event"",""trial"",""time""
""focus"",""1"",""77251""
","""event"",""trial"",""time""
""fullscreenenter"",""5"",""89751""
","
","","","","","","","","","","","","","","","","","","","","","",""
"instructions-quiz","128","693522","0.0-69.0","1288","4985","21","Female","true","true","true","true","""event"",""trial"",""time""
""blur"",""0"",""0""
""focus"",""1"",""77251""
""fullscreenenter"",""5"",""89751""
","""event"",""trial"",""time""
""blur"",""0"",""0""
","""event"",""trial"",""time""
""focus"",""1"",""77251""
","""event"",""trial"",""time""
""fullscreenenter"",""5"",""89751""
","
","5732.300000011921","audio/quiz/Q1_Prompt.wav","","1","","","","","","","","","","","","","","","","","",""
"audio-keyboard-response","129","696851","0.0-70.0","1288","4985","21","Female","true","true","true","true","""event"",""trial"",""time""
""blur"",""0"",""0""
""focus"",""1"",""77251""
""fullscreenenter"",""5"",""89751""
","""event"",""trial"",""time""
""blur"",""0"",""0""
","""event"",""trial"",""time""
""focus"",""1"",""77251""
","""event"",""trial"",""time""
""fullscreenenter"",""5"",""89751""
","
","3326","audio/quiz/Q1_Correct.wav","32","","","","","","","","","","","","","","","","","","",""
"instructions-quiz","130","701638","0.0-71.0","1288","4985","21","Female","true","true","true","true","""event"",""trial"",""time""
""blur"",""0"",""0""
""focus"",""1"",""77251""
""fullscreenenter"",""5"",""89751""
","""event"",""trial"",""time""
""blur"",""0"",""0""
","""event"",""trial"",""time""
""focus"",""1"",""77251""
","""event"",""trial"",""time""
""fullscreenenter"",""5"",""89751""
","
","4786.199999988079","audio/quiz/Q2_Prompt.wav","","0","","","","","","","","","","","","","","","","","",""
"audio-keyboard-response","131","710093","0.0-72.0","1288","4985","21","Female","true","true","true","true","""event"",""trial"",""time""
""blur"",""0"",""0""
""focus"",""1"",""77251""
""fullscreenenter"",""5"",""89751""
","""event"",""trial"",""time""
""blur"",""0"",""0""
","""event"",""trial"",""time""
""focus"",""1"",""77251""
","""event"",""trial"",""time""
""fullscreenenter"",""5"",""89751""
","
","8452","audio/quiz/Q2_Correct.wav","32","","","","","","","","","","","","","","","","","","",""
"instructions-quiz","132","712316","0.0-73.0","1288","4985","21","Female","true","true","true","true","""event"",""trial"",""time""
""blur"",""0"",""0""
""focus"",""1"",""77251""
""fullscreenenter"",""5"",""89751""
","""event"",""trial"",""time""
""blur"",""0"",""0""
","""event"",""trial"",""time""
""focus"",""1"",""77251""
","""event"",""trial"",""time""
""fullscreenenter"",""5"",""89751""
","
","2221.4000000059605","audio/quiz/Q3_Prompt.wav","","1","","","","","","","","","","","","","","","","","",""
"audio-keyboard-response","133","712861","0.0-74.0","1288","4985","21","Female","true","true","true","true","""event"",""trial"",""time""
""blur"",""0"",""0""
""focus"",""1"",""77251""
""fullscreenenter"",""5"",""89751""
","""event"",""trial"",""time""
""blur"",""0"",""0""
","""event"",""trial"",""time""
""focus"",""1"",""77251""
","""event"",""trial"",""time""
""fullscreenenter"",""5"",""89751""
","
","540","audio/quiz/Q3_Correct.wav","32","","","","","","","","","","","","","","","","","","",""
"d3-instructions","134","720811","0.0-75.0","1288","4985","21","Female","true","true","true","true","""event"",""trial"",""time""
""blur"",""0"",""0""
""focus"",""1"",""77251""
""fullscreenenter"",""5"",""89751""
","""event"",""trial"",""time""
""blur"",""0"",""0""
","""event"",""trial"",""time""
""focus"",""1"",""77251""
","""event"",""trial"",""time""
""fullscreenenter"",""5"",""89751""
","
","","","","","","","","","","","","","","","","","","","","","",""
"d3-animate-choice","135","723585","0.0-76.0-0.0","1288","4985","21","Female","true","true","true","true","""event"",""trial"",""time""
""blur"",""0"",""0""
""focus"",""1"",""77251""
""fullscreenenter"",""5"",""89751""
","""event"",""trial"",""time""
""blur"",""0"",""0""
","""event"",""trial"",""time""
""focus"",""1"",""77251""
","""event"",""trial"",""time""
""fullscreenenter"",""5"",""89751""
","
","768.3000000119209","","48","","","3000","1","","","images/earth.jpg","images/rocket2","images/rocket1","null","images/rocket2","","1","real","null","2","","",""
"d3-animate-choice","136","726102","0.0-76.0-1.0","1288","4985","21","Female","true","true","true","true","""event"",""trial"",""time""
""blur"",""0"",""0""
""focus"",""1"",""77251""
""fullscreenenter"",""5"",""89751""
","""event"",""trial"",""time""
""blur"",""0"",""0""
","""event"",""trial"",""time""
""focus"",""1"",""77251""
","""event"",""trial"",""time""
""fullscreenenter"",""5"",""89751""
","
","511.2999999821186","","49","","","3000","1","","","images/redplanet1.jpg","images/alien2","images/alien1","images/rocket2","images/alien1","images/nothing.png","2","real","false","1","rare","0","2022-12-05 21:27:53.535"
"two-step-fixation","137","727108","0.0-76.0-2.0","1288","4985","21","Female","true","true","true","true","""event"",""trial"",""time""
""blur"",""0"",""0""
""focus"",""1"",""77251""
""fullscreenenter"",""5"",""89751""
","""event"",""trial"",""time""
""blur"",""0"",""0""
","""event"",""trial"",""time""
""focus"",""1"",""77251""
","""event"",""trial"",""time""
""fullscreenenter"",""5"",""89751""
","
","","images/earth.jpg","","","","","","","","","","","","","","fixation","","","","","",""
"d3-animate-choice","138","729463","0.0-76.0-0.1","1288","4985","21","Female","true","true","true","true","""event"",""trial"",""time""
""blur"",""0"",""0""
""focus"",""1"",""77251""
""fullscreenenter"",""5"",""89751""
","""event"",""trial"",""time""
""blur"",""0"",""0""
","""event"",""trial"",""time""
""focus"",""1"",""77251""
","""event"",""trial"",""time""
""fullscreenenter"",""5"",""89751""
","
","351","","48","","","3000","1","","","images/earth.jpg","images/rocket2","images/rocket1","null","images/rocket2","","1","real","null","2","","",""
"d3-animate-choice","139","733270","0.0-76.0-1.1","1288","4985","21","Female","true","true","true","true","""event"",""trial"",""time""
""blur"",""0"",""0""
""focus"",""1"",""77251""
""fullscreenenter"",""5"",""89751""
","""event"",""trial"",""time""
""blur"",""0"",""0""
","""event"",""trial"",""time""
""focus"",""1"",""77251""
","""event"",""trial"",""time""
""fullscreenenter"",""5"",""89751""
","
","425.40000000596046","","50","","","3000","1","1803.300000011921","48","images/redplanet1.jpg","images/alien2","images/alien1","images/rocket2","images/alien2","images/t.png","2","real","false","","rare","1","2022-12-05 21:28:00.702"
"two-step-fixation","140","734276","0.0-76.0-2.1","1288","4985","21","Female","true","true","true","true","""event"",""trial"",""time""
""blur"",""0"",""0""
""focus"",""1"",""77251""
""fullscreenenter"",""5"",""89751""
","""event"",""trial"",""time""
""blur"",""0"",""0""
","""event"",""trial"",""time""
""focus"",""1"",""77251""
","""event"",""trial"",""time""
""fullscreenenter"",""5"",""89751""
","
","","images/earth.jpg","","","","","","","","","","","","","","fixation","","","","","",""
"d3-animate-choice","141","736791","0.0-76.0-0.2","1288","4985","21","Female","true","true","true","true","""event"",""trial"",""time""
""blur"",""0"",""0""
""focus"",""1"",""77251""
""fullscreenenter"",""5"",""89751""
","""event"",""trial"",""time""
""blur"",""0"",""0""
","""event"",""trial"",""time""
""focus"",""1"",""77251""
","""event"",""trial"",""time""
""fullscreenenter"",""5"",""89751""
","
","509.5","","48","","","3000","1","","","images/earth.jpg","images/rocket2","images/rocket1","null","images/rocket2","","1","real","null","2","","",""
"d3-animate-choice","142","739723","0.0-76.0-1.2","1288","4985","21","Female","true","true","true","true","""event"",""trial"",""time""
""blur"",""0"",""0""
""focus"",""1"",""77251""
""fullscreenenter"",""5"",""89751""
","""event"",""trial"",""time""
""blur"",""0"",""0""
","""event"",""trial"",""time""
""focus"",""1"",""77251""
","""event"",""trial"",""time""
""fullscreenenter"",""5"",""89751""
","
","927.4000000059605","","49","","","3000","1","","","images/purpleplanet.jpg","images/alien4","images/alien3","images/rocket2","images/alien3","images/nothing.png","2","real","true","1","common","0","2022-12-05 21:28:07.155"
"two-step-fixation","143","740727","0.0-76.0-2.2","1288","4985","21","Female","true","true","true","true","""event"",""trial"",""time""
""blur"",""0"",""0""
""focus"",""1"",""77251""
""fullscreenenter"",""5"",""89751""
","""event"",""trial"",""time""
""blur"",""0"",""0""
","""event"",""trial"",""time""
""focus"",""1"",""77251""
","""event"",""trial"",""time""
""fullscreenenter"",""5"",""89751""
","
","","images/earth.jpg","","","","","","","","","","","","","","fixation","","","","","",""
"d3-animate-choice","144","743163","0.0-76.0-0.3","1288","4985","21","Female","true","true","true","true","""event"",""trial"",""time""
""blur"",""0"",""0""
""focus"",""1"",""77251""
""fullscreenenter"",""5"",""89751""
","""event"",""trial"",""time""
""blur"",""0"",""0""
","""event"",""trial"",""time""
""focus"",""1"",""77251""
","""event"",""trial"",""time""
""fullscreenenter"",""5"",""89751""
","
","431.7000000178814","","48","","","3000","1","","","images/earth.jpg","images/rocket2","images/rocket1","null","images/rocket2","","1","real","null","2","","",""
"d3-animate-choice","145","745720","0.0-76.0-1.3","1288","4985","21","Female","true","true","true","true","""event"",""trial"",""time""
""blur"",""0"",""0""
""focus"",""1"",""77251""
""fullscreenenter"",""5"",""89751""
","""event"",""trial"",""time""
""blur"",""0"",""0""
","""event"",""trial"",""time""
""focus"",""1"",""77251""
","""event"",""trial"",""time""
""fullscreenenter"",""5"",""89751""
","
","553.9000000059605","","48","","","3000","1","","","images/purpleplanet.jpg","images/alien4","images/alien3","images/rocket2","images/alien4","images/t.png","2","real","true","2","common","1","2022-12-05 21:28:13.152"
"two-step-fixation","146","746724","0.0-76.0-2.3","1288","4985","21","Female","true","true","true","true","""event"",""trial"",""time""
""blur"",""0"",""0""
""focus"",""1"",""77251""
""fullscreenenter"",""5"",""89751""
","""event"",""trial"",""time""
""blur"",""0"",""0""
","""event"",""trial"",""time""
""focus"",""1"",""77251""
","""event"",""trial"",""time""
""fullscreenenter"",""5"",""89751""
","
","","images/earth.jpg","","","","","","","","","","","","","","fixation","","","","","",""
"d3-animate-choice","147","749209","0.0-76.0-0.4","1288","4985","21","Female","true","true","true","true","""event"",""trial"",""time""
""blur"",""0"",""0""
""focus"",""1"",""77251""
""fullscreenenter"",""5"",""89751""
","""event"",""trial"",""time""
""blur"",""0"",""0""
","""event"",""trial"",""time""
""focus"",""1"",""77251""
","""event"",""trial"",""time""
""fullscreenenter"",""5"",""89751""
","
","481.5","","48","","","3000","1","","","images/earth.jpg","images/rocket2","images/rocket1","null","images/rocket2","","1","real","null","2","","",""
"d3-animate-choice","148","751812","0.0-76.0-1.4","1288","4985","21","Female","true","true","true","true","""event"",""trial"",""time""
""blur"",""0"",""0""
""focus"",""1"",""77251""
""fullscreenenter"",""5"",""89751""
","""event"",""trial"",""time""
""blur"",""0"",""0""
","""event"",""trial"",""time""
""focus"",""1"",""77251""
","""event"",""trial"",""time""
""fullscreenenter"",""5"",""89751""
","
","598.5","","48","","","3000","1","","","images/purpleplanet.jpg","images/alien4","images/alien3","images/rocket2","images/alien4","images/t.png","2","real","true","2","common","1","2022-12-05 21:28:19.244"
"two-step-fixation","149","752820","0.0-76.0-2.4","1288","4985","21","Female","true","true","true","true","""event"",""trial"",""time""
""blur"",""0"",""0""
""focus"",""1"",""77251""
""fullscreenenter"",""5"",""89751""
","""event"",""trial"",""time""
""blur"",""0"",""0""
","""event"",""trial"",""time""
""focus"",""1"",""77251""
","""event"",""trial"",""time""
""fullscreenenter"",""5"",""89751""
","
","","images/earth.jpg","","","","","","","","","","","","","","fixation","","","","","",""
"d3-animate-choice","150","755334","0.0-76.0-0.5","1288","4985","21","Female","true","true","true","true","""event"",""trial"",""time""
""blur"",""0"",""0""
""focus"",""1"",""77251""
""fullscreenenter"",""5"",""89751""
","""event"",""trial"",""time""
""blur"",""0"",""0""
","""event"",""trial"",""time""
""focus"",""1"",""77251""
","""event"",""trial"",""time""
""fullscreenenter"",""5"",""89751""
","
","509.89999997615814","","48","","","3000","1","","","images/earth.jpg","images/rocket2","images/rocket1","null","images/rocket2","","1","real","null","2","","",""
"d3-animate-choice","151","757736","0.0-76.0-1.5","1288","4985","21","Female","true","true","true","true","""event"",""trial"",""time""
""blur"",""0"",""0""
""focus"",""1"",""77251""
""fullscreenenter"",""5"",""89751""
","""event"",""trial"",""time""
""blur"",""0"",""0""
","""event"",""trial"",""time""
""focus"",""1"",""77251""
","""event"",""trial"",""time""
""fullscreenenter"",""5"",""89751""
","
","396.09999999403954","","48","","","3000","1","","","images/purpleplanet.jpg","images/alien4","images/alien3","images/rocket2","images/alien4","images/t.png","2","real","true","2","common","1","2022-12-05 21:28:25.168"
"two-step-fixation","152","758742","0.0-76.0-2.5","1288","4985","21","Female","true","true","true","true","""event"",""trial"",""time""
""blur"",""0"",""0""
""focus"",""1"",""77251""
""fullscreenenter"",""5"",""89751""
","""event"",""trial"",""time""
""blur"",""0"",""0""
","""event"",""trial"",""time""
""focus"",""1"",""77251""
","""event"",""trial"",""time""
""fullscreenenter"",""5"",""89751""
","
","","images/earth.jpg","","","","","","","","","","","","","","fixation","","","","","",""
"d3-animate-choice","153","761160","0.0-76.0-0.6","1288","4985","21","Female","true","true","true","true","""event"",""trial"",""time""
""blur"",""0"",""0""
""focus"",""1"",""77251""
""fullscreenenter"",""5"",""89751""
","""event"",""trial"",""time""
""blur"",""0"",""0""
","""event"",""trial"",""time""
""focus"",""1"",""77251""
","""event"",""trial"",""time""
""fullscreenenter"",""5"",""89751""
","
","414.59999999403954","","48","","","3000","1","","","images/earth.jpg","images/rocket2","images/rocket1","null","images/rocket2","","1","real","null","2","","",""
"d3-animate-choice","154","763572","0.0-76.0-1.6","1288","4985","21","Female","true","true","true","true","""event"",""trial"",""time""
""blur"",""0"",""0""
""focus"",""1"",""77251""
""fullscreenenter"",""5"",""89751""
","""event"",""trial"",""time""
""blur"",""0"",""0""
","""event"",""trial"",""time""
""focus"",""1"",""77251""
","""event"",""trial"",""time""
""fullscreenenter"",""5"",""89751""
","
","407.2000000178814","","48","","","3000","1","","","images/purpleplanet.jpg","images/alien4","images/alien3","images/rocket2","images/alien4","images/nothing.png","2","real","true","2","common","0","2022-12-05 21:28:31.004"
"two-step-fixation","155","764576","0.0-76.0-2.6","1288","4985","21","Female","true","true","true","true","""event"",""trial"",""time""
""blur"",""0"",""0""
""focus"",""1"",""77251""
""fullscreenenter"",""5"",""89751""
","""event"",""trial"",""time""
""blur"",""0"",""0""
","""event"",""trial"",""time""
""focus"",""1"",""77251""
","""event"",""trial"",""time""
""fullscreenenter"",""5"",""89751""
","
","","images/earth.jpg","","","","","","","","","","","","","","fixation","","","","","",""
"d3-animate-choice","156","767110","0.0-76.0-0.7","1288","4985","21","Female","true","true","true","true","""event"",""trial"",""time""
""blur"",""0"",""0""
""focus"",""1"",""77251""
""fullscreenenter"",""5"",""89751""
","""event"",""trial"",""time""
""blur"",""0"",""0""
","""event"",""trial"",""time""
""focus"",""1"",""77251""
","""event"",""trial"",""time""
""fullscreenenter"",""5"",""89751""
","
","529.5999999940395","","48","","","3000","1","","","images/earth.jpg","images/rocket2","images/rocket1","null","images/rocket2","","1","real","null","2","","",""
"d3-animate-choice","157","769597","0.0-76.0-1.7","1288","4985","21","Female","true","true","true","true","""event"",""trial"",""time""
""blur"",""0"",""0""
""focus"",""1"",""77251""
""fullscreenenter"",""5"",""89751""
","""event"",""trial"",""time""
""blur"",""0"",""0""
","""event"",""trial"",""time""
""focus"",""1"",""77251""
","""event"",""trial"",""time""
""fullscreenenter"",""5"",""89751""
","
","482.80000001192093","","48","","","3000","1","","","images/purpleplanet.jpg","images/alien4","images/alien3","images/rocket2","images/alien4","images/nothing.png","2","real","true","2","common","0","2022-12-05 21:28:37.030"
"two-step-fixation","158","770602","0.0-76.0-2.7","1288","4985","21","Female","true","true","true","true","""event"",""trial"",""time""
""blur"",""0"",""0""
""focus"",""1"",""77251""
""fullscreenenter"",""5"",""89751""
","""event"",""trial"",""time""
""blur"",""0"",""0""
","""event"",""trial"",""time""
""focus"",""1"",""77251""
","""event"",""trial"",""time""
""fullscreenenter"",""5"",""89751""
","
","","images/earth.jpg","","","","","","","","","","","","","","fixation","","","","","",""
"d3-animate-choice","159","773106","0.0-76.0-0.8","1288","4985","21","Female","true","true","true","true","""event"",""trial"",""time""
""blur"",""0"",""0""
""focus"",""1"",""77251""
""fullscreenenter"",""5"",""89751""
","""event"",""trial"",""time""
""blur"",""0"",""0""
","""event"",""trial"",""time""
""focus"",""1"",""77251""
","""event"",""trial"",""time""
""fullscreenenter"",""5"",""89751""
","
","501.40000000596046","","48","","","3000","1","","","images/earth.jpg","images/rocket2","images/rocket1","null","images/rocket2","","1","real","null","2","","",""
"d3-animate-choice","160","776198","0.0-76.0-1.8","1288","4985","21","Female","true","true","true","true","""event"",""trial"",""time""
""blur"",""0"",""0""
""focus"",""1"",""77251""
""fullscreenenter"",""5"",""89751""
","""event"",""trial"",""time""
""blur"",""0"",""0""
","""event"",""trial"",""time""
""focus"",""1"",""77251""
","""event"",""trial"",""time""
""fullscreenenter"",""5"",""89751""
","
","1089.0999999940395","","48","","","3000","1","","","images/redplanet1.jpg","images/alien2","images/alien1","images/rocket2","images/alien2","images/t.png","2","real","false","2","rare","1","2022-12-05 21:28:43.630"
"two-step-fixation","161","777202","0.0-76.0-2.8","1288","4985","21","Female","true","true","true","true","""event"",""trial"",""time""
""blur"",""0"",""0""
""focus"",""1"",""77251""
""fullscreenenter"",""5"",""89751""
","""event"",""trial"",""time""
""blur"",""0"",""0""
","""event"",""trial"",""time""
""focus"",""1"",""77251""
","""event"",""trial"",""time""
""fullscreenenter"",""5"",""89751""
","
","","images/earth.jpg","","","","","","","","","","","","","","fixation","","","","","",""
"d3-animate-choice","162","779830","0.0-76.0-0.9","1288","4985","21","Female","true","true","true","true","""event"",""trial"",""time""
""blur"",""0"",""0""
""focus"",""1"",""77251""
""fullscreenenter"",""5"",""89751""
","""event"",""trial"",""time""
""blur"",""0"",""0""
","""event"",""trial"",""time""
""focus"",""1"",""77251""
","""event"",""trial"",""time""
""fullscreenenter"",""5"",""89751""
","
","623.8000000119209","","49","","","3000","1","","","images/earth.jpg","images/rocket2","images/rocket1","null","images/rocket1","","1","real","null","1","","",""
"d3-animate-choice","163","782775","0.0-76.0-1.9","1288","4985","21","Female","true","true","true","true","""event"",""trial"",""time""
""blur"",""0"",""0""
""focus"",""1"",""77251""
""fullscreenenter"",""5"",""89751""
","""event"",""trial"",""time""
""blur"",""0"",""0""
","""event"",""trial"",""time""
""focus"",""1"",""77251""
","""event"",""trial"",""time""
""fullscreenenter"",""5"",""89751""
","
","937.8000000119209","","48","","","3000","1","","","images/purpleplanet.jpg","images/alien4","images/alien3","images/rocket1","images/alien4","images/nothing.png","2","real","false","2","rare","0","2022-12-05 21:28:50.207"
"two-step-fixation","164","783779","0.0-76.0-2.9","1288","4985","21","Female","true","true","true","true","""event"",""trial"",""time""
""blur"",""0"",""0""
""focus"",""1"",""77251""
""fullscreenenter"",""5"",""89751""
","""event"",""trial"",""time""
""blur"",""0"",""0""
","""event"",""trial"",""time""
""focus"",""1"",""77251""
","""event"",""trial"",""time""
""fullscreenenter"",""5"",""89751""
","
","","images/earth.jpg","","","","","","","","","","","","","","fixation","","","","","",""
"d3-animate-choice","165","786173","0.0-76.0-0.10","1288","4985","21","Female","true","true","true","true","""event"",""trial"",""time""
""blur"",""0"",""0""
""focus"",""1"",""77251""
""fullscreenenter"",""5"",""89751""
","""event"",""trial"",""time""
""blur"",""0"",""0""
","""event"",""trial"",""time""
""focus"",""1"",""77251""
","""event"",""trial"",""time""
""fullscreenenter"",""5"",""89751""
","
","390.19999998807907","","49","","","3000","1","","","images/earth.jpg","images/rocket2","images/rocket1","null","images/rocket1","","1","real","null","1","","",""
"d3-animate-choice","166","789137","0.0-76.0-1.10","1288","4985","21","Female","true","true","true","true","""event"",""trial"",""time""
""blur"",""0"",""0""
""focus"",""1"",""77251""
""fullscreenenter"",""5"",""89751""
","""event"",""trial"",""time""
""blur"",""0"",""0""
","""event"",""trial"",""time""
""focus"",""1"",""77251""
","""event"",""trial"",""time""
""fullscreenenter"",""5"",""89751""
","
","960.8999999761581","","49","","","3000","1","","","images/purpleplanet.jpg","images/alien4","images/alien3","images/rocket1","images/alien3","images/nothing.png","2","real","false","1","rare","0","2022-12-05 21:28:56.569"
"two-step-fixation","167","790141","0.0-76.0-2.10","1288","4985","21","Female","true","true","true","true","""event"",""trial"",""time""
""blur"",""0"",""0""
""focus"",""1"",""77251""
""fullscreenenter"",""5"",""89751""
","""event"",""trial"",""time""
""blur"",""0"",""0""
","""event"",""trial"",""time""
""focus"",""1"",""77251""
","""event"",""trial"",""time""
""fullscreenenter"",""5"",""89751""
","
","","images/earth.jpg","","","","","","","","","","","","","","fixation","","","","","",""
"d3-animate-choice","168","792581","0.0-76.0-0.11","1288","4985","21","Female","true","true","true","true","""event"",""trial"",""time""
""blur"",""0"",""0""
""focus"",""1"",""77251""
""fullscreenenter"",""5"",""89751""
","""event"",""trial"",""time""
""blur"",""0"",""0""
","""event"",""trial"",""time""
""focus"",""1"",""77251""
","""event"",""trial"",""time""
""fullscreenenter"",""5"",""89751""
","
","436.5","","48","","","3000","1","","","images/earth.jpg","images/rocket2","images/rocket1","null","images/rocket2","","1","real","null","2","","",""
"d3-animate-choice","169","795224","0.0-76.0-1.11","1288","4985","21","Female","true","true","true","true","""event"",""trial"",""time""
""blur"",""0"",""0""
""focus"",""1"",""77251""
""fullscreenenter"",""5"",""89751""
","""event"",""trial"",""time""
""blur"",""0"",""0""
","""event"",""trial"",""time""
""focus"",""1"",""77251""
","""event"",""trial"",""time""
""fullscreenenter"",""5"",""89751""
","
","640.0999999940395","","48","","","3000","1","","","images/redplanet1.jpg","images/alien2","images/alien1","images/rocket2","images/alien2","images/t.png","2","real","false","2","rare","1","2022-12-05 21:29:02.656"
"two-step-fixation","170","796227","0.0-76.0-2.11","1288","4985","21","Female","true","true","true","true","""event"",""trial"",""time""
""blur"",""0"",""0""
""focus"",""1"",""77251""
""fullscreenenter"",""5"",""89751""
","""event"",""trial"",""time""
""blur"",""0"",""0""
","""event"",""trial"",""time""
""focus"",""1"",""77251""
","""event"",""trial"",""time""
""fullscreenenter"",""5"",""89751""
","
","","images/earth.jpg","","","","","","","","","","","","","","fixation","","","","","",""
"d3-animate-choice","171","798698","0.0-76.0-0.12","1288","4985","21","Female","true","true","true","true","""event"",""trial"",""time""
""blur"",""0"",""0""
""focus"",""1"",""77251""
""fullscreenenter"",""5"",""89751""
","""event"",""trial"",""time""
""blur"",""0"",""0""
","""event"",""trial"",""time""
""focus"",""1"",""77251""
","""event"",""trial"",""time""
""fullscreenenter"",""5"",""89751""
","
","467","","48","","","3000","1","","","images/earth.jpg","images/rocket2","images/rocket1","null","images/rocket2","","1","real","null","2","","",""
"d3-animate-choice","172","801439","0.0-76.0-1.12","1288","4985","21","Female","true","true","true","true","""event"",""trial"",""time""
""blur"",""0"",""0""
""focus"",""1"",""77251""
""fullscreenenter"",""5"",""89751""
","""event"",""trial"",""time""
""blur"",""0"",""0""
","""event"",""trial"",""time""
""focus"",""1"",""77251""
","""event"",""trial"",""time""
""fullscreenenter"",""5"",""89751""
","
","734.6000000238419","","48","","","3000","1","","","images/purpleplanet.jpg","images/alien4","images/alien3","images/rocket2","images/alien4","images/nothing.png","2","real","true","2","common","0","2022-12-05 21:29:08.871"
"two-step-fixation","173","802442","0.0-76.0-2.12","1288","4985","21","Female","true","true","true","true","""event"",""trial"",""time""
""blur"",""0"",""0""
""focus"",""1"",""77251""
""fullscreenenter"",""5"",""89751""
","""event"",""trial"",""time""
""blur"",""0"",""0""
","""event"",""trial"",""time""
""focus"",""1"",""77251""
","""event"",""trial"",""time""
""fullscreenenter"",""5"",""89751""
","
","","images/earth.jpg","","","","","","","","","","","","","","fixation","","","","","",""
"d3-animate-choice","174","804872","0.0-76.0-0.13","1288","4985","21","Female","true","true","true","true","""event"",""trial"",""time""
""blur"",""0"",""0""
""focus"",""1"",""77251""
""fullscreenenter"",""5"",""89751""
","""event"",""trial"",""time""
""blur"",""0"",""0""
","""event"",""trial"",""time""
""focus"",""1"",""77251""
","""event"",""trial"",""time""
""fullscreenenter"",""5"",""89751""
","
","427","","48","","","3000","1","","","images/earth.jpg","images/rocket2","images/rocket1","null","images/rocket2","","1","real","null","2","","",""
"d3-animate-choice","175","807330","0.0-76.0-1.13","1288","4985","21","Female","true","true","true","true","""event"",""trial"",""time""
""blur"",""0"",""0""
""focus"",""1"",""77251""
""fullscreenenter"",""5"",""89751""
","""event"",""trial"",""time""
""blur"",""0"",""0""
","""event"",""trial"",""time""
""focus"",""1"",""77251""
","""event"",""trial"",""time""
""fullscreenenter"",""5"",""89751""
","
","450.59999999403954","","48","","","3000","1","","","images/purpleplanet.jpg","images/alien4","images/alien3","images/rocket2","images/alien4","images/nothing.png","2","real","true","2","common","0","2022-12-05 21:29:14.762"
"two-step-fixation","176","808335","0.0-76.0-2.13","1288","4985","21","Female","true","true","true","true","""event"",""trial"",""time""
""blur"",""0"",""0""
""focus"",""1"",""77251""
""fullscreenenter"",""5"",""89751""
","""event"",""trial"",""time""
""blur"",""0"",""0""
","""event"",""trial"",""time""
""focus"",""1"",""77251""
","""event"",""trial"",""time""
""fullscreenenter"",""5"",""89751""
","
","","images/earth.jpg","","","","","","","","","","","","","","fixation","","","","","",""
"d3-animate-choice","177","810716","0.0-76.0-0.14","1288","4985","21","Female","true","true","true","true","""event"",""trial"",""time""
""blur"",""0"",""0""
""focus"",""1"",""77251""
""fullscreenenter"",""5"",""89751""
","""event"",""trial"",""time""
""blur"",""0"",""0""
","""event"",""trial"",""time""
""focus"",""1"",""77251""
","""event"",""trial"",""time""
""fullscreenenter"",""5"",""89751""
","
","374.39999997615814","","48","","","3000","1","","","images/earth.jpg","images/rocket2","images/rocket1","null","images/rocket2","","1","real","null","2","","",""
"d3-animate-choice","178","813204","0.0-76.0-1.14","1288","4985","21","Female","true","true","true","true","""event"",""trial"",""time""
""blur"",""0"",""0""
""focus"",""1"",""77251""
""fullscreenenter"",""5"",""89751""
","""event"",""trial"",""time""
""blur"",""0"",""0""
","""event"",""trial"",""time""
""focus"",""1"",""77251""
","""event"",""trial"",""time""
""fullscreenenter"",""5"",""89751""
","
","485.90000000596046","","48","","","3000","1","","","images/purpleplanet.jpg","images/alien4","images/alien3","images/rocket2","images/alien4","images/t.png","2","real","true","2","common","1","2022-12-05 21:29:20.636"
"two-step-fixation","179","814209","0.0-76.0-2.14","1288","4985","21","Female","true","true","true","true","""event"",""trial"",""time""
""blur"",""0"",""0""
""focus"",""1"",""77251""
""fullscreenenter"",""5"",""89751""
","""event"",""trial"",""time""
""blur"",""0"",""0""
","""event"",""trial"",""time""
""focus"",""1"",""77251""
","""event"",""trial"",""time""
""fullscreenenter"",""5"",""89751""
","
","","images/earth.jpg","","","","","","","","","","","","","","fixation","","","","","",""
"d3-animate-choice","180","816620","0.0-76.0-0.15","1288","4985","21","Female","true","true","true","true","""event"",""trial"",""time""
""blur"",""0"",""0""
