"trial_type","trial_index","time_elapsed","internal_node_id","participant_id","subject_id","age","gender","rocket_sides","red_planet_first_rocket","red_display_order","purple_display_order","interactions","blur_events","focus_events","fullscreenenter_events","fullscreenexit_events","rt","stimulus","key_press","button_pressed","success","duration","valid_pressed","rts","keys","planet_text","right_text","left_text","center_text","chosen_text","reward_text","trial_stage","practice_trial","transition_type","choice","transition","reward","timestamp"
"pavlovia","0","4","0.0-0.0","2874","5008","10","Male","true","true","true","false","
","
","
","
","
","","","","","","","","","","","","","","","","","","","","","",""
"html-keyboard-response","1","3884","0.0-1.0","2874","5008","10","Male","true","true","true","false","
","
","
","
","
","3879.900000035763","Welcome! Press the space bar to begin.","32","","","","","","","","","","","","","","","","","","",""
"audio-keyboard-response","2","6356","0.0-2.0","2874","5008","10","Male","true","true","true","false","
","
","
","
","
","2473","audio/beep_loop.wav","32","","","","","","","","","","","","","","","","","","",""
"audio-button-response","3","10332","0.0-3.0","2874","5008","10","Male","true","true","true","false","
","
","
","
","
","NaN","audio/fish.mp3","","1","","","","","","","","","","","","","","","","","",""
"audio-button-response","4","15033","0.0-4.0","2874","5008","10","Male","true","true","true","false","""event"",""trial"",""time""
""fullscreenenter"",""5"",""20951""
","
","
","""event"",""trial"",""time""
""fullscreenenter"",""5"",""20951""
","
","NaN","audio/tiger.mp3","","4","","","","","","","","","","","","","","","","","",""
"fullscreen","5","21948","0.0-5.0","2874","5008","10","Male","true","true","true","false","""event"",""trial"",""time""
""fullscreenenter"",""5"",""20951""
","
","
","""event"",""trial"",""time""
""fullscreenenter"",""5"",""20951""
","
","","","","","true","","","","","","","","","","","","","","","","",""
"d3-instructions","6","34763","0.0-6.0","2874","5008","10","Male","true","true","true","false","""event"",""trial"",""time""
""fullscreenenter"",""5"",""20951""
","
","
","""event"",""trial"",""time""
""fullscreenenter"",""5"",""20951""
","
","","","","","","","","","","","","","","","","","","","","","",""
"d3-instructions","7","37031","0.0-7.0","2874","5008","10","Male","true","true","true","false","""event"",""trial"",""time""
""fullscreenenter"",""5"",""20951""
","
","
","""event"",""trial"",""time""
""fullscreenenter"",""5"",""20951""
","
","","","","","","","","","","","","","","","","","","","","","",""
"d3-instructions","8","39031","0.0-8.0","2874","5008","10","Male","true","true","true","false","""event"",""trial"",""time""
""fullscreenenter"",""5"",""20951""
","
","
","""event"",""trial"",""time""
""fullscreenenter"",""5"",""20951""
","
","","","","","","","","","","","","","","","","","","","","","",""
"d3-instructions","9","40713","0.0-9.0","2874","5008","10","Male","true","true","true","false","""event"",""trial"",""time""
""fullscreenenter"",""5"",""20951""
","
","
","""event"",""trial"",""time""
""fullscreenenter"",""5"",""20951""
","
","","","","","","","","","","","","","","","","","","","","","",""
"d3-instructions","10","42658","0.0-10.0","2874","5008","10","Male","true","true","true","false","""event"",""trial"",""time""
""fullscreenenter"",""5"",""20951""
","
","
","""event"",""trial"",""time""
""fullscreenenter"",""5"",""20951""
","
","","","","","","","","","","","","","","","","","","","","","",""
"d3-animate-choice","11","47373","0.0-11.0","2874","5008","10","Male","true","true","true","false","""event"",""trial"",""time""
""fullscreenenter"",""5"",""20951""
","
","
","""event"",""trial"",""time""
""fullscreenenter"",""5"",""20951""
","
","2705.399999976158","","49","","","3000","1","","","images/tutgreenplanet.jpg","images/tutalien1","images/tutalien2","null","images/tutalien2","","NA","practice","null","","","",""
"d3-animate-choice","12","50485","0.0-12.0","2874","5008","10","Male","true","true","true","false","""event"",""trial"",""time""
""fullscreenenter"",""5"",""20951""
","
","
","""event"",""trial"",""time""
""fullscreenenter"",""5"",""20951""
","
","1109.199999988079","","48","","","3000","1","","","images/tutgreenplanet.jpg","images/tutalien1","images/tutalien2","null","images/tutalien1","","NA","practice","null","","","",""
"d3-animate-choice","13","53165","0.0-13.0","2874","5008","10","Male","true","true","true","false","""event"",""trial"",""time""
""fullscreenenter"",""5"",""20951""
","
","
","""event"",""trial"",""time""
""fullscreenenter"",""5"",""20951""
","
","672.6999999880791","","49","","","3000","1","","","images/tutgreenplanet.jpg","images/tutalien1","images/tutalien2","null","images/tutalien2","","NA","practice","null","","","",""
"d3-animate-choice","14","56205","0.0-14.0","2874","5008","10","Male","true","true","true","false","""event"",""trial"",""time""
""fullscreenenter"",""5"",""20951""
","
","
","""event"",""trial"",""time""
""fullscreenenter"",""5"",""20951""
","
","1031","","48","","","3000","1","","","images/tutgreenplanet.jpg","images/tutalien1","images/tutalien2","null","images/tutalien1","","NA","practice","null","","","",""
"d3-instructions","15","58923","0.0-15.0","2874","5008","10","Male","true","true","true","false","""event"",""trial"",""time""
""fullscreenenter"",""5"",""20951""
","
","
","""event"",""trial"",""time""
""fullscreenenter"",""5"",""20951""
","
","","","","","","","","","","","","","","","","","","","","","",""
"d3-instructions","16","59376","0.0-16.0","2874","5008","10","Male","true","true","true","false","""event"",""trial"",""time""
""fullscreenenter"",""5"",""20951""
","
","
","""event"",""trial"",""time""
""fullscreenenter"",""5"",""20951""
","
","","","","","","","","","","","","","","","","","","","","","",""
"d3-instructions","17","59620","0.0-17.0","2874","5008","10","Male","true","true","true","false","""event"",""trial"",""time""
""fullscreenenter"",""5"",""20951""
","
","
","""event"",""trial"",""time""
""fullscreenenter"",""5"",""20951""
","
","","","","","","","","","","","","","","","","","","","","","",""
"d3-instructions","18","59838","0.0-18.0","2874","5008","10","Male","true","true","true","false","""event"",""trial"",""time""
""fullscreenenter"",""5"",""20951""
","
","
","""event"",""trial"",""time""
""fullscreenenter"",""5"",""20951""
","
","","","","","","","","","","","","","","","","","","","","","",""
"d3-instructions","19","60078","0.0-19.0","2874","5008","10","Male","true","true","true","false","""event"",""trial"",""time""
""fullscreenenter"",""5"",""20951""
","
","
","""event"",""trial"",""time""
""fullscreenenter"",""5"",""20951""
","
","","","","","","","","","","","","","","","","","","","","","",""
"d3-animate-choice","20","63309","0.0-20.0","2874","5008","10","Male","true","true","true","false","""event"",""trial"",""time""
""fullscreenenter"",""5"",""20951""
","
","
","""event"",""trial"",""time""
""fullscreenenter"",""5"",""20951""
","
","1225.800000011921","","49","","","3000","1","3046.600000023842","49","images/tutyellowplanet.jpg","null","images/tutalien3","null","images/tutalien3","images/t.png","NA","practice","null","","","",""
"d3-animate-choice","21","65725","0.0-21.0","2874","5008","10","Male","true","true","true","false","""event"",""trial"",""time""
""fullscreenenter"",""5"",""20951""
","
","
","""event"",""trial"",""time""
""fullscreenenter"",""5"",""20951""
","
","407.5","","49","","","3000","1","670.3000000119209,961.6000000238419,1208.8999999761581,1625.3999999761581,2206.600000023842","49,49,49,49,49","images/tutyellowplanet.jpg","null","images/tutalien3","null","images/tutalien3","images/t.png","NA","practice","null","","","",""
"d3-animate-choice","22","67853","0.0-22.0","2874","5008","10","Male","true","true","true","false","""event"",""trial"",""time""
""fullscreenenter"",""5"",""20951""
","
","
","""event"",""trial"",""time""
""fullscreenenter"",""5"",""20951""
","
","119.80000001192093","","49","","","3000","1","423.80000001192093,763.5,1141.6000000238419,1419.5,1734.199999988079,2038.6000000238419","49,49,49,49,49,49","images/tutyellowplanet.jpg","null","images/tutalien3","null","images/tutalien3","images/nothing.png","NA","practice","null","","","",""
"d3-animate-choice","23","70014","0.0-23.0","2874","5008","10","Male","true","true","true","false","""event"",""trial"",""time""
""fullscreenenter"",""5"",""20951""
","
","
","""event"",""trial"",""time""
""fullscreenenter"",""5"",""20951""
","
","154.5","","49","","","3000","1","419.39999997615814,711.8000000119209,977.0999999642372,1263.800000011921,1528.5999999642372,1948.300000011921","49,49,49,49,49,49","images/tutyellowplanet.jpg","null","images/tutalien3","null","images/tutalien3","images/t.png","NA","practice","null","","","",""
"d3-animate-choice","24","72156","0.0-24.0","2874","5008","10","Male","true","true","true","false","""event"",""trial"",""time""
""fullscreenenter"",""5"",""20951""
","
","
","""event"",""trial"",""time""
""fullscreenenter"",""5"",""20951""
","
","138.5999999642372","","49","","","3000","1","426.5,902.5999999642372,1236.300000011921,1489.199999988079,1765.5,2057.599999964237","49,49,49,49,49,49","images/tutyellowplanet.jpg","null","images/tutalien3","null","images/tutalien3","images/t.png","NA","practice","null","","","",""
"d3-animate-choice","25","74390","0.0-25.0","2874","5008","10","Male","true","true","true","false","""event"",""trial"",""time""
""fullscreenenter"",""5"",""20951""
","
","
","""event"",""trial"",""time""
""fullscreenenter"",""5"",""20951""
","
","226.39999997615814","","49","","","3000","1","487.89999997615814,752.3999999761581,995,1277.199999988079,1572.800000011921,1871.8999999761581,2169.300000011921","49,49,49,49,49,49,49","images/tutyellowplanet.jpg","null","images/tutalien3","null","images/tutalien3","images/t.png","NA","practice","null","","","",""
"d3-animate-choice","26","76597","0.0-26.0","2874","5008","10","Male","true","true","true","false","""event"",""trial"",""time""
""fullscreenenter"",""5"",""20951""
","
","
","""event"",""trial"",""time""
""fullscreenenter"",""5"",""20951""
","
","202.39999997615814","","49","","","3000","1","573.3999999761581,923.3999999761581,1195.3999999761581,1610.3999999761581,1912.0999999642372","49,49,49,49,49","images/tutyellowplanet.jpg","null","images/tutalien3","null","images/tutalien3","images/nothing.png","NA","practice","null","","","",""
"d3-animate-choice","27","78662","0.0-27.0","2874","5008","10","Male","true","true","true","false","""event"",""trial"",""time""
""fullscreenenter"",""5"",""20951""
","
","
","""event"",""trial"",""time""
""fullscreenenter"",""5"",""20951""
","
","55.39999997615814","","49","","","3000","1","474.5,808.1999999880791,1202,1909.1000000238419","49,49,49,49","images/tutyellowplanet.jpg","null","images/tutalien3","null","images/tutalien3","images/t.png","NA","practice","null","","","",""
"d3-animate-choice","28","81102","0.0-28.0","2874","5008","10","Male","true","true","true","false","""event"",""trial"",""time""
""fullscreenenter"",""5"",""20951""
","
","
","""event"",""trial"",""time""
""fullscreenenter"",""5"",""20951""
","
","429.60000002384186","","49","","","3000","1","718.4000000357628,1318.199999988079,1770.199999988079,2169.199999988079","49,49,49,49","images/tutyellowplanet.jpg","null","images/tutalien3","null","images/tutalien3","images/t.png","NA","practice","null","","","",""
"d3-animate-choice","29","83557","0.0-29.0","2874","5008","10","Male","true","true","true","false","""event"",""trial"",""time""
""fullscreenenter"",""5"",""20951""
","
","
","""event"",""trial"",""time""
""fullscreenenter"",""5"",""20951""
","
","451.5","","49","","","3000","1","997.1999999880791,1729.300000011921,2102.5","49,49,49","images/tutyellowplanet.jpg","null","images/tutalien3","null","images/tutalien3","images/t.png","NA","practice","null","","","",""
"d3-instructions","30","87511","0.0-30.0","2874","5008","10","Male","true","true","true","false","""event"",""trial"",""time""
""fullscreenenter"",""5"",""20951""
","
","
","""event"",""trial"",""time""
""fullscreenenter"",""5"",""20951""
","
","","","","","","","","","","","","","","","","","","","","","",""
"d3-instructions","31","87964","0.0-31.0","2874","5008","10","Male","true","true","true","false","""event"",""trial"",""time""
""fullscreenenter"",""5"",""20951""
","
","
","""event"",""trial"",""time""
""fullscreenenter"",""5"",""20951""
","
","","","","","","","","","","","","","","","","","","","","","",""
"d3-instructions","32","88465","0.0-32.0","2874","5008","10","Male","true","true","true","false","""event"",""trial"",""time""
""fullscreenenter"",""5"",""20951""
","
","
","""event"",""trial"",""time""
""fullscreenenter"",""5"",""20951""
","
","","","","","","","","","","","","","","","","","","","","","",""
"d3-instructions","33","88916","0.0-33.0","2874","5008","10","Male","true","true","true","false","""event"",""trial"",""time""
""fullscreenenter"",""5"",""20951""
","
","
","""event"",""trial"",""time""
""fullscreenenter"",""5"",""20951""
","
","","","","","","","","","","","","","","","","","","","","","",""
"d3-animate-choice","34","92062","0.0-34.0","2874","5008","10","Male","true","true","true","false","""event"",""trial"",""time""
""fullscreenenter"",""5"",""20951""
","
","
","""event"",""trial"",""time""
""fullscreenenter"",""5"",""20951""
","
","212.10000002384186","","32","","","3000","1","1141.699999988079","49","images/tutgreenplanet.jpg","images/tutalien1","images/tutalien2","null","images/tutalien2","images/t.png","NA","practice","null","","","",""
"d3-animate-choice","35","94358","0.0-35.0","2874","5008","10","Male","true","true","true","false","""event"",""trial"",""time""
""fullscreenenter"",""5"",""20951""
","
","
","""event"",""trial"",""time""
""fullscreenenter"",""5"",""20951""
","
","286","","49","","","3000","1","","","images/tutgreenplanet.jpg","images/tutalien1","images/tutalien2","null","images/tutalien2","images/t.png","NA","practice","null","","","",""
"d3-animate-choice","36","96926","0.0-36.0","2874","5008","10","Male","true","true","true","false","""event"",""trial"",""time""
""fullscreenenter"",""5"",""20951""
","
","
","""event"",""trial"",""time""
""fullscreenenter"",""5"",""20951""
","
","560.6999999880791","","48","","","3000","1","","","images/tutgreenplanet.jpg","images/tutalien1","images/tutalien2","null","images/tutalien1","images/nothing.png","NA","practice","null","","","",""
"d3-animate-choice","37","99526","0.0-37.0","2874","5008","10","Male","true","true","true","false","""event"",""trial"",""time""
""fullscreenenter"",""5"",""20951""
","
","
","""event"",""trial"",""time""
""fullscreenenter"",""5"",""20951""
","
","592.8999999761581","","49","","","3000","1","","","images/tutgreenplanet.jpg","images/tutalien1","images/tutalien2","null","images/tutalien2","images/t.png","NA","practice","null","","","",""
"d3-animate-choice","38","101806","0.0-38.0","2874","5008","10","Male","true","true","true","false","""event"",""trial"",""time""
""fullscreenenter"",""5"",""20951""
","
","
","""event"",""trial"",""time""
""fullscreenenter"",""5"",""20951""
","
","270.89999997615814","","48","","","3000","1","","","images/tutgreenplanet.jpg","images/tutalien1","images/tutalien2","null","images/tutalien1","images/nothing.png","NA","practice","null","","","",""
"d3-animate-choice","39","104229","0.0-39.0","2874","5008","10","Male","true","true","true","false","""event"",""trial"",""time""
""fullscreenenter"",""5"",""20951""
","
","
","""event"",""trial"",""time""
""fullscreenenter"",""5"",""20951""
","
","418.5","","49","","","3000","1","","","images/tutgreenplanet.jpg","images/tutalien1","images/tutalien2","null","images/tutalien2","images/t.png","NA","practice","null","","","",""
"d3-animate-choice","40","106518","0.0-40.0","2874","5008","10","Male","true","true","true","false","""event"",""trial"",""time""
""fullscreenenter"",""5"",""20951""
","
","
","""event"",""trial"",""time""
""fullscreenenter"",""5"",""20951""
","
","278.5","","48","","","3000","1","","","images/tutgreenplanet.jpg","images/tutalien1","images/tutalien2","null","images/tutalien1","images/nothing.png","NA","practice","null","","","",""
"d3-animate-choice","41","109894","0.0-41.0","2874","5008","10","Male","true","true","true","false","""event"",""trial"",""time""
""fullscreenenter"",""5"",""20951""
","
","
","""event"",""trial"",""time""
""fullscreenenter"",""5"",""20951""
","
","1371.3999999761581","","49","","","3000","1","","","images/tutgreenplanet.jpg","images/tutalien1","images/tutalien2","null","images/tutalien2","images/t.png","NA","practice","null","","","",""
"d3-animate-choice","42","112749","0.0-42.0","2874","5008","10","Male","true","true","true","false","""event"",""trial"",""time""
""fullscreenenter"",""5"",""20951""
","
","
","""event"",""trial"",""time""
""fullscreenenter"",""5"",""20951""
","
","847.3000000119209","","48","","","3000","1","","","images/tutgreenplanet.jpg","images/tutalien1","images/tutalien2","null","images/tutalien1","images/nothing.png","NA","practice","null","","","",""
"d3-animate-choice","43","115749","0.0-43.0","2874","5008","10","Male","true","true","true","false","""event"",""trial"",""time""
""fullscreenenter"",""5"",""20951""
","
","
","""event"",""trial"",""time""
""fullscreenenter"",""5"",""20951""
","
","996.8999999761581","","49","","","3000","1","","","images/tutgreenplanet.jpg","images/tutalien1","images/tutalien2","null","images/tutalien2","images/t.png","NA","practice","null","","","",""
"d3-instructions","44","118067","0.0-44.0","2874","5008","10","Male","true","true","true","false","""event"",""trial"",""time""
""fullscreenenter"",""5"",""20951""
","
","
","""event"",""trial"",""time""
""fullscreenenter"",""5"",""20951""
","
","","","","","","","","","","","","","","","","","","","","","",""
"d3-instructions","45","119196","0.0-45.0","2874","5008","10","Male","true","true","true","false","""event"",""trial"",""time""
""fullscreenenter"",""5"",""20951""
","
","
","""event"",""trial"",""time""
""fullscreenenter"",""5"",""20951""
","
","","","","","","","","","","","","","","","","","","","","","",""
"d3-instructions","46","119447","0.0-46.0","2874","5008","10","Male","true","true","true","false","""event"",""trial"",""time""
""fullscreenenter"",""5"",""20951""
","
","
","""event"",""trial"",""time""
""fullscreenenter"",""5"",""20951""
","
","","","","","","","","","","","","","","","","","","","","","",""
"d3-instructions","47","119646","0.0-47.0","2874","5008","10","Male","true","true","true","false","""event"",""trial"",""time""
""fullscreenenter"",""5"",""20951""
","
","
","""event"",""trial"",""time""
""fullscreenenter"",""5"",""20951""
","
","","","","","","","","","","","","","","","","","","","","","",""
"d3-instructions","48","119893","0.0-48.0","2874","5008","10","Male","true","true","true","false","""event"",""trial"",""time""
""fullscreenenter"",""5"",""20951""
","
","
","""event"",""trial"",""time""
""fullscreenenter"",""5"",""20951""
","
","","","","","","","","","","","","","","","","","","","","","",""
"d3-instructions","49","120346","0.0-49.0","2874","5008","10","Male","true","true","true","false","""event"",""trial"",""time""
""fullscreenenter"",""5"",""20951""
","
","
","""event"",""trial"",""time""
""fullscreenenter"",""5"",""20951""
","
","","","","","","","","","","","","","","","","","","","","","",""
"d3-instructions","50","120944","0.0-50.0","2874","5008","10","Male","true","true","true","false","""event"",""trial"",""time""
""fullscreenenter"",""5"",""20951""
","
","
","""event"",""trial"",""time""
""fullscreenenter"",""5"",""20951""
","
","","","","","","","","","","","","","","","","","","","","","",""
"d3-instructions","51","121840","0.0-51.0","2874","5008","10","Male","true","true","true","false","""event"",""trial"",""time""
""fullscreenenter"",""5"",""20951""
","
","
","""event"",""trial"",""time""
""fullscreenenter"",""5"",""20951""
","
","","","","","","","","","","","","","","","","","","","","","",""
"d3-instructions","52","122882","0.0-52.0","2874","5008","10","Male","true","true","true","false","""event"",""trial"",""time""
""fullscreenenter"",""5"",""20951""
","
","
","""event"",""trial"",""time""
""fullscreenenter"",""5"",""20951""
","
","","","","","","","","","","","","","","","","","","","","","",""
"d3-instructions","53","123202","0.0-53.0","2874","5008","10","Male","true","true","true","false","""event"",""trial"",""time""
""fullscreenenter"",""5"",""20951""
","
","
","""event"",""trial"",""time""
""fullscreenenter"",""5"",""20951""
","
","","","","","","","","","","","","","","","","","","","","","",""
"d3-instructions","54","123641","0.0-54.0","2874","5008","10","Male","true","true","true","false","""event"",""trial"",""time""
""fullscreenenter"",""5"",""20951""
","
","
","""event"",""trial"",""time""
""fullscreenenter"",""5"",""20951""
","
","","","","","","","","","","","","","","","","","","","","","",""
"d3-instructions","55","124221","0.0-55.0","2874","5008","10","Male","true","true","true","false","""event"",""trial"",""time""
""fullscreenenter"",""5"",""20951""
","
","
","""event"",""trial"",""time""
""fullscreenenter"",""5"",""20951""
","
","","","","","","","","","","","","","","","","","","","","","",""
"d3-instructions","56","124866","0.0-56.0","2874","5008","10","Male","true","true","true","false","""event"",""trial"",""time""
""fullscreenenter"",""5"",""20951""
","
","
","""event"",""trial"",""time""
""fullscreenenter"",""5"",""20951""
","
","","","","","","","","","","","","","","","","","","","","","",""
"d3-instructions","57","125123","0.0-57.0","2874","5008","10","Male","true","true","true","false","""event"",""trial"",""time""
""fullscreenenter"",""5"",""20951""
","
","
","""event"",""trial"",""time""
""fullscreenenter"",""5"",""20951""
","
","","","","","","","","","","","","","","","","","","","","","",""
"d3-instructions","58","125374","0.0-58.0","2874","5008","10","Male","true","true","true","false","""event"",""trial"",""time""
""fullscreenenter"",""5"",""20951""
","
","
","""event"",""trial"",""time""
""fullscreenenter"",""5"",""20951""
","
","","","","","","","","","","","","","","","","","","","","","",""
"d3-instructions","59","125637","0.0-59.0","2874","5008","10","Male","true","true","true","false","""event"",""trial"",""time""
""fullscreenenter"",""5"",""20951""
","
","
","""event"",""trial"",""time""
""fullscreenenter"",""5"",""20951""
","
","","","","","","","","","","","","","","","","","","","","","",""
"d3-instructions","60","126083","0.0-60.0","2874","5008","10","Male","true","true","true","false","""event"",""trial"",""time""
""fullscreenenter"",""5"",""20951""
","
","
","""event"",""trial"",""time""
""fullscreenenter"",""5"",""20951""
","
","","","","","","","","","","","","","","","","","","","","","",""
"d3-animate-choice","61","129077","0.0-61.0-0.0","2874","5008","10","Male","true","true","true","false","""event"",""trial"",""time""
""fullscreenenter"",""5"",""20951""
","
","
","""event"",""trial"",""time""
""fullscreenenter"",""5"",""20951""
","
","201.79999995231628","","91","","","3000","1","988.8999999761581,2775.699999988079","49,48","images/earth.jpg","images/tutrocket1","images/tutrocket2","null","images/tutrocket2","","1","practice","null","","","",""
"d3-animate-choice","62","131086","0.0-61.0-1.0","2874","5008","10","Male","true","true","true","false","""event"",""trial"",""time""
""fullscreenenter"",""5"",""20951""
","
","
","""event"",""trial"",""time""
""fullscreenenter"",""5"",""20951""
","
","1.5","","48","","","3000","1","317,629.3000000119209,926.6000000238419,1231.300000011921,1464.4000000357628,1704.300000011921,1999.4000000357628","48,48,48,48,48,48,48","images/tutyellowplanet.jpg","images/tutalien4","images/tutalien3","images/tutrocket2","images/tutalien4","images/t.png","2","practice","true","2","common","1","2022-12-08 19:53:37.355"
"two-step-fixation","63","132090","0.0-61.0-2.0","2874","5008","10","Male","true","true","true","false","""event"",""trial"",""time""
""fullscreenenter"",""5"",""20951""
","
","
","""event"",""trial"",""time""
""fullscreenenter"",""5"",""20951""
","
","","images/earth.jpg","","","","","","","","","","","","","","fixation","","","","","",""
"d3-animate-choice","64","134102","0.0-61.0-0.1","2874","5008","10","Male","true","true","true","false","""event"",""trial"",""time""
""fullscreenenter"",""5"",""20951""
","
","
","""event"",""trial"",""time""
""fullscreenenter"",""5"",""20951""
","
","8.100000023841858","","48","","","3000","1","99.69999998807907,289.30000001192093,354.19999998807907,540.5,608.3000000119209,785.3000000119209,872.8000000119209,1008.8000000119209,1148.300000011921,1256.300000011921,1418.1000000238419,1494.300000011921,1675.199999988079,1711.300000011921,1892.199999988079,1948.1000000238419","49,48,49,48,49,48,49,48,49,48,49,48,49,48,48,49","images/earth.jpg","images/tutrocket1","images/tutrocket2","null","images/tutrocket1","","1","practice","null","2","","",""
"d3-animate-choice","65","136270","0.0-61.0-1.1","2874","5008","10","Male","true","true","true","false","""event"",""trial"",""time""
""fullscreenenter"",""5"",""20951""
","
","
","""event"",""trial"",""time""
""fullscreenenter"",""5"",""20951""
","
","158.39999997615814","","48","","","3000","1","242.5999999642372,358.80000001192093,545.5999999642372,609.5,826.1999999880791,841.5,1045.5999999642372,1230.5","49,48,49,48,48,49,48,48","images/tutyellowplanet.jpg","images/tutalien4","images/tutalien3","images/tutrocket1","images/tutalien4","images/nothing.png","2","practice","false","2","rare","0","2022-12-08 19:53:42.538"
"two-step-fixation","66","137277","0.0-61.0-2.1","2874","5008","10","Male","true","true","true","false","""event"",""trial"",""time""
""fullscreenenter"",""5"",""20951""
","
","
","""event"",""trial"",""time""
""fullscreenenter"",""5"",""20951""
","
","","images/earth.jpg","","","","","","","","","","","","","","fixation","","","","","",""
"d3-animate-choice","67","140089","0.0-61.0-0.2","2874","5008","10","Male","true","true","true","false","""event"",""trial"",""time""
""fullscreenenter"",""5"",""20951""
","
","
","""event"",""trial"",""time""
""fullscreenenter"",""5"",""20951""
","
","799.4000000357628","","49","","","3000","1","","","images/earth.jpg","images/tutrocket1","images/tutrocket2","null","images/tutrocket2","","1","practice","null","1","","",""
"d3-animate-choice","68","142982","0.0-61.0-1.2","2874","5008","10","Male","true","true","true","false","""event"",""trial"",""time""
""fullscreenenter"",""5"",""20951""
","
","
","""event"",""trial"",""time""
""fullscreenenter"",""5"",""20951""
","
","886","","48","","","3000","1","","","images/tutyellowplanet.jpg","images/tutalien4","images/tutalien3","images/tutrocket2","images/tutalien4","images/nothing.png","2","practice","true","2","common","0","2022-12-08 19:53:49.250"
"two-step-fixation","69","143986","0.0-61.0-2.2","2874","5008","10","Male","true","true","true","false","""event"",""trial"",""time""
""fullscreenenter"",""5"",""20951""
","
","
","""event"",""trial"",""time""
""fullscreenenter"",""5"",""20951""
","
","","images/earth.jpg","","","","","","","","","","","","","","fixation","","","","","",""
"d3-animate-choice","70","146366","0.0-61.0-0.3","2874","5008","10","Male","true","true","true","false","""event"",""trial"",""time""
""fullscreenenter"",""5"",""20951""
","
","
","""event"",""trial"",""time""
""fullscreenenter"",""5"",""20951""
","
","371.69999998807907","","49","","","3000","1","","","images/earth.jpg","images/tutrocket1","images/tutrocket2","null","images/tutrocket2","","1","practice","null","1","","",""
"d3-animate-choice","71","148742","0.0-61.0-1.3","2874","5008","10","Male","true","true","true","false","""event"",""trial"",""time""
""fullscreenenter"",""5"",""20951""
","
","
","""event"",""trial"",""time""
""fullscreenenter"",""5"",""20951""
","
","365.80000001192093","","49","","","3000","1","","","images/tutyellowplanet.jpg","images/tutalien4","images/tutalien3","images/tutrocket2","images/tutalien3","images/nothing.png","2","practice","true","1","common","0","2022-12-08 19:53:55.010"
"two-step-fixation","72","149751","0.0-61.0-2.3","2874","5008","10","Male","true","true","true","false","""event"",""trial"",""time""
""fullscreenenter"",""5"",""20951""
","
","
","""event"",""trial"",""time""
""fullscreenenter"",""5"",""20951""
","
","","images/earth.jpg","","","","","","","","","","","","","","fixation","","","","","",""
"d3-animate-choice","73","152055","0.0-61.0-0.4","2874","5008","10","Male","true","true","true","false","""event"",""trial"",""time""
""fullscreenenter"",""5"",""20951""
","
","
","""event"",""trial"",""time""
""fullscreenenter"",""5"",""20951""
","
","298.69999998807907","","48","","","3000","1","","","images/earth.jpg","images/tutrocket1","images/tutrocket2","null","images/tutrocket1","","1","practice","null","2","","",""
"d3-animate-choice","74","154799","0.0-61.0-1.4","2874","5008","10","Male","true","true","true","false","""event"",""trial"",""time""
""fullscreenenter"",""5"",""20951""
","
","
","""event"",""trial"",""time""
""fullscreenenter"",""5"",""20951""
","
","738.1999999880791","","49","","","3000","1","","","images/tutgreenplanet.jpg","images/tutalien2","images/tutalien1","images/tutrocket1","images/tutalien1","images/nothing.png","2","practice","true","1","common","0","2022-12-08 19:54:01.067"
"two-step-fixation","75","155807","0.0-61.0-2.4","2874","5008","10","Male","true","true","true","false","""event"",""trial"",""time""
""fullscreenenter"",""5"",""20951""
","
","
","""event"",""trial"",""time""
""fullscreenenter"",""5"",""20951""
","
","","images/earth.jpg","","","","","","","","","","","","","","fixation","","","","","",""
"d3-animate-choice","76","158479","0.0-61.0-0.5","2874","5008","10","Male","true","true","true","false","""event"",""trial"",""time""
""fullscreenenter"",""5"",""20951""
","
","
","""event"",""trial"",""time""
""fullscreenenter"",""5"",""20951""
","
","665.8000000119209","","48","","","3000","1","","","images/earth.jpg","images/tutrocket1","images/tutrocket2","null","images/tutrocket1","","1","practice","null","2","","",""
"d3-animate-choice","77","162486","0.0-61.0-1.5","2874","5008","10","Male","true","true","true","false","""event"",""trial"",""time""
""fullscreenenter"",""5"",""20951""
","
","
","""event"",""trial"",""time""
""fullscreenenter"",""5"",""20951""
","
","2424.100000023842","","49","","","3000","1","","","images/tutgreenplanet.jpg","images/tutalien2","images/tutalien1","images/tutrocket1","images/tutalien1","images/nothing.png","2","practice","true","1","common","0","2022-12-08 19:54:08.755"
"two-step-fixation","78","163494","0.0-61.0-2.5","2874","5008","10","Male","true","true","true","false","""event"",""trial"",""time""
""fullscreenenter"",""5"",""20951""
","
","
","""event"",""trial"",""time""
""fullscreenenter"",""5"",""20951""
","
","","images/earth.jpg","","","","","","","","","","","","","","fixation","","","","","",""
"d3-animate-choice","79","165967","0.0-61.0-0.6","2874","5008","10","Male","true","true","true","false","""event"",""trial"",""time""
""fullscreenenter"",""5"",""20951""
","
","
","""event"",""trial"",""time""
""fullscreenenter"",""5"",""20951""
","
","465.10000002384186","","49","","","3000","1","","","images/earth.jpg","images/tutrocket1","images/tutrocket2","null","images/tutrocket2","","1","practice","null","1","","",""
"d3-animate-choice","80","168639","0.0-61.0-1.6","2874","5008","10","Male","true","true","true","false","""event"",""trial"",""time""
""fullscreenenter"",""5"",""20951""
","
","
","""event"",""trial"",""time""
""fullscreenenter"",""5"",""20951""
","
","667.9000000357628","","48","","","3000","1","","","images/tutyellowplanet.jpg","images/tutalien4","images/tutalien3","images/tutrocket2","images/tutalien4","images/nothing.png","2","practice","true","2","common","0","2022-12-08 19:54:14.907"
"two-step-fixation","81","169647","0.0-61.0-2.6","2874","5008","10","Male","true","true","true","false","""event"",""trial"",""time""
""fullscreenenter"",""5"",""20951""
","
","
","""event"",""trial"",""time""
""fullscreenenter"",""5"",""20951""
","
","","images/earth.jpg","","","","","","","","","","","","","","fixation","","","","","",""
"d3-animate-choice","82","172247","0.0-61.0-0.7","2874","5008","10","Male","true","true","true","false","""event"",""trial"",""time""
""fullscreenenter"",""5"",""20951""
","
","
","""event"",""trial"",""time""
""fullscreenenter"",""5"",""20951""
","
","594.3999999761581","","49","","","3000","1","","","images/earth.jpg","images/tutrocket1","images/tutrocket2","null","images/tutrocket2","","1","practice","null","1","","",""
"d3-animate-choice","83","174959","0.0-61.0-1.7","2874","5008","10","Male","true","true","true","false","""event"",""trial"",""time""
""fullscreenenter"",""5"",""20951""
","
","
","""event"",""trial"",""time""
""fullscreenenter"",""5"",""20951""
","
","702.4000000357628","","48","","","3000","1","","","images/tutgreenplanet.jpg","images/tutalien2","images/tutalien1","images/tutrocket2","images/tutalien2","images/nothing.png","2","practice","false","2","rare","0","2022-12-08 19:54:21.227"
"two-step-fixation","84","175967","0.0-61.0-2.7","2874","5008","10","Male","true","true","true","false","""event"",""trial"",""time""
""fullscreenenter"",""5"",""20951""
","
","
","""event"",""trial"",""time""
""fullscreenenter"",""5"",""20951""
","
","","images/earth.jpg","","","","","","","","","","","","","","fixation","","","","","",""
"d3-animate-choice","85","178831","0.0-61.0-0.8","2874","5008","10","Male","true","true","true","false","""event"",""trial"",""time""
""fullscreenenter"",""5"",""20951""
","
","
","""event"",""trial"",""time""
""fullscreenenter"",""5"",""20951""
","
","861.3000000119209","","48","","","3000","1","","","images/earth.jpg","images/tutrocket1","images/tutrocket2","null","images/tutrocket1","","1","practice","null","2","","",""
"d3-animate-choice","86","182679","0.0-61.0-1.8","2874","5008","10","Male","true","true","true","false","""event"",""trial"",""time""
""fullscreenenter"",""5"",""20951""
","
","
","""event"",""trial"",""time""
""fullscreenenter"",""5"",""20951""
","
","1837.5999999642372","","49","","","3000","1","","","images/tutyellowplanet.jpg","images/tutalien4","images/tutalien3","images/tutrocket1","images/tutalien3","images/t.png","2","practice","false","1","rare","1","2022-12-08 19:54:28.947"
"two-step-fixation","87","183688","0.0-61.0-2.8","2874","5008","10","Male","true","true","true","false","""event"",""trial"",""time""
""fullscreenenter"",""5"",""20951""
","
","
","""event"",""trial"",""time""
""fullscreenenter"",""5"",""20951""
","
","","images/earth.jpg","","","","","","","","","","","","","","fixation","","","","","",""
"d3-animate-choice","88","186079","0.0-61.0-0.9","2874","5008","10","Male","true","true","true","false","""event"",""trial"",""time""
""fullscreenenter"",""5"",""20951""
","
","
","""event"",""trial"",""time""
""fullscreenenter"",""5"",""20951""
","
","386.4000000357628","","49","","","3000","1","724,2031.6000000238419","49,49","images/earth.jpg","images/tutrocket1","images/tutrocket2","null","images/tutrocket2","","1","practice","null","1","","",""
"d3-animate-choice","89","188207","0.0-61.0-1.9","2874","5008","10","Male","true","true","true","false","""event"",""trial"",""time""
""fullscreenenter"",""5"",""20951""
","
","
","""event"",""trial"",""time""
""fullscreenenter"",""5"",""20951""
","
","121","","49","","","3000","1","445.5","49","images/tutyellowplanet.jpg","images/tutalien4","images/tutalien3","images/tutrocket2","images/tutalien3","images/nothing.png","2","practice","true","1","common","0","2022-12-08 19:54:34.475"
"two-step-fixation","90","189215","0.0-61.0-2.9","2874","5008","10","Male","true","true","true","false","""event"",""trial"",""time""
""fullscreenenter"",""5"",""20951""
","
","
","""event"",""trial"",""time""
""fullscreenenter"",""5"",""20951""
","
","","images/earth.jpg","","","","","","","","","","","","","","fixation","","","","","",""
"d3-animate-choice","91","192599","0.0-61.0-0.10","2874","5008","10","Male","true","true","true","false","""event"",""trial"",""time""
""fullscreenenter"",""5"",""20951""
","
","
","""event"",""trial"",""time""
""fullscreenenter"",""5"",""20951""
","
","1378.199999988079","","49","","","3000","1","","","images/earth.jpg","images/tutrocket1","images/tutrocket2","null","images/tutrocket2","","1","practice","null","1","","",""
"d3-animate-choice","92","195431","0.0-61.0-1.10","2874","5008","10","Male","true","true","true","false","""event"",""trial"",""time""
""fullscreenenter"",""5"",""20951""
","
","
","""event"",""trial"",""time""
""fullscreenenter"",""5"",""20951""
","
","828","","49","","","3000","1","","","images/tutyellowplanet.jpg","images/tutalien4","images/tutalien3","images/tutrocket2","images/tutalien3","images/nothing.png","2","practice","true","1","common","0","2022-12-08 19:54:41.699"
"two-step-fixation","93","196435","0.0-61.0-2.10","2874","5008","10","Male","true","true","true","false","""event"",""trial"",""time""
""fullscreenenter"",""5"",""20951""
","
","
","""event"",""trial"",""time""
""fullscreenenter"",""5"",""20951""
","
","","images/earth.jpg","","","","","","","","","","","","","","fixation","","","","","",""
"d3-animate-choice","94","199486","0.0-61.0-0.11","2874","5008","10","Male","true","true","true","false","""event"",""trial"",""time""
""fullscreenenter"",""5"",""20951""
","
","
","""event"",""trial"",""time""
""fullscreenenter"",""5"",""20951""
","
","1041.5999999642372","","49","","","3000","1","2909.899999976158","49","images/earth.jpg","images/tutrocket1","images/tutrocket2","null","images/tutrocket2","","1","practice","null","1","","",""
"d3-animate-choice","95","202423","0.0-61.0-1.11","2874","5008","10","Male","true","true","true","false","""event"",""trial"",""time""
""fullscreenenter"",""5"",""20951""
","
","
","""event"",""trial"",""time""
""fullscreenenter"",""5"",""20951""
","
","928.2000000476837","","49","","","3000","1","","","images/tutgreenplanet.jpg","images/tutalien2","images/tutalien1","images/tutrocket2","images/tutalien1","images/nothing.png","2","practice","false","1","rare","0","2022-12-08 19:54:48.691"
"two-step-fixation","96","203431","0.0-61.0-2.11","2874","5008","10","Male","true","true","true","false","""event"",""trial"",""time""
""fullscreenenter"",""5"",""20951""
","
","
","""event"",""trial"",""time""
""fullscreenenter"",""5"",""20951""
","
","","images/earth.jpg","","","","","","","","","","","","","","fixation","","","","","",""
"d3-animate-choice","97","206399","0.0-61.0-0.12","2874","5008","10","Male","true","true","true","false","""event"",""trial"",""time""
""fullscreenenter"",""5"",""20951""
","
","
","""event"",""trial"",""time""
""fullscreenenter"",""5"",""20951""
","
","960.5","","48","","","3000","1","","","images/earth.jpg","images/tutrocket1","images/tutrocket2","null","images/tutrocket1","","1","practice","null","2","","",""
"d3-animate-choice","98","208815","0.0-61.0-1.12","2874","5008","10","Male","true","true","true","false","""event"",""trial"",""time""
""fullscreenenter"",""5"",""20951""
","
","
","""event"",""trial"",""time""
""fullscreenenter"",""5"",""20951""
","
","409","","49","","","3000","1","","","images/tutgreenplanet.jpg","images/tutalien2","images/tutalien1","images/tutrocket1","images/tutalien1","images/t.png","2","practice","true","1","common","1","2022-12-08 19:54:55.084"
"two-step-fixation","99","209818","0.0-61.0-2.12","2874","5008","10","Male","true","true","true","false","""event"",""trial"",""time""
""fullscreenenter"",""5"",""20951""
","
","
","""event"",""trial"",""time""
""fullscreenenter"",""5"",""20951""
","
","","images/earth.jpg","","","","","","","","","","","","","","fixation","","","","","",""
"d3-animate-choice","100","212469","0.0-61.0-0.13","2874","5008","10","Male","true","true","true","false","""event"",""trial"",""time""
""fullscreenenter"",""5"",""20951""
","
","
","""event"",""trial"",""time""
""fullscreenenter"",""5"",""20951""
","
","643.1999999880791","","49","","","3000","1","","","images/earth.jpg","images/tutrocket1","images/tutrocket2","null","images/tutrocket2","","1","practice","null","1","","",""
"d3-animate-choice","101","214895","0.0-61.0-1.13","2874","5008","10","Male","true","true","true","false","""event"",""trial"",""time""
""fullscreenenter"",""5"",""20951""
","
","
","""event"",""trial"",""time""
""fullscreenenter"",""5"",""20951""
","
","420.80000001192093","","48","","","3000","1","","","images/tutyellowplanet.jpg","images/tutalien4","images/tutalien3","images/tutrocket2","images/tutalien4","images/t.png","2","practice","true","2","common","1","2022-12-08 19:55:01.164"
"two-step-fixation","102","215903","0.0-61.0-2.13","2874","5008","10","Male","true","true","true","false","""event"",""trial"",""time""
""fullscreenenter"",""5"",""20951""
","
","
","""event"",""trial"",""time""
""fullscreenenter"",""5"",""20951""
","
","","images/earth.jpg","","","","","","","","","","","","","","fixation","","","","","",""
"d3-animate-choice","103","218592","0.0-61.0-0.14","2874","5008","10","Male","true","true","true","false","""event"",""trial"",""time""
""fullscreenenter"",""5"",""20951""
","
","
","""event"",""trial"",""time""
""fullscreenenter"",""5"",""20951""
","
","680.3000000119209","","48","","","3000","1","","","images/earth.jpg","images/tutrocket1","images/tutrocket2","null","images/tutrocket1","","1","practice","null","2","","",""
"d3-animate-choice","104","221392","0.0-61.0-1.14","2874","5008","10","Male","true","true","true","false","""event"",""trial"",""time""
""fullscreenenter"",""5"",""20951""
","
","
","""event"",""trial"",""time""
""fullscreenenter"",""5"",""20951""
","
","794","","48","","","3000","1","","","images/tutgreenplanet.jpg","images/tutalien2","images/tutalien1","images/tutrocket1","images/tutalien2","images/t.png","2","practice","true","2","common","1","2022-12-08 19:55:07.660"
"two-step-fixation","105","222399","0.0-61.0-2.14","2874","5008","10","Male","true","true","true","false","""event"",""trial"",""time""
""fullscreenenter"",""5"",""20951""
","
","
","""event"",""trial"",""time""
""fullscreenenter"",""5"",""20951""
","
","","images/earth.jpg","","","","","","","","","","","","","","fixation","","","","","",""
"d3-animate-choice","106","224896","0.0-61.0-0.15","2874","5008","10","Male","true","true","true","false","""event"",""trial"",""time""
""fullscreenenter"",""5"",""20951""
","
","
","""event"",""trial"",""time""
""fullscreenenter"",""5"",""20951""
","
","487.10000002384186","","49","","","3000","1","","","images/earth.jpg","images/tutrocket1","images/tutrocket2","null","images/tutrocket2","","1","practice","null","1","","",""
"d3-animate-choice","107","227669","0.0-61.0-1.15","2874","5008","10","Male","true","true","true","false","""event"",""trial"",""time""
""fullscreenenter"",""5"",""20951""
","
","
","""event"",""trial"",""time""
""fullscreenenter"",""5"",""20951""
","
","769","","49","","","3000","1","","","images/tutyellowplanet.jpg","images/tutalien4","images/tutalien3","images/tutrocket2","images/tutalien3","images/nothing.png","2","practice","true","1","common","0","2022-12-08 19:55:13.937"
"two-step-fixation","108","228680","0.0-61.0-2.15","2874","5008","10","Male","true","true","true","false","""event"",""trial"",""time""
""fullscreenenter"",""5"",""20951""
","
","
","""event"",""trial"",""time""
""fullscreenenter"",""5"",""20951""
","
","","images/earth.jpg","","","","","","","","","","","","","","fixation","","","","","",""
"d3-animate-choice","109","231144","0.0-61.0-0.16","2874","5008","10","Male","true","true","true","false","""event"",""trial"",""time""
""fullscreenenter"",""5"",""20951""
","
","
","""event"",""trial"",""time""
""fullscreenenter"",""5"",""20951""
","
","454.60000002384186","","49","","","3000","1","","","images/earth.jpg","images/tutrocket1","images/tutrocket2","null","images/tutrocket2","","1","practice","null","1","","",""
"d3-animate-choice","110","233867","0.0-61.0-1.16","2874","5008","10","Male","true","true","true","false","""event"",""trial"",""time""
""fullscreenenter"",""5"",""20951""
","
","
","""event"",""trial"",""time""
""fullscreenenter"",""5"",""20951""
","
","718","","49","","","3000","1","","","images/tutgreenplanet.jpg","images/tutalien2","images/tutalien1","images/tutrocket2","images/tutalien1","images/nothing.png","2","practice","false","1","rare","0","2022-12-08 19:55:20.135"
"two-step-fixation","111","234872","0.0-61.0-2.16","2874","5008","10","Male","true","true","true","false","""event"",""trial"",""time""
""fullscreenenter"",""5"",""20951""
","
","
","""event"",""trial"",""time""
""fullscreenenter"",""5"",""20951""
","
","","images/earth.jpg","","","","","","","","","","","","","","fixation","","","","","",""
"d3-animate-choice","112","238576","0.0-61.0-0.17","2874","5008","10","Male","true","true","true","false","""event"",""trial"",""time""
""fullscreenenter"",""5"",""20951""
","
","
","""event"",""trial"",""time""
""fullscreenenter"",""5"",""20951""
","
","1694.7000000476837","","49","","","3000","1","","","images/earth.jpg","images/tutrocket1","images/tutrocket2","null","images/tutrocket2","","1","practice","null","1","","",""
"d3-animate-choice","113","242584","0.0-61.0-1.17","2874","5008","10","Male","true","true","true","false","""event"",""trial"",""time""
""fullscreenenter"",""5"",""20951""
","
","
","""event"",""trial"",""time""
""fullscreenenter"",""5"",""20951""
","
","2301.900000035763","","49","","","3000","1","","","images/tutyellowplanet.jpg","images/tutalien4","images/tutalien3","images/tutrocket2","images/tutalien3","images/t.png","2","practice","true","1","common","1","2022-12-08 19:55:28.852"
"two-step-fixation","114","243592","0.0-61.0-2.17","2874","5008","10","Male","true","true","true","false","""event"",""trial"",""time""
""fullscreenenter"",""5"",""20951""
","
","
","""event"",""trial"",""time""
""fullscreenenter"",""5"",""20951""
","
","","images/earth.jpg","","","","","","","","","","","","","","fixation","","","","","",""
"d3-animate-choice","115","247040","0.0-61.0-0.18","2874","5008","10","Male","true","true","true","false","""event"",""trial"",""time""
""fullscreenenter"",""5"",""20951""
","
","
","""event"",""trial"",""time""
""fullscreenenter"",""5"",""20951""
","
","522.3000000119209","","57","","","3000","1","1441.0999999642372","48","images/earth.jpg","images/tutrocket1","images/tutrocket2","null","images/tutrocket1","","1","practice","null","","","",""
"d3-animate-choice","116","249970","0.0-61.0-1.18","2874","5008","10","Male","true","true","true","false","""event"",""trial"",""time""
""fullscreenenter"",""5"",""20951""
","
","
","""event"",""trial"",""time""
""fullscreenenter"",""5"",""20951""
","
","928","","48","","","3000","1","","","images/tutgreenplanet.jpg","images/tutalien2","images/tutalien1","images/tutrocket1","images/tutalien2","images/t.png","2","practice","true","2","common","1","2022-12-08 19:55:36.239"
"two-step-fixation","117","250976","0.0-61.0-2.18","2874","5008","10","Male","true","true","true","false","""event"",""trial"",""time""
""fullscreenenter"",""5"",""20951""
","
","
","""event"",""trial"",""time""
""fullscreenenter"",""5"",""20951""
","
","","images/earth.jpg","","","","","","","","","","","","","","fixation","","","","","",""
"d3-animate-choice","118","253728","0.0-61.0-0.19","2874","5008","10","Male","true","true","true","false","""event"",""trial"",""time""
""fullscreenenter"",""5"",""20951""
","
","
","""event"",""trial"",""time""
""fullscreenenter"",""5"",""20951""
","
","747.0999999642372","","49","","","3000","1","","","images/earth.jpg","images/tutrocket1","images/tutrocket2","null","images/tutrocket2","","1","practice","null","1","","",""
"d3-animate-choice","119","256302","0.0-61.0-1.19","2874","5008","10","Male","true","true","true","false","""event"",""trial"",""time""
""fullscreenenter"",""5"",""20951""
","
","
","""event"",""trial"",""time""
""fullscreenenter"",""5"",""20951""
","
","569.5","","49","","","3000","1","","","images/tutyellowplanet.jpg","images/tutalien4","images/tutalien3","images/tutrocket2","images/tutalien3","images/nothing.png","2","practice","true","1","common","0","2022-12-08 19:55:42.570"
"two-step-fixation","120","257312","0.0-61.0-2.19","2874","5008","10","Male","true","true","true","false","""event"",""trial"",""time""
""fullscreenenter"",""5"",""20951""
","
","
","""event"",""trial"",""time""
""fullscreenenter"",""5"",""20951""
","
","","images/earth.jpg","","","","","","","","","","","","","","fixation","","","","","",""
"d3-instructions","121","263581","0.0-62.0","2874","5008","10","Male","true","true","true","false","""event"",""trial"",""time""
""fullscreenenter"",""5"",""20951""
","
","
","""event"",""trial"",""time""
""fullscreenenter"",""5"",""20951""
","
","","","","","","","","","","","","","","","","","","","","","",""
"audio-keyboard-response","122","263817","0.0-63.0","2874","5008","10","Male","true","true","true","false","""event"",""trial"",""time""
""fullscreenenter"",""5"",""20951""
","
","
","""event"",""trial"",""time""
""fullscreenenter"",""5"",""20951""
","
","232","audio/instructions/treasure_feedback.wav","32","","","","","","","","","","","","","","","","","","",""
"d3-instructions","123","264922","0.0-64.0","2874","5008","10","Male","true","true","true","false","""event"",""trial"",""time""
""fullscreenenter"",""5"",""20951""
","
","
","""event"",""trial"",""time""
""fullscreenenter"",""5"",""20951""
","
","","","","","","","","","","","","","","","","","","","","","",""
"d3-instructions","124","265375","0.0-65.0","2874","5008","10","Male","true","true","true","false","""event"",""trial"",""time""
""fullscreenenter"",""5"",""20951""
","
","
","""event"",""trial"",""time""
""fullscreenenter"",""5"",""20951""
","
","","","","","","","","","","","","","","","","","","","","","",""
"d3-instructions","125","265800","0.0-66.0","2874","5008","10","Male","true","true","true","false","""event"",""trial"",""time""
""fullscreenenter"",""5"",""20951""
","
","
","""event"",""trial"",""time""
""fullscreenenter"",""5"",""20951""
","
","","","","","","","","","","","","","","","","","","","","","",""
"d3-instructions","126","266469","0.0-67.0","2874","5008","10","Male","true","true","true","false","""event"",""trial"",""time""
""fullscreenenter"",""5"",""20951""
","
","
","""event"",""trial"",""time""
""fullscreenenter"",""5"",""20951""
","
","","","","","","","","","","","","","","","","","","","","","",""
"d3-instructions","127","271219","0.0-68.0","2874","5008","10","Male","true","true","true","false","""event"",""trial"",""time""
""fullscreenenter"",""5"",""20951""
","
","
","""event"",""trial"",""time""
""fullscreenenter"",""5"",""20951""
","
","","","","","","","","","","","","","","","","","","","","","",""
"instructions-quiz","128","274713","0.0-69.0","2874","5008","10","Male","true","true","true","false","""event"",""trial"",""time""
""fullscreenenter"",""5"",""20951""
","
","
","""event"",""trial"",""time""
""fullscreenenter"",""5"",""20951""
","
","3492.199999988079","audio/quiz/Q1_Prompt.wav","","1","","","","","","","","","","","","","","","","","",""
"audio-keyboard-response","129","283882","0.0-70.0","2874","5008","10","Male","true","true","true","false","""event"",""trial"",""time""
""fullscreenenter"",""5"",""20951""
","
","
","""event"",""trial"",""time""
""fullscreenenter"",""5"",""20951""
","
","null","audio/quiz/Q1_Correct.wav","null","","","","","","","","","","","","","","","","","","",""
"instructions-quiz","130","290767","0.0-71.0","2874","5008","10","Male","true","true","true","false","""event"",""trial"",""time""
""fullscreenenter"",""5"",""20951""
","
","
","""event"",""trial"",""time""
""fullscreenenter"",""5"",""20951""
","
","6884.300000011921","audio/quiz/Q2_Prompt.wav","","0","","","","","","","","","","","","","","","","","",""
"audio-keyboard-response","131","303636","0.0-72.0","2874","5008","10","Male","true","true","true","false","""event"",""trial"",""time""
""fullscreenenter"",""5"",""20951""
","
","
","""event"",""trial"",""time""
""fullscreenenter"",""5"",""20951""
","
","null","audio/quiz/Q2_Correct.wav","null","","","","","","","","","","","","","","","","","","",""
"instructions-quiz","132","307215","0.0-73.0","2874","5008","10","Male","true","true","true","false","""event"",""trial"",""time""
""fullscreenenter"",""5"",""20951""
","
","
","""event"",""trial"",""time""
""fullscreenenter"",""5"",""20951""
","
","3577.2000000476837","audio/quiz/Q3_Prompt.wav","","1","","","","","","","","","","","","","","","","","",""
"audio-keyboard-response","133","313011","0.0-74.0","2874","5008","10","Male","true","true","true","false","""event"",""trial"",""time""
""fullscreenenter"",""5"",""20951""
","
","
","""event"",""trial"",""time""
""fullscreenenter"",""5"",""20951""
","
","null","audio/quiz/Q3_Correct.wav","null","","","","","","","","","","","","","","","","","","",""
"d3-instructions","134","320480","0.0-75.0","2874","5008","10","Male","true","true","true","false","""event"",""trial"",""time""
""fullscreenenter"",""5"",""20951""
","
","
","""event"",""trial"",""time""
""fullscreenenter"",""5"",""20951""
","
","","","","","","","","","","","","","","","","","","","","","",""
"d3-animate-choice","135","323841","0.0-76.0-0.0","2874","5008","10","Male","true","true","true","false","""event"",""trial"",""time""
""fullscreenenter"",""5"",""20951""
","
","
","""event"",""trial"",""time""
""fullscreenenter"",""5"",""20951""
","
","1356.800000011921","","48","","","3000","1","","","images/earth.jpg","images/rocket2","images/rocket1","null","images/rocket2","","1","real","null","2","","",""
"d3-animate-choice","136","327129","0.0-76.0-1.0","2874","5008","10","Male","true","true","true","false","""event"",""trial"",""time""
""fullscreenenter"",""5"",""20951""
","
","
","""event"",""trial"",""time""
""fullscreenenter"",""5"",""20951""
","
","1276.4000000357628","","48","","","3000","1","","","images/purpleplanet.jpg","images/alien4","images/alien3","images/rocket2","images/alien4","images/t.png","2","real","true","2","common","1","2022-12-08 19:56:53.397"
"two-step-fixation","137","328137","0.0-76.0-2.0","2874","5008","10","Male","true","true","true","false","""event"",""trial"",""time""
""fullscreenenter"",""5"",""20951""
","
","
","""event"",""trial"",""time""
""fullscreenenter"",""5"",""20951""
","
","","images/earth.jpg","","","","","","","","","","","","","","fixation","","","","","",""
"d3-animate-choice","138","330469","0.0-76.0-0.1","2874","5008","10","Male","true","true","true","false","""event"",""trial"",""time""
""fullscreenenter"",""5"",""20951""
","
","
","""event"",""trial"",""time""
""fullscreenenter"",""5"",""20951""
","
","324.30000001192093","","48","","","3000","1","1961.800000011921","49","images/earth.jpg","images/rocket2","images/rocket1","null","images/rocket2","","1","real","null","2","","",""
"d3-animate-choice","139","332938","0.0-76.0-1.1","2874","5008","10","Male","true","true","true","false","""event"",""trial"",""time""
""fullscreenenter"",""5"",""20951""
","
","
","""event"",""trial"",""time""
""fullscreenenter"",""5"",""20951""
","
","464.19999998807907","","49","","","3000","1","","","images/redplanet1.jpg","images/alien2","images/alien1","images/rocket2","images/alien1","images/t.png","2","real","false","1","rare","1","2022-12-08 19:56:59.206"
"two-step-fixation","140","333944","0.0-76.0-2.1","2874","5008","10","Male","true","true","true","false","""event"",""trial"",""time""
""fullscreenenter"",""5"",""20951""
","
","
","""event"",""trial"",""time""
""fullscreenenter"",""5"",""20951""
","
","","images/earth.jpg","","","","","","","","","","","","","","fixation","","","","","",""
"d3-animate-choice","141","336570","0.0-76.0-0.2","2874","5008","10","Male","true","true","true","false","""event"",""trial"",""time""
""fullscreenenter"",""5"",""20951""
","
","
","""event"",""trial"",""time""
""fullscreenenter"",""5"",""20951""
","
","618","","48","","","3000","1","","","images/earth.jpg","images/rocket2","images/rocket1","null","images/rocket2","","1","real","null","2","","",""
"d3-animate-choice","142","340001","0.0-76.0-1.2","2874","5008","10","Male","true","true","true","false","""event"",""trial"",""time""
""fullscreenenter"",""5"",""20951""
","
","
","""event"",""trial"",""time""
""fullscreenenter"",""5"",""20951""
","
","1425.3999999761581","","48","","","3000","1","","","images/purpleplanet.jpg","images/alien4","images/alien3","images/rocket2","images/alien4","images/t.png","2","real","true","2","common","1","2022-12-08 19:57:06.269"
"two-step-fixation","143","341009","0.0-76.0-2.2","2874","5008","10","Male","true","true","true","false","""event"",""trial"",""time""
""fullscreenenter"",""5"",""20951""
","
","
","""event"",""trial"",""time""
""fullscreenenter"",""5"",""20951""
","
","","images/earth.jpg","","","","","","","","","","","","","","fixation","","","","","",""
"d3-animate-choice","144","344410","0.0-76.0-0.3","2874","5008","10","Male","true","true","true","false","""event"",""trial"",""time""
""fullscreenenter"",""5"",""20951""
","
","
","""event"",""trial"",""time""
""fullscreenenter"",""5"",""20951""
","
","1389.5","","49","","","3000","1","","","images/earth.jpg","images/rocket2","images/rocket1","null","images/rocket1","","1","real","null","1","","",""
"d3-animate-choice","145","348269","0.0-76.0-1.3","2874","5008","10","Male","true","true","true","false","""event"",""trial"",""time""
""fullscreenenter"",""5"",""20951""
","
","
","""event"",""trial"",""time""
""fullscreenenter"",""5"",""20951""
","
","1854.6000000238419","","48","","","3000","1","","","images/purpleplanet.jpg","images/alien4","images/alien3","images/rocket1","images/alien4","images/t.png","2","real","false","2","rare","1","2022-12-08 19:57:14.537"
"two-step-fixation","146","349274","0.0-76.0-2.3","2874","5008","10","Male","true","true","true","false","""event"",""trial"",""time""
""fullscreenenter"",""5"",""20951""
","
","
","""event"",""trial"",""time""
""fullscreenenter"",""5"",""20951""
","
","","images/earth.jpg","","","","","","","","","","","","","","fixation","","","","","",""
"d3-animate-choice","147","352618","0.0-76.0-0.4","2874","5008","10","Male","true","true","true","false","""event"",""trial"",""time""
""fullscreenenter"",""5"",""20951""
","
","
","""event"",""trial"",""time""
""fullscreenenter"",""5"",""20951""
","
","1340.8999999761581","","49","","","3000","1","","","images/earth.jpg","images/rocket2","images/rocket1","null","images/rocket1","","1","real","null","1","","",""
"d3-animate-choice","148","356634","0.0-76.0-1.4","2874","5008","10","Male","true","true","true","false","""event"",""trial"",""time""
""fullscreenenter"",""5"",""20951""
","
","
","""event"",""trial"",""time""
""fullscreenenter"",""5"",""20951""
","
","2256.699999988079","","49","","","3000","1","","","images/redplanet1.jpg","images/alien2","images/alien1","images/rocket1","images/alien1","images/nothing.png","2","real","true","1","common","0","2022-12-08 19:57:22.902"
"two-step-fixation","149","357642","0.0-76.0-2.4","2874","5008","10","Male","true","true","true","false","""event"",""trial"",""time""
""fullscreenenter"",""5"",""20951""
","
","
","""event"",""trial"",""time""
""fullscreenenter"",""5"",""20951""
","
","","images/earth.jpg","","","","","","","","","","","","","","fixation","","","","","",""
"d3-animate-choice","150","361652","0.0-76.0-0.5","2874","5008","10","Male","true","true","true","false","""event"",""trial"",""time""
""fullscreenenter"",""5"",""20951""
","
","
","""event"",""trial"",""time""
""fullscreenenter"",""5"",""20951""
","
","2272.399999976158","","48","","","3000","1","","","images/earth.jpg","images/rocket2","images/rocket1","null","images/rocket2","","1","real","null","2","","",""
"d3-animate-choice","151","364954","0.0-76.0-1.5","2874","5008","10","Male","true","true","true","false","""event"",""trial"",""time""
""fullscreenenter"",""5"",""20951""
","
","
","""event"",""trial"",""time""
""fullscreenenter"",""5"",""20951""
","
","1291.2000000476837","","48","","","3000","1","","","images/purpleplanet.jpg","images/alien4","images/alien3","images/rocket2","images/alien4","images/t.png","2","real","true","2","common","1","2022-12-08 19:57:31.222"
"two-step-fixation","152","365962","0.0-76.0-2.5","2874","5008","10","Male","true","true","true","false","""event"",""trial"",""time""
""fullscreenenter"",""5"",""20951""
","
","
","""event"",""trial"",""time""
""fullscreenenter"",""5"",""20951""
","
","","images/earth.jpg","","","","","","","","","","","","","","fixation","","","","","",""
"d3-animate-choice","153","369314","0.0-76.0-0.6","2874","5008","10","Male","true","true","true","false","""event"",""trial"",""time""
""fullscreenenter"",""5"",""20951""
","
","
","""event"",""trial"",""time""
""fullscreenenter"",""5"",""20951""
","
","1344.5","","48","","","3000","1","","","images/earth.jpg","images/rocket2","images/rocket1","null","images/rocket2","","1","real","null","2","","",""
"d3-animate-choice","154","372898","0.0-76.0-1.6","2874","5008","10","Male","true","true","true","false","""event"",""trial"",""time""
""fullscreenenter"",""5"",""20951""
","
","
","""event"",""trial"",""time""
""fullscreenenter"",""5"",""20951""
","
","1571.6000000238419","","48","","","3000","1","","","images/purpleplanet.jpg","images/alien4","images/alien3","images/rocket2","images/alien4","images/t.png","2","real","true","2","common","1","2022-12-08 19:57:39.166"
"two-step-fixation","155","373906","0.0-76.0-2.6","2874","5008","10","Male","true","true","true","false","""event"",""trial"",""time""
""fullscreenenter"",""5"",""20951""
","
","
","""event"",""trial"",""time""
""fullscreenenter"",""5"",""20951""
","
","","images/earth.jpg","","","","","","","","","","","","","","fixation","","","","","",""
"d3-animate-choice","156","376852","0.0-76.0-0.7","2874","5008","10","Male","true","true","true","false","""event"",""trial"",""time""
""fullscreenenter"",""5"",""20951""
","
","
","""event"",""trial"",""time""
""fullscreenenter"",""5"",""20951""
","
","940.1999999880791","","49","","","3000","1","","","images/earth.jpg","images/rocket2","images/rocket1","null","images/rocket1","","1","real","null","1","","",""
"d3-animate-choice","157","380866","0.0-76.0-1.7","2874","5008","10","Male","true","true","true","false","""event"",""trial"",""time""
""fullscreenenter"",""5"",""20951""
","
","
","""event"",""trial"",""time""
""fullscreenenter"",""5"",""20951""
","
","2348.5","","49","","","3000","1","","","images/redplanet1.jpg","images/alien2","images/alien1","images/rocket1","images/alien1","images/t.png","2","real","true","1","common","1","2022-12-08 19:57:47.134"
"two-step-fixation","158","381874","0.0-76.0-2.7","2874","5008","10","Male","true","true","true","false","""event"",""trial"",""time""
""fullscreenenter"",""5"",""20951""
","
","
","""event"",""trial"",""time""
""fullscreenenter"",""5"",""20951""
","
","","images/earth.jpg","","","","","","","","","","","","","","fixation","","","","","",""
"d3-animate-choice","159","385886","0.0-76.0-0.8","2874","5008","10","Male","true","true","true","false","""event"",""trial"",""time""
""fullscreenenter"",""5"",""20951""
","
","
","""event"",""trial"",""time""
""fullscreenenter"",""5"",""20951""
","
","2130.399999976158","","48","","","3000","1","","","images/earth.jpg","images/rocket2","images/rocket1","null","images/rocket2","","1","real","null","2","","",""
"d3-animate-choice","160","389162","0.0-76.0-1.8","2874","5008","10","Male","true","true","true","false","""event"",""trial"",""time""
""fullscreenenter"",""5"",""20951""
","
","
","""event"",""trial"",""time""
""fullscreenenter"",""5"",""20951""
","
","1269.8999999761581","","48","","","3000","1","","","images/purpleplanet.jpg","images/alien4","images/alien3","images/rocket2","images/alien4","images/nothing.png","2","real","true","2","common","0","2022-12-08 19:57:55.430"
"two-step-fixation","161","390170","0.0-76.0-2.8","2874","5008","10","Male","true","true","true","false","""event"",""trial"",""time""
""fullscreenenter"",""5"",""20951""
","
","
","""event"",""trial"",""time""
""fullscreenenter"",""5"",""20951""
","
","","images/earth.jpg","","","","","","","","","","","","","","fixation","","","","","",""
"d3-animate-choice","162","392746","0.0-76.0-0.9","2874","5008","10","Male","true","true","true","false","""event"",""trial"",""time""
""fullscreenenter"",""5"",""20951""
","
","
","""event"",""trial"",""time""
""fullscreenenter"",""5"",""20951""
","
","565","","49","","","3000","1","","","images/earth.jpg","images/rocket2","images/rocket1","null","images/rocket1","","1","real","null","1","","",""
"d3-animate-choice","163","396242","0.0-76.0-1.9","2874","5008","10","Male","true","true","true","false","""event"",""trial"",""time""
""fullscreenenter"",""5"",""20951""
","
","
","""event"",""trial"",""time""
""fullscreenenter"",""5"",""20951""
","
","1489.1000000238419","","49","","","3000","1","","","images/redplanet1.jpg","images/alien2","images/alien1","images/rocket1","images/alien1","images/nothing.png","2","real","true","1","common","0","2022-12-08 19:58:02.510"
"two-step-fixation","164","397250","0.0-76.0-2.9","2874","5008","10","Male","true","true","true","false","""event"",""trial"",""time""
""fullscreenenter"",""5"",""20951""
","
","
","""event"",""trial"",""time""
""fullscreenenter"",""5"",""20951""
","
","","images/earth.jpg","","","","","","","","","","","","","","fixation","","","","","",""
"d3-animate-choice","165","401099","0.0-76.0-0.10","2874","5008","10","Male","true","true","true","false","""event"",""trial"",""time""
""fullscreenenter"",""5"",""20951""
","
","
","""event"",""trial"",""time""
""fullscreenenter"",""5"",""20951""
","
","1844.1000000238419","","48","","","3000","1","","","images/earth.jpg","images/rocket2","images/rocket1","null","images/rocket2","","1","real","null","2","","",""
"d3-animate-choice","166","404578","0.0-76.0-1.10","2874","5008","10","Male","true","true","true","false","""event"",""trial"",""time""
""fullscreenenter"",""5"",""20951""
","
","
","""event"",""trial"",""time""
""fullscreenenter"",""5"",""20951""
","
","1472.5","","49","","","3000","1","","","images/redplanet1.jpg","images/alien2","images/alien1","images/rocket2","images/alien1","images/t.png","2","real","false","1","rare","1","2022-12-08 19:58:10.846"
"two-step-fixation","167","405586","0.0-76.0-2.10","2874","5008","10","Male","true","true","true","false","""event"",""trial"",""time""
""fullscreenenter"",""5"",""20951""
","
","
","""event"",""trial"",""time""
""fullscreenenter"",""5"",""20951""
","
","","images/earth.jpg","","","","","","","","","","","","","","fixation","","","","","",""
"d3-animate-choice","168","408811","0.0-76.0-0.11","2874","5008","10","Male","true","true","true","false","""event"",""trial"",""time""
""fullscreenenter"",""5"",""20951""
","
","
","""event"",""trial"",""time""
""fullscreenenter"",""5"",""20951""
","
","1215.1000000238419","","48","","","3000","1","","","images/earth.jpg","images/rocket2","images/rocket1","null","images/rocket2","","1","real","null","2","","",""
"d3-animate-choice","169","412820","0.0-76.0-1.11","2874","5008","10","Male","true","true","true","false","""event"",""trial"",""time""
""fullscreenenter"",""5"",""20951""
","
","
","""event"",""trial"",""time""
""fullscreenenter"",""5"",""20951""
","
","3385.699999988079","","49","","","3000","0","","","images/redplanet1.jpg","images/alien2","images/alien1","images/rocket2","","","2","real","false","1","rare","0","2022-12-08 19:58:19.088"
"two-step-fixation","170","413826","0.0-76.0-2.11","2874","5008","10","Male","true","true","true","false","""event"",""trial"",""time""
""fullscreenenter"",""5"",""20951""
","
","
","""event"",""trial"",""time""
""fullscreenenter"",""5"",""20951""
","
","","images/earth.jpg","","","","","","","","","","","","","","fixation","","","","","",""
"d3-animate-choice","171","416562","0.0-76.0-0.12","2874","5008","10","Male","true","true","true","false","""event"",""trial"",""time""
""fullscreenenter"",""5"",""20951""
","
","
","""event"",""trial"",""time""
""fullscreenenter"",""5"",""20951""
","
","726.8999999761581","","49","","","3000","1","","","images/earth.jpg","images/rocket2","images/rocket1","null","images/rocket1","","1","real","null","1","","",""
"d3-animate-choice","172","419074","0.0-76.0-1.12","2874","5008","10","Male","true","true","true","false","""event"",""trial"",""time""
""fullscreenenter"",""5"",""20951""
","
","
","""event"",""trial"",""time""
""fullscreenenter"",""5"",""20951""
","
","508.2999999523163","","49","","","3000","1","","","images/purpleplanet.jpg","images/alien4","images/alien3","images/rocket1","images/alien3","images/nothing.png","2","real","false","1","rare","0","2022-12-08 19:58:25.342"
"two-step-fixation","173","420086","0.0-76.0-2.12","2874","5008","10","Male","true","true","true","false","""event"",""trial"",""time""
""fullscreenenter"",""5"",""20951""
","
","
","""event"",""trial"",""time""
""fullscreenenter"",""5"",""20951""
","
","","images/earth.jpg","","","","","","","","","","","","","","fixation","","","","","",""
"d3-animate-choice","174","424090","0.0-76.0-0.13","2874","5008","10","Male","true","true","true","false","""event"",""trial"",""time""
""fullscreenenter"",""5"",""20951""
","
","
","""event"",""trial"",""time""
""fullscreenenter"",""5"",""20951""
","
","1999.1000000238419","","48","","","3000","1","","","images/earth.jpg","images/rocket2","images/rocket1","null","images/rocket2","","1","real","null","2","","",""
"d3-animate-choice","175","427318","0.0-76.0-1.13","2874","5008","10","Male","true","true","true","false","""event"",""trial"",""time""
""fullscreenenter"",""5"",""20951""
","
","
","""event"",""trial"",""time""
""fullscreenenter"",""5"",""20951""
","
","1223.699999988079","","49","","","3000","1","","","images/purpleplanet.jpg","images/alien4","images/alien3","images/rocket2","images/alien3","images/nothing.png","2","real","true","1","common","0","2022-12-08 19:58:33.586"
"two-step-fixation","176","428322","0.0-76.0-2.13","2874","5008","10","Male","true","true","true","false","""event"",""trial"",""time""
""fullscreenenter"",""5"",""20951""
","
","
","""event"",""trial"",""time""
""fullscreenenter"",""5"",""20951""
","
","","images/earth.jpg","","","","","","","","","","","","","","fixation","","","","","",""
"d3-animate-choice","177","430474","0.0-76.0-0.14","2874","5008","10","Male","true","true","true","false","""event"",""trial"",""time""
""fullscreenenter"",""5"",""20951""
","
","
","""event"",""trial"",""time""
""fullscreenenter"",""5"",""20951""
","
","144.30000001192093","","48","","","3000","1","","","images/earth.jpg","images/rocket2","images/rocket1","null","images/rocket2","","1","real","null","2","","",""
"d3-animate-choice","178","433274","0.0-76.0-1.14","2874","5008","10","Male","true","true","true","false","""event"",""trial"",""time""
""fullscreenenter"",""5"",""20951""
","
","
","""event"",""trial"",""time""
""fullscreenenter"",""5"",""20951""
","
","795.5","","48","","","3000","1","","","images/purpleplanet.jpg","images/alien4","images/alien3","images/rocket2","images/alien4","images/t.png","2","real","true","2","common","1","2022-12-08 19:58:39.543"
"two-step-fixation","179","434282","0.0-76.0-2.14","2874","5008","10","Male","true","true","true","false","""event"",""trial"",""time""
""fullscreenenter"",""5"",""20951""
","
","
","""event"",""trial"",""time""
""fullscreenenter"",""5"",""20951""
","
","","images/earth.jpg","","","","","","","","","","","","","","fixation","","","","","",""
"d3-animate-choice","180","438285","0.0-76.0-0.15","2874","5008","10","Male","true","true","true","false","""event"",""trial"",""time""
""fullscreenenter"",""5"",""20951""
","
","
","""event"",""trial"",""time""
""fullscreenenter"",""5"",""20951""
","
","3430.699999988079","","49","","","3000","0","","","images/earth.jpg","images/rocket2","images/rocket1","null","","","1","real","null","1","","",""
"d3-animate-choice","181","439299","0.0-76.0-1.15","2874","5008","10","Male","true","true","true","false","""event"",""trial"",""time""
""fullscreenenter"",""5"",""20951""
","
","
","""event"",""trial"",""time""
""fullscreenenter"",""5"",""20951""
","
","null","","null","","","0","0","","","images/earth.jpg","images/rocket2","images/rocket1","null","","","2","real","null","","","0","2022-12-08 19:58:45.567"
"two-step-fixation","182","440301","0.0-76.0-2.15","2874","5008","10","Male","true","true","true","false","""event"",""trial"",""time""
""fullscreenenter"",""5"",""20951""
","
","
","""event"",""trial"",""time""
""fullscreenenter"",""5"",""20951""
","
","","images/earth.jpg","","","","","","","","","","","","","","fixation","","","","","",""
"d3-animate-choice","183","442984","0.0-76.0-0.16","2874","5008","10","Male","true","true","true","false","""event"",""trial"",""time""
""fullscreenenter"",""5"",""20951""
","
","
","""event"",""trial"",""time""
""fullscreenenter"",""5"",""20951""
","
","678.9000000357628","","49","","","3000","1","","","images/earth.jpg","images/rocket2","images/rocket1","null","images/rocket1","","1","real","null","1","","",""
"d3-animate-choice","184","446702","0.0-76.0-1.16","2874","5008","10","Male","true","true","true","false","""event"",""trial"",""time""
""fullscreenenter"",""5"",""20951""
","
","
","""event"",""trial"",""time""
""fullscreenenter"",""5"",""20951""
","
","1711.699999988079","","48","","","3000","1","","","images/redplanet1.jpg","images/alien2","images/alien1","images/rocket1","images/alien2","images/t.png","2","real","true","2","common","1","2022-12-08 19:58:52.970"
"two-step-fixation","185","447707","0.0-76.0-2.16","2874","5008","10","Male","true","true","true","false","""event"",""trial"",""time""
""fullscreenenter"",""5"",""20951""
","
","
","""event"",""trial"",""time""
""fullscreenenter"",""5"",""20951""
","
","","images/earth.jpg","","","","","","","","","","","","","","fixation","","","","","",""
"d3-animate-choice","186","451718","0.0-76.0-0.17","2874","5008","10","Male","true","true","true","false","""event"",""trial"",""time""
""fullscreenenter"",""5"",""20951""
","
","
","""event"",""trial"",""time""
""fullscreenenter"",""5"",""20951""
","
","3066.399999976158","","49","","","3000","0","","","images/earth.jpg","images/rocket2","images/rocket1","null","","","1","real","null","1","","",""
"d3-animate-choice","187","452731","0.0-76.0-1.17","2874","5008","10","Male","true","true","true","false","""event"",""trial"",""time""
""fullscreenenter"",""5"",""20951""
","
","
","""event"",""trial"",""time""
""fullscreenenter"",""5"",""20951""
","
","358.89999997615814","","49","","","0","0","650.3000000119209,916","49,49","images/earth.jpg","images/rocket2","images/rocket1","null","","","2","real","null","1","","0","2022-12-08 19:58:58.999"
"two-step-fixation","188","453738","0.0-76.0-2.17","2874","5008","10","Male","true","true","true","false","""event"",""trial"",""time""
""fullscreenenter"",""5"",""20951""
","
","
","""event"",""trial"",""time""
""fullscreenenter"",""5"",""20951""
","
","","images/earth.jpg","","","","","","","","","","","","","","fixation","","","","","",""
"d3-animate-choice","189","455747","0.0-76.0-0.18","2874","5008","10","Male","true","true","true","false","""event"",""trial"",""time""
""fullscreenenter"",""5"",""20951""
","
","
","""event"",""trial"",""time""
""fullscreenenter"",""5"",""20951""
","
","0.800000011920929","","49","","","3000","1","","","images/earth.jpg","images/rocket2","images/rocket1","null","images/rocket1","","1","real","null","1","","",""
"d3-animate-choice","190","458299","0.0-76.0-1.18","2874","5008","10","Male","true","true","true","false","""event"",""trial"",""time""
""fullscreenenter"",""5"",""20951""
","
","
","""event"",""trial"",""time""
""fullscreenenter"",""5"",""20951""
","
","544","","48","","","3000","1","","","images/redplanet1.jpg","images/alien2","images/alien1","images/rocket1","images/alien2","images/t.png","2","real","true","2","common","1","2022-12-08 19:59:04.567"
"two-step-fixation","191","459307","0.0-76.0-2.18","2874","5008","10","Male","true","true","true","false","""event"",""trial"",""time""
""fullscreenenter"",""5"",""20951""
","
","
","""event"",""trial"",""time""
""fullscreenenter"",""5"",""20951""
","
","","images/earth.jpg","","","","","","","","","","","","","","fixation","","","","","",""
"d3-animate-choice","192","461859","0.0-76.0-0.19","2874","5008","10","Male","true","true","true","false","""event"",""trial"",""time""
""fullscreenenter"",""5"",""20951""
","
","
","""event"",""trial"",""time""
""fullscreenenter"",""5"",""20951""
","
","545","","49","","","3000","1","","","images/earth.jpg","images/rocket2","images/rocket1","null","images/rocket1","","1","real","null","1","","",""
"d3-animate-choice","193","464555","0.0-76.0-1.19","2874","5008","10","Male","true","true","true","false","""event"",""trial"",""time""
""fullscreenenter"",""5"",""20951""
","
","
","""event"",""trial"",""time""
""fullscreenenter"",""5"",""20951""
","
","686.8000000119209","","49","","","3000","1","","","images/purpleplanet.jpg","images/alien4","images/alien3","images/rocket1","images/alien3","images/nothing.png","2","real","false","1","rare","0","2022-12-08 19:59:10.823"
"two-step-fixation","194","465563","0.0-76.0-2.19","2874","5008","10","Male","true","true","true","false","""event"",""trial"",""time""
""fullscreenenter"",""5"",""20951""
","
","
","""event"",""trial"",""time""
""fullscreenenter"",""5"",""20951""
","
","","images/earth.jpg","","","","","","","","","","","","","","fixation","","","","","",""
"d3-animate-choice","195","468979","0.0-76.0-0.20","2874","5008","10","Male","true","true","true","false","""event"",""trial"",""time""
""fullscreenenter"",""5"",""20951""
","
","
","""event"",""trial"",""time""
""fullscreenenter"",""5"",""20951""
","
","1408.5","","49","","","3000","1","","","images/earth.jpg","images/rocket2","images/rocket1","null","images/rocket1","","1","real","null","1","","",""
"d3-animate-choice","196","471515","0.0-76.0-1.20","2874","5008","10","Male","true","true","true","false","""event"",""trial"",""time""
""fullscreenenter"",""5"",""20951""
","
","
","""event"",""trial"",""time""
""fullscreenenter"",""5"",""20951""
","
","531.1999999880791","","48","","","3000","1","","","images/redplanet1.jpg","images/alien2","images/alien1","images/rocket1","images/alien2","images/t.png","2","real","true","2","common","1","2022-12-08 19:59:17.783"
"two-step-fixation","197","472518","0.0-76.0-2.20","2874","5008","10","Male","true","true","true","false","""event"",""trial"",""time""
""fullscreenenter"",""5"",""20951""
","
","
","""event"",""trial"",""time""
""fullscreenenter"",""5"",""20951""
","
","","images/earth.jpg","","","","","","","","","","","","","","fixation","","","","","",""
"d3-animate-choice","198","476531","0.0-76.0-0.21","2874","5008","10","Male","true","true","true","false","""event"",""trial"",""time""
""fullscreenenter"",""5"",""20951""
","
","
","""event"",""trial"",""time""
""fullscreenenter"",""5"",""20951""
","
","2722.400000035763","","49","","","3000","1","","","images/earth.jpg","images/rocket2","images/rocket1","null","images/rocket1","","1","real","null","1","","",""
"d3-animate-choice","199","480535","0.0-76.0-1.21","2874","5008","10","Male","true","true","true","false","""event"",""trial"",""time""
""fullscreenenter"",""5"",""20951""
","
","
","""event"",""trial"",""time""
""fullscreenenter"",""5"",""20951""
","
","2103.699999988079","","48","","","3000","1","","","images/purpleplanet.jpg","images/alien4","images/alien3","images/rocket1","images/alien4","images/t.png","2","real","false","2","rare","1","2022-12-08 19:59:26.803"
"two-step-fixation","200","481539","0.0-76.0-2.21","2874","5008","10","Male","true","true","true","false","""event"",""trial"",""time""
""fullscreenenter"",""5"",""20951""
","
","
","""event"",""trial"",""time""
""fullscreenenter"",""5"",""20951""
","
","","images/earth.jpg","","","","","","","","","","","","","","fixation","","","","","",""
"d3-animate-choice","201","484123","0.0-76.0-0.22","2874","5008","10","Male","true","true","true","false","""event"",""trial"",""time""
""fullscreenenter"",""5"",""20951""
","
","
","""event"",""trial"",""time""
""fullscreenenter"",""5"",""20951""
","
","578.3999999761581","","49","","","3000","1","","","images/earth.jpg","images/rocket2","images/rocket1","null","images/rocket1","","1","real","null","1","","",""
"d3-animate-choice","202","486714","0.0-76.0-1.22","2874","5008","10","Male","true","true","true","false","""event"",""trial"",""time""
""fullscreenenter"",""5"",""20951""
","
","
","""event"",""trial"",""time""
""fullscreenenter"",""5"",""20951""
","
","587.0999999642372","","48","","","3000","1","","","images/redplanet1.jpg","images/alien2","images/alien1","images/rocket1","images/alien2","images/t.png","2","real","true","2","common","1","2022-12-08 19:59:32.982"
"two-step-fixation","203","487723","0.0-76.0-2.22","2874","5008","10","Male","true","true","true","false","""event"",""trial"",""time""
""fullscreenenter"",""5"",""20951""
","
","
","""event"",""trial"",""time""
""fullscreenenter"",""5"",""20951""
","
","","images/earth.jpg","","","","","","","","","","","","","","fixation","","","","","",""
"d3-animate-choice","204","490683","0.0-76.0-0.23","2874","5008","10","Male","true","true","true","false","""event"",""trial"",""time""
""fullscreenenter"",""5"",""20951""
","
","
","""event"",""trial"",""time""
""fullscreenenter"",""5"",""20951""
","
","950.0999999642372","","49","","","3000","1","","","images/earth.jpg","images/rocket2","images/rocket1","null","images/rocket1","","1","real","null","1","","",""
"d3-animate-choice","205","493195","0.0-76.0-1.23","2874","5008","10","Male","true","true","true","false","""event"",""trial"",""time""
""fullscreenenter"",""5"",""20951""
","
","
","""event"",""trial"",""time""
""fullscreenenter"",""5"",""20951""
","
","506","","49","","","3000","1","","","images/redplanet1.jpg","images/alien2","images/alien1","images/rocket1","images/alien1","images/t.png","2","real","true","1","common","1","2022-12-08 19:59:39.463"
"two-step-fixation","206","494201","0.0-76.0-2.23","2874","5008","10","Male","true","true","true","false","""event"",""trial"",""time""
""fullscreenenter"",""5"",""20951""
","
","
","""event"",""trial"",""time""
""fullscreenenter"",""5"",""20951""
","
","","images/earth.jpg","","","","","","","","","","","","","","fixation","","","","","",""
"d3-animate-choice","207","498218","0.0-76.0-0.24","2874","5008","10","Male","true","true","true","false","""event"",""trial"",""time""
""fullscreenenter"",""5"",""20951""
","
","
","""event"",""trial"",""time""
""fullscreenenter"",""5"",""20951""
","
","2813.899999976158","","49","","","3000","1","","","images/earth.jpg","images/rocket2","images/rocket1","null","images/rocket1","","1","real","null","1","","",""
"d3-animate-choice","208","502235","0.0-76.0-1.24","2874","5008","10","Male","true","true","true","false","""event"",""trial"",""time""
""fullscreenenter"",""5"",""20951""
","
","
","""event"",""trial"",""time""
""fullscreenenter"",""5"",""20951""
","
","2263.7000000476837","","49","","","3000","1","","","images/redplanet1.jpg","images/alien2","images/alien1","images/rocket1","images/alien1","images/t.png","2","real","true","1","common","1","2022-12-08 19:59:48.503"
"two-step-fixation","209","503243","0.0-76.0-2.24","2874","5008","10","Male","true","true","true","false","""event"",""trial"",""time""
""fullscreenenter"",""5"",""20951""
","
","
","""event"",""trial"",""time""
""fullscreenenter"",""5"",""20951""
","
","","images/earth.jpg","","","","","","","","","","","","","","fixation","","","","","",""
"d3-animate-choice","210","505931","0.0-76.0-0.25","2874","5008","10","Male","true","true","true","false","""event"",""trial"",""time""
""fullscreenenter"",""5"",""20951""
","
","
","""event"",""trial"",""time""
""fullscreenenter"",""5"",""20951""
","
","677.1000000238419","","49","","","3000","1","","","images/earth.jpg","images/rocket2","images/rocket1","null","images/rocket1","","1","real","null","1","","",""
"d3-animate-choice","211","509715","0.0-76.0-1.25","2874","5008","10","Male","true","true","true","false","""event"",""trial"",""time""
""fullscreenenter"",""5"",""20951""
","
","
","""event"",""trial"",""time""
""fullscreenenter"",""5"",""20951""
","
","1780.4000000357628","","49","","","3000","1","","","images/redplanet1.jpg","images/alien2","images/alien1","images/rocket1","images/alien1","images/nothing.png","2","real","true","1","common","0","2022-12-08 19:59:55.984"
"two-step-fixation","212","510724","0.0-76.0-2.25","2874","5008","10","Male","true","true","true","false","""event"",""trial"",""time""
""fullscreenenter"",""5"",""20951""
","
","
","""event"",""trial"",""time""
""fullscreenenter"",""5"",""20951""
","
","","images/earth.jpg","","","","","","","","","","","","","","fixation","","","","","",""
"d3-animate-choice","213","514051","0.0-76.0-0.26","2874","5008","10","Male","true","true","true","false","""event"",""trial"",""time""
""fullscreenenter"",""5"",""20951""
","
","
","""event"",""trial"",""time""
""fullscreenenter"",""5"",""20951""
","
","1317","","49","","","3000","1","","","images/earth.jpg","images/rocket2","images/rocket1","null","images/rocket1","","1","real","null","1","","",""
"d3-animate-choice","214","516524","0.0-76.0-1.26","2874","5008","10","Male","true","true","true","false","""event"",""trial"",""time""
""fullscreenenter"",""5"",""20951""
","
","
","""event"",""trial"",""time""
""fullscreenenter"",""5"",""20951""
","
","468","","49","","","3000","1","","","images/redplanet1.jpg","images/alien2","images/alien1","images/rocket1","images/alien1","images/nothing.png","2","real","true","1","common","0","2022-12-08 20:00:02.792"
"two-step-fixation","215","517531","0.0-76.0-2.26","2874","5008","10","Male","true","true","true","false","""event"",""trial"",""time""
""fullscreenenter"",""5"",""20951""
","
","
","""event"",""trial"",""time""
""fullscreenenter"",""5"",""20951""
","
","","images/earth.jpg","","","","","","","","","","","","","","fixation","","","","","",""
"d3-animate-choice","216","519884","0.0-76.0-0.27","2874","5008","10","Male","true","true","true","false","""event"",""trial"",""time""
""fullscreenenter"",""5"",""20951""
","
","
","""event"",""trial"",""time""
""fullscreenenter"",""5"",""20951""
","
","344.60000002384186","","49","","","3000","1","","","images/earth.jpg","images/rocket2","images/rocket1","null","images/rocket1","","1","real","null","1","","",""
"d3-animate-choice","217","522564","0.0-76.0-1.27","2874","5008","10","Male","true","true","true","false","""event"",""trial"",""time""
""fullscreenenter"",""5"",""20951""
","
","
","""event"",""trial"",""time""
""fullscreenenter"",""5"",""20951""
","
","674.5","","49","","","3000","1","","","images/redplanet1.jpg","images/alien2","images/alien1","images/rocket1","images/alien1","images/t.png","2","real","true","1","common","1","2022-12-08 20:00:08.832"
"two-step-fixation","218","523568","0.0-76.0-2.27","2874","5008","10","Male","true","true","true","false","""event"",""trial"",""time""
""fullscreenenter"",""5"",""20951""
","
","
","""event"",""trial"",""time""
""fullscreenenter"",""5"",""20951""
","
","","images/earth.jpg","","","","","","","","","","","","","","fixation","","","","","",""
"d3-animate-choice","219","525801","0.0-76.0-0.28","2874","5008","10","Male","true","true","true","false","""event"",""trial"",""time""
""fullscreenenter"",""5"",""20951""
","
","
","""event"",""trial"",""time""
""fullscreenenter"",""5"",""20951""
","
","228.79999995231628","","49","","","3000","1","","","images/earth.jpg","images/rocket2","images/rocket1","null","images/rocket1","","1","real","null","1","","",""
"d3-animate-choice","220","528844","0.0-76.0-1.28","2874","5008","10","Male","true","true","true","false","""event"",""trial"",""time""
""fullscreenenter"",""5"",""20951""
","
","
","""event"",""trial"",""time""
""fullscreenenter"",""5"",""20951""
","
","1038.699999988079","","49","","","3000","1","","","images/redplanet1.jpg","images/alien2","images/alien1","images/rocket1","images/alien1","images/t.png","2","real","true","1","common","1","2022-12-08 20:00:15.112"
"two-step-fixation","221","529850","0.0-76.0-2.28","2874","5008","10","Male","true","true","true","false","""event"",""trial"",""time""
""fullscreenenter"",""5"",""20951""
","
","
","""event"",""trial"",""time""
""fullscreenenter"",""5"",""20951""
","
","","images/earth.jpg","","","","","","","","","","","","","","fixation","","","","","",""
"d3-animate-choice","222","532308","0.0-76.0-0.29","2874","5008","10","Male","true","true","true","false","""event"",""trial"",""time""
""fullscreenenter"",""5"",""20951""
","
","
","""event"",""trial"",""time""
""fullscreenenter"",""5"",""20951""
","
","452.30000001192093","","49","","","3000","1","802.6000000238419,1166.9000000357628,1571.800000011921,1931.4000000357628","49,49,49,49","images/earth.jpg","images/rocket2","images/rocket1","null","images/rocket1","","1","real","null","1","","",""
"d3-animate-choice","223","536318","0.0-76.0-1.29","2874","5008","10","Male","true","true","true","false","""event"",""trial"",""time""
""fullscreenenter"",""5"",""20951""
","
","
","""event"",""trial"",""time""
""fullscreenenter"",""5"",""20951""
","
","2537.5","","49","","","3000","1","","","images/redplanet1.jpg","images/alien2","images/alien1","images/rocket1","images/alien1","images/t.png","2","real","true","1","common","1","2022-12-08 20:00:22.586"
"two-step-fixation","224","537324","0.0-76.0-2.29","2874","5008","10","Male","true","true","true","false","""event"",""trial"",""time""
""fullscreenenter"",""5"",""20951""
","
","
","""event"",""trial"",""time""
""fullscreenenter"",""5"",""20951""
","
","","images/earth.jpg","","","","","","","","","","","","","","fixation","","","","","",""
"d3-animate-choice","225","539443","0.0-76.0-0.30","2874","5008","10","Male","true","true","true","false","""event"",""trial"",""time""
""fullscreenenter"",""5"",""20951""
","
","
","""event"",""trial"",""time""
""fullscreenenter"",""5"",""20951""
","
","109.89999997615814","","49","","","3000","1","448.5999999642372,1549.5","49,49","images/earth.jpg","images/rocket2","images/rocket1","null","images/rocket1","","1","real","null","1","","",""
"d3-animate-choice","226","541659","0.0-76.0-1.30","2874","5008","10","Male","true","true","true","false","""event"",""trial"",""time""
""fullscreenenter"",""5"",""20951""
","
","
","""event"",""trial"",""time""
""fullscreenenter"",""5"",""20951""
","
","210.80000001192093","","49","","","3000","1","669.1999999880791","49","images/purpleplanet.jpg","images/alien4","images/alien3","images/rocket1","images/alien3","images/t.png","2","real","false","1","rare","1","2022-12-08 20:00:27.927"
"two-step-fixation","227","542668","0.0-76.0-2.30","2874","5008","10","Male","true","true","true","false","""event"",""trial"",""time""
""fullscreenenter"",""5"",""20951""
","
","
","""event"",""trial"",""time""
""fullscreenenter"",""5"",""20951""
","
","","images/earth.jpg","","","","","","","","","","","","","","fixation","","","","","",""
"d3-animate-choice","228","546323","0.0-76.0-0.31","2874","5008","10","Male","true","true","true","false","""event"",""trial"",""time""
""fullscreenenter"",""5"",""20951""
","
","
","""event"",""trial"",""time""
""fullscreenenter"",""5"",""20951""
","
","1648.8999999761581","","49","","","3000","1","","","images/earth.jpg","images/rocket2","images/rocket1","null","images/rocket1","","1","real","null","1","","",""
"d3-animate-choice","229","548750","0.0-76.0-1.31","2874","5008","10","Male","true","true","true","false","""event"",""trial"",""time""
""fullscreenenter"",""5"",""20951""
","
","
","""event"",""trial"",""time""
""fullscreenenter"",""5"",""20951""
","
","414","","48","","","3000","1","","","images/purpleplanet.jpg","images/alien4","images/alien3","images/rocket1","images/alien4","images/t.png","2","real","false","2","rare","1","2022-12-08 20:00:35.018"
"two-step-fixation","230","549755","0.0-76.0-2.31","2874","5008","10","Male","true","true","true","false","""event"",""trial"",""time""
""fullscreenenter"",""5"",""20951""
","
","
","""event"",""trial"",""time""
""fullscreenenter"",""5"",""20951""
","
","","images/earth.jpg","","","","","","","","","","","","","","fixation","","","","","",""
"d3-animate-choice","231","552908","0.0-76.0-0.32","2874","5008","10","Male","true","true","true","false","""event"",""trial"",""time""
""fullscreenenter"",""5"",""20951""
","
","
","""event"",""trial"",""time""
""fullscreenenter"",""5"",""20951""
","
","1145.9000000357628","","49","","","3000","1","","","images/earth.jpg","images/rocket2","images/rocket1","null","images/rocket1","","1","real","null","1","","",""
"d3-animate-choice","232","555251","0.0-76.0-1.32","2874","5008","10","Male","true","true","true","false","""event"",""trial"",""time""
""fullscreenenter"",""5"",""20951""
","
","
","""event"",""trial"",""time""
""fullscreenenter"",""5"",""20951""
","
","338.5999999642372","","49","","","3000","1","","","images/redplanet1.jpg","images/alien2","images/alien1","images/rocket1","images/alien1","images/nothing.png","2","real","true","1","common","0","2022-12-08 20:00:41.519"
"two-step-fixation","233","556260","0.0-76.0-2.32","2874","5008","10","Male","true","true","true","false","""event"",""trial"",""time""
""fullscreenenter"",""5"",""20951""
","
","
","""event"",""trial"",""time""
""fullscreenenter"",""5"",""20951""
","
","","images/earth.jpg","","","","","","","","","","","","","","fixation","","","","","",""
"d3-animate-choice","234","559180","0.0-76.0-0.33","2874","5008","10","Male","true","true","true","false","""event"",""trial"",""time""
""fullscreenenter"",""5"",""20951""
","
","
","""event"",""trial"",""time""
""fullscreenenter"",""5"",""20951""
","
","910","","49","","","3000","1","1843.1000000238419,2092.7000000476837,2322.800000011921,2525.7000000476837,2765.7000000476837","48,48,48,48,48","images/earth.jpg","images/rocket2","images/rocket1","null","images/rocket1","","1","real","null","1","","",""
"d3-animate-choice","235","561332","0.0-76.0-1.33","2874","5008","10","Male","true","true","true","false","""event"",""trial"",""time""
""fullscreenenter"",""5"",""20951""
","
","
","""event"",""trial"",""time""
""fullscreenenter"",""5"",""20951""
","
","140.80000001192093","","48","","","3000","1","331.5,568.8000000119209,781.9000000357628","48,48,48","images/purpleplanet.jpg","images/alien4","images/alien3","images/rocket1","images/alien4","images/nothing.png","2","real","false","2","rare","0","2022-12-08 20:00:47.600"
"two-step-fixation","236","562335","0.0-76.0-2.33","2874","5008","10","Male","true","true","true","false","""event"",""trial"",""time""
""fullscreenenter"",""5"",""20951""
","
","
","""event"",""trial"",""time""
""fullscreenenter"",""5"",""20951""
","
","","images/earth.jpg","","","","","","","","","","","","","","fixation","","","","","",""
"d3-animate-choice","237","565924","0.0-76.0-0.34","2874","5008","10","Male","true","true","true","false","""event"",""trial"",""time""
""fullscreenenter"",""5"",""20951""
","
","
","""event"",""trial"",""time""
""fullscreenenter"",""5"",""20951""
","
","1581.699999988079","","49","","","3000","1","1820.9000000357628,2024.5,2231.699999988079,2434.600000023842,2649.800000011921,2895.5,3092.199999988079,3297.800000011921,3501.699999988079","49,49,49,49,49,49,49,49,49","images/earth.jpg","images/rocket2","images/rocket1","null","images/rocket1","","1","real","null","1","","",""
"d3-animate-choice","238","568084","0.0-76.0-1.34","2874","5008","10","Male","true","true","true","false","""event"",""trial"",""time""
""fullscreenenter"",""5"",""20951""
","
","
","""event"",""trial"",""time""
""fullscreenenter"",""5"",""20951""
","
","151","","49","","","3000","1","353.69999998807907,602","49,49","images/purpleplanet.jpg","images/alien4","images/alien3","images/rocket1","images/alien3","images/t.png","2","real","false","1","rare","1","2022-12-08 20:00:54.352"
"two-step-fixation","239","569092","0.0-76.0-2.34","2874","5008","10","Male","true","true","true","false","""event"",""trial"",""time""
""fullscreenenter"",""5"",""20951""
","
","
","""event"",""trial"",""time""
""fullscreenenter"",""5"",""20951""
","
","","images/earth.jpg","","","","","","","","","","","","","","fixation","","","","","",""
"d3-animate-choice","240","572500","0.0-76.0-0.35","2874","5008","10","Male","true","true","true","false","""event"",""trial"",""time""
""fullscreenenter"",""5"",""20951""
","
","
","""event"",""trial"",""time""
""fullscreenenter"",""5"",""20951""
","
","1403.7999999523163","","49","","","3000","1","","","images/earth.jpg","images/rocket2","images/rocket1","null","images/rocket1","","1","real","null","1","","",""
"d3-animate-choice","241","575732","0.0-76.0-1.35","2874","5008","10","Male","true","true","true","false","""event"",""trial"",""time""
""fullscreenenter"",""5"",""20951""
","
","
","""event"",""trial"",""time""
""fullscreenenter"",""5"",""20951""
","
","1224.300000011921","","49","","","3000","1","","","images/redplanet1.jpg","images/alien2","images/alien1","images/rocket1","images/alien1","images/t.png","2","real","true","1","common","1","2022-12-08 20:01:02.001"
"two-step-fixation","242","576740","0.0-76.0-2.35","2874","5008","10","Male","true","true","true","false","""event"",""trial"",""time""
""fullscreenenter"",""5"",""20951""
","
","
","""event"",""trial"",""time""
""fullscreenenter"",""5"",""20951""
","
","","images/earth.jpg","","","","","","","","","","","","","","fixation","","","","","",""
