"trial_type","trial_index","time_elapsed","internal_node_id","participant_id","subject_id","age","gender","rocket_sides","red_planet_first_rocket","red_display_order","purple_display_order","interactions","blur_events","focus_events","fullscreenenter_events","fullscreenexit_events","rt","stimulus","key_press","button_pressed","success","duration","valid_pressed","rts","keys","planet_text","right_text","left_text","center_text","chosen_text","reward_text","trial_stage","practice_trial","transition_type","choice","transition","reward","timestamp"
"pavlovia","0","1","0.0-0.0","3923","7268","25","Male","false","false","true","true","""event"",""trial"",""time""
""blur"",""1"",""2053""
""focus"",""1"",""7369""
""blur"",""1"",""15781""
""focus"",""1"",""16562""
","""event"",""trial"",""time""
""blur"",""1"",""2053""
""blur"",""1"",""15781""
","""event"",""trial"",""time""
""focus"",""1"",""7369""
""focus"",""1"",""16562""
","
","
","","","","","","","","","","","","","","","","","","","","","",""
"html-keyboard-response","1","17618","0.0-1.0","3923","7268","25","Male","false","false","true","true","""event"",""trial"",""time""
""blur"",""1"",""2053""
""focus"",""1"",""7369""
""blur"",""1"",""15781""
""focus"",""1"",""16562""
","""event"",""trial"",""time""
""blur"",""1"",""2053""
""blur"",""1"",""15781""
","""event"",""trial"",""time""
""focus"",""1"",""7369""
""focus"",""1"",""16562""
","
","
","17616.399999999907","Welcome! Press the space bar to begin.","32","","","","","","","","","","","","","","","","","","",""
"audio-keyboard-response","2","18750","0.0-2.0","3923","7268","25","Male","false","false","true","true","""event"",""trial"",""time""
""blur"",""1"",""2053""
""focus"",""1"",""7369""
""blur"",""1"",""15781""
""focus"",""1"",""16562""
","""event"",""trial"",""time""
""blur"",""1"",""2053""
""blur"",""1"",""15781""
","""event"",""trial"",""time""
""focus"",""1"",""7369""
""focus"",""1"",""16562""
","
","
","720","audio/beep_loop.wav","32","","","","","","","","","","","","","","","","","","",""
"audio-button-response","3","20702","0.0-3.0","3923","7268","25","Male","false","false","true","true","""event"",""trial"",""time""
""blur"",""1"",""2053""
""focus"",""1"",""7369""
""blur"",""1"",""15781""
""focus"",""1"",""16562""
","""event"",""trial"",""time""
""blur"",""1"",""2053""
""blur"",""1"",""15781""
","""event"",""trial"",""time""
""focus"",""1"",""7369""
""focus"",""1"",""16562""
","
","
","NaN","audio/fish.mp3","","1","","","","","","","","","","","","","","","","","",""
"audio-button-response","4","22478","0.0-4.0","3923","7268","25","Male","false","false","true","true","""event"",""trial"",""time""
""blur"",""1"",""2053""
""focus"",""1"",""7369""
""blur"",""1"",""15781""
""focus"",""1"",""16562""
""fullscreenenter"",""5"",""24727""
","""event"",""trial"",""time""
""blur"",""1"",""2053""
""blur"",""1"",""15781""
","""event"",""trial"",""time""
""focus"",""1"",""7369""
""focus"",""1"",""16562""
","""event"",""trial"",""time""
""fullscreenenter"",""5"",""24727""
","
","NaN","audio/tiger.mp3","","4","","","","","","","","","","","","","","","","","",""
"fullscreen","5","25737","0.0-5.0","3923","7268","25","Male","false","false","true","true","""event"",""trial"",""time""
""blur"",""1"",""2053""
""focus"",""1"",""7369""
""blur"",""1"",""15781""
""focus"",""1"",""16562""
""fullscreenenter"",""5"",""24727""
","""event"",""trial"",""time""
""blur"",""1"",""2053""
""blur"",""1"",""15781""
","""event"",""trial"",""time""
""focus"",""1"",""7369""
""focus"",""1"",""16562""
","""event"",""trial"",""time""
""fullscreenenter"",""5"",""24727""
","
","","","","","true","","","","","","","","","","","","","","","","",""
"d3-instructions","6","27563","0.0-6.0","3923","7268","25","Male","false","false","true","true","""event"",""trial"",""time""
""blur"",""1"",""2053""
""focus"",""1"",""7369""
""blur"",""1"",""15781""
""focus"",""1"",""16562""
""fullscreenenter"",""5"",""24727""
","""event"",""trial"",""time""
""blur"",""1"",""2053""
""blur"",""1"",""15781""
","""event"",""trial"",""time""
""focus"",""1"",""7369""
""focus"",""1"",""16562""
","""event"",""trial"",""time""
""fullscreenenter"",""5"",""24727""
","
","","","","","","","","","","","","","","","","","","","","","",""
"d3-instructions","7","27930","0.0-7.0","3923","7268","25","Male","false","false","true","true","""event"",""trial"",""time""
""blur"",""1"",""2053""
""focus"",""1"",""7369""
""blur"",""1"",""15781""
""focus"",""1"",""16562""
""fullscreenenter"",""5"",""24727""
","""event"",""trial"",""time""
""blur"",""1"",""2053""
""blur"",""1"",""15781""
","""event"",""trial"",""time""
""focus"",""1"",""7369""
""focus"",""1"",""16562""
","""event"",""trial"",""time""
""fullscreenenter"",""5"",""24727""
","
","","","","","","","","","","","","","","","","","","","","","",""
"d3-instructions","8","28477","0.0-8.0","3923","7268","25","Male","false","false","true","true","""event"",""trial"",""time""
""blur"",""1"",""2053""
""focus"",""1"",""7369""
""blur"",""1"",""15781""
""focus"",""1"",""16562""
""fullscreenenter"",""5"",""24727""
","""event"",""trial"",""time""
""blur"",""1"",""2053""
""blur"",""1"",""15781""
","""event"",""trial"",""time""
""focus"",""1"",""7369""
""focus"",""1"",""16562""
","""event"",""trial"",""time""
""fullscreenenter"",""5"",""24727""
","
","","","","","","","","","","","","","","","","","","","","","",""
"d3-instructions","9","28777","0.0-9.0","3923","7268","25","Male","false","false","true","true","""event"",""trial"",""time""
""blur"",""1"",""2053""
""focus"",""1"",""7369""
""blur"",""1"",""15781""
""focus"",""1"",""16562""
""fullscreenenter"",""5"",""24727""
","""event"",""trial"",""time""
""blur"",""1"",""2053""
""blur"",""1"",""15781""
","""event"",""trial"",""time""
""focus"",""1"",""7369""
""focus"",""1"",""16562""
","""event"",""trial"",""time""
""fullscreenenter"",""5"",""24727""
","
","","","","","","","","","","","","","","","","","","","","","",""
"d3-instructions","10","29081","0.0-10.0","3923","7268","25","Male","false","false","true","true","""event"",""trial"",""time""
""blur"",""1"",""2053""
""focus"",""1"",""7369""
""blur"",""1"",""15781""
""focus"",""1"",""16562""
""fullscreenenter"",""5"",""24727""
","""event"",""trial"",""time""
""blur"",""1"",""2053""
""blur"",""1"",""15781""
","""event"",""trial"",""time""
""focus"",""1"",""7369""
""focus"",""1"",""16562""
","""event"",""trial"",""time""
""fullscreenenter"",""5"",""24727""
","
","","","","","","","","","","","","","","","","","","","","","",""
"d3-animate-choice","11","34017","0.0-11.0","3923","7268","25","Male","false","false","true","true","""event"",""trial"",""time""
""blur"",""1"",""2053""
""focus"",""1"",""7369""
""blur"",""1"",""15781""
""focus"",""1"",""16562""
""fullscreenenter"",""5"",""24727""
","""event"",""trial"",""time""
""blur"",""1"",""2053""
""blur"",""1"",""15781""
","""event"",""trial"",""time""
""focus"",""1"",""7369""
""focus"",""1"",""16562""
","""event"",""trial"",""time""
""fullscreenenter"",""5"",""24727""
","
","134.60000000009313","","32","","","3000","1","286.5,434.79999999981374,2925.600000000093,4020.7999999998137","32,32,49,49","images/tutgreenplanet.jpg","images/tutalien1","images/tutalien2","null","images/tutalien2","","NA","practice","null","","","",""
"d3-animate-choice","12","36027","0.0-12.0","3923","7268","25","Male","false","false","true","true","""event"",""trial"",""time""
""blur"",""1"",""2053""
""focus"",""1"",""7369""
""blur"",""1"",""15781""
""focus"",""1"",""16562""
""fullscreenenter"",""5"",""24727""
","""event"",""trial"",""time""
""blur"",""1"",""2053""
""blur"",""1"",""15781""
","""event"",""trial"",""time""
""focus"",""1"",""7369""
""focus"",""1"",""16562""
","""event"",""trial"",""time""
""fullscreenenter"",""5"",""24727""
","
","6.400000000372529","","48","","","3000","1","263.3000000002794,444.8000000002794,690.3000000002794,754.3000000002794,937.8000000002794,1012,1140.3000000002794,1211.1000000000931,1326.4000000003725,1380.2000000001863,1538.4000000003725,1538.6000000000931,1717.7000000001863,1752.1000000000931,1895.8000000002794,1908.7000000001863","48,49,48,49,48,49,48,49,48,49,49,48,49,48,49,48","images/tutgreenplanet.jpg","images/tutalien1","images/tutalien2","null","images/tutalien1","","NA","practice","null","","","",""
"d3-animate-choice","13","38107","0.0-13.0","3923","7268","25","Male","false","false","true","true","""event"",""trial"",""time""
""blur"",""1"",""2053""
""focus"",""1"",""7369""
""blur"",""1"",""15781""
""focus"",""1"",""16562""
""fullscreenenter"",""5"",""24727""
","""event"",""trial"",""time""
""blur"",""1"",""2053""
""blur"",""1"",""15781""
","""event"",""trial"",""time""
""focus"",""1"",""7369""
""focus"",""1"",""16562""
","""event"",""trial"",""time""
""fullscreenenter"",""5"",""24727""
","
","64.40000000037253","","49","","","3000","1","86.70000000018626,250.3000000002794,253.3000000002794,413.90000000037253,421.70000000018626,584.6000000000931,589.9000000003725,755.6000000000931,786,921.4000000003725,1178.4000000003725,1460.9000000003725,1462.5,1653.3000000002794,1821.4000000003725,2030.6000000000931","48,49,48,48,49,49,48,48,49,48,49,48,49,48,48,48","images/tutgreenplanet.jpg","images/tutalien1","images/tutalien2","null","images/tutalien2","","NA","practice","null","","","",""
"d3-animate-choice","14","40257","0.0-14.0","3923","7268","25","Male","false","false","true","true","""event"",""trial"",""time""
""blur"",""1"",""2053""
""focus"",""1"",""7369""
""blur"",""1"",""15781""
""focus"",""1"",""16562""
""fullscreenenter"",""5"",""24727""
","""event"",""trial"",""time""
""blur"",""1"",""2053""
""blur"",""1"",""15781""
","""event"",""trial"",""time""
""focus"",""1"",""7369""
""focus"",""1"",""16562""
","""event"",""trial"",""time""
""fullscreenenter"",""5"",""24727""
","
","138.70000000018626","","48","","","3000","1","294.3000000002794,492,768.7000000001863,967.4000000003725,1211.9000000003725,1214.3000000002794,1404.6000000000931,1484.9000000003725,1636.8000000002794,1702.9000000003725,1876.3000000002794,1895.1000000000931,2083.4000000003725,2086.3000000002794","48,48,48,48,48,49,48,49,48,49,48,49,48,49","images/tutgreenplanet.jpg","images/tutalien1","images/tutalien2","null","images/tutalien1","","NA","practice","null","","","",""
"d3-instructions","15","42239","0.0-15.0","3923","7268","25","Male","false","false","true","true","""event"",""trial"",""time""
""blur"",""1"",""2053""
""focus"",""1"",""7369""
""blur"",""1"",""15781""
""focus"",""1"",""16562""
""fullscreenenter"",""5"",""24727""
","""event"",""trial"",""time""
""blur"",""1"",""2053""
""blur"",""1"",""15781""
","""event"",""trial"",""time""
""focus"",""1"",""7369""
""focus"",""1"",""16562""
","""event"",""trial"",""time""
""fullscreenenter"",""5"",""24727""
","
","","","","","","","","","","","","","","","","","","","","","",""
"d3-instructions","16","42923","0.0-16.0","3923","7268","25","Male","false","false","true","true","""event"",""trial"",""time""
""blur"",""1"",""2053""
""focus"",""1"",""7369""
""blur"",""1"",""15781""
""focus"",""1"",""16562""
""fullscreenenter"",""5"",""24727""
","""event"",""trial"",""time""
""blur"",""1"",""2053""
""blur"",""1"",""15781""
","""event"",""trial"",""time""
""focus"",""1"",""7369""
""focus"",""1"",""16562""
","""event"",""trial"",""time""
""fullscreenenter"",""5"",""24727""
","
","","","","","","","","","","","","","","","","","","","","","",""
"d3-instructions","17","43101","0.0-17.0","3923","7268","25","Male","false","false","true","true","""event"",""trial"",""time""
""blur"",""1"",""2053""
""focus"",""1"",""7369""
""blur"",""1"",""15781""
""focus"",""1"",""16562""
""fullscreenenter"",""5"",""24727""
","""event"",""trial"",""time""
""blur"",""1"",""2053""
""blur"",""1"",""15781""
","""event"",""trial"",""time""
""focus"",""1"",""7369""
""focus"",""1"",""16562""
","""event"",""trial"",""time""
""fullscreenenter"",""5"",""24727""
","
","","","","","","","","","","","","","","","","","","","","","",""
"d3-instructions","18","43427","0.0-18.0","3923","7268","25","Male","false","false","true","true","""event"",""trial"",""time""
""blur"",""1"",""2053""
""focus"",""1"",""7369""
""blur"",""1"",""15781""
""focus"",""1"",""16562""
""fullscreenenter"",""5"",""24727""
","""event"",""trial"",""time""
""blur"",""1"",""2053""
""blur"",""1"",""15781""
","""event"",""trial"",""time""
""focus"",""1"",""7369""
""focus"",""1"",""16562""
","""event"",""trial"",""time""
""fullscreenenter"",""5"",""24727""
","
","","","","","","","","","","","","","","","","","","","","","",""
"d3-instructions","19","43750","0.0-19.0","3923","7268","25","Male","false","false","true","true","""event"",""trial"",""time""
""blur"",""1"",""2053""
""focus"",""1"",""7369""
""blur"",""1"",""15781""
""focus"",""1"",""16562""
""fullscreenenter"",""5"",""24727""
","""event"",""trial"",""time""
""blur"",""1"",""2053""
""blur"",""1"",""15781""
","""event"",""trial"",""time""
""focus"",""1"",""7369""
""focus"",""1"",""16562""
","""event"",""trial"",""time""
""fullscreenenter"",""5"",""24727""
","
","","","","","","","","","","","","","","","","","","","","","",""
"d3-animate-choice","20","47587","0.0-20.0","3923","7268","25","Male","false","false","true","true","""event"",""trial"",""time""
""blur"",""1"",""2053""
""focus"",""1"",""7369""
""blur"",""1"",""15781""
""focus"",""1"",""16562""
""fullscreenenter"",""5"",""24727""
","""event"",""trial"",""time""
""blur"",""1"",""2053""
""blur"",""1"",""15781""
","""event"",""trial"",""time""
""focus"",""1"",""7369""
""focus"",""1"",""16562""
","""event"",""trial"",""time""
""fullscreenenter"",""5"",""24727""
","
","159.79999999981374","","32","","","3000","1","332.60000000009313,502.89999999990687,702.8999999999069,1828.6000000000931,2129.899999999907,2331.899999999907,2509.899999999907,2663.5,2819.2999999998137,2985.899999999907,3149.7999999998137,3325.100000000093,3503.899999999907,3676.1999999997206","32,32,32,49,49,49,49,49,49,49,49,49,49,49","images/tutyellowplanet.jpg","null","images/tutalien3","null","images/tutalien3","images/nothing.png","NA","practice","null","","","",""
"d3-animate-choice","21","49607","0.0-21.0","3923","7268","25","Male","false","false","true","true","""event"",""trial"",""time""
""blur"",""1"",""2053""
""focus"",""1"",""7369""
""blur"",""1"",""15781""
""focus"",""1"",""16562""
""fullscreenenter"",""5"",""24727""
","""event"",""trial"",""time""
""blur"",""1"",""2053""
""blur"",""1"",""15781""
","""event"",""trial"",""time""
""focus"",""1"",""7369""
""focus"",""1"",""16562""
","""event"",""trial"",""time""
""fullscreenenter"",""5"",""24727""
","
","10.199999999720603","","49","","","3000","1","183,347.1999999997206,530.0999999996275,713.6999999997206,961.8999999999069,1193.5999999996275,1412.8999999999069,1605.1999999997206,1841.3999999999069","49,49,49,49,49,49,49,49,49","images/tutyellowplanet.jpg","null","images/tutalien3","null","images/tutalien3","images/t.png","NA","practice","null","","","",""
"d3-animate-choice","22","51667","0.0-22.0","3923","7268","25","Male","false","false","true","true","""event"",""trial"",""time""
""blur"",""1"",""2053""
""focus"",""1"",""7369""
""blur"",""1"",""15781""
""focus"",""1"",""16562""
""fullscreenenter"",""5"",""24727""
","""event"",""trial"",""time""
""blur"",""1"",""2053""
""blur"",""1"",""15781""
","""event"",""trial"",""time""
""focus"",""1"",""7369""
""focus"",""1"",""16562""
","""event"",""trial"",""time""
""fullscreenenter"",""5"",""24727""
","
","41.5","","49","","","3000","1","252.10000000009313,458.10000000009313,718.6999999997206,926.1999999997206,1133.6999999997206,1342.2999999998137,1563,1751.3999999999069,2007.6999999997206","49,49,49,49,49,49,49,49,49","images/tutyellowplanet.jpg","null","images/tutalien3","null","images/tutalien3","images/nothing.png","NA","practice","null","","","",""
"d3-animate-choice","23","53837","0.0-23.0","3923","7268","25","Male","false","false","true","true","""event"",""trial"",""time""
""blur"",""1"",""2053""
""focus"",""1"",""7369""
""blur"",""1"",""15781""
""focus"",""1"",""16562""
""fullscreenenter"",""5"",""24727""
","""event"",""trial"",""time""
""blur"",""1"",""2053""
""blur"",""1"",""15781""
","""event"",""trial"",""time""
""focus"",""1"",""7369""
""focus"",""1"",""16562""
","""event"",""trial"",""time""
""fullscreenenter"",""5"",""24727""
","
","161.89999999990687","","49","","","3000","1","423.60000000009313,646.6000000000931,887.1000000000931,1064.8999999999069,1308,1741.2999999998137,1983.2999999998137","49,49,49,49,49,49,49","images/tutyellowplanet.jpg","null","images/tutalien3","null","images/tutalien3","images/t.png","NA","practice","null","","","",""
"d3-animate-choice","24","55857","0.0-24.0","3923","7268","25","Male","false","false","true","true","""event"",""trial"",""time""
""blur"",""1"",""2053""
""focus"",""1"",""7369""
""blur"",""1"",""15781""
""focus"",""1"",""16562""
""fullscreenenter"",""5"",""24727""
","""event"",""trial"",""time""
""blur"",""1"",""2053""
""blur"",""1"",""15781""
","""event"",""trial"",""time""
""focus"",""1"",""7369""
""focus"",""1"",""16562""
","""event"",""trial"",""time""
""fullscreenenter"",""5"",""24727""
","
","16.899999999906868","","49","","","3000","1","222.29999999981374,442.10000000009313,646,833.7999999998137,1041.7000000001863,1237.8999999999069,1445.2999999998137,1656.6000000000931,1869.8999999999069","49,49,49,49,49,49,49,49,49","images/tutyellowplanet.jpg","null","images/tutalien3","null","images/tutalien3","images/t.png","NA","practice","null","","","",""
"d3-animate-choice","25","57927","0.0-25.0","3923","7268","25","Male","false","false","true","true","""event"",""trial"",""time""
""blur"",""1"",""2053""
""focus"",""1"",""7369""
""blur"",""1"",""15781""
""focus"",""1"",""16562""
""fullscreenenter"",""5"",""24727""
","""event"",""trial"",""time""
""blur"",""1"",""2053""
""blur"",""1"",""15781""
","""event"",""trial"",""time""
""focus"",""1"",""7369""
""focus"",""1"",""16562""
","""event"",""trial"",""time""
""fullscreenenter"",""5"",""24727""
","
","63.700000000186265","","49","","","3000","1","277.10000000009313,470.10000000009313,663,849.8999999999069,1070.3999999999069,1287.5,1509.3999999999069,1796.5,2024.1000000000931","49,49,49,49,49,49,49,49,49","images/tutyellowplanet.jpg","null","images/tutalien3","null","images/tutalien3","images/t.png","NA","practice","null","","","",""
"d3-animate-choice","26","60127","0.0-26.0","3923","7268","25","Male","false","false","true","true","""event"",""trial"",""time""
""blur"",""1"",""2053""
""focus"",""1"",""7369""
""blur"",""1"",""15781""
""focus"",""1"",""16562""
""fullscreenenter"",""5"",""24727""
","""event"",""trial"",""time""
""blur"",""1"",""2053""
""blur"",""1"",""15781""
","""event"",""trial"",""time""
""focus"",""1"",""7369""
""focus"",""1"",""16562""
","""event"",""trial"",""time""
""fullscreenenter"",""5"",""24727""
","
","184.70000000018626","","49","","","3000","1","405.39999999990687,625.7000000001863,861.2999999998137,1095.2999999998137,1336.2000000001863,1568.3999999999069,1822.6000000000931,2049.600000000093","49,49,49,49,49,49,49,49","images/tutyellowplanet.jpg","null","images/tutalien3","null","images/tutalien3","images/t.png","NA","practice","null","","","",""
"d3-animate-choice","27","62227","0.0-27.0","3923","7268","25","Male","false","false","true","true","""event"",""trial"",""time""
""blur"",""1"",""2053""
""focus"",""1"",""7369""
""blur"",""1"",""15781""
""focus"",""1"",""16562""
""fullscreenenter"",""5"",""24727""
","""event"",""trial"",""time""
""blur"",""1"",""2053""
""blur"",""1"",""15781""
","""event"",""trial"",""time""
""focus"",""1"",""7369""
""focus"",""1"",""16562""
","""event"",""trial"",""time""
""fullscreenenter"",""5"",""24727""
","
","84.60000000009313","","49","","","3000","1","361.20000000018626,613.5,882.7000000001863,1120.1000000000931,1365.4000000003725,1594.3000000002794,1833.1000000000931,2066.9000000003725","49,49,49,49,49,49,49,49","images/tutyellowplanet.jpg","null","images/tutalien3","null","images/tutalien3","images/t.png","NA","practice","null","","","",""
"d3-animate-choice","28","64437","0.0-28.0","3923","7268","25","Male","false","false","true","true","""event"",""trial"",""time""
""blur"",""1"",""2053""
""focus"",""1"",""7369""
""blur"",""1"",""15781""
""focus"",""1"",""16562""
""fullscreenenter"",""5"",""24727""
","""event"",""trial"",""time""
""blur"",""1"",""2053""
""blur"",""1"",""15781""
","""event"",""trial"",""time""
""focus"",""1"",""7369""
""focus"",""1"",""16562""
","""event"",""trial"",""time""
""fullscreenenter"",""5"",""24727""
","
","202.70000000018626","","49","","","3000","1","441.39999999990687,671.1000000000931,893.6000000000931,1127,1336.8999999999069,1564.8000000002794,1777.7000000001863,2010.8999999999069","49,49,49,49,49,49,49,49","images/tutyellowplanet.jpg","null","images/tutalien3","null","images/tutalien3","images/t.png","NA","practice","null","","","",""
"d3-animate-choice","29","66497","0.0-29.0","3923","7268","25","Male","false","false","true","true","""event"",""trial"",""time""
""blur"",""1"",""2053""
""focus"",""1"",""7369""
""blur"",""1"",""15781""
""focus"",""1"",""16562""
""fullscreenenter"",""5"",""24727""
","""event"",""trial"",""time""
""blur"",""1"",""2053""
""blur"",""1"",""15781""
","""event"",""trial"",""time""
""focus"",""1"",""7369""
""focus"",""1"",""16562""
","""event"",""trial"",""time""
""fullscreenenter"",""5"",""24727""
","
","47.1999999997206","","49","","","3000","1","266,476.5,709.5,946.6999999997206,1178.8999999999069,1423.3999999999069,1650,1864.5","49,49,49,49,49,49,49,49","images/tutyellowplanet.jpg","null","images/tutalien3","null","images/tutalien3","images/t.png","NA","practice","null","","","",""
"d3-instructions","30","69391","0.0-30.0","3923","7268","25","Male","false","false","true","true","""event"",""trial"",""time""
""blur"",""1"",""2053""
""focus"",""1"",""7369""
""blur"",""1"",""15781""
""focus"",""1"",""16562""
""fullscreenenter"",""5"",""24727""
","""event"",""trial"",""time""
""blur"",""1"",""2053""
""blur"",""1"",""15781""
","""event"",""trial"",""time""
""focus"",""1"",""7369""
""focus"",""1"",""16562""
","""event"",""trial"",""time""
""fullscreenenter"",""5"",""24727""
","
","","","","","","","","","","","","","","","","","","","","","",""
"d3-instructions","31","69719","0.0-31.0","3923","7268","25","Male","false","false","true","true","""event"",""trial"",""time""
""blur"",""1"",""2053""
""focus"",""1"",""7369""
""blur"",""1"",""15781""
""focus"",""1"",""16562""
""fullscreenenter"",""5"",""24727""
","""event"",""trial"",""time""
""blur"",""1"",""2053""
""blur"",""1"",""15781""
","""event"",""trial"",""time""
""focus"",""1"",""7369""
""focus"",""1"",""16562""
","""event"",""trial"",""time""
""fullscreenenter"",""5"",""24727""
","
","","","","","","","","","","","","","","","","","","","","","",""
"d3-instructions","32","70099","0.0-32.0","3923","7268","25","Male","false","false","true","true","""event"",""trial"",""time""
""blur"",""1"",""2053""
""focus"",""1"",""7369""
""blur"",""1"",""15781""
""focus"",""1"",""16562""
""fullscreenenter"",""5"",""24727""
","""event"",""trial"",""time""
""blur"",""1"",""2053""
""blur"",""1"",""15781""
","""event"",""trial"",""time""
""focus"",""1"",""7369""
""focus"",""1"",""16562""
","""event"",""trial"",""time""
""fullscreenenter"",""5"",""24727""
","
","","","","","","","","","","","","","","","","","","","","","",""
"d3-instructions","33","70292","0.0-33.0","3923","7268","25","Male","false","false","true","true","""event"",""trial"",""time""
""blur"",""1"",""2053""
""focus"",""1"",""7369""
""blur"",""1"",""15781""
""focus"",""1"",""16562""
""fullscreenenter"",""5"",""24727""
","""event"",""trial"",""time""
""blur"",""1"",""2053""
""blur"",""1"",""15781""
","""event"",""trial"",""time""
""focus"",""1"",""7369""
""focus"",""1"",""16562""
","""event"",""trial"",""time""
""fullscreenenter"",""5"",""24727""
","
","","","","","","","","","","","","","","","","","","","","","",""
"d3-animate-choice","34","75817","0.0-34.0","3923","7268","25","Male","false","false","true","true","""event"",""trial"",""time""
""blur"",""1"",""2053""
""focus"",""1"",""7369""
""blur"",""1"",""15781""
""focus"",""1"",""16562""
""fullscreenenter"",""5"",""24727""
","""event"",""trial"",""time""
""blur"",""1"",""2053""
""blur"",""1"",""15781""
","""event"",""trial"",""time""
""focus"",""1"",""7369""
""focus"",""1"",""16562""
","""event"",""trial"",""time""
""fullscreenenter"",""5"",""24727""
","
","190.29999999981374","","32","","","3000","1","381.5,585.5,3521.399999999907,3728.5,3906.100000000093,3993.5,4184.200000000186,4186.200000000186,4366.200000000186,4486.399999999907,4552.600000000093,4708.899999999907,4741.200000000186,4923.799999999814,4935.299999999814,5128.700000000186,5131.200000000186,5298.799999999814,5358.700000000186,5428.299999999814","32,32,49,48,49,48,48,49,48,49,48,49,48,49,48,48,49,48,49,48","images/tutgreenplanet.jpg","images/tutalien1","images/tutalien2","null","images/tutalien2","images/t.png","NA","practice","null","","","",""
"d3-animate-choice","35","77877","0.0-35.0","3923","7268","25","Male","false","false","true","true","""event"",""trial"",""time""
""blur"",""1"",""2053""
""focus"",""1"",""7369""
""blur"",""1"",""15781""
""focus"",""1"",""16562""
""fullscreenenter"",""5"",""24727""
","""event"",""trial"",""time""
""blur"",""1"",""2053""
""blur"",""1"",""15781""
","""event"",""trial"",""time""
""focus"",""1"",""7369""
""focus"",""1"",""16562""
","""event"",""trial"",""time""
""fullscreenenter"",""5"",""24727""
","
","55.89999999990687","","49","","","3000","1","71.10000000009313,256.3000000002794,472.3000000002794,677.5,910.1000000000931,1151.3000000002794,1383.3999999999069,1637,1854.7000000001863","48,49,49,49,49,49,49,49,49","images/tutgreenplanet.jpg","images/tutalien1","images/tutalien2","null","images/tutalien2","images/t.png","NA","practice","null","","","",""
"d3-animate-choice","36","79925","0.0-36.0","3923","7268","25","Male","false","false","true","true","""event"",""trial"",""time""
""blur"",""1"",""2053""
""focus"",""1"",""7369""
""blur"",""1"",""15781""
""focus"",""1"",""16562""
""fullscreenenter"",""5"",""24727""
","""event"",""trial"",""time""
""blur"",""1"",""2053""
""blur"",""1"",""15781""
","""event"",""trial"",""time""
""focus"",""1"",""7369""
""focus"",""1"",""16562""
","""event"",""trial"",""time""
""fullscreenenter"",""5"",""24727""
","
","45.799999999813735","","49","","","3000","1","274.10000000009313,470,679.1999999997206,903.1999999997206,1103.1999999997206,1347.1000000000931,1572.6999999997206,1805.1000000000931,2046.7999999998137","49,49,49,49,49,49,49,49,49","images/tutgreenplanet.jpg","images/tutalien1","images/tutalien2","null","images/tutalien2","images/t.png","NA","practice","null","","","",""
"d3-animate-choice","37","82157","0.0-37.0","3923","7268","25","Male","false","false","true","true","""event"",""trial"",""time""
""blur"",""1"",""2053""
""focus"",""1"",""7369""
""blur"",""1"",""15781""
""focus"",""1"",""16562""
""fullscreenenter"",""5"",""24727""
","""event"",""trial"",""time""
""blur"",""1"",""2053""
""blur"",""1"",""15781""
","""event"",""trial"",""time""
""focus"",""1"",""7369""
""focus"",""1"",""16562""
","""event"",""trial"",""time""
""fullscreenenter"",""5"",""24727""
","
","214.70000000018626","","49","","","3000","1","457.8000000002794,680.9000000003725,914.3000000002794,1141.3000000002794,1373.9000000003725,1612,1859.7000000001863,2090.2000000001863","49,49,49,49,49,49,49,49","images/tutgreenplanet.jpg","images/tutalien1","images/tutalien2","null","images/tutalien2","images/t.png","NA","practice","null","","","",""
"d3-animate-choice","38","84297","0.0-38.0","3923","7268","25","Male","false","false","true","true","""event"",""trial"",""time""
""blur"",""1"",""2053""
""focus"",""1"",""7369""
""blur"",""1"",""15781""
""focus"",""1"",""16562""
""fullscreenenter"",""5"",""24727""
","""event"",""trial"",""time""
""blur"",""1"",""2053""
""blur"",""1"",""15781""
","""event"",""trial"",""time""
""focus"",""1"",""7369""
""focus"",""1"",""16562""
","""event"",""trial"",""time""
""fullscreenenter"",""5"",""24727""
","
","117.8000000002794","","49","","","3000","1","360.3000000002794,555.3000000002794,836.6000000000931,1058,1302,1531.5,1768.1000000000931,2001.8000000002794","49,49,49,49,49,49,49,49","images/tutgreenplanet.jpg","images/tutalien1","images/tutalien2","null","images/tutalien2","images/t.png","NA","practice","null","","","",""
"d3-animate-choice","39","86404","0.0-39.0","3923","7268","25","Male","false","false","true","true","""event"",""trial"",""time""
""blur"",""1"",""2053""
""focus"",""1"",""7369""
""blur"",""1"",""15781""
""focus"",""1"",""16562""
""fullscreenenter"",""5"",""24727""
","""event"",""trial"",""time""
""blur"",""1"",""2053""
""blur"",""1"",""15781""
","""event"",""trial"",""time""
""focus"",""1"",""7369""
""focus"",""1"",""16562""
","""event"",""trial"",""time""
""fullscreenenter"",""5"",""24727""
","
","100.10000000009313","","49","","","3000","1","308.5,494.3000000002794,737.3999999999069,971.3000000002794,1192.3999999999069,1414.8999999999069,1640.8999999999069,1872.2000000001863,2105.600000000093","49,49,49,49,49,49,49,49,49","images/tutgreenplanet.jpg","images/tutalien1","images/tutalien2","null","images/tutalien2","images/t.png","NA","practice","null","","","",""
"d3-animate-choice","40","88647","0.0-40.0","3923","7268","25","Male","false","false","true","true","""event"",""trial"",""time""
""blur"",""1"",""2053""
""focus"",""1"",""7369""
""blur"",""1"",""15781""
""focus"",""1"",""16562""
""fullscreenenter"",""5"",""24727""
","""event"",""trial"",""time""
""blur"",""1"",""2053""
""blur"",""1"",""15781""
","""event"",""trial"",""time""
""focus"",""1"",""7369""
""focus"",""1"",""16562""
","""event"",""trial"",""time""
""fullscreenenter"",""5"",""24727""
","
","231.5","","49","","","3000","1","462,697.2000000001863,925,1163.8000000002794,1372.6000000000931,1600.7000000001863,1829.7000000001863,2055.600000000093","49,49,49,49,49,49,49,49","images/tutgreenplanet.jpg","images/tutalien1","images/tutalien2","null","images/tutalien2","images/t.png","NA","practice","null","","","",""
"d3-animate-choice","41","90697","0.0-41.0","3923","7268","25","Male","false","false","true","true","""event"",""trial"",""time""
""blur"",""1"",""2053""
""focus"",""1"",""7369""
""blur"",""1"",""15781""
""focus"",""1"",""16562""
""fullscreenenter"",""5"",""24727""
","""event"",""trial"",""time""
""blur"",""1"",""2053""
""blur"",""1"",""15781""
","""event"",""trial"",""time""
""focus"",""1"",""7369""
""focus"",""1"",""16562""
","""event"",""trial"",""time""
""fullscreenenter"",""5"",""24727""
","
","43.39999999990687","","49","","","3000","1","291.29999999981374,535.7999999998137,761.5,994.7999999998137,1236.1000000000931,1482,1725.1000000000931,1958.2999999998137","49,49,49,49,49,49,49,49","images/tutgreenplanet.jpg","images/tutalien1","images/tutalien2","null","images/tutalien2","images/t.png","NA","practice","null","","","",""
"d3-animate-choice","42","92857","0.0-42.0","3923","7268","25","Male","false","false","true","true","""event"",""trial"",""time""
""blur"",""1"",""2053""
""focus"",""1"",""7369""
""blur"",""1"",""15781""
""focus"",""1"",""16562""
""fullscreenenter"",""5"",""24727""
","""event"",""trial"",""time""
""blur"",""1"",""2053""
""blur"",""1"",""15781""
","""event"",""trial"",""time""
""focus"",""1"",""7369""
""focus"",""1"",""16562""
","""event"",""trial"",""time""
""fullscreenenter"",""5"",""24727""
","
","147.6999999997206","","49","","","3000","1","383.6999999997206,628.0999999996275,862.1999999997206,1116.8999999999069,1351.2999999998137,1582.7999999998137,1822.2999999998137,2076.1999999997206","49,49,49,49,49,49,49,49","images/tutgreenplanet.jpg","images/tutalien1","images/tutalien2","null","images/tutalien2","images/t.png","NA","practice","null","","","",""
"d3-animate-choice","43","95056","0.0-43.0","3923","7268","25","Male","false","false","true","true","""event"",""trial"",""time""
""blur"",""1"",""2053""
""focus"",""1"",""7369""
""blur"",""1"",""15781""
""focus"",""1"",""16562""
""fullscreenenter"",""5"",""24727""
","""event"",""trial"",""time""
""blur"",""1"",""2053""
""blur"",""1"",""15781""
","""event"",""trial"",""time""
""focus"",""1"",""7369""
""focus"",""1"",""16562""
","""event"",""trial"",""time""
""fullscreenenter"",""5"",""24727""
","
","184.3000000002794","","49","","","3000","1","397.40000000037253,640.6000000000931,852.8000000002794,1103.1000000000931,1342.2000000001863,1592.3000000002794,1846.8000000002794,2077.3000000002794","49,49,49,49,49,49,49,49","images/tutgreenplanet.jpg","images/tutalien1","images/tutalien2","null","images/tutalien2","images/t.png","NA","practice","null","","","",""
"d3-instructions","44","97956","0.0-44.0","3923","7268","25","Male","false","false","true","true","""event"",""trial"",""time""
""blur"",""1"",""2053""
""focus"",""1"",""7369""
""blur"",""1"",""15781""
""focus"",""1"",""16562""
""fullscreenenter"",""5"",""24727""
","""event"",""trial"",""time""
""blur"",""1"",""2053""
""blur"",""1"",""15781""
","""event"",""trial"",""time""
""focus"",""1"",""7369""
""focus"",""1"",""16562""
","""event"",""trial"",""time""
""fullscreenenter"",""5"",""24727""
","
","","","","","","","","","","","","","","","","","","","","","",""
"d3-instructions","45","98295","0.0-45.0","3923","7268","25","Male","false","false","true","true","""event"",""trial"",""time""
""blur"",""1"",""2053""
""focus"",""1"",""7369""
""blur"",""1"",""15781""
""focus"",""1"",""16562""
""fullscreenenter"",""5"",""24727""
","""event"",""trial"",""time""
""blur"",""1"",""2053""
""blur"",""1"",""15781""
","""event"",""trial"",""time""
""focus"",""1"",""7369""
""focus"",""1"",""16562""
","""event"",""trial"",""time""
""fullscreenenter"",""5"",""24727""
","
","","","","","","","","","","","","","","","","","","","","","",""
"d3-instructions","46","98500","0.0-46.0","3923","7268","25","Male","false","false","true","true","""event"",""trial"",""time""
""blur"",""1"",""2053""
""focus"",""1"",""7369""
""blur"",""1"",""15781""
""focus"",""1"",""16562""
""fullscreenenter"",""5"",""24727""
","""event"",""trial"",""time""
""blur"",""1"",""2053""
""blur"",""1"",""15781""
","""event"",""trial"",""time""
""focus"",""1"",""7369""
""focus"",""1"",""16562""
","""event"",""trial"",""time""
""fullscreenenter"",""5"",""24727""
","
","","","","","","","","","","","","","","","","","","","","","",""
"d3-instructions","47","98667","0.0-47.0","3923","7268","25","Male","false","false","true","true","""event"",""trial"",""time""
""blur"",""1"",""2053""
""focus"",""1"",""7369""
""blur"",""1"",""15781""
""focus"",""1"",""16562""
""fullscreenenter"",""5"",""24727""
","""event"",""trial"",""time""
""blur"",""1"",""2053""
""blur"",""1"",""15781""
","""event"",""trial"",""time""
""focus"",""1"",""7369""
""focus"",""1"",""16562""
","""event"",""trial"",""time""
""fullscreenenter"",""5"",""24727""
","
","","","","","","","","","","","","","","","","","","","","","",""
"d3-instructions","48","98850","0.0-48.0","3923","7268","25","Male","false","false","true","true","""event"",""trial"",""time""
""blur"",""1"",""2053""
""focus"",""1"",""7369""
""blur"",""1"",""15781""
""focus"",""1"",""16562""
""fullscreenenter"",""5"",""24727""
","""event"",""trial"",""time""
""blur"",""1"",""2053""
""blur"",""1"",""15781""
","""event"",""trial"",""time""
""focus"",""1"",""7369""
""focus"",""1"",""16562""
","""event"",""trial"",""time""
""fullscreenenter"",""5"",""24727""
","
","","","","","","","","","","","","","","","","","","","","","",""
"d3-instructions","49","99256","0.0-49.0","3923","7268","25","Male","false","false","true","true","""event"",""trial"",""time""
""blur"",""1"",""2053""
""focus"",""1"",""7369""
""blur"",""1"",""15781""
""focus"",""1"",""16562""
""fullscreenenter"",""5"",""24727""
","""event"",""trial"",""time""
""blur"",""1"",""2053""
""blur"",""1"",""15781""
","""event"",""trial"",""time""
""focus"",""1"",""7369""
""focus"",""1"",""16562""
","""event"",""trial"",""time""
""fullscreenenter"",""5"",""24727""
","
","","","","","","","","","","","","","","","","","","","","","",""
"d3-instructions","50","99443","0.0-50.0","3923","7268","25","Male","false","false","true","true","""event"",""trial"",""time""
""blur"",""1"",""2053""
""focus"",""1"",""7369""
""blur"",""1"",""15781""
""focus"",""1"",""16562""
""fullscreenenter"",""5"",""24727""
","""event"",""trial"",""time""
""blur"",""1"",""2053""
""blur"",""1"",""15781""
","""event"",""trial"",""time""
""focus"",""1"",""7369""
""focus"",""1"",""16562""
","""event"",""trial"",""time""
""fullscreenenter"",""5"",""24727""
","
","","","","","","","","","","","","","","","","","","","","","",""
"d3-instructions","51","99918","0.0-51.0","3923","7268","25","Male","false","false","true","true","""event"",""trial"",""time""
""blur"",""1"",""2053""
""focus"",""1"",""7369""
""blur"",""1"",""15781""
""focus"",""1"",""16562""
""fullscreenenter"",""5"",""24727""
","""event"",""trial"",""time""
""blur"",""1"",""2053""
""blur"",""1"",""15781""
","""event"",""trial"",""time""
""focus"",""1"",""7369""
""focus"",""1"",""16562""
","""event"",""trial"",""time""
""fullscreenenter"",""5"",""24727""
","
","","","","","","","","","","","","","","","","","","","","","",""
"d3-instructions","52","100105","0.0-52.0","3923","7268","25","Male","false","false","true","true","""event"",""trial"",""time""
""blur"",""1"",""2053""
""focus"",""1"",""7369""
""blur"",""1"",""15781""
""focus"",""1"",""16562""
""fullscreenenter"",""5"",""24727""
","""event"",""trial"",""time""
""blur"",""1"",""2053""
""blur"",""1"",""15781""
","""event"",""trial"",""time""
""focus"",""1"",""7369""
""focus"",""1"",""16562""
","""event"",""trial"",""time""
""fullscreenenter"",""5"",""24727""
","
","","","","","","","","","","","","","","","","","","","","","",""
"d3-instructions","53","100293","0.0-53.0","3923","7268","25","Male","false","false","true","true","""event"",""trial"",""time""
""blur"",""1"",""2053""
""focus"",""1"",""7369""
""blur"",""1"",""15781""
""focus"",""1"",""16562""
""fullscreenenter"",""5"",""24727""
","""event"",""trial"",""time""
""blur"",""1"",""2053""
""blur"",""1"",""15781""
","""event"",""trial"",""time""
""focus"",""1"",""7369""
""focus"",""1"",""16562""
","""event"",""trial"",""time""
""fullscreenenter"",""5"",""24727""
","
","","","","","","","","","","","","","","","","","","","","","",""
"d3-instructions","54","100494","0.0-54.0","3923","7268","25","Male","false","false","true","true","""event"",""trial"",""time""
""blur"",""1"",""2053""
""focus"",""1"",""7369""
""blur"",""1"",""15781""
""focus"",""1"",""16562""
""fullscreenenter"",""5"",""24727""
","""event"",""trial"",""time""
""blur"",""1"",""2053""
""blur"",""1"",""15781""
","""event"",""trial"",""time""
""focus"",""1"",""7369""
""focus"",""1"",""16562""
","""event"",""trial"",""time""
""fullscreenenter"",""5"",""24727""
","
","","","","","","","","","","","","","","","","","","","","","",""
"d3-instructions","55","100870","0.0-55.0","3923","7268","25","Male","false","false","true","true","""event"",""trial"",""time""
""blur"",""1"",""2053""
""focus"",""1"",""7369""
""blur"",""1"",""15781""
""focus"",""1"",""16562""
""fullscreenenter"",""5"",""24727""
","""event"",""trial"",""time""
""blur"",""1"",""2053""
""blur"",""1"",""15781""
","""event"",""trial"",""time""
""focus"",""1"",""7369""
""focus"",""1"",""16562""
","""event"",""trial"",""time""
""fullscreenenter"",""5"",""24727""
","
","","","","","","","","","","","","","","","","","","","","","",""
"d3-instructions","56","101053","0.0-56.0","3923","7268","25","Male","false","false","true","true","""event"",""trial"",""time""
""blur"",""1"",""2053""
""focus"",""1"",""7369""
""blur"",""1"",""15781""
""focus"",""1"",""16562""
""fullscreenenter"",""5"",""24727""
","""event"",""trial"",""time""
""blur"",""1"",""2053""
""blur"",""1"",""15781""
","""event"",""trial"",""time""
""focus"",""1"",""7369""
""focus"",""1"",""16562""
","""event"",""trial"",""time""
""fullscreenenter"",""5"",""24727""
","
","","","","","","","","","","","","","","","","","","","","","",""
"d3-instructions","57","101257","0.0-57.0","3923","7268","25","Male","false","false","true","true","""event"",""trial"",""time""
""blur"",""1"",""2053""
""focus"",""1"",""7369""
""blur"",""1"",""15781""
""focus"",""1"",""16562""
""fullscreenenter"",""5"",""24727""
","""event"",""trial"",""time""
""blur"",""1"",""2053""
""blur"",""1"",""15781""
","""event"",""trial"",""time""
""focus"",""1"",""7369""
""focus"",""1"",""16562""
","""event"",""trial"",""time""
""fullscreenenter"",""5"",""24727""
","
","","","","","","","","","","","","","","","","","","","","","",""
"d3-instructions","58","101457","0.0-58.0","3923","7268","25","Male","false","false","true","true","""event"",""trial"",""time""
""blur"",""1"",""2053""
""focus"",""1"",""7369""
""blur"",""1"",""15781""
""focus"",""1"",""16562""
""fullscreenenter"",""5"",""24727""
","""event"",""trial"",""time""
""blur"",""1"",""2053""
""blur"",""1"",""15781""
","""event"",""trial"",""time""
""focus"",""1"",""7369""
""focus"",""1"",""16562""
","""event"",""trial"",""time""
""fullscreenenter"",""5"",""24727""
","
","","","","","","","","","","","","","","","","","","","","","",""
"d3-instructions","59","101650","0.0-59.0","3923","7268","25","Male","false","false","true","true","""event"",""trial"",""time""
""blur"",""1"",""2053""
""focus"",""1"",""7369""
""blur"",""1"",""15781""
""focus"",""1"",""16562""
""fullscreenenter"",""5"",""24727""
","""event"",""trial"",""time""
""blur"",""1"",""2053""
""blur"",""1"",""15781""
","""event"",""trial"",""time""
""focus"",""1"",""7369""
""focus"",""1"",""16562""
","""event"",""trial"",""time""
""fullscreenenter"",""5"",""24727""
","
","","","","","","","","","","","","","","","","","","","","","",""
"d3-instructions","60","102028","0.0-60.0","3923","7268","25","Male","false","false","true","true","""event"",""trial"",""time""
""blur"",""1"",""2053""
""focus"",""1"",""7369""
""blur"",""1"",""15781""
""focus"",""1"",""16562""
""fullscreenenter"",""5"",""24727""
","""event"",""trial"",""time""
""blur"",""1"",""2053""
""blur"",""1"",""15781""
","""event"",""trial"",""time""
""focus"",""1"",""7369""
""focus"",""1"",""16562""
","""event"",""trial"",""time""
""fullscreenenter"",""5"",""24727""
","
","","","","","","","","","","","","","","","","","","","","","",""
"d3-animate-choice","61","105018","0.0-61.0-0.0","3923","7268","25","Male","false","false","true","true","""event"",""trial"",""time""
""blur"",""1"",""2053""
""focus"",""1"",""7369""
""blur"",""1"",""15781""
""focus"",""1"",""16562""
""fullscreenenter"",""5"",""24727""
","""event"",""trial"",""time""
""blur"",""1"",""2053""
""blur"",""1"",""15781""
","""event"",""trial"",""time""
""focus"",""1"",""7369""
""focus"",""1"",""16562""
","""event"",""trial"",""time""
""fullscreenenter"",""5"",""24727""
","
","171.5","","32","","","3000","1","375.40000000037253,987.6000000000931,1219,1392.9000000003725,1970.3000000002794,2214.8000000002794","32,49,49,49,49,49","images/earth.jpg","images/tutrocket1","images/tutrocket2","null","images/tutrocket2","","1","practice","null","","","",""
"d3-animate-choice","62","107666","0.0-61.0-1.0","3923","7268","25","Male","false","false","true","true","""event"",""trial"",""time""
""blur"",""1"",""2053""
""focus"",""1"",""7369""
""blur"",""1"",""15781""
""focus"",""1"",""16562""
""fullscreenenter"",""5"",""24727""
","""event"",""trial"",""time""
""blur"",""1"",""2053""
""blur"",""1"",""15781""
","""event"",""trial"",""time""
""focus"",""1"",""7369""
""focus"",""1"",""16562""
","""event"",""trial"",""time""
""fullscreenenter"",""5"",""24727""
","
","645.3999999999069","","49","","","3000","1","872.1000000000931,1085.8999999999069,1264.7000000001863,1472.2000000001863,1681.3000000002794,1921","49,49,49,49,49,49","images/tutgreenplanet.jpg","images/tutalien2","images/tutalien1","images/tutrocket2","images/tutalien1","images/t.png","2","practice","true","1","common","1","2023-03-04 20:39:55.092"
"two-step-fixation","63","108676","0.0-61.0-2.0","3923","7268","25","Male","false","false","true","true","""event"",""trial"",""time""
""blur"",""1"",""2053""
""focus"",""1"",""7369""
""blur"",""1"",""15781""
""focus"",""1"",""16562""
""fullscreenenter"",""5"",""24727""
","""event"",""trial"",""time""
""blur"",""1"",""2053""
""blur"",""1"",""15781""
","""event"",""trial"",""time""
""focus"",""1"",""7369""
""focus"",""1"",""16562""
","""event"",""trial"",""time""
""fullscreenenter"",""5"",""24727""
","
","","images/earth.jpg","","","","","","","","","","","","","","fixation","","","","","",""
"d3-animate-choice","64","111135","0.0-61.0-0.1","3923","7268","25","Male","false","false","true","true","""event"",""trial"",""time""
""blur"",""1"",""2053""
""focus"",""1"",""7369""
""blur"",""1"",""15781""
""focus"",""1"",""16562""
""fullscreenenter"",""5"",""24727""
","""event"",""trial"",""time""
""blur"",""1"",""2053""
""blur"",""1"",""15781""
","""event"",""trial"",""time""
""focus"",""1"",""7369""
""focus"",""1"",""16562""
","""event"",""trial"",""time""
""fullscreenenter"",""5"",""24727""
","
","455.70000000018626","","49","","","3000","1","666.2000000001863,880.3000000002794,1089.8000000002794,1282.2000000001863,1496.7000000001863,1720.6000000000931,2122.100000000093,2436.8000000002794","49,49,49,49,49,49,49,49","images/earth.jpg","images/tutrocket1","images/tutrocket2","null","images/tutrocket2","","1","practice","null","1","","",""
"d3-animate-choice","65","114696","0.0-61.0-1.1","3923","7268","25","Male","false","false","true","true","""event"",""trial"",""time""
""blur"",""1"",""2053""
""focus"",""1"",""7369""
""blur"",""1"",""15781""
""focus"",""1"",""16562""
""fullscreenenter"",""5"",""24727""
","""event"",""trial"",""time""
""blur"",""1"",""2053""
""blur"",""1"",""15781""
","""event"",""trial"",""time""
""focus"",""1"",""7369""
""focus"",""1"",""16562""
","""event"",""trial"",""time""
""fullscreenenter"",""5"",""24727""
","
","407.89999999990687","","50","","","3000","1","656.7999999998137,865.2999999998137,1125.7999999998137,1543.2999999998137,1743.2999999998137,1946.1000000000931,2192.600000000093,2409.5,2635.600000000093,2861.2000000001863,3085.5,3336.2000000001863","50,50,50,49,49,49,49,49,49,49,49,49","images/tutyellowplanet.jpg","images/tutalien4","images/tutalien3","images/tutrocket2","images/tutalien3","images/nothing.png","2","practice","false","","rare","0","2023-03-04 20:40:02.122"
"two-step-fixation","66","115716","0.0-61.0-2.1","3923","7268","25","Male","false","false","true","true","""event"",""trial"",""time""
""blur"",""1"",""2053""
""focus"",""1"",""7369""
""blur"",""1"",""15781""
""focus"",""1"",""16562""
""fullscreenenter"",""5"",""24727""
","""event"",""trial"",""time""
""blur"",""1"",""2053""
""blur"",""1"",""15781""
","""event"",""trial"",""time""
""focus"",""1"",""7369""
""focus"",""1"",""16562""
","""event"",""trial"",""time""
""fullscreenenter"",""5"",""24727""
","
","","images/earth.jpg","","","","","","","","","","","","","","fixation","","","","","",""
"d3-animate-choice","67","117936","0.0-61.0-0.2","3923","7268","25","Male","false","false","true","true","""event"",""trial"",""time""
""blur"",""1"",""2053""
""focus"",""1"",""7369""
""blur"",""1"",""15781""
""focus"",""1"",""16562""
""fullscreenenter"",""5"",""24727""
","""event"",""trial"",""time""
""blur"",""1"",""2053""
""blur"",""1"",""15781""
","""event"",""trial"",""time""
""focus"",""1"",""7369""
""focus"",""1"",""16562""
","""event"",""trial"",""time""
""fullscreenenter"",""5"",""24727""
","
","214.5","","49","","","3000","1","452.1999999997206,681.6999999997206,926.8999999999069,1192.8999999999069,1470.6999999997206,1716,1958.6000000000931,2216.7999999998137","49,49,49,49,49,49,49,49","images/earth.jpg","images/tutrocket1","images/tutrocket2","null","images/tutrocket2","","1","practice","null","1","","",""
"d3-animate-choice","68","120217","0.0-61.0-1.2","3923","7268","25","Male","false","false","true","true","""event"",""trial"",""time""
""blur"",""1"",""2053""
""focus"",""1"",""7369""
""blur"",""1"",""15781""
""focus"",""1"",""16562""
""fullscreenenter"",""5"",""24727""
","""event"",""trial"",""time""
""blur"",""1"",""2053""
""blur"",""1"",""15781""
","""event"",""trial"",""time""
""focus"",""1"",""7369""
""focus"",""1"",""16562""
","""event"",""trial"",""time""
""fullscreenenter"",""5"",""24727""
","
","258.5","","49","","","3000","1","503.1999999997206,753,1008.5,1241.6999999997206,1464.5,1700.8999999999069,1913.2999999998137,2131.899999999907","49,49,49,49,49,49,49,49","images/tutgreenplanet.jpg","images/tutalien2","images/tutalien1","images/tutrocket2","images/tutalien1","images/t.png","2","practice","true","1","common","1","2023-03-04 20:40:07.643"
"two-step-fixation","69","121226","0.0-61.0-2.2","3923","7268","25","Male","false","false","true","true","""event"",""trial"",""time""
""blur"",""1"",""2053""
""focus"",""1"",""7369""
""blur"",""1"",""15781""
""focus"",""1"",""16562""
""fullscreenenter"",""5"",""24727""
","""event"",""trial"",""time""
""blur"",""1"",""2053""
""blur"",""1"",""15781""
","""event"",""trial"",""time""
""focus"",""1"",""7369""
""focus"",""1"",""16562""
","""event"",""trial"",""time""
""fullscreenenter"",""5"",""24727""
","
","","images/earth.jpg","","","","","","","","","","","","","","fixation","","","","","",""
"d3-animate-choice","70","123256","0.0-61.0-0.3","3923","7268","25","Male","false","false","true","true","""event"",""trial"",""time""
""blur"",""1"",""2053""
""focus"",""1"",""7369""
""blur"",""1"",""15781""
""focus"",""1"",""16562""
""fullscreenenter"",""5"",""24727""
","""event"",""trial"",""time""
""blur"",""1"",""2053""
""blur"",""1"",""15781""
","""event"",""trial"",""time""
""focus"",""1"",""7369""
""focus"",""1"",""16562""
","""event"",""trial"",""time""
""fullscreenenter"",""5"",""24727""
","
","23.399999999906868","","49","","","3000","1","252.29999999981374,481.89999999990687,725.5,962.0999999996275,1184.0999999996275,1420.3999999999069,1742.0999999996275,1964.8999999999069","49,49,49,49,49,49,49,49","images/earth.jpg","images/tutrocket1","images/tutrocket2","null","images/tutrocket2","","1","practice","null","1","","",""
"d3-animate-choice","71","125467","0.0-61.0-1.3","3923","7268","25","Male","false","false","true","true","""event"",""trial"",""time""
""blur"",""1"",""2053""
""focus"",""1"",""7369""
""blur"",""1"",""15781""
""focus"",""1"",""16562""
""fullscreenenter"",""5"",""24727""
","""event"",""trial"",""time""
""blur"",""1"",""2053""
""blur"",""1"",""15781""
","""event"",""trial"",""time""
""focus"",""1"",""7369""
""focus"",""1"",""16562""
","""event"",""trial"",""time""
""fullscreenenter"",""5"",""24727""
","
","187.89999999990687","","49","","","3000","1","384.8000000002794,614.3000000002794,851.1000000000931,1076,1304.3000000002794,1540.3999999999069,1773.8000000002794,2005.6000000000931","49,49,49,49,49,49,49,49","images/tutgreenplanet.jpg","images/tutalien2","images/tutalien1","images/tutrocket2","images/tutalien1","images/t.png","2","practice","true","1","common","1","2023-03-04 20:40:12.893"
"two-step-fixation","72","126476","0.0-61.0-2.3","3923","7268","25","Male","false","false","true","true","""event"",""trial"",""time""
""blur"",""1"",""2053""
""focus"",""1"",""7369""
""blur"",""1"",""15781""
""focus"",""1"",""16562""
""fullscreenenter"",""5"",""24727""
","""event"",""trial"",""time""
""blur"",""1"",""2053""
""blur"",""1"",""15781""
","""event"",""trial"",""time""
""focus"",""1"",""7369""
""focus"",""1"",""16562""
","""event"",""trial"",""time""
""fullscreenenter"",""5"",""24727""
","
","","images/earth.jpg","","","","","","","","","","","","","","fixation","","","","","",""
"d3-animate-choice","73","128876","0.0-61.0-0.4","3923","7268","25","Male","false","false","true","true","""event"",""trial"",""time""
""blur"",""1"",""2053""
""focus"",""1"",""7369""
""blur"",""1"",""15781""
""focus"",""1"",""16562""
""fullscreenenter"",""5"",""24727""
","""event"",""trial"",""time""
""blur"",""1"",""2053""
""blur"",""1"",""15781""
","""event"",""trial"",""time""
""focus"",""1"",""7369""
""focus"",""1"",""16562""
","""event"",""trial"",""time""
""fullscreenenter"",""5"",""24727""
","
","390.20000000018626","","49","","","3000","1","598.5,813.3999999999069,1007.7000000001863,1204.3000000002794,1391.6000000000931,1578.3999999999069,1777.2000000001863,1971.7000000001863,2160.8000000002794,2340.8000000002794","49,49,49,49,49,49,49,49,49,49","images/earth.jpg","images/tutrocket1","images/tutrocket2","null","images/tutrocket2","","1","practice","null","1","","",""
"d3-animate-choice","74","131250","0.0-61.0-1.4","3923","7268","25","Male","false","false","true","true","""event"",""trial"",""time""
""blur"",""1"",""2053""
""focus"",""1"",""7369""
""blur"",""1"",""15781""
""focus"",""1"",""16562""
""fullscreenenter"",""5"",""24727""
","""event"",""trial"",""time""
""blur"",""1"",""2053""
""blur"",""1"",""15781""
","""event"",""trial"",""time""
""focus"",""1"",""7369""
""focus"",""1"",""16562""
","""event"",""trial"",""time""
""fullscreenenter"",""5"",""24727""
","
","371.29999999981374","","49","","","3000","1","567.3999999999069,765,975.0999999996275,1168.2999999998137,1402.5,1585.5999999996275,1813.2999999998137,2042.6999999997206,2230.1999999997206","49,49,49,49,49,49,49,49,49","images/tutgreenplanet.jpg","images/tutalien2","images/tutalien1","images/tutrocket2","images/tutalien1","images/t.png","2","practice","true","1","common","1","2023-03-04 20:40:18.676"
"two-step-fixation","75","132253","0.0-61.0-2.4","3923","7268","25","Male","false","false","true","true","""event"",""trial"",""time""
""blur"",""1"",""2053""
""focus"",""1"",""7369""
""blur"",""1"",""15781""
""focus"",""1"",""16562""
""fullscreenenter"",""5"",""24727""
","""event"",""trial"",""time""
""blur"",""1"",""2053""
""blur"",""1"",""15781""
","""event"",""trial"",""time""
""focus"",""1"",""7369""
""focus"",""1"",""16562""
","""event"",""trial"",""time""
""fullscreenenter"",""5"",""24727""
","
","","images/earth.jpg","","","","","","","","","","","","","","fixation","","","","","",""
"d3-animate-choice","76","134388","0.0-61.0-0.5","3923","7268","25","Male","false","false","true","true","""event"",""trial"",""time""
""blur"",""1"",""2053""
""focus"",""1"",""7369""
""blur"",""1"",""15781""
""focus"",""1"",""16562""
""fullscreenenter"",""5"",""24727""
","""event"",""trial"",""time""
""blur"",""1"",""2053""
""blur"",""1"",""15781""
","""event"",""trial"",""time""
""focus"",""1"",""7369""
""focus"",""1"",""16562""
","""event"",""trial"",""time""
""fullscreenenter"",""5"",""24727""
","
","133.1999999997206","","49","","","3000","1","354.89999999990687,569.8999999999069,774.6999999997206,990.2999999998137,1195.5,1400.0999999996275,1731,2068.6999999997206","49,49,49,49,49,49,49,49","images/earth.jpg","images/tutrocket1","images/tutrocket2","null","images/tutrocket2","","1","practice","null","1","","",""
"d3-animate-choice","77","136727","0.0-61.0-1.5","3923","7268","25","Male","false","false","true","true","""event"",""trial"",""time""
""blur"",""1"",""2053""
""focus"",""1"",""7369""
""blur"",""1"",""15781""
""focus"",""1"",""16562""
""fullscreenenter"",""5"",""24727""
","""event"",""trial"",""time""
""blur"",""1"",""2053""
""blur"",""1"",""15781""
","""event"",""trial"",""time""
""focus"",""1"",""7369""
""focus"",""1"",""16562""
","""event"",""trial"",""time""
""fullscreenenter"",""5"",""24727""
","
","336.09999999962747","","49","","","3000","1","583.7999999998137,1197.2999999998137,2181.1999999997206","49,49,48","images/tutgreenplanet.jpg","images/tutalien2","images/tutalien1","images/tutrocket2","images/tutalien1","images/nothing.png","2","practice","true","1","common","0","2023-03-04 20:40:24.153"
"two-step-fixation","78","137729","0.0-61.0-2.5","3923","7268","25","Male","false","false","true","true","""event"",""trial"",""time""
""blur"",""1"",""2053""
""focus"",""1"",""7369""
""blur"",""1"",""15781""
""focus"",""1"",""16562""
""fullscreenenter"",""5"",""24727""
","""event"",""trial"",""time""
""blur"",""1"",""2053""
""blur"",""1"",""15781""
","""event"",""trial"",""time""
""focus"",""1"",""7369""
""focus"",""1"",""16562""
","""event"",""trial"",""time""
""fullscreenenter"",""5"",""24727""
","
","","images/earth.jpg","","","","","","","","","","","","","","fixation","","","","","",""
"d3-animate-choice","79","139766","0.0-61.0-0.6","3923","7268","25","Male","false","false","true","true","""event"",""trial"",""time""
""blur"",""1"",""2053""
""focus"",""1"",""7369""
""blur"",""1"",""15781""
""focus"",""1"",""16562""
""fullscreenenter"",""5"",""24727""
","""event"",""trial"",""time""
""blur"",""1"",""2053""
""blur"",""1"",""15781""
","""event"",""trial"",""time""
""focus"",""1"",""7369""
""focus"",""1"",""16562""
","""event"",""trial"",""time""
""fullscreenenter"",""5"",""24727""
","
","34.5","","48","","","3000","1","206,378.39999999990687,546.6000000000931,710,889.6000000000931,1058,1223.8999999999069,1403.6999999997206,1578,1768,1973.7999999998137","48,48,48,48,48,48,48,48,48,48,48","images/earth.jpg","images/tutrocket1","images/tutrocket2","null","images/tutrocket1","","1","practice","null","2","","",""
"d3-animate-choice","80","141884","0.0-61.0-1.6","3923","7268","25","Male","false","false","true","true","""event"",""trial"",""time""
""blur"",""1"",""2053""
""focus"",""1"",""7369""
""blur"",""1"",""15781""
""focus"",""1"",""16562""
""fullscreenenter"",""5"",""24727""
","""event"",""trial"",""time""
""blur"",""1"",""2053""
""blur"",""1"",""15781""
","""event"",""trial"",""time""
""focus"",""1"",""7369""
""focus"",""1"",""16562""
","""event"",""trial"",""time""
""fullscreenenter"",""5"",""24727""
","
","115.3000000002794","","48","","","3000","1","286.10000000009313,504.89999999990687,669.7000000001863,832.3999999999069,1002.8000000002794,1383.8999999999069,1590,1776.1000000000931,1967.1000000000931","48,48,48,48,48,48,48,48,48","images/tutgreenplanet.jpg","images/tutalien2","images/tutalien1","images/tutrocket1","images/tutalien2","images/nothing.png","2","practice","false","2","rare","0","2023-03-04 20:40:29.310"
"two-step-fixation","81","142887","0.0-61.0-2.6","3923","7268","25","Male","false","false","true","true","""event"",""trial"",""time""
""blur"",""1"",""2053""
""focus"",""1"",""7369""
""blur"",""1"",""15781""
""focus"",""1"",""16562""
""fullscreenenter"",""5"",""24727""
","""event"",""trial"",""time""
""blur"",""1"",""2053""
""blur"",""1"",""15781""
","""event"",""trial"",""time""
""focus"",""1"",""7369""
""focus"",""1"",""16562""
","""event"",""trial"",""time""
""fullscreenenter"",""5"",""24727""
","
","","images/earth.jpg","","","","","","","","","","","","","","fixation","","","","","",""
"d3-animate-choice","82","145006","0.0-61.0-0.7","3923","7268","25","Male","false","false","true","true","""event"",""trial"",""time""
""blur"",""1"",""2053""
""focus"",""1"",""7369""
""blur"",""1"",""15781""
""focus"",""1"",""16562""
""fullscreenenter"",""5"",""24727""
","""event"",""trial"",""time""
""blur"",""1"",""2053""
""blur"",""1"",""15781""
","""event"",""trial"",""time""
""focus"",""1"",""7369""
""focus"",""1"",""16562""
","""event"",""trial"",""time""
""fullscreenenter"",""5"",""24727""
","
","116.60000000009313","","48","","","3000","1","172.10000000009313,348.89999999990687,542.5,719.7999999998137,902.5,1059.5,1064.2999999998137,1273,1340,1471.2999999998137,1552.7999999998137,1688.6999999997206,1802.8999999999069,1893.3999999999069,2108.899999999907","49,48,48,48,48,49,48,48,49,48,49,48,49,48,48","images/earth.jpg","images/tutrocket1","images/tutrocket2","null","images/tutrocket1","","1","practice","null","2","","",""
"d3-animate-choice","83","147208","0.0-61.0-1.7","3923","7268","25","Male","false","false","true","true","""event"",""trial"",""time""
""blur"",""1"",""2053""
""focus"",""1"",""7369""
""blur"",""1"",""15781""
""focus"",""1"",""16562""
""fullscreenenter"",""5"",""24727""
","""event"",""trial"",""time""
""blur"",""1"",""2053""
""blur"",""1"",""15781""
","""event"",""trial"",""time""
""focus"",""1"",""7369""
""focus"",""1"",""16562""
","""event"",""trial"",""time""
""fullscreenenter"",""5"",""24727""
","
","200.1999999997206","","48","","","3000","1","283.89999999990687,431.29999999981374,526.5,680.6999999997206,783.2999999998137,898,1615.2999999998137,1620.1999999997206,1854.2999999998137,1927,2085.5,2091","49,48,49,48,49,48,49,48,48,49,48,49","images/tutyellowplanet.jpg","images/tutalien4","images/tutalien3","images/tutrocket1","images/tutalien4","images/nothing.png","2","practice","true","2","common","0","2023-03-04 20:40:34.634"
"two-step-fixation","84","148211","0.0-61.0-2.7","3923","7268","25","Male","false","false","true","true","""event"",""trial"",""time""
""blur"",""1"",""2053""
""focus"",""1"",""7369""
""blur"",""1"",""15781""
""focus"",""1"",""16562""
""fullscreenenter"",""5"",""24727""
","""event"",""trial"",""time""
""blur"",""1"",""2053""
""blur"",""1"",""15781""
","""event"",""trial"",""time""
""focus"",""1"",""7369""
""focus"",""1"",""16562""
","""event"",""trial"",""time""
""fullscreenenter"",""5"",""24727""
","
","","images/earth.jpg","","","","","","","","","","","","","","fixation","","","","","",""
"d3-animate-choice","85","150218","0.0-61.0-0.8","3923","7268","25","Male","false","false","true","true","""event"",""trial"",""time""
""blur"",""1"",""2053""
""focus"",""1"",""7369""
""blur"",""1"",""15781""
""focus"",""1"",""16562""
""fullscreenenter"",""5"",""24727""
","""event"",""trial"",""time""
""blur"",""1"",""2053""
""blur"",""1"",""15781""
","""event"",""trial"",""time""
""focus"",""1"",""7369""
""focus"",""1"",""16562""
","""event"",""trial"",""time""
""fullscreenenter"",""5"",""24727""
","
","4.7999999998137355","","48","","","3000","1","224.6999999997206,234.29999999981374,417.60000000009313,623.1999999997206,800.1000000000931,932.2999999998137,1091.7999999998137,1472.6999999997206,1711","48,49,48,48,48,48,48,48,48","images/earth.jpg","images/tutrocket1","images/tutrocket2","null","images/tutrocket1","","1","practice","null","2","","",""
"d3-animate-choice","86","152343","0.0-61.0-1.8","3923","7268","25","Male","false","false","true","true","""event"",""trial"",""time""
""blur"",""1"",""2053""
""focus"",""1"",""7369""
""blur"",""1"",""15781""
""focus"",""1"",""16562""
""fullscreenenter"",""5"",""24727""
","""event"",""trial"",""time""
""blur"",""1"",""2053""
""blur"",""1"",""15781""
","""event"",""trial"",""time""
""focus"",""1"",""7369""
""focus"",""1"",""16562""
","""event"",""trial"",""time""
""fullscreenenter"",""5"",""24727""
","
","122.10000000009313","","48","","","3000","1","320.6999999997206,793.5,1006.6999999997206,1305.2999999998137,1542.3999999999069,1770.3999999999069,2015.1000000000931","48,48,48,48,48,48,48","images/tutyellowplanet.jpg","images/tutalien4","images/tutalien3","images/tutrocket1","images/tutalien4","images/t.png","2","practice","true","2","common","1","2023-03-04 20:40:39.769"
"two-step-fixation","87","153346","0.0-61.0-2.8","3923","7268","25","Male","false","false","true","true","""event"",""trial"",""time""
""blur"",""1"",""2053""
""focus"",""1"",""7369""
""blur"",""1"",""15781""
""focus"",""1"",""16562""
""fullscreenenter"",""5"",""24727""
","""event"",""trial"",""time""
""blur"",""1"",""2053""
""blur"",""1"",""15781""
","""event"",""trial"",""time""
""focus"",""1"",""7369""
""focus"",""1"",""16562""
","""event"",""trial"",""time""
""fullscreenenter"",""5"",""24727""
","
","","images/earth.jpg","","","","","","","","","","","","","","fixation","","","","","",""
"d3-animate-choice","88","155832","0.0-61.0-0.9","3923","7268","25","Male","false","false","true","true","""event"",""trial"",""time""
""blur"",""1"",""2053""
""focus"",""1"",""7369""
""blur"",""1"",""15781""
""focus"",""1"",""16562""
""fullscreenenter"",""5"",""24727""
","""event"",""trial"",""time""
""blur"",""1"",""2053""
""blur"",""1"",""15781""
","""event"",""trial"",""time""
""focus"",""1"",""7369""
""focus"",""1"",""16562""
","""event"",""trial"",""time""
""fullscreenenter"",""5"",""24727""
","
","483.39999999990687","","48","","","3000","1","706.1000000000931,949.1999999997206,1166.7999999998137,1411.2999999998137,1637.3999999999069,1868.2999999998137,2095.7999999998137,2330.600000000093","48,48,48,48,48,48,48,48","images/earth.jpg","images/tutrocket1","images/tutrocket2","null","images/tutrocket1","","1","practice","null","2","","",""
"d3-animate-choice","89","157905","0.0-61.0-1.9","3923","7268","25","Male","false","false","true","true","""event"",""trial"",""time""
""blur"",""1"",""2053""
""focus"",""1"",""7369""
""blur"",""1"",""15781""
""focus"",""1"",""16562""
""fullscreenenter"",""5"",""24727""
","""event"",""trial"",""time""
""blur"",""1"",""2053""
""blur"",""1"",""15781""
","""event"",""trial"",""time""
""focus"",""1"",""7369""
""focus"",""1"",""16562""
","""event"",""trial"",""time""
""fullscreenenter"",""5"",""24727""
","
","71.5","","48","","","3000","1","276.60000000009313,493.10000000009313,715.7999999998137,928.1999999997206,1184.6000000000931,1424.5,1655.6999999997206,1858.8999999999069","48,48,48,48,48,48,48,48","images/tutyellowplanet.jpg","images/tutalien4","images/tutalien3","images/tutrocket1","images/tutalien4","images/t.png","2","practice","true","2","common","1","2023-03-04 20:40:45.332"
"two-step-fixation","90","158909","0.0-61.0-2.9","3923","7268","25","Male","false","false","true","true","""event"",""trial"",""time""
""blur"",""1"",""2053""
""focus"",""1"",""7369""
""blur"",""1"",""15781""
""focus"",""1"",""16562""
""fullscreenenter"",""5"",""24727""
","""event"",""trial"",""time""
""blur"",""1"",""2053""
""blur"",""1"",""15781""
","""event"",""trial"",""time""
""focus"",""1"",""7369""
""focus"",""1"",""16562""
","""event"",""trial"",""time""
""fullscreenenter"",""5"",""24727""
","
","","images/earth.jpg","","","","","","","","","","","","","","fixation","","","","","",""
"d3-animate-choice","91","161400","0.0-61.0-0.10","3923","7268","25","Male","false","false","true","true","""event"",""trial"",""time""
""blur"",""1"",""2053""
""focus"",""1"",""7369""
""blur"",""1"",""15781""
""focus"",""1"",""16562""
""fullscreenenter"",""5"",""24727""
","""event"",""trial"",""time""
""blur"",""1"",""2053""
""blur"",""1"",""15781""
","""event"",""trial"",""time""
""focus"",""1"",""7369""
""focus"",""1"",""16562""
","""event"",""trial"",""time""
""fullscreenenter"",""5"",""24727""
","
","477.5","","48","","","3000","1","683.3000000002794,887.2000000001863,1113.8999999999069,1334.8000000002794,1560.8000000002794,1767.3000000002794,1981.7000000001863,2213.899999999907,2456.7000000001863","48,48,48,48,48,48,48,48,48","images/earth.jpg","images/tutrocket1","images/tutrocket2","null","images/tutrocket1","","1","practice","null","2","","",""
"d3-animate-choice","92","163618","0.0-61.0-1.10","3923","7268","25","Male","false","false","true","true","""event"",""trial"",""time""
""blur"",""1"",""2053""
""focus"",""1"",""7369""
""blur"",""1"",""15781""
""focus"",""1"",""16562""
""fullscreenenter"",""5"",""24727""
","""event"",""trial"",""time""
""blur"",""1"",""2053""
""blur"",""1"",""15781""
","""event"",""trial"",""time""
""focus"",""1"",""7369""
""focus"",""1"",""16562""
","""event"",""trial"",""time""
""fullscreenenter"",""5"",""24727""
","
","216.1999999997206","","48","","","3000","1","437.89999999990687,680.3999999999069,936,1127.5999999996275,1293.1999999997206,1494.6999999997206,1684.5999999996275,1875.6999999997206,2080","48,48,48,48,48,48,48,48,48","images/tutyellowplanet.jpg","images/tutalien4","images/tutalien3","images/tutrocket1","images/tutalien4","images/t.png","2","practice","true","2","common","1","2023-03-04 20:40:51.044"
"two-step-fixation","93","164619","0.0-61.0-2.10","3923","7268","25","Male","false","false","true","true","""event"",""trial"",""time""
""blur"",""1"",""2053""
""focus"",""1"",""7369""
""blur"",""1"",""15781""
""focus"",""1"",""16562""
""fullscreenenter"",""5"",""24727""
","""event"",""trial"",""time""
""blur"",""1"",""2053""
""blur"",""1"",""15781""
","""event"",""trial"",""time""
""focus"",""1"",""7369""
""focus"",""1"",""16562""
","""event"",""trial"",""time""
""fullscreenenter"",""5"",""24727""
","
","","images/earth.jpg","","","","","","","","","","","","","","fixation","","","","","",""
"d3-animate-choice","94","166650","0.0-61.0-0.11","3923","7268","25","Male","false","false","true","true","""event"",""trial"",""time""
""blur"",""1"",""2053""
""focus"",""1"",""7369""
""blur"",""1"",""15781""
""focus"",""1"",""16562""
""fullscreenenter"",""5"",""24727""
","""event"",""trial"",""time""
""blur"",""1"",""2053""
""blur"",""1"",""15781""
","""event"",""trial"",""time""
""focus"",""1"",""7369""
""focus"",""1"",""16562""
","""event"",""trial"",""time""
""fullscreenenter"",""5"",""24727""
","
","29.600000000093132","","48","","","3000","1","239.70000000018626,400.10000000009313,580.8999999999069,752.7000000001863,951.2000000001863,1182.8000000002794,1416.3999999999069,1614.8000000002794,1862.5","48,48,48,48,48,48,48,48,48","images/earth.jpg","images/tutrocket1","images/tutrocket2","null","images/tutrocket1","","1","practice","null","2","","",""
"d3-animate-choice","95","168685","0.0-61.0-1.11","3923","7268","25","Male","false","false","true","true","""event"",""trial"",""time""
""blur"",""1"",""2053""
""focus"",""1"",""7369""
""blur"",""1"",""15781""
""focus"",""1"",""16562""
""fullscreenenter"",""5"",""24727""
","""event"",""trial"",""time""
""blur"",""1"",""2053""
""blur"",""1"",""15781""
","""event"",""trial"",""time""
""focus"",""1"",""7369""
""focus"",""1"",""16562""
","""event"",""trial"",""time""
""fullscreenenter"",""5"",""24727""
","
","32.799999999813735","","48","","","3000","1","240.60000000009313,465.10000000009313,694.8999999999069,908.8999999999069,1169.1000000000931,1330.8999999999069,1507,1671.2000000001863,1890.2999999998137","48,48,48,48,48,48,48,48,48","images/tutgreenplanet.jpg","images/tutalien2","images/tutalien1","images/tutrocket1","images/tutalien2","images/nothing.png","2","practice","false","2","rare","0","2023-03-04 20:40:56.111"
"two-step-fixation","96","169687","0.0-61.0-2.11","3923","7268","25","Male","false","false","true","true","""event"",""trial"",""time""
""blur"",""1"",""2053""
""focus"",""1"",""7369""
""blur"",""1"",""15781""
""focus"",""1"",""16562""
""fullscreenenter"",""5"",""24727""
","""event"",""trial"",""time""
""blur"",""1"",""2053""
""blur"",""1"",""15781""
","""event"",""trial"",""time""
""focus"",""1"",""7369""
""focus"",""1"",""16562""
","""event"",""trial"",""time""
""fullscreenenter"",""5"",""24727""
","
","","images/earth.jpg","","","","","","","","","","","","","","fixation","","","","","",""
"d3-animate-choice","97","171905","0.0-61.0-0.12","3923","7268","25","Male","false","false","true","true","""event"",""trial"",""time""
""blur"",""1"",""2053""
""focus"",""1"",""7369""
""blur"",""1"",""15781""
""focus"",""1"",""16562""
""fullscreenenter"",""5"",""24727""
","""event"",""trial"",""time""
""blur"",""1"",""2053""
""blur"",""1"",""15781""
","""event"",""trial"",""time""
""focus"",""1"",""7369""
""focus"",""1"",""16562""
","""event"",""trial"",""time""
""fullscreenenter"",""5"",""24727""
","
","216.3000000002794","","48","","","3000","1","446.8000000002794,640,838,1133.3000000002794,1387,1642.2000000001863,1873.6000000000931,2134","48,48,48,48,48,48,48,48","images/earth.jpg","images/tutrocket1","images/tutrocket2","null","images/tutrocket1","","1","practice","null","2","","",""
"d3-animate-choice","98","174026","0.0-61.0-1.12","3923","7268","25","Male","false","false","true","true","""event"",""trial"",""time""
""blur"",""1"",""2053""
""focus"",""1"",""7369""
""blur"",""1"",""15781""
""focus"",""1"",""16562""
""fullscreenenter"",""5"",""24727""
","""event"",""trial"",""time""
""blur"",""1"",""2053""
""blur"",""1"",""15781""
","""event"",""trial"",""time""
""focus"",""1"",""7369""
""focus"",""1"",""16562""
","""event"",""trial"",""time""
""fullscreenenter"",""5"",""24727""
","
","116.5","","48","","","3000","1","339.60000000009313,579.1000000000931,788.3000000002794,1023.2000000001863,1224.5,1535,1823.9000000003725,2043.3000000002794","48,48,48,48,48,48,48,48","images/tutyellowplanet.jpg","images/tutalien4","images/tutalien3","images/tutrocket1","images/tutalien4","images/t.png","2","practice","true","2","common","1","2023-03-04 20:41:01.452"
"two-step-fixation","99","175029","0.0-61.0-2.12","3923","7268","25","Male","false","false","true","true","""event"",""trial"",""time""
""blur"",""1"",""2053""
""focus"",""1"",""7369""
""blur"",""1"",""15781""
""focus"",""1"",""16562""
""fullscreenenter"",""5"",""24727""
","""event"",""trial"",""time""
""blur"",""1"",""2053""
""blur"",""1"",""15781""
","""event"",""trial"",""time""
""focus"",""1"",""7369""
""focus"",""1"",""16562""
","""event"",""trial"",""time""
""fullscreenenter"",""5"",""24727""
","
","","images/earth.jpg","","","","","","","","","","","","","","fixation","","","","","",""
"d3-animate-choice","100","177260","0.0-61.0-0.13","3923","7268","25","Male","false","false","true","true","""event"",""trial"",""time""
""blur"",""1"",""2053""
""focus"",""1"",""7369""
""blur"",""1"",""15781""
""focus"",""1"",""16562""
""fullscreenenter"",""5"",""24727""
","""event"",""trial"",""time""
""blur"",""1"",""2053""
""blur"",""1"",""15781""
","""event"",""trial"",""time""
""focus"",""1"",""7369""
""focus"",""1"",""16562""
","""event"",""trial"",""time""
""fullscreenenter"",""5"",""24727""
","
","228.90000000037253","","48","","","3000","1","473,829,1043,1257.4000000003725,1483.3000000002794,1715.7000000001863,1947.3000000002794","48,48,48,48,48,48,48","images/earth.jpg","images/tutrocket1","images/tutrocket2","null","images/tutrocket1","","1","practice","null","2","","",""
"d3-animate-choice","101","179377","0.0-61.0-1.13","3923","7268","25","Male","false","false","true","true","""event"",""trial"",""time""
""blur"",""1"",""2053""
""focus"",""1"",""7369""
""blur"",""1"",""15781""
""focus"",""1"",""16562""
""fullscreenenter"",""5"",""24727""
","""event"",""trial"",""time""
""blur"",""1"",""2053""
""blur"",""1"",""15781""
","""event"",""trial"",""time""
""focus"",""1"",""7369""
""focus"",""1"",""16562""
","""event"",""trial"",""time""
""fullscreenenter"",""5"",""24727""
","
","115.89999999990687","","48","","","3000","1","305.79999999981374,509.1999999997206,932,1149.3999999999069,1613.8999999999069,1885","48,48,48,48,48,48","images/tutyellowplanet.jpg","images/tutalien4","images/tutalien3","images/tutrocket1","images/tutalien4","images/t.png","2","practice","true","2","common","1","2023-03-04 20:41:06.804"
"two-step-fixation","102","180379","0.0-61.0-2.13","3923","7268","25","Male","false","false","true","true","""event"",""trial"",""time""
""blur"",""1"",""2053""
""focus"",""1"",""7369""
""blur"",""1"",""15781""
""focus"",""1"",""16562""
""fullscreenenter"",""5"",""24727""
","""event"",""trial"",""time""
""blur"",""1"",""2053""
""blur"",""1"",""15781""
","""event"",""trial"",""time""
""focus"",""1"",""7369""
""focus"",""1"",""16562""
","""event"",""trial"",""time""
""fullscreenenter"",""5"",""24727""
","
","","images/earth.jpg","","","","","","","","","","","","","","fixation","","","","","",""
"d3-animate-choice","103","182501","0.0-61.0-0.14","3923","7268","25","Male","false","false","true","true","""event"",""trial"",""time""
""blur"",""1"",""2053""
""focus"",""1"",""7369""
""blur"",""1"",""15781""
""focus"",""1"",""16562""
""fullscreenenter"",""5"",""24727""
","""event"",""trial"",""time""
""blur"",""1"",""2053""
""blur"",""1"",""15781""
","""event"",""trial"",""time""
""focus"",""1"",""7369""
""focus"",""1"",""16562""
","""event"",""trial"",""time""
""fullscreenenter"",""5"",""24727""
","
","119.20000000018626","","48","","","3000","1","353.70000000018626,542.5,754.2000000001863,1242.2000000001863","48,48,48,48","images/earth.jpg","images/tutrocket1","images/tutrocket2","null","images/tutrocket1","","1","practice","null","2","","",""
"d3-animate-choice","104","184731","0.0-61.0-1.14","3923","7268","25","Male","false","false","true","true","""event"",""trial"",""time""
""blur"",""1"",""2053""
""focus"",""1"",""7369""
""blur"",""1"",""15781""
""focus"",""1"",""16562""
""fullscreenenter"",""5"",""24727""
","""event"",""trial"",""time""
""blur"",""1"",""2053""
""blur"",""1"",""15781""
","""event"",""trial"",""time""
""focus"",""1"",""7369""
""focus"",""1"",""16562""
","""event"",""trial"",""time""
""fullscreenenter"",""5"",""24727""
","
","226.60000000009313","","48","","","3000","1","529.8000000002794,767.2000000001863,987,1210.3000000002794,1393.5,1543.2000000001863,1775.5","48,48,48,48,48,48,48","images/tutgreenplanet.jpg","images/tutalien2","images/tutalien1","images/tutrocket1","images/tutalien2","images/nothing.png","2","practice","false","2","rare","0","2023-03-04 20:41:12.157"
"two-step-fixation","105","185732","0.0-61.0-2.14","3923","7268","25","Male","false","false","true","true","""event"",""trial"",""time""
""blur"",""1"",""2053""
""focus"",""1"",""7369""
""blur"",""1"",""15781""
""focus"",""1"",""16562""
""fullscreenenter"",""5"",""24727""
","""event"",""trial"",""time""
""blur"",""1"",""2053""
""blur"",""1"",""15781""
","""event"",""trial"",""time""
""focus"",""1"",""7369""
""focus"",""1"",""16562""
","""event"",""trial"",""time""
""fullscreenenter"",""5"",""24727""
","
","","images/earth.jpg","","","","","","","","","","","","","","fixation","","","","","",""
"d3-animate-choice","106","187734","0.0-61.0-0.15","3923","7268","25","Male","false","false","true","true","""event"",""trial"",""time""
""blur"",""1"",""2053""
""focus"",""1"",""7369""
""blur"",""1"",""15781""
""focus"",""1"",""16562""
""fullscreenenter"",""5"",""24727""
","""event"",""trial"",""time""
""blur"",""1"",""2053""
""blur"",""1"",""15781""
","""event"",""trial"",""time""
""focus"",""1"",""7369""
""focus"",""1"",""16562""
","""event"",""trial"",""time""
""fullscreenenter"",""5"",""24727""
","
","0.20000000018626451","","48","","","3000","1","677.8999999999069,889.3999999999069,1121.5,1317.6000000000931,1507.2999999998137,1720.8999999999069,1998.7000000001863","48,48,48,48,48,48,48","images/earth.jpg","images/tutrocket1","images/tutrocket2","null","images/tutrocket1","","1","practice","null","2","","",""
"d3-animate-choice","107","189921","0.0-61.0-1.15","3923","7268","25","Male","false","false","true","true","""event"",""trial"",""time""
""blur"",""1"",""2053""
""focus"",""1"",""7369""
""blur"",""1"",""15781""
""focus"",""1"",""16562""
""fullscreenenter"",""5"",""24727""
","""event"",""trial"",""time""
""blur"",""1"",""2053""
""blur"",""1"",""15781""
","""event"",""trial"",""time""
""focus"",""1"",""7369""
""focus"",""1"",""16562""
","""event"",""trial"",""time""
""fullscreenenter"",""5"",""24727""
","
","184","","48","","","3000","1","345.5,672.2000000001863,886.6000000000931,1071.3000000002794,1268.2000000001863,1477.6000000000931,1667.3000000002794,1870.7000000001863,2075.9000000003725","48,48,48,48,48,48,48,48,48","images/tutyellowplanet.jpg","images/tutalien4","images/tutalien3","images/tutrocket1","images/tutalien4","images/t.png","2","practice","true","2","common","1","2023-03-04 20:41:17.347"
"two-step-fixation","108","190922","0.0-61.0-2.15","3923","7268","25","Male","false","false","true","true","""event"",""trial"",""time""
""blur"",""1"",""2053""
""focus"",""1"",""7369""
""blur"",""1"",""15781""
""focus"",""1"",""16562""
""fullscreenenter"",""5"",""24727""
","""event"",""trial"",""time""
""blur"",""1"",""2053""
""blur"",""1"",""15781""
","""event"",""trial"",""time""
""focus"",""1"",""7369""
""focus"",""1"",""16562""
","""event"",""trial"",""time""
""fullscreenenter"",""5"",""24727""
","
","","images/earth.jpg","","","","","","","","","","","","","","fixation","","","","","",""
"d3-animate-choice","109","192984","0.0-61.0-0.16","3923","7268","25","Male","false","false","true","true","""event"",""trial"",""time""
""blur"",""1"",""2053""
""focus"",""1"",""7369""
""blur"",""1"",""15781""
""focus"",""1"",""16562""
""fullscreenenter"",""5"",""24727""
","""event"",""trial"",""time""
""blur"",""1"",""2053""
""blur"",""1"",""15781""
","""event"",""trial"",""time""
""focus"",""1"",""7369""
""focus"",""1"",""16562""
","""event"",""trial"",""time""
""fullscreenenter"",""5"",""24727""
","
","59.700000000186265","","48","","","3000","1","274.79999999981374,461,667.7000000001863,898.6000000000931,1067.8999999999069,1248,1439.8999999999069,1650,1873.2000000001863","48,48,48,48,48,48,48,48,48","images/earth.jpg","images/tutrocket1","images/tutrocket2","null","images/tutrocket1","","1","practice","null","2","","",""
"d3-animate-choice","110","195019","0.0-61.0-1.16","3923","7268","25","Male","false","false","true","true","""event"",""trial"",""time""
""blur"",""1"",""2053""
""focus"",""1"",""7369""
""blur"",""1"",""15781""
""focus"",""1"",""16562""
""fullscreenenter"",""5"",""24727""
","""event"",""trial"",""time""
""blur"",""1"",""2053""
""blur"",""1"",""15781""
","""event"",""trial"",""time""
""focus"",""1"",""7369""
""focus"",""1"",""16562""
","""event"",""trial"",""time""
""fullscreenenter"",""5"",""24727""
","
","33.200000000186265","","48","","","3000","1","238.20000000018626,433.89999999990687,635.1000000000931,839.7000000001863,1028.6000000000931,1227.5,1426.3999999999069,1627,1831.6000000000931","48,48,48,48,48,48,48,48,48","images/tutyellowplanet.jpg","images/tutalien4","images/tutalien3","images/tutrocket1","images/tutalien4","images/nothing.png","2","practice","true","2","common","0","2023-03-04 20:41:22.445"
"two-step-fixation","111","196022","0.0-61.0-2.16","3923","7268","25","Male","false","false","true","true","""event"",""trial"",""time""
""blur"",""1"",""2053""
""focus"",""1"",""7369""
""blur"",""1"",""15781""
""focus"",""1"",""16562""
""fullscreenenter"",""5"",""24727""
","""event"",""trial"",""time""
""blur"",""1"",""2053""
""blur"",""1"",""15781""
","""event"",""trial"",""time""
""focus"",""1"",""7369""
""focus"",""1"",""16562""
","""event"",""trial"",""time""
""fullscreenenter"",""5"",""24727""
","
","","images/earth.jpg","","","","","","","","","","","","","","fixation","","","","","",""
"d3-animate-choice","112","198162","0.0-61.0-0.17","3923","7268","25","Male","false","false","true","true","""event"",""trial"",""time""
""blur"",""1"",""2053""
""focus"",""1"",""7369""
""blur"",""1"",""15781""
""focus"",""1"",""16562""
""fullscreenenter"",""5"",""24727""
","""event"",""trial"",""time""
""blur"",""1"",""2053""
""blur"",""1"",""15781""
","""event"",""trial"",""time""
""focus"",""1"",""7369""
""focus"",""1"",""16562""
","""event"",""trial"",""time""
""fullscreenenter"",""5"",""24727""
","
","136.39999999990687","","48","","","3000","1","361.20000000018626,581.2999999998137,776.7999999998137,1003.6000000000931,1216.5,1432.8999999999069,1638.7000000001863,1857.1000000000931,2076.2999999998137","48,48,48,48,48,48,48,48,48","images/earth.jpg","images/tutrocket1","images/tutrocket2","null","images/tutrocket1","","1","practice","null","2","","",""
"d3-animate-choice","113","200286","0.0-61.0-1.17","3923","7268","25","Male","false","false","true","true","""event"",""trial"",""time""
""blur"",""1"",""2053""
""focus"",""1"",""7369""
""blur"",""1"",""15781""
""focus"",""1"",""16562""
""fullscreenenter"",""5"",""24727""
","""event"",""trial"",""time""
""blur"",""1"",""2053""
""blur"",""1"",""15781""
","""event"",""trial"",""time""
""focus"",""1"",""7369""
""focus"",""1"",""16562""
","""event"",""trial"",""time""
""fullscreenenter"",""5"",""24727""
","
","121.09999999962747","","48","","","3000","1","327.6999999997206,577.5999999996275,829.5999999996275,1079.6999999997206,1300.8999999999069,1531.6999999997206,1735.3999999999069,1955.6999999997206","48,48,48,48,48,48,48,48","images/tutyellowplanet.jpg","images/tutalien4","images/tutalien3","images/tutrocket1","images/tutalien4","images/nothing.png","2","practice","true","2","common","0","2023-03-04 20:41:27.712"
"two-step-fixation","114","201287","0.0-61.0-2.17","3923","7268","25","Male","false","false","true","true","""event"",""trial"",""time""
""blur"",""1"",""2053""
""focus"",""1"",""7369""
""blur"",""1"",""15781""
""focus"",""1"",""16562""
""fullscreenenter"",""5"",""24727""
","""event"",""trial"",""time""
""blur"",""1"",""2053""
""blur"",""1"",""15781""
","""event"",""trial"",""time""
""focus"",""1"",""7369""
""focus"",""1"",""16562""
","""event"",""trial"",""time""
""fullscreenenter"",""5"",""24727""
","
","","images/earth.jpg","","","","","","","","","","","","","","fixation","","","","","",""
"d3-animate-choice","115","203509","0.0-61.0-0.18","3923","7268","25","Male","false","false","true","true","""event"",""trial"",""time""
""blur"",""1"",""2053""
""focus"",""1"",""7369""
""blur"",""1"",""15781""
""focus"",""1"",""16562""
""fullscreenenter"",""5"",""24727""
","""event"",""trial"",""time""
""blur"",""1"",""2053""
""blur"",""1"",""15781""
","""event"",""trial"",""time""
""focus"",""1"",""7369""
""focus"",""1"",""16562""
","""event"",""trial"",""time""
""fullscreenenter"",""5"",""24727""
","
","220.29999999981374","","48","","","3000","1","472.29999999981374,659.3999999999069,864,1078.3999999999069,1286.2999999998137,1498,1715.7000000001863,1939.7999999998137,2156.5","48,48,48,48,48,48,48,48,48","images/earth.jpg","images/tutrocket1","images/tutrocket2","null","images/tutrocket1","","1","practice","null","2","","",""
"d3-animate-choice","116","205659","0.0-61.0-1.18","3923","7268","25","Male","false","false","true","true","""event"",""trial"",""time""
""blur"",""1"",""2053""
""focus"",""1"",""7369""
""blur"",""1"",""15781""
""focus"",""1"",""16562""
""fullscreenenter"",""5"",""24727""
","""event"",""trial"",""time""
""blur"",""1"",""2053""
""blur"",""1"",""15781""
","""event"",""trial"",""time""
""focus"",""1"",""7369""
""focus"",""1"",""16562""
","""event"",""trial"",""time""
""fullscreenenter"",""5"",""24727""
","
","140.5","","48","","","3000","1","364.29999999981374,584.3999999999069,809.2000000001863,1019,1258.2000000001863,1474.3999999999069,1700.7999999998137,1908.8999999999069,2115.2000000001863","48,48,48,48,48,48,48,48,48","images/tutgreenplanet.jpg","images/tutalien2","images/tutalien1","images/tutrocket1","images/tutalien2","images/t.png","2","practice","false","2","rare","1","2023-03-04 20:41:33.085"
"two-step-fixation","117","206662","0.0-61.0-2.18","3923","7268","25","Male","false","false","true","true","""event"",""trial"",""time""
""blur"",""1"",""2053""
""focus"",""1"",""7369""
""blur"",""1"",""15781""
""focus"",""1"",""16562""
""fullscreenenter"",""5"",""24727""
","""event"",""trial"",""time""
""blur"",""1"",""2053""
""blur"",""1"",""15781""
","""event"",""trial"",""time""
""focus"",""1"",""7369""
""focus"",""1"",""16562""
","""event"",""trial"",""time""
""fullscreenenter"",""5"",""24727""
","
","","images/earth.jpg","","","","","","","","","","","","","","fixation","","","","","",""
"d3-animate-choice","118","208704","0.0-61.0-0.19","3923","7268","25","Male","false","false","true","true","""event"",""trial"",""time""
""blur"",""1"",""2053""
""focus"",""1"",""7369""
""blur"",""1"",""15781""
""focus"",""1"",""16562""
""fullscreenenter"",""5"",""24727""
","""event"",""trial"",""time""
""blur"",""1"",""2053""
""blur"",""1"",""15781""
","""event"",""trial"",""time""
""focus"",""1"",""7369""
""focus"",""1"",""16562""
","""event"",""trial"",""time""
""fullscreenenter"",""5"",""24727""
","
","38.89999999990687","","48","","","3000","1","263,449.79999999981374,660.8999999999069,866,1081.7999999998137,1267,1454.2999999998137,1664,1865.6999999997206","48,48,48,48,48,48,48,48,48","images/earth.jpg","images/tutrocket1","images/tutrocket2","null","images/tutrocket1","","1","practice","null","2","","",""
"d3-animate-choice","119","210713","0.0-61.0-1.19","3923","7268","25","Male","false","false","true","true","""event"",""trial"",""time""
""blur"",""1"",""2053""
""focus"",""1"",""7369""
""blur"",""1"",""15781""
""focus"",""1"",""16562""
""fullscreenenter"",""5"",""24727""
","""event"",""trial"",""time""
""blur"",""1"",""2053""
""blur"",""1"",""15781""
","""event"",""trial"",""time""
""focus"",""1"",""7369""
""focus"",""1"",""16562""
","""event"",""trial"",""time""
""fullscreenenter"",""5"",""24727""
","
","7.399999999906868","","48","","","3000","1","217.89999999990687,424.79999999981374,638.8999999999069,817.2999999998137,1015.2999999998137,1233.5,1422,1622.1999999997206,1815.7999999998137,2003.8999999999069","48,48,48,48,48,48,48,48,48,48","images/tutyellowplanet.jpg","images/tutalien4","images/tutalien3","images/tutrocket1","images/tutalien4","images/nothing.png","2","practice","true","2","common","0","2023-03-04 20:41:38.139"
"two-step-fixation","120","211715","0.0-61.0-2.19","3923","7268","25","Male","false","false","true","true","""event"",""trial"",""time""
""blur"",""1"",""2053""
""focus"",""1"",""7369""
""blur"",""1"",""15781""
""focus"",""1"",""16562""
""fullscreenenter"",""5"",""24727""
","""event"",""trial"",""time""
""blur"",""1"",""2053""
""blur"",""1"",""15781""
","""event"",""trial"",""time""
""focus"",""1"",""7369""
""focus"",""1"",""16562""
","""event"",""trial"",""time""
""fullscreenenter"",""5"",""24727""
","
","","images/earth.jpg","","","","","","","","","","","","","","fixation","","","","","",""
"d3-instructions","121","215625","0.0-62.0","3923","7268","25","Male","false","false","true","true","""event"",""trial"",""time""
""blur"",""1"",""2053""
""focus"",""1"",""7369""
""blur"",""1"",""15781""
""focus"",""1"",""16562""
""fullscreenenter"",""5"",""24727""
","""event"",""trial"",""time""
""blur"",""1"",""2053""
""blur"",""1"",""15781""
","""event"",""trial"",""time""
""focus"",""1"",""7369""
""focus"",""1"",""16562""
","""event"",""trial"",""time""
""fullscreenenter"",""5"",""24727""
","
","","","","","","","","","","","","","","","","","","","","","",""
"audio-keyboard-response","122","215788","0.0-63.0","3923","7268","25","Male","false","false","true","true","""event"",""trial"",""time""
""blur"",""1"",""2053""
""focus"",""1"",""7369""
""blur"",""1"",""15781""
""focus"",""1"",""16562""
""fullscreenenter"",""5"",""24727""
","""event"",""trial"",""time""
""blur"",""1"",""2053""
""blur"",""1"",""15781""
","""event"",""trial"",""time""
""focus"",""1"",""7369""
""focus"",""1"",""16562""
","""event"",""trial"",""time""
""fullscreenenter"",""5"",""24727""
","
","160","audio/instructions/treasure_feedback.wav","32","","","","","","","","","","","","","","","","","","",""
"d3-instructions","123","216692","0.0-64.0","3923","7268","25","Male","false","false","true","true","""event"",""trial"",""time""
""blur"",""1"",""2053""
""focus"",""1"",""7369""
""blur"",""1"",""15781""
""focus"",""1"",""16562""
""fullscreenenter"",""5"",""24727""
","""event"",""trial"",""time""
""blur"",""1"",""2053""
""blur"",""1"",""15781""
","""event"",""trial"",""time""
""focus"",""1"",""7369""
""focus"",""1"",""16562""
","""event"",""trial"",""time""
""fullscreenenter"",""5"",""24727""
","
","","","","","","","","","","","","","","","","","","","","","",""
"d3-instructions","124","216886","0.0-65.0","3923","7268","25","Male","false","false","true","true","""event"",""trial"",""time""
""blur"",""1"",""2053""
""focus"",""1"",""7369""
""blur"",""1"",""15781""
""focus"",""1"",""16562""
""fullscreenenter"",""5"",""24727""
","""event"",""trial"",""time""
""blur"",""1"",""2053""
""blur"",""1"",""15781""
","""event"",""trial"",""time""
""focus"",""1"",""7369""
""focus"",""1"",""16562""
","""event"",""trial"",""time""
""fullscreenenter"",""5"",""24727""
","
","","","","","","","","","","","","","","","","","","","","","",""
"d3-instructions","125","217059","0.0-66.0","3923","7268","25","Male","false","false","true","true","""event"",""trial"",""time""
""blur"",""1"",""2053""
""focus"",""1"",""7369""
""blur"",""1"",""15781""
""focus"",""1"",""16562""
""fullscreenenter"",""5"",""24727""
","""event"",""trial"",""time""
""blur"",""1"",""2053""
""blur"",""1"",""15781""
","""event"",""trial"",""time""
""focus"",""1"",""7369""
""focus"",""1"",""16562""
","""event"",""trial"",""time""
""fullscreenenter"",""5"",""24727""
","
","","","","","","","","","","","","","","","","","","","","","",""
"d3-instructions","126","217211","0.0-67.0","3923","7268","25","Male","false","false","true","true","""event"",""trial"",""time""
""blur"",""1"",""2053""
""focus"",""1"",""7369""
""blur"",""1"",""15781""
""focus"",""1"",""16562""
""fullscreenenter"",""5"",""24727""
","""event"",""trial"",""time""
""blur"",""1"",""2053""
""blur"",""1"",""15781""
","""event"",""trial"",""time""
""focus"",""1"",""7369""
""focus"",""1"",""16562""
","""event"",""trial"",""time""
""fullscreenenter"",""5"",""24727""
","
","","","","","","","","","","","","","","","","","","","","","",""
"d3-instructions","127","217383","0.0-68.0","3923","7268","25","Male","false","false","true","true","""event"",""trial"",""time""
""blur"",""1"",""2053""
""focus"",""1"",""7369""
""blur"",""1"",""15781""
""focus"",""1"",""16562""
""fullscreenenter"",""5"",""24727""
","""event"",""trial"",""time""
""blur"",""1"",""2053""
""blur"",""1"",""15781""
","""event"",""trial"",""time""
""focus"",""1"",""7369""
""focus"",""1"",""16562""
","""event"",""trial"",""time""
""fullscreenenter"",""5"",""24727""
","
","","","","","","","","","","","","","","","","","","","","","",""
"instructions-quiz","128","219573","0.0-69.0","3923","7268","25","Male","false","false","true","true","""event"",""trial"",""time""
""blur"",""1"",""2053""
""focus"",""1"",""7369""
""blur"",""1"",""15781""
""focus"",""1"",""16562""
""fullscreenenter"",""5"",""24727""
","""event"",""trial"",""time""
""blur"",""1"",""2053""
""blur"",""1"",""15781""
","""event"",""trial"",""time""
""focus"",""1"",""7369""
""focus"",""1"",""16562""
","""event"",""trial"",""time""
""fullscreenenter"",""5"",""24727""
","
","2189.2999999998137","audio/quiz/Q1_Prompt.wav","","1","","","","","","","","","","","","","","","","","",""
"audio-keyboard-response","129","220171","0.0-70.0","3923","7268","25","Male","false","false","true","true","""event"",""trial"",""time""
""blur"",""1"",""2053""
""focus"",""1"",""7369""
""blur"",""1"",""15781""
""focus"",""1"",""16562""
""fullscreenenter"",""5"",""24727""
","""event"",""trial"",""time""
""blur"",""1"",""2053""
""blur"",""1"",""15781""
","""event"",""trial"",""time""
""focus"",""1"",""7369""
""focus"",""1"",""16562""
","""event"",""trial"",""time""
""fullscreenenter"",""5"",""24727""
","
","592","audio/quiz/Q1_Correct.wav","32","","","","","","","","","","","","","","","","","","",""
"instructions-quiz","130","220661","0.0-71.0","3923","7268","25","Male","false","false","true","true","""event"",""trial"",""time""
""blur"",""1"",""2053""
""focus"",""1"",""7369""
""blur"",""1"",""15781""
""focus"",""1"",""16562""
""fullscreenenter"",""5"",""24727""
","""event"",""trial"",""time""
""blur"",""1"",""2053""
""blur"",""1"",""15781""
","""event"",""trial"",""time""
""focus"",""1"",""7369""
""focus"",""1"",""16562""
","""event"",""trial"",""time""
""fullscreenenter"",""5"",""24727""
","
","489.5","audio/quiz/Q2_Prompt.wav","","1","","","","","","","","","","","","","","","","","",""
"audio-keyboard-response","131","220835","0.0-72.0","3923","7268","25","Male","false","false","true","true","""event"",""trial"",""time""
""blur"",""1"",""2053""
""focus"",""1"",""7369""
""blur"",""1"",""15781""
""focus"",""1"",""16562""
""fullscreenenter"",""5"",""24727""
","""event"",""trial"",""time""
""blur"",""1"",""2053""
""blur"",""1"",""15781""
","""event"",""trial"",""time""
""focus"",""1"",""7369""
""focus"",""1"",""16562""
","""event"",""trial"",""time""
""fullscreenenter"",""5"",""24727""
","
","171","audio/quiz/Q2_Incorrect.wav","32","","","","","","","","","","","","","","","","","","",""
"instructions-quiz","132","223551","0.0-73.0","3923","7268","25","Male","false","false","true","true","""event"",""trial"",""time""
""blur"",""1"",""2053""
""focus"",""1"",""7369""
""blur"",""1"",""15781""
""focus"",""1"",""16562""
""fullscreenenter"",""5"",""24727""
","""event"",""trial"",""time""
""blur"",""1"",""2053""
""blur"",""1"",""15781""
","""event"",""trial"",""time""
""focus"",""1"",""7369""
""focus"",""1"",""16562""
","""event"",""trial"",""time""
""fullscreenenter"",""5"",""24727""
","
","2714.4000000003725","audio/quiz/Q3_Prompt.wav","","1","","","","","","","","","","","","","","","","","",""
"audio-keyboard-response","133","223730","0.0-74.0","3923","7268","25","Male","false","false","true","true","""event"",""trial"",""time""
""blur"",""1"",""2053""
""focus"",""1"",""7369""
""blur"",""1"",""15781""
""focus"",""1"",""16562""
""fullscreenenter"",""5"",""24727""
","""event"",""trial"",""time""
""blur"",""1"",""2053""
""blur"",""1"",""15781""
","""event"",""trial"",""time""
""focus"",""1"",""7369""
""focus"",""1"",""16562""
","""event"",""trial"",""time""
""fullscreenenter"",""5"",""24727""
","
","181","audio/quiz/Q3_Correct.wav","32","","","","","","","","","","","","","","","","","","",""
"d3-instructions","134","224820","0.0-75.0","3923","7268","25","Male","false","false","true","true","""event"",""trial"",""time""
""blur"",""1"",""2053""
""focus"",""1"",""7369""
""blur"",""1"",""15781""
""focus"",""1"",""16562""
""fullscreenenter"",""5"",""24727""
","""event"",""trial"",""time""
""blur"",""1"",""2053""
""blur"",""1"",""15781""
","""event"",""trial"",""time""
""focus"",""1"",""7369""
""focus"",""1"",""16562""
","""event"",""trial"",""time""
""fullscreenenter"",""5"",""24727""
","
","","","","","","","","","","","","","","","","","","","","","",""
"pavlovia","135","224821","0.0-76.0","3923","7268","25","Male","false","false","true","true","""event"",""trial"",""time""
""blur"",""1"",""2053""
""focus"",""1"",""7369""
""blur"",""1"",""15781""
""focus"",""1"",""16562""
""fullscreenenter"",""5"",""24727""
","""event"",""trial"",""time""
