"trial_type","trial_index","time_elapsed","internal_node_id","participant_id","subject_id","age","gender","rocket_sides","red_planet_first_rocket","red_display_order","purple_display_order","interactions","blur_events","focus_events","fullscreenenter_events","fullscreenexit_events","rt","stimulus","key_press","button_pressed","success","duration","valid_pressed","rts","keys","planet_text","right_text","left_text","center_text","chosen_text","reward_text","trial_stage","practice_trial","transition_type","choice","transition","reward","timestamp"
"pavlovia","0","3","0.0-0.0","2928","5928","9","Male","true","false","true","true","
","
","
","
","
","","","","","","","","","","","","","","","","","","","","","",""
"html-keyboard-response","1","1394","0.0-1.0","2928","5928","9","Male","true","false","true","true","
","
","
","
","
","1389.7000000476837","Welcome! Press the space bar to begin.","32","","","","","","","","","","","","","","","","","","",""
"audio-keyboard-response","2","1953","0.0-2.0","2928","5928","9","Male","true","false","true","true","
","
","
","
","
","541","audio/beep_loop.wav","32","","","","","","","","","","","","","","","","","","",""
"audio-button-response","3","3458","0.0-3.0","2928","5928","9","Male","true","false","true","true","
","
","
","
","
","NaN","audio/fish.mp3","","1","","","","","","","","","","","","","","","","","",""
"audio-button-response","4","5634","0.0-4.0","2928","5928","9","Male","true","false","true","true","""event"",""trial"",""time""
""fullscreenenter"",""5"",""7877""
","
","
","""event"",""trial"",""time""
""fullscreenenter"",""5"",""7877""
","
","NaN","audio/tiger.mp3","","4","","","","","","","","","","","","","","","","","",""
"fullscreen","5","8883","0.0-5.0","2928","5928","9","Male","true","false","true","true","""event"",""trial"",""time""
""fullscreenenter"",""5"",""7877""
","
","
","""event"",""trial"",""time""
""fullscreenenter"",""5"",""7877""
","
","","","","","true","","","","","","","","","","","","","","","","",""
"d3-instructions","6","9945","0.0-6.0","2928","5928","9","Male","true","false","true","true","""event"",""trial"",""time""
""fullscreenenter"",""5"",""7877""
","
","
","""event"",""trial"",""time""
""fullscreenenter"",""5"",""7877""
","
","","","","","","","","","","","","","","","","","","","","","",""
"d3-instructions","7","10442","0.0-7.0","2928","5928","9","Male","true","false","true","true","""event"",""trial"",""time""
""fullscreenenter"",""5"",""7877""
","
","
","""event"",""trial"",""time""
""fullscreenenter"",""5"",""7877""
","
","","","","","","","","","","","","","","","","","","","","","",""
"d3-instructions","8","10801","0.0-8.0","2928","5928","9","Male","true","false","true","true","""event"",""trial"",""time""
""fullscreenenter"",""5"",""7877""
","
","
","""event"",""trial"",""time""
""fullscreenenter"",""5"",""7877""
","
","","","","","","","","","","","","","","","","","","","","","",""
"d3-instructions","9","11169","0.0-9.0","2928","5928","9","Male","true","false","true","true","""event"",""trial"",""time""
""fullscreenenter"",""5"",""7877""
","
","
","""event"",""trial"",""time""
""fullscreenenter"",""5"",""7877""
","
","","","","","","","","","","","","","","","","","","","","","",""
"d3-instructions","10","11521","0.0-10.0","2928","5928","9","Male","true","false","true","true","""event"",""trial"",""time""
""fullscreenenter"",""5"",""7877""
","
","
","""event"",""trial"",""time""
""fullscreenenter"",""5"",""7877""
","
","","","","","","","","","","","","","","","","","","","","","",""
"d3-animate-choice","11","14963","0.0-11.0","2928","5928","9","Male","true","false","true","true","""event"",""trial"",""time""
""fullscreenenter"",""5"",""7877""
","
","
","""event"",""trial"",""time""
""fullscreenenter"",""5"",""7877""
","
","350.40000009536743","","32","","","3000","1","1430.7000000476837","49","images/tutgreenplanet.jpg","images/tutalien1","images/tutalien2","null","images/tutalien2","","NA","practice","null","","","",""
"d3-animate-choice","12","17353","0.0-12.0","2928","5928","9","Male","true","false","true","true","""event"",""trial"",""time""
""fullscreenenter"",""5"",""7877""
","
","
","""event"",""trial"",""time""
""fullscreenenter"",""5"",""7877""
","
","373.2999999523163","","49","","","3000","1","","","images/tutgreenplanet.jpg","images/tutalien1","images/tutalien2","null","images/tutalien2","","NA","practice","null","","","",""
"d3-animate-choice","13","20713","0.0-13.0","2928","5928","9","Male","true","false","true","true","""event"",""trial"",""time""
""fullscreenenter"",""5"",""7877""
","
","
","""event"",""trial"",""time""
""fullscreenenter"",""5"",""7877""
","
","1343.1999999284744","","48","","","3000","1","","","images/tutgreenplanet.jpg","images/tutalien1","images/tutalien2","null","images/tutalien1","","NA","practice","null","","","",""
"d3-animate-choice","14","24314","0.0-14.0","2928","5928","9","Male","true","false","true","true","""event"",""trial"",""time""
""fullscreenenter"",""5"",""7877""
","
","
","""event"",""trial"",""time""
""fullscreenenter"",""5"",""7877""
","
","1583.1999999284744","","49","","","3000","1","","","images/tutgreenplanet.jpg","images/tutalien1","images/tutalien2","null","images/tutalien2","","NA","practice","null","","","",""
"d3-instructions","15","26523","0.0-15.0","2928","5928","9","Male","true","false","true","true","""event"",""trial"",""time""
""fullscreenenter"",""5"",""7877""
","
","
","""event"",""trial"",""time""
""fullscreenenter"",""5"",""7877""
","
","","","","","","","","","","","","","","","","","","","","","",""
"d3-instructions","16","26978","0.0-16.0","2928","5928","9","Male","true","false","true","true","""event"",""trial"",""time""
""fullscreenenter"",""5"",""7877""
","
","
","""event"",""trial"",""time""
""fullscreenenter"",""5"",""7877""
","
","","","","","","","","","","","","","","","","","","","","","",""
"d3-instructions","17","27771","0.0-17.0","2928","5928","9","Male","true","false","true","true","""event"",""trial"",""time""
""fullscreenenter"",""5"",""7877""
","
","
","""event"",""trial"",""time""
""fullscreenenter"",""5"",""7877""
","
","","","","","","","","","","","","","","","","","","","","","",""
"d3-instructions","18","28947","0.0-18.0","2928","5928","9","Male","true","false","true","true","""event"",""trial"",""time""
""fullscreenenter"",""5"",""7877""
","
","
","""event"",""trial"",""time""
""fullscreenenter"",""5"",""7877""
","
","","","","","","","","","","","","","","","","","","","","","",""
"d3-instructions","19","30723","0.0-19.0","2928","5928","9","Male","true","false","true","true","""event"",""trial"",""time""
""fullscreenenter"",""5"",""7877""
","
","
","""event"",""trial"",""time""
""fullscreenenter"",""5"",""7877""
","
","","","","","","","","","","","","","","","","","","","","","",""
"d3-animate-choice","20","33658","0.0-20.0","2928","5928","9","Male","true","false","true","true","""event"",""trial"",""time""
""fullscreenenter"",""5"",""7877""
","
","
","""event"",""trial"",""time""
""fullscreenenter"",""5"",""7877""
","
","916.5999999046326","","49","","","3000","1","1157.1999999284744,1405.0999999046326,1661.2999999523163,1837,2045.0999999046326,2220.899999976158,2420.899999976158","49,49,49,49,49,49,49","images/tutyellowplanet.jpg","null","images/tutalien3","null","images/tutalien3","images/nothing.png","NA","practice","null","","","",""
"d3-animate-choice","21","36593","0.0-21.0","2928","5928","9","Male","true","false","true","true","""event"",""trial"",""time""
""fullscreenenter"",""5"",""7877""
","
","
","""event"",""trial"",""time""
""fullscreenenter"",""5"",""7877""
","
","926.6999999284744","","49","","","3000","1","","","images/tutyellowplanet.jpg","null","images/tutalien3","null","images/tutalien3","images/t.png","NA","practice","null","","","",""
"d3-animate-choice","22","39004","0.0-22.0","2928","5928","9","Male","true","false","true","true","""event"",""trial"",""time""
""fullscreenenter"",""5"",""7877""
","
","
","""event"",""trial"",""time""
""fullscreenenter"",""5"",""7877""
","
","390.7000000476837","","49","","","3000","1","1807.1000000238419,2374.899999976158","49,49","images/tutyellowplanet.jpg","null","images/tutalien3","null","images/tutalien3","images/t.png","NA","practice","null","","","",""
"d3-animate-choice","23","41364","0.0-23.0","2928","5928","9","Male","true","false","true","true","""event"",""trial"",""time""
""fullscreenenter"",""5"",""7877""
","
","
","""event"",""trial"",""time""
""fullscreenenter"",""5"",""7877""
","
","348.7999999523163","","49","","","3000","1","1644.3999999761581,2124.2999999523163","49,49","images/tutyellowplanet.jpg","null","images/tutalien3","null","images/tutalien3","images/t.png","NA","practice","null","","","",""
"d3-animate-choice","24","43454","0.0-24.0","2928","5928","9","Male","true","false","true","true","""event"",""trial"",""time""
""fullscreenenter"",""5"",""7877""
","
","
","""event"",""trial"",""time""
""fullscreenenter"",""5"",""7877""
","
","76.5","","49","","","3000","1","588.5,1140.5,1677","49,49,49","images/tutyellowplanet.jpg","null","images/tutalien3","null","images/tutalien3","images/t.png","NA","practice","null","","","",""
"d3-animate-choice","25","45494","0.0-25.0","2928","5928","9","Male","true","false","true","true","""event"",""trial"",""time""
""fullscreenenter"",""5"",""7877""
","
","
","""event"",""trial"",""time""
""fullscreenenter"",""5"",""7877""
","
","17.100000023841858","","49","","","3000","1","321.89999997615814,634,985,1401.8999999761581,1801.8999999761581","49,49,49,49,49","images/tutyellowplanet.jpg","null","images/tutalien3","null","images/tutalien3","images/t.png","NA","practice","null","","","",""
"d3-animate-choice","26","47564","0.0-26.0","2928","5928","9","Male","true","false","true","true","""event"",""trial"",""time""
""fullscreenenter"",""5"",""7877""
","
","
","""event"",""trial"",""time""
""fullscreenenter"",""5"",""7877""
","
","58.5","","49","","","3000","1","322.60000002384186,610.5,922.8999999761581,1220.7000000476837,1530,1842.2999999523163","49,49,49,49,49,49","images/tutyellowplanet.jpg","null","images/tutalien3","null","images/tutalien3","images/t.png","NA","practice","null","","","",""
"d3-animate-choice","27","49644","0.0-27.0","2928","5928","9","Male","true","false","true","true","""event"",""trial"",""time""
""fullscreenenter"",""5"",""7877""
","
","
","""event"",""trial"",""time""
""fullscreenenter"",""5"",""7877""
","
","59.799999952316284","","49","","","3000","1","348.7000000476837,620.3999999761581,932.6000000238419,1220.5,1524.2999999523163,1811.6000000238419","49,49,49,49,49,49","images/tutyellowplanet.jpg","null","images/tutalien3","null","images/tutalien3","images/t.png","NA","practice","null","","","",""
"d3-animate-choice","28","51683","0.0-28.0","2928","5928","9","Male","true","false","true","true","""event"",""trial"",""time""
""fullscreenenter"",""5"",""7877""
","
","
","""event"",""trial"",""time""
""fullscreenenter"",""5"",""7877""
","
","19.59999990463257","","49","","","3000","1","300.7999999523163,580.6999999284744,852.8999999761581,1220.3999999761581,1524.5999999046326,1804.5999999046326","49,49,49,49,49,49","images/tutyellowplanet.jpg","null","images/tutalien3","null","images/tutalien3","images/t.png","NA","practice","null","","","",""
"d3-animate-choice","29","53757","0.0-29.0","2928","5928","9","Male","true","false","true","true","""event"",""trial"",""time""
""fullscreenenter"",""5"",""7877""
","
","
","""event"",""trial"",""time""
""fullscreenenter"",""5"",""7877""
","
","68.5","","49","","","3000","1","949.3999999761581,1188.5,1436.8999999761581,1644.8999999761581,1892.8999999761581","49,49,49,49,49","images/tutyellowplanet.jpg","null","images/tutalien3","null","images/tutalien3","images/t.png","NA","practice","null","","","",""
"d3-instructions","30","56483","0.0-30.0","2928","5928","9","Male","true","false","true","true","""event"",""trial"",""time""
""fullscreenenter"",""5"",""7877""
","
","
","""event"",""trial"",""time""
""fullscreenenter"",""5"",""7877""
","
","","","","","","","","","","","","","","","","","","","","","",""
"d3-instructions","31","57459","0.0-31.0","2928","5928","9","Male","true","false","true","true","""event"",""trial"",""time""
""fullscreenenter"",""5"",""7877""
","
","
","""event"",""trial"",""time""
""fullscreenenter"",""5"",""7877""
","
","","","","","","","","","","","","","","","","","","","","","",""
"d3-instructions","32","58051","0.0-32.0","2928","5928","9","Male","true","false","true","true","""event"",""trial"",""time""
""fullscreenenter"",""5"",""7877""
","
","
","""event"",""trial"",""time""
""fullscreenenter"",""5"",""7877""
","
","","","","","","","","","","","","","","","","","","","","","",""
"d3-instructions","33","59002","0.0-33.0","2928","5928","9","Male","true","false","true","true","""event"",""trial"",""time""
""fullscreenenter"",""5"",""7877""
","
","
","""event"",""trial"",""time""
""fullscreenenter"",""5"",""7877""
","
","","","","","","","","","","","","","","","","","","","","","",""
"d3-animate-choice","34","61606","0.0-34.0","2928","5928","9","Male","true","false","true","true","""event"",""trial"",""time""
""fullscreenenter"",""5"",""7877""
","
","
","""event"",""trial"",""time""
""fullscreenenter"",""5"",""7877""
","
","598.8999999761581","","49","","","3000","1","2006.8999999761581,2511.2000000476837","49,49","images/tutgreenplanet.jpg","images/tutalien1","images/tutalien2","null","images/tutalien2","images/t.png","NA","practice","null","","","",""
"d3-animate-choice","35","63808","0.0-35.0","2928","5928","9","Male","true","false","true","true","""event"",""trial"",""time""
""fullscreenenter"",""5"",""7877""
","
","
","""event"",""trial"",""time""
""fullscreenenter"",""5"",""7877""
","
","193.39999997615814","","49","","","3000","1","473.7000000476837,777.6000000238419,1089.8999999761581,1329.6000000238419,1553.7000000476837,1777.5,2033.2000000476837","49,49,49,49,49,49,49","images/tutgreenplanet.jpg","images/tutalien1","images/tutalien2","null","images/tutalien2","images/t.png","NA","practice","null","","","",""
"d3-animate-choice","36","65864","0.0-36.0","2928","5928","9","Male","true","false","true","true","""event"",""trial"",""time""
""fullscreenenter"",""5"",""7877""
","
","
","""event"",""trial"",""time""
""fullscreenenter"",""5"",""7877""
","
","40.699999928474426","","49","","","3000","1","216.59999990463257,416.7999999523163,640.8999999761581,832.2999999523163,1064.8999999761581,1296.7999999523163,1520.7999999523163,1736.5999999046326,1960.7999999523163","49,49,49,49,49,49,49,49,49","images/tutgreenplanet.jpg","images/tutalien1","images/tutalien2","null","images/tutalien2","images/t.png","NA","practice","null","","","",""
"d3-animate-choice","37","68154","0.0-37.0","2928","5928","9","Male","true","false","true","true","""event"",""trial"",""time""
""fullscreenenter"",""5"",""7877""
","
","
","""event"",""trial"",""time""
""fullscreenenter"",""5"",""7877""
","
","280.09999990463257","","49","","","3000","1","488.5,728.3999999761581,936.2999999523163,1176.1999999284744,1407.5999999046326,1664.2999999523163,1864.5,2064.2999999523163","49,49,49,49,49,49,49,49","images/tutgreenplanet.jpg","images/tutalien1","images/tutalien2","null","images/tutalien2","images/t.png","NA","practice","null","","","",""
"d3-animate-choice","38","70163","0.0-38.0","2928","5928","9","Male","true","false","true","true","""event"",""trial"",""time""
""fullscreenenter"",""5"",""7877""
","
","
","""event"",""trial"",""time""
""fullscreenenter"",""5"",""7877""
","
","1.5","","49","","","3000","1","198.40000009536743,413.3000000715256,645.7000000476837,885.7000000476837,1118.1000000238419,1398.3000000715256,1662,1958.3000000715256","49,49,49,49,49,49,49,49","images/tutgreenplanet.jpg","images/tutalien1","images/tutalien2","null","images/tutalien2","images/t.png","NA","practice","null","","","",""
"d3-animate-choice","39","72334","0.0-39.0","2928","5928","9","Male","true","false","true","true","""event"",""trial"",""time""
""fullscreenenter"",""5"",""7877""
","
","
","""event"",""trial"",""time""
""fullscreenenter"",""5"",""7877""
","
","157.10000002384186","","49","","","3000","1","420.60000002384186,620.7000000476837,892.8999999761581,1157.1000000238419,1453,1717,1989.3999999761581","49,49,49,49,49,49,49","images/tutgreenplanet.jpg","images/tutalien1","images/tutalien2","null","images/tutalien2","images/t.png","NA","practice","null","","","",""
"d3-animate-choice","40","74413","0.0-40.0","2928","5928","9","Male","true","false","true","true","""event"",""trial"",""time""
""fullscreenenter"",""5"",""7877""
","
","
","""event"",""trial"",""time""
""fullscreenenter"",""5"",""7877""
","
","57.89999997615814","","49","","","3000","1","298.10000002384186,530.3999999761581,754.1000000238419,1009.8999999761581,1242.2000000476837,1546.1000000238419,1850","49,49,49,49,49,49,49","images/tutgreenplanet.jpg","images/tutalien1","images/tutalien2","null","images/tutalien2","images/t.png","NA","practice","null","","","",""
"d3-animate-choice","41","76487","0.0-41.0","2928","5928","9","Male","true","false","true","true","""event"",""trial"",""time""
""fullscreenenter"",""5"",""7877""
","
","
","""event"",""trial"",""time""
""fullscreenenter"",""5"",""7877""
","
","67.60000002384186","","49","","","3000","1","347.7000000476837,571.8000000715256,779.3000000715256,995.5,1507.9000000953674,1731.5,1979.7000000476837","49,49,49,49,49,49,49","images/tutgreenplanet.jpg","images/tutalien1","images/tutalien2","null","images/tutalien2","images/t.png","NA","practice","null","","","",""
"d3-animate-choice","42","78654","0.0-42.0","2928","5928","9","Male","true","false","true","true","""event"",""trial"",""time""
""fullscreenenter"",""5"",""7877""
","
","
","""event"",""trial"",""time""
""fullscreenenter"",""5"",""7877""
","
","153.39999997615814","","49","","","3000","1","385.5,633.3000000715256,881.7000000476837,1161.6000000238419,1417.2000000476837,1649.7000000476837,1913.8000000715256,2129.7000000476837","49,49,49,49,49,49,49,49","images/tutgreenplanet.jpg","images/tutalien1","images/tutalien2","null","images/tutalien2","images/t.png","NA","practice","null","","","",""
"d3-animate-choice","43","80863","0.0-43.0","2928","5928","9","Male","true","false","true","true","""event"",""trial"",""time""
""fullscreenenter"",""5"",""7877""
","
","
","""event"",""trial"",""time""
""fullscreenenter"",""5"",""7877""
","
","202.10000002384186","","49","","","3000","1","482.10000002384186,721.6000000238419,993.8999999761581,1258.1000000238419,1570,1865.5,2153.7999999523163","49,49,49,49,49,49,49","images/tutgreenplanet.jpg","images/tutalien1","images/tutalien2","null","images/tutalien2","images/t.png","NA","practice","null","","","",""
"d3-instructions","44","82315","0.0-44.0","2928","5928","9","Male","true","false","true","true","""event"",""trial"",""time""
""fullscreenenter"",""5"",""7877""
","
","
","""event"",""trial"",""time""
""fullscreenenter"",""5"",""7877""
","
","","","","","","","","","","","","","","","","","","","","","",""
"d3-instructions","45","83067","0.0-45.0","2928","5928","9","Male","true","false","true","true","""event"",""trial"",""time""
""fullscreenenter"",""5"",""7877""
","
","
","""event"",""trial"",""time""
""fullscreenenter"",""5"",""7877""
","
","","","","","","","","","","","","","","","","","","","","","",""
"d3-instructions","46","84307","0.0-46.0","2928","5928","9","Male","true","false","true","true","""event"",""trial"",""time""
""fullscreenenter"",""5"",""7877""
","
","
","""event"",""trial"",""time""
""fullscreenenter"",""5"",""7877""
","
","","","","","","","","","","","","","","","","","","","","","",""
"d3-instructions","47","86203","0.0-47.0","2928","5928","9","Male","true","false","true","true","""event"",""trial"",""time""
""fullscreenenter"",""5"",""7877""
","
","
","""event"",""trial"",""time""
""fullscreenenter"",""5"",""7877""
","
","","","","","","","","","","","","","","","","","","","","","",""
"d3-instructions","48","87515","0.0-48.0","2928","5928","9","Male","true","false","true","true","""event"",""trial"",""time""
""fullscreenenter"",""5"",""7877""
","
","
","""event"",""trial"",""time""
""fullscreenenter"",""5"",""7877""
","
","","","","","","","","","","","","","","","","","","","","","",""
"d3-instructions","49","87987","0.0-49.0","2928","5928","9","Male","true","false","true","true","""event"",""trial"",""time""
""fullscreenenter"",""5"",""7877""
","
","
","""event"",""trial"",""time""
""fullscreenenter"",""5"",""7877""
","
","","","","","","","","","","","","","","","","","","","","","",""
"d3-instructions","50","88443","0.0-50.0","2928","5928","9","Male","true","false","true","true","""event"",""trial"",""time""
""fullscreenenter"",""5"",""7877""
","
","
","""event"",""trial"",""time""
""fullscreenenter"",""5"",""7877""
","
","","","","","","","","","","","","","","","","","","","","","",""
"d3-instructions","51","89339","0.0-51.0","2928","5928","9","Male","true","false","true","true","""event"",""trial"",""time""
""fullscreenenter"",""5"",""7877""
","
","
","""event"",""trial"",""time""
""fullscreenenter"",""5"",""7877""
","
","","","","","","","","","","","","","","","","","","","","","",""
"d3-instructions","52","90436","0.0-52.0","2928","5928","9","Male","true","false","true","true","""event"",""trial"",""time""
""fullscreenenter"",""5"",""7877""
","
","
","""event"",""trial"",""time""
""fullscreenenter"",""5"",""7877""
","
","","","","","","","","","","","","","","","","","","","","","",""
"d3-instructions","53","91131","0.0-53.0","2928","5928","9","Male","true","false","true","true","""event"",""trial"",""time""
""fullscreenenter"",""5"",""7877""
","
","
","""event"",""trial"",""time""
""fullscreenenter"",""5"",""7877""
","
","","","","","","","","","","","","","","","","","","","","","",""
"d3-instructions","54","92267","0.0-54.0","2928","5928","9","Male","true","false","true","true","""event"",""trial"",""time""
""fullscreenenter"",""5"",""7877""
","
","
","""event"",""trial"",""time""
""fullscreenenter"",""5"",""7877""
","
","","","","","","","","","","","","","","","","","","","","","",""
"d3-instructions","55","92787","0.0-55.0","2928","5928","9","Male","true","false","true","true","""event"",""trial"",""time""
""fullscreenenter"",""5"",""7877""
","
","
","""event"",""trial"",""time""
""fullscreenenter"",""5"",""7877""
","
","","","","","","","","","","","","","","","","","","","","","",""
"d3-instructions","56","93275","0.0-56.0","2928","5928","9","Male","true","false","true","true","""event"",""trial"",""time""
""fullscreenenter"",""5"",""7877""
","
","
","""event"",""trial"",""time""
""fullscreenenter"",""5"",""7877""
","
","","","","","","","","","","","","","","","","","","","","","",""
"d3-instructions","57","93771","0.0-57.0","2928","5928","9","Male","true","false","true","true","""event"",""trial"",""time""
""fullscreenenter"",""5"",""7877""
","
","
","""event"",""trial"",""time""
""fullscreenenter"",""5"",""7877""
","
","","","","","","","","","","","","","","","","","","","","","",""
"d3-instructions","58","94803","0.0-58.0","2928","5928","9","Male","true","false","true","true","""event"",""trial"",""time""
""fullscreenenter"",""5"",""7877""
","
","
","""event"",""trial"",""time""
""fullscreenenter"",""5"",""7877""
","
","","","","","","","","","","","","","","","","","","","","","",""
"d3-instructions","59","95355","0.0-59.0","2928","5928","9","Male","true","false","true","true","""event"",""trial"",""time""
""fullscreenenter"",""5"",""7877""
","
","
","""event"",""trial"",""time""
""fullscreenenter"",""5"",""7877""
","
","","","","","","","","","","","","","","","","","","","","","",""
"d3-instructions","60","95907","0.0-60.0","2928","5928","9","Male","true","false","true","true","""event"",""trial"",""time""
""fullscreenenter"",""5"",""7877""
","
","
","""event"",""trial"",""time""
""fullscreenenter"",""5"",""7877""
","
","","","","","","","","","","","","","","","","","","","","","",""
"d3-animate-choice","61","98834","0.0-61.0-0.0","2928","5928","9","Male","true","false","true","true","""event"",""trial"",""time""
""fullscreenenter"",""5"",""7877""
","
","
","""event"",""trial"",""time""
""fullscreenenter"",""5"",""7877""
","
","907","","49","","","3000","1","","","images/earth.jpg","images/tutrocket1","images/tutrocket2","null","images/tutrocket2","","1","practice","null","1","","",""
"d3-animate-choice","62","101324","0.0-61.0-1.0","2928","5928","9","Male","true","false","true","true","""event"",""trial"",""time""
""fullscreenenter"",""5"",""7877""
","
","
","""event"",""trial"",""time""
""fullscreenenter"",""5"",""7877""
","
","459.7999999523163","","49","","","3000","1","","","images/tutyellowplanet.jpg","images/tutalien4","images/tutalien3","images/tutrocket2","images/tutalien3","images/nothing.png","2","practice","false","1","rare","0","2023-01-26 19:21:19.365"
"two-step-fixation","63","102350","0.0-61.0-2.0","2928","5928","9","Male","true","false","true","true","""event"",""trial"",""time""
""fullscreenenter"",""5"",""7877""
","
","
","""event"",""trial"",""time""
""fullscreenenter"",""5"",""7877""
","
","","images/earth.jpg","","","","","","","","","","","","","","fixation","","","","","",""
"d3-animate-choice","64","104837","0.0-61.0-0.1","2928","5928","9","Male","true","false","true","true","""event"",""trial"",""time""
""fullscreenenter"",""5"",""7877""
","
","
","""event"",""trial"",""time""
""fullscreenenter"",""5"",""7877""
","
","466","","49","","","3000","1","","","images/earth.jpg","images/tutrocket1","images/tutrocket2","null","images/tutrocket2","","1","practice","null","1","","",""
"d3-animate-choice","65","107037","0.0-61.0-1.1","2928","5928","9","Male","true","false","true","true","""event"",""trial"",""time""
""fullscreenenter"",""5"",""7877""
","
","
","""event"",""trial"",""time""
""fullscreenenter"",""5"",""7877""
","
","178.39999997615814","","49","","","3000","1","618.1000000238419","49","images/tutgreenplanet.jpg","images/tutalien2","images/tutalien1","images/tutrocket2","images/tutalien1","images/nothing.png","2","practice","true","1","common","0","2023-01-26 19:21:25.078"
"two-step-fixation","66","108054","0.0-61.0-2.1","2928","5928","9","Male","true","false","true","true","""event"",""trial"",""time""
""fullscreenenter"",""5"",""7877""
","
","
","""event"",""trial"",""time""
""fullscreenenter"",""5"",""7877""
","
","","images/earth.jpg","","","","","","","","","","","","","","fixation","","","","","",""
"d3-animate-choice","67","110294","0.0-61.0-0.2","2928","5928","9","Male","true","false","true","true","""event"",""trial"",""time""
""fullscreenenter"",""5"",""7877""
","
","
","""event"",""trial"",""time""
""fullscreenenter"",""5"",""7877""
","
","216","","49","","","3000","1","","","images/earth.jpg","images/tutrocket1","images/tutrocket2","null","images/tutrocket2","","1","practice","null","1","","",""
"d3-animate-choice","68","112674","0.0-61.0-1.2","2928","5928","9","Male","true","false","true","true","""event"",""trial"",""time""
""fullscreenenter"",""5"",""7877""
","
","
","""event"",""trial"",""time""
""fullscreenenter"",""5"",""7877""
","
","352","","49","","","3000","1","","","images/tutgreenplanet.jpg","images/tutalien2","images/tutalien1","images/tutrocket2","images/tutalien1","images/t.png","2","practice","true","1","common","1","2023-01-26 19:21:30.714"
"two-step-fixation","69","113694","0.0-61.0-2.2","2928","5928","9","Male","true","false","true","true","""event"",""trial"",""time""
""fullscreenenter"",""5"",""7877""
","
","
","""event"",""trial"",""time""
""fullscreenenter"",""5"",""7877""
","
","","images/earth.jpg","","","","","","","","","","","","","","fixation","","","","","",""
"d3-animate-choice","70","115964","0.0-61.0-0.3","2928","5928","9","Male","true","false","true","true","""event"",""trial"",""time""
""fullscreenenter"",""5"",""7877""
","
","
","""event"",""trial"",""time""
""fullscreenenter"",""5"",""7877""
","
","265.09999990463257","","49","","","3000","1","","","images/earth.jpg","images/tutrocket1","images/tutrocket2","null","images/tutrocket2","","1","practice","null","1","","",""
"d3-animate-choice","71","118344","0.0-61.0-1.3","2928","5928","9","Male","true","false","true","true","""event"",""trial"",""time""
""fullscreenenter"",""5"",""7877""
","
","
","""event"",""trial"",""time""
""fullscreenenter"",""5"",""7877""
","
","355.60000002384186","","49","","","3000","1","","","images/tutyellowplanet.jpg","images/tutalien4","images/tutalien3","images/tutrocket2","images/tutalien3","images/nothing.png","2","practice","false","1","rare","0","2023-01-26 19:21:36.384"
"two-step-fixation","72","119354","0.0-61.0-2.3","2928","5928","9","Male","true","false","true","true","""event"",""trial"",""time""
""fullscreenenter"",""5"",""7877""
","
","
","""event"",""trial"",""time""
""fullscreenenter"",""5"",""7877""
","
","","images/earth.jpg","","","","","","","","","","","","","","fixation","","","","","",""
"d3-animate-choice","73","121524","0.0-61.0-0.4","2928","5928","9","Male","true","false","true","true","""event"",""trial"",""time""
""fullscreenenter"",""5"",""7877""
","
","
","""event"",""trial"",""time""
""fullscreenenter"",""5"",""7877""
","
","157.10000002384186","","49","","","3000","1","","","images/earth.jpg","images/tutrocket1","images/tutrocket2","null","images/tutrocket2","","1","practice","null","1","","",""
"d3-animate-choice","74","124064","0.0-61.0-1.4","2928","5928","9","Male","true","false","true","true","""event"",""trial"",""time""
""fullscreenenter"",""5"",""7877""
","
","
","""event"",""trial"",""time""
""fullscreenenter"",""5"",""7877""
","
","523.5","","49","","","3000","1","","","images/tutgreenplanet.jpg","images/tutalien2","images/tutalien1","images/tutrocket2","images/tutalien1","images/t.png","2","practice","true","1","common","1","2023-01-26 19:21:42.104"
"two-step-fixation","75","125074","0.0-61.0-2.4","2928","5928","9","Male","true","false","true","true","""event"",""trial"",""time""
""fullscreenenter"",""5"",""7877""
","
","
","""event"",""trial"",""time""
""fullscreenenter"",""5"",""7877""
","
","","images/earth.jpg","","","","","","","","","","","","","","fixation","","","","","",""
"d3-animate-choice","76","127247","0.0-61.0-0.5","2928","5928","9","Male","true","false","true","true","""event"",""trial"",""time""
""fullscreenenter"",""5"",""7877""
","
","
","""event"",""trial"",""time""
""fullscreenenter"",""5"",""7877""
","
","165.60000002384186","","49","","","3000","1","","","images/earth.jpg","images/tutrocket1","images/tutrocket2","null","images/tutrocket2","","1","practice","null","1","","",""
"d3-animate-choice","77","129752","0.0-61.0-1.5","2928","5928","9","Male","true","false","true","true","""event"",""trial"",""time""
""fullscreenenter"",""5"",""7877""
","
","
","""event"",""trial"",""time""
""fullscreenenter"",""5"",""7877""
","
","496","","49","","","3000","1","","","images/tutyellowplanet.jpg","images/tutalien4","images/tutalien3","images/tutrocket2","images/tutalien3","images/nothing.png","2","practice","false","1","rare","0","2023-01-26 19:21:47.792"
"two-step-fixation","78","130759","0.0-61.0-2.5","2928","5928","9","Male","true","false","true","true","""event"",""trial"",""time""
""fullscreenenter"",""5"",""7877""
","
","
","""event"",""trial"",""time""
""fullscreenenter"",""5"",""7877""
","
","","images/earth.jpg","","","","","","","","","","","","","","fixation","","","","","",""
"d3-animate-choice","79","133087","0.0-61.0-0.6","2928","5928","9","Male","true","false","true","true","""event"",""trial"",""time""
""fullscreenenter"",""5"",""7877""
","
","
","""event"",""trial"",""time""
""fullscreenenter"",""5"",""7877""
","
","321.60000002384186","","49","","","3000","1","","","images/earth.jpg","images/tutrocket1","images/tutrocket2","null","images/tutrocket2","","1","practice","null","1","","",""
"d3-animate-choice","80","135295","0.0-61.0-1.6","2928","5928","9","Male","true","false","true","true","""event"",""trial"",""time""
""fullscreenenter"",""5"",""7877""
","
","
","""event"",""trial"",""time""
""fullscreenenter"",""5"",""7877""
","
","200.90000009536743","","49","","","3000","1","","","images/tutgreenplanet.jpg","images/tutalien2","images/tutalien1","images/tutrocket2","images/tutalien1","images/nothing.png","2","practice","true","1","common","0","2023-01-26 19:21:53.335"
"two-step-fixation","81","136304","0.0-61.0-2.6","2928","5928","9","Male","true","false","true","true","""event"",""trial"",""time""
""fullscreenenter"",""5"",""7877""
","
","
","""event"",""trial"",""time""
""fullscreenenter"",""5"",""7877""
","
","","images/earth.jpg","","","","","","","","","","","","","","fixation","","","","","",""
"d3-animate-choice","82","138951","0.0-61.0-0.7","2928","5928","9","Male","true","false","true","true","""event"",""trial"",""time""
""fullscreenenter"",""5"",""7877""
","
","
","""event"",""trial"",""time""
""fullscreenenter"",""5"",""7877""
","
","638.6000000238419","","49","","","3000","1","2142.9000000953674,2630.5","49,49","images/earth.jpg","images/tutrocket1","images/tutrocket2","null","images/tutrocket2","","1","practice","null","1","","",""
"d3-animate-choice","83","141223","0.0-61.0-1.7","2928","5928","9","Male","true","false","true","true","""event"",""trial"",""time""
""fullscreenenter"",""5"",""7877""
","
","
","""event"",""trial"",""time""
""fullscreenenter"",""5"",""7877""
","
","263.89999997615814","","49","","","3000","1","503.7999999523163,744.1999999284744,960.2999999523163,1128.0999999046326,1288.2999999523163,1464,1640,1863.6999999284744,2040.2999999523163,2232","49,49,49,49,49,49,49,49,49,49","images/tutgreenplanet.jpg","images/tutalien2","images/tutalien1","images/tutrocket2","images/tutalien1","images/t.png","2","practice","true","1","common","1","2023-01-26 19:21:59.263"
"two-step-fixation","84","142232","0.0-61.0-2.7","2928","5928","9","Male","true","false","true","true","""event"",""trial"",""time""
""fullscreenenter"",""5"",""7877""
","
","
","""event"",""trial"",""time""
""fullscreenenter"",""5"",""7877""
","
","","images/earth.jpg","","","","","","","","","","","","","","fixation","","","","","",""
"d3-animate-choice","85","144296","0.0-61.0-0.8","2928","5928","9","Male","true","false","true","true","""event"",""trial"",""time""
""fullscreenenter"",""5"",""7877""
","
","
","""event"",""trial"",""time""
""fullscreenenter"",""5"",""7877""
","
","54.5","","49","","","3000","1","262.5,526.7000000476837,718.4000000953674,942.6000000238419,1126.2000000476837,1334.8000000715256,1526.6000000238419,1694.6000000238419,1894.6000000238419","49,49,49,49,49,49,49,49,49","images/earth.jpg","images/tutrocket1","images/tutrocket2","null","images/tutrocket2","","1","practice","null","1","","",""
"d3-animate-choice","86","146315","0.0-61.0-1.8","2928","5928","9","Male","true","false","true","true","""event"",""trial"",""time""
""fullscreenenter"",""5"",""7877""
","
","
","""event"",""trial"",""time""
""fullscreenenter"",""5"",""7877""
","
","13.900000095367432","","49","","","3000","1","190.80000007152557,342,502.90000009536743,695.2000000476837,855.2000000476837,1039.1000000238419,1215,1406.9000000953674,1607.2000000476837,1791.1000000238419,2015.2000000476837","49,49,49,49,49,49,49,49,49,49,49","images/tutyellowplanet.jpg","images/tutalien4","images/tutalien3","images/tutrocket2","images/tutalien3","images/nothing.png","2","practice","false","1","rare","0","2023-01-26 19:22:04.355"
"two-step-fixation","87","147328","0.0-61.0-2.8","2928","5928","9","Male","true","false","true","true","""event"",""trial"",""time""
""fullscreenenter"",""5"",""7877""
","
","
","""event"",""trial"",""time""
""fullscreenenter"",""5"",""7877""
","
","","images/earth.jpg","","","","","","","","","","","","","","fixation","","","","","",""
"d3-animate-choice","88","149520","0.0-61.0-0.9","2928","5928","9","Male","true","false","true","true","""event"",""trial"",""time""
""fullscreenenter"",""5"",""7877""
","
","
","""event"",""trial"",""time""
""fullscreenenter"",""5"",""7877""
","
","182.79999995231628","","49","","","3000","1","503.39999997615814,807.1999999284744,1175.2999999523163,1583.2999999523163,1967.1000000238419","49,49,49,49,49","images/earth.jpg","images/tutrocket1","images/tutrocket2","null","images/tutrocket2","","1","practice","null","1","","",""
"d3-animate-choice","89","151606","0.0-61.0-1.9","2928","5928","9","Male","true","false","true","true","""event"",""trial"",""time""
""fullscreenenter"",""5"",""7877""
","
","
","""event"",""trial"",""time""
""fullscreenenter"",""5"",""7877""
","
","78.80000007152557","","49","","","3000","1","1766.6000000238419","49","images/tutyellowplanet.jpg","images/tutalien4","images/tutalien3","images/tutrocket2","images/tutalien3","images/nothing.png","2","practice","false","1","rare","0","2023-01-26 19:22:09.646"
"two-step-fixation","90","152615","0.0-61.0-2.9","2928","5928","9","Male","true","false","true","true","""event"",""trial"",""time""
""fullscreenenter"",""5"",""7877""
","
","
","""event"",""trial"",""time""
""fullscreenenter"",""5"",""7877""
","
","","images/earth.jpg","","","","","","","","","","","","","","fixation","","","","","",""
"d3-animate-choice","91","154667","0.0-61.0-0.10","2928","5928","9","Male","true","false","true","true","""event"",""trial"",""time""
""fullscreenenter"",""5"",""7877""
","
","
","""event"",""trial"",""time""
""fullscreenenter"",""5"",""7877""
","
","46.89999997615814","","49","","","3000","1","311.7999999523163,1847.7999999523163,2047.7999999523163","49,49,49","images/earth.jpg","images/tutrocket1","images/tutrocket2","null","images/tutrocket2","","1","practice","null","1","","",""
"d3-animate-choice","92","156872","0.0-61.0-1.10","2928","5928","9","Male","true","false","true","true","""event"",""trial"",""time""
""fullscreenenter"",""5"",""7877""
","
","
","""event"",""trial"",""time""
""fullscreenenter"",""5"",""7877""
","
","196.30000007152557","","49","","","3000","1","388.5,588.3999999761581,764.6000000238419,956.1000000238419,1140.2000000476837,1332.6000000238419,1516.7000000476837,1708.3999999761581,1868.1000000238419,2076.3000000715256","49,49,49,49,49,49,49,49,49,49","images/tutgreenplanet.jpg","images/tutalien2","images/tutalien1","images/tutrocket2","images/tutalien1","images/t.png","2","practice","true","1","common","1","2023-01-26 19:22:14.912"
"two-step-fixation","93","157880","0.0-61.0-2.10","2928","5928","9","Male","true","false","true","true","""event"",""trial"",""time""
""fullscreenenter"",""5"",""7877""
","
","
","""event"",""trial"",""time""
""fullscreenenter"",""5"",""7877""
","
","","images/earth.jpg","","","","","","","","","","","","","","fixation","","","","","",""
"d3-animate-choice","94","160023","0.0-61.0-0.11","2928","5928","9","Male","true","false","true","true","""event"",""trial"",""time""
""fullscreenenter"",""5"",""7877""
","
","
","""event"",""trial"",""time""
""fullscreenenter"",""5"",""7877""
","
","134.89999997615814","","49","","","3000","1","383.2000000476837,687,1015,1343.2000000476837,1695,2102.600000023842","49,49,49,49,49,49","images/earth.jpg","images/tutrocket1","images/tutrocket2","null","images/tutrocket2","","1","practice","null","1","","",""
"d3-animate-choice","95","162367","0.0-61.0-1.11","2928","5928","9","Male","true","false","true","true","""event"",""trial"",""time""
""fullscreenenter"",""5"",""7877""
","
","
","""event"",""trial"",""time""
""fullscreenenter"",""5"",""7877""
","
","336.10000002384186","","49","","","3000","1","712.1000000238419,1071.8999999761581,1432,1784,2095.899999976158","49,49,49,49,49","images/tutgreenplanet.jpg","images/tutalien2","images/tutalien1","images/tutrocket2","images/tutalien1","images/t.png","2","practice","true","1","common","1","2023-01-26 19:22:20.407"
"two-step-fixation","96","163375","0.0-61.0-2.11","2928","5928","9","Male","true","false","true","true","""event"",""trial"",""time""
""fullscreenenter"",""5"",""7877""
","
","
","""event"",""trial"",""time""
""fullscreenenter"",""5"",""7877""
","
","","images/earth.jpg","","","","","","","","","","","","","","fixation","","","","","",""
"d3-animate-choice","97","165462","0.0-61.0-0.12","2928","5928","9","Male","true","false","true","true","""event"",""trial"",""time""
""fullscreenenter"",""5"",""7877""
","
","
","""event"",""trial"",""time""
""fullscreenenter"",""5"",""7877""
","
","78.70000004768372","","49","","","3000","1","358.89999997615814,615.2000000476837,911,1206.6000000238419,1494.5,1782.8999999761581,2046.8999999761581","49,49,49,49,49,49,49","images/earth.jpg","images/tutrocket1","images/tutrocket2","null","images/tutrocket2","","1","practice","null","1","","",""
"d3-animate-choice","98","167718","0.0-61.0-1.12","2928","5928","9","Male","true","false","true","true","""event"",""trial"",""time""
""fullscreenenter"",""5"",""7877""
","
","
","""event"",""trial"",""time""
""fullscreenenter"",""5"",""7877""
","
","248","","49","","","3000","1","559.7999999523163,840.3999999761581,1064.3999999761581,1296.2999999523163,1552.1999999284744,1792,2056.399999976158","49,49,49,49,49,49,49","images/tutyellowplanet.jpg","images/tutalien4","images/tutalien3","images/tutrocket2","images/tutalien3","images/nothing.png","2","practice","false","1","rare","0","2023-01-26 19:22:25.758"
"two-step-fixation","99","168727","0.0-61.0-2.12","2928","5928","9","Male","true","false","true","true","""event"",""trial"",""time""
""fullscreenenter"",""5"",""7877""
","
","
","""event"",""trial"",""time""
""fullscreenenter"",""5"",""7877""
","
","","images/earth.jpg","","","","","","","","","","","","","","fixation","","","","","",""
"d3-animate-choice","100","170855","0.0-61.0-0.13","2928","5928","9","Male","true","false","true","true","""event"",""trial"",""time""
""fullscreenenter"",""5"",""7877""
","
","
","""event"",""trial"",""time""
""fullscreenenter"",""5"",""7877""
","
","120","","49","","","3000","1","360,600,824,1079.8999999761581,1335.8999999761581,1863.6000000238419,2080.100000023842","49,49,49,49,49,49,49","images/earth.jpg","images/tutrocket1","images/tutrocket2","null","images/tutrocket2","","1","practice","null","1","","",""
"d3-animate-choice","101","173031","0.0-61.0-1.13","2928","5928","9","Male","true","false","true","true","""event"",""trial"",""time""
""fullscreenenter"",""5"",""7877""
","
","
","""event"",""trial"",""time""
""fullscreenenter"",""5"",""7877""
","
","166.89999997615814","","49","","","3000","1","407.5,655.2000000476837,983.7000000476837,1383.5,1743.1000000238419,2087.5","49,49,49,49,49,49","images/tutgreenplanet.jpg","images/tutalien2","images/tutalien1","images/tutrocket2","images/tutalien1","images/t.png","2","practice","true","1","common","1","2023-01-26 19:22:31.071"
"two-step-fixation","102","174039","0.0-61.0-2.13","2928","5928","9","Male","true","false","true","true","""event"",""trial"",""time""
""fullscreenenter"",""5"",""7877""
","
","
","""event"",""trial"",""time""
""fullscreenenter"",""5"",""7877""
","
","","images/earth.jpg","","","","","","","","","","","","","","fixation","","","","","",""
"d3-animate-choice","103","176167","0.0-61.0-0.14","2928","5928","9","Male","true","false","true","true","""event"",""trial"",""time""
""fullscreenenter"",""5"",""7877""
","
","
","""event"",""trial"",""time""
""fullscreenenter"",""5"",""7877""
","
","119.09999990463257","","49","","","3000","1","343.2999999523163,519.2999999523163,695.0999999046326,862.3999999761581,1038.8999999761581,1350.8999999761581,1694.8999999761581,2103.1999999284744","49,49,49,49,49,49,49,49","images/earth.jpg","images/tutrocket1","images/tutrocket2","null","images/tutrocket2","","1","practice","null","1","","",""
"d3-animate-choice","104","178608","0.0-61.0-1.14","2928","5928","9","Male","true","false","true","true","""event"",""trial"",""time""
""fullscreenenter"",""5"",""7877""
","
","
","""event"",""trial"",""time""
""fullscreenenter"",""5"",""7877""
","
","431.40000009536743","","49","","","3000","1","631.1000000238419,790.7000000476837,1167.5,1551.7000000476837,1751.7000000476837,1990.9000000953674,2199.600000023842,2367.600000023842","49,49,49,49,49,49,49,49","images/tutgreenplanet.jpg","images/tutalien2","images/tutalien1","images/tutrocket2","images/tutalien1","images/nothing.png","2","practice","true","1","common","0","2023-01-26 19:22:36.648"
"two-step-fixation","105","179614","0.0-61.0-2.14","2928","5928","9","Male","true","false","true","true","""event"",""trial"",""time""
""fullscreenenter"",""5"",""7877""
","
","
","""event"",""trial"",""time""
""fullscreenenter"",""5"",""7877""
","
","","images/earth.jpg","","","","","","","","","","","","","","fixation","","","","","",""
"d3-animate-choice","106","181767","0.0-61.0-0.15","2928","5928","9","Male","true","false","true","true","""event"",""trial"",""time""
""fullscreenenter"",""5"",""7877""
","
","
","""event"",""trial"",""time""
""fullscreenenter"",""5"",""7877""
","
","143.60000002384186","","49","","","3000","1","328.1999999284744,512.1999999284744,704.2999999523163,888.2999999523163,1104.2999999523163,1320.1999999284744,1464.3999999761581,1664.3999999761581,1888.1000000238419,2128.2999999523163","49,49,49,49,49,49,49,49,49,49","images/earth.jpg","images/tutrocket1","images/tutrocket2","null","images/tutrocket2","","1","practice","null","1","","",""
"d3-animate-choice","107","183959","0.0-61.0-1.15","2928","5928","9","Male","true","false","true","true","""event"",""trial"",""time""
""fullscreenenter"",""5"",""7877""
","
","
","""event"",""trial"",""time""
""fullscreenenter"",""5"",""7877""
","
","184.10000002384186","","49","","","3000","1","392.2999999523163,616.2999999523163,848,1031.8999999761581,1336.1999999284744,1576.2999999523163,1824.1999999284744,2104.399999976158","49,49,49,49,49,49,49,49","images/tutyellowplanet.jpg","images/tutalien4","images/tutalien3","images/tutrocket2","images/tutalien3","images/t.png","2","practice","false","1","rare","1","2023-01-26 19:22:41.999"
"two-step-fixation","108","184967","0.0-61.0-2.15","2928","5928","9","Male","true","false","true","true","""event"",""trial"",""time""
""fullscreenenter"",""5"",""7877""
","
","
","""event"",""trial"",""time""
""fullscreenenter"",""5"",""7877""
","
","","images/earth.jpg","","","","","","","","","","","","","","fixation","","","","","",""
"d3-animate-choice","109","186974","0.0-61.0-0.16","2928","5928","9","Male","true","false","true","true","""event"",""trial"",""time""
""fullscreenenter"",""5"",""7877""
","
","
","""event"",""trial"",""time""
""fullscreenenter"",""5"",""7877""
","
","0.6000000238418579","","49","","","3000","1","207.70000004768372,440,680,928,1151.6000000238419,1400,1616,1855.5","49,49,49,49,49,49,49,49","images/earth.jpg","images/tutrocket1","images/tutrocket2","null","images/tutrocket2","","1","practice","null","1","","",""
"d3-animate-choice","110","189055","0.0-61.0-1.16","2928","5928","9","Male","true","false","true","true","""event"",""trial"",""time""
""fullscreenenter"",""5"",""7877""
","
","
","""event"",""trial"",""time""
""fullscreenenter"",""5"",""7877""
","
","72.19999992847443","","49","","","3000","1","319.89999997615814,528.0999999046326,760,992.0999999046326,1279.8999999761581,1752.1999999284744,1968.5999999046326","49,49,49,49,49,49,49","images/tutgreenplanet.jpg","images/tutalien2","images/tutalien1","images/tutrocket2","images/tutalien1","images/t.png","2","practice","true","1","common","1","2023-01-26 19:22:47.095"
"two-step-fixation","111","190063","0.0-61.0-2.16","2928","5928","9","Male","true","false","true","true","""event"",""trial"",""time""
""fullscreenenter"",""5"",""7877""
","
","
","""event"",""trial"",""time""
""fullscreenenter"",""5"",""7877""
","
","","images/earth.jpg","","","","","","","","","","","","","","fixation","","","","","",""
"d3-animate-choice","112","194079","0.0-61.0-0.17","2928","5928","9","Male","true","false","true","true","""event"",""trial"",""time""
""fullscreenenter"",""5"",""7877""
","
","
","""event"",""trial"",""time""
""fullscreenenter"",""5"",""7877""
","
","1047","","97","","","3000","1","2039.2999999523163,3966.5","49,49","images/earth.jpg","images/tutrocket1","images/tutrocket2","null","images/tutrocket2","","1","practice","null","","","",""
"d3-animate-choice","113","196167","0.0-61.0-1.17","2928","5928","9","Male","true","false","true","true","""event"",""trial"",""time""
""fullscreenenter"",""5"",""7877""
","
","
","""event"",""trial"",""time""
""fullscreenenter"",""5"",""7877""
","
","80","","49","","","3000","1","343.60000002384186,1751.8999999761581","49,49","images/tutgreenplanet.jpg","images/tutalien2","images/tutalien1","images/tutrocket2","images/tutalien1","images/t.png","2","practice","true","1","common","1","2023-01-26 19:22:54.207"
"two-step-fixation","114","197175","0.0-61.0-2.17","2928","5928","9","Male","true","false","true","true","""event"",""trial"",""time""
""fullscreenenter"",""5"",""7877""
","
","
","""event"",""trial"",""time""
""fullscreenenter"",""5"",""7877""
","
","","images/earth.jpg","","","","","","","","","","","","","","fixation","","","","","",""
"d3-animate-choice","115","199535","0.0-61.0-0.18","2928","5928","9","Male","true","false","true","true","""event"",""trial"",""time""
""fullscreenenter"",""5"",""7877""
","
","
","""event"",""trial"",""time""
""fullscreenenter"",""5"",""7877""
","
","351.5","","49","","","3000","1","","","images/earth.jpg","images/tutrocket1","images/tutrocket2","null","images/tutrocket2","","1","practice","null","1","","",""
"d3-animate-choice","116","202007","0.0-61.0-1.18","2928","5928","9","Male","true","false","true","true","""event"",""trial"",""time""
""fullscreenenter"",""5"",""7877""
","
","
","""event"",""trial"",""time""
""fullscreenenter"",""5"",""7877""
","
","462.8000000715256","","49","","","3000","1","1167.6000000238419,1791.6000000238419,2199.399999976158","49,49,49","images/tutgreenplanet.jpg","images/tutalien2","images/tutalien1","images/tutrocket2","images/tutalien1","images/nothing.png","2","practice","true","1","common","0","2023-01-26 19:23:00.047"
"two-step-fixation","117","203015","0.0-61.0-2.18","2928","5928","9","Male","true","false","true","true","""event"",""trial"",""time""
""fullscreenenter"",""5"",""7877""
","
","
","""event"",""trial"",""time""
""fullscreenenter"",""5"",""7877""
","
","","images/earth.jpg","","","","","","","","","","","","","","fixation","","","","","",""
"d3-animate-choice","118","205580","0.0-61.0-0.19","2928","5928","9","Male","true","false","true","true","""event"",""trial"",""time""
""fullscreenenter"",""5"",""7877""
","
","
","""event"",""trial"",""time""
""fullscreenenter"",""5"",""7877""
","
","559.2999999523163","","49","","","3000","1","2015.2000000476837","49","images/earth.jpg","images/tutrocket1","images/tutrocket2","null","images/tutrocket2","","1","practice","null","1","","",""
"d3-animate-choice","119","207767","0.0-61.0-1.19","2928","5928","9","Male","true","false","true","true","""event"",""trial"",""time""
""fullscreenenter"",""5"",""7877""
","
","
","""event"",""trial"",""time""
""fullscreenenter"",""5"",""7877""
","
","179.10000002384186","","49","","","3000","1","","","images/tutgreenplanet.jpg","images/tutalien2","images/tutalien1","images/tutrocket2","images/tutalien1","images/nothing.png","2","practice","true","1","common","0","2023-01-26 19:23:05.807"
"two-step-fixation","120","208775","0.0-61.0-2.19","2928","5928","9","Male","true","false","true","true","""event"",""trial"",""time""
""fullscreenenter"",""5"",""7877""
","
","
","""event"",""trial"",""time""
""fullscreenenter"",""5"",""7877""
","
","","images/earth.jpg","","","","","","","","","","","","","","fixation","","","","","",""
"d3-instructions","121","209723","0.0-62.0","2928","5928","9","Male","true","false","true","true","""event"",""trial"",""time""
""fullscreenenter"",""5"",""7877""
","
","
","""event"",""trial"",""time""
""fullscreenenter"",""5"",""7877""
","
","","","","","","","","","","","","","","","","","","","","","",""
"audio-keyboard-response","122","213107","0.0-63.0","2928","5928","9","Male","true","false","true","true","""event"",""trial"",""time""
""fullscreenenter"",""5"",""7877""
","
","
","""event"",""trial"",""time""
""fullscreenenter"",""5"",""7877""
","
","3379","audio/instructions/treasure_feedback.wav","32","","","","","","","","","","","","","","","","","","",""
"d3-instructions","123","214506","0.0-64.0","2928","5928","9","Male","true","false","true","true","""event"",""trial"",""time""
""fullscreenenter"",""5"",""7877""
","
","
","""event"",""trial"",""time""
""fullscreenenter"",""5"",""7877""
","
","","","","","","","","","","","","","","","","","","","","","",""
"d3-instructions","124","215611","0.0-65.0","2928","5928","9","Male","true","false","true","true","""event"",""trial"",""time""
""fullscreenenter"",""5"",""7877""
","
","
","""event"",""trial"",""time""
""fullscreenenter"",""5"",""7877""
","
","","","","","","","","","","","","","","","","","","","","","",""
"d3-instructions","125","216411","0.0-66.0","2928","5928","9","Male","true","false","true","true","""event"",""trial"",""time""
""fullscreenenter"",""5"",""7877""
","
","
","""event"",""trial"",""time""
""fullscreenenter"",""5"",""7877""
","
","","","","","","","","","","","","","","","","","","","","","",""
"d3-instructions","126","217075","0.0-67.0","2928","5928","9","Male","true","false","true","true","""event"",""trial"",""time""
""fullscreenenter"",""5"",""7877""
","
","
","""event"",""trial"",""time""
""fullscreenenter"",""5"",""7877""
","
","","","","","","","","","","","","","","","","","","","","","",""
"d3-instructions","127","217650","0.0-68.0","2928","5928","9","Male","true","false","true","true","""event"",""trial"",""time""
""fullscreenenter"",""5"",""7877""
","
","
","""event"",""trial"",""time""
""fullscreenenter"",""5"",""7877""
","
","","","","","","","","","","","","","","","","","","","","","",""
"instructions-quiz","128","220157","0.0-69.0","2928","5928","9","Male","true","false","true","true","""event"",""trial"",""time""
""fullscreenenter"",""5"",""7877""
","
","
","""event"",""trial"",""time""
""fullscreenenter"",""5"",""7877""
","
","2502.5","audio/quiz/Q1_Prompt.wav","","1","","","","","","","","","","","","","","","","","",""
"audio-keyboard-response","129","220259","0.0-70.0","2928","5928","9","Male","true","false","true","true","""event"",""trial"",""time""
""fullscreenenter"",""5"",""7877""
","
","
","""event"",""trial"",""time""
""fullscreenenter"",""5"",""7877""
","
","99","audio/quiz/Q1_Correct.wav","32","","","","","","","","","","","","","","","","","","",""
"instructions-quiz","130","221204","0.0-71.0","2928","5928","9","Male","true","false","true","true","""event"",""trial"",""time""
""fullscreenenter"",""5"",""7877""
","
","
","""event"",""trial"",""time""
""fullscreenenter"",""5"",""7877""
","
","942.4000000953674","audio/quiz/Q2_Prompt.wav","","1","","","","","","","","","","","","","","","","","",""
"audio-keyboard-response","131","221339","0.0-72.0","2928","5928","9","Male","true","false","true","true","""event"",""trial"",""time""
""fullscreenenter"",""5"",""7877""
","
","
","""event"",""trial"",""time""
""fullscreenenter"",""5"",""7877""
","
","139","audio/quiz/Q2_Incorrect.wav","32","","","","","","","","","","","","","","","","","","",""
"instructions-quiz","132","222187","0.0-73.0","2928","5928","9","Male","true","false","true","true","""event"",""trial"",""time""
""fullscreenenter"",""5"",""7877""
","
","
","""event"",""trial"",""time""
""fullscreenenter"",""5"",""7877""
","
","845.7000000476837","audio/quiz/Q3_Prompt.wav","","1","","","","","","","","","","","","","","","","","",""
"audio-keyboard-response","133","222211","0.0-74.0","2928","5928","9","Male","true","false","true","true","""event"",""trial"",""time""
""fullscreenenter"",""5"",""7877""
","
","
","""event"",""trial"",""time""
""fullscreenenter"",""5"",""7877""
","
","19","audio/quiz/Q3_Correct.wav","32","","","","","","","","","","","","","","","","","","",""
"d3-instructions","134","223667","0.0-75.0","2928","5928","9","Male","true","false","true","true","""event"",""trial"",""time""
""fullscreenenter"",""5"",""7877""
","
","
","""event"",""trial"",""time""
""fullscreenenter"",""5"",""7877""
","
","","","","","","","","","","","","","","","","","","","","","",""
"pavlovia","135","223670","0.0-76.0","2928","5928","9","Male","true","false","true","true","""event"",""trial"",""time""
""fullscreenenter"",""5"",""7877""
","
","
","""event"",""trial"",""time""
""fullscreenenter"",""5"",""7877""
","
","","","","","","","","","","","","","","","","","","","","","",""
"d3-animate-choice","136","226991","0.0-77.0-0.0","2928","5928","9","Male","true","false","true","true","""event"",""trial"",""time""
""fullscreenenter"",""5"",""7877""
","
","
","""event"",""trial"",""time""
""fullscreenenter"",""5"",""7877""
","
","1313","","49","","","3000","1","","","images/earth.jpg","images/rocket2","images/rocket1","null","images/rocket1","","1","real","null","1","","",""
"d3-animate-choice","137","229367","0.0-77.0-1.0","2928","5928","9","Male","true","false","true","true","""event"",""trial"",""time""
""fullscreenenter"",""5"",""7877""
","
","
","""event"",""trial"",""time""
""fullscreenenter"",""5"",""7877""
","
","367.2000000476837","","48","","","3000","1","","","images/redplanet1.jpg","images/alien2","images/alien1","images/rocket1","images/alien2","images/t.png","2","real","false","2","rare","1","2023-01-26 19:23:27.407"
"two-step-fixation","138","230376","0.0-77.0-2.0","2928","5928","9","Male","true","false","true","true","""event"",""trial"",""time""
""fullscreenenter"",""5"",""7877""
","
","
","""event"",""trial"",""time""
""fullscreenenter"",""5"",""7877""
","
","","images/earth.jpg","","","","","","","","","","","","","","fixation","","","","","",""
"d3-animate-choice","139","232775","0.0-77.0-0.1","2928","5928","9","Male","true","false","true","true","""event"",""trial"",""time""
""fullscreenenter"",""5"",""7877""
","
","
","""event"",""trial"",""time""
""fullscreenenter"",""5"",""7877""
","
","389.89999997615814","","49","","","3000","1","","","images/earth.jpg","images/rocket2","images/rocket1","null","images/rocket1","","1","real","null","1","","",""
"d3-animate-choice","140","235948","0.0-77.0-1.1","2928","5928","9","Male","true","false","true","true","""event"",""trial"",""time""
""fullscreenenter"",""5"",""7877""
","
","
","""event"",""trial"",""time""
""fullscreenenter"",""5"",""7877""
","
","1160.1999999284744","","49","","","3000","1","","","images/purpleplanet.jpg","images/alien4","images/alien3","images/rocket1","images/alien3","images/t.png","2","real","true","1","common","1","2023-01-26 19:23:33.988"
"two-step-fixation","141","236967","0.0-77.0-2.1","2928","5928","9","Male","true","false","true","true","""event"",""trial"",""time""
""fullscreenenter"",""5"",""7877""
","
","
","""event"",""trial"",""time""
""fullscreenenter"",""5"",""7877""
","
","","images/earth.jpg","","","","","","","","","","","","","","fixation","","","","","",""
"d3-animate-choice","142","239398","0.0-77.0-0.2","2928","5928","9","Male","true","false","true","true","""event"",""trial"",""time""
""fullscreenenter"",""5"",""7877""
","
","
","""event"",""trial"",""time""
""fullscreenenter"",""5"",""7877""
","
","423.10000002384186","","49","","","3000","1","","","images/earth.jpg","images/rocket2","images/rocket1","null","images/rocket1","","1","real","null","1","","",""
"d3-animate-choice","143","243415","0.0-77.0-1.2","2928","5928","9","Male","true","false","true","true","""event"",""trial"",""time""
""fullscreenenter"",""5"",""7877""
","
","
","""event"",""trial"",""time""
""fullscreenenter"",""5"",""7877""
","
","2416.3000000715256","","49","","","3000","1","","","images/purpleplanet.jpg","images/alien4","images/alien3","images/rocket1","images/alien3","images/nothing.png","2","real","true","1","common","0","2023-01-26 19:23:41.455"
"two-step-fixation","144","244423","0.0-77.0-2.2","2928","5928","9","Male","true","false","true","true","""event"",""trial"",""time""
""fullscreenenter"",""5"",""7877""
","
","
","""event"",""trial"",""time""
""fullscreenenter"",""5"",""7877""
","
","","images/earth.jpg","","","","","","","","","","","","","","fixation","","","","","",""
"d3-animate-choice","145","247263","0.0-77.0-0.3","2928","5928","9","Male","true","false","true","true","""event"",""trial"",""time""
""fullscreenenter"",""5"",""7877""
","
","
","""event"",""trial"",""time""
""fullscreenenter"",""5"",""7877""
","
","831.6999999284744","","48","","","3000","1","","","images/earth.jpg","images/rocket2","images/rocket1","null","images/rocket2","","1","real","null","2","","",""
"d3-animate-choice","146","249850","0.0-77.0-1.3","2928","5928","9","Male","true","false","true","true","""event"",""trial"",""time""
""fullscreenenter"",""5"",""7877""
","
","
","""event"",""trial"",""time""
""fullscreenenter"",""5"",""7877""
","
","577.2999999523163","","48","","","3000","1","","","images/redplanet1.jpg","images/alien2","images/alien1","images/rocket2","images/alien2","images/nothing.png","2","real","true","2","common","0","2023-01-26 19:23:47.890"
"two-step-fixation","147","250867","0.0-77.0-2.3","2928","5928","9","Male","true","false","true","true","""event"",""trial"",""time""
""fullscreenenter"",""5"",""7877""
","
","
","""event"",""trial"",""time""
""fullscreenenter"",""5"",""7877""
","
","","images/earth.jpg","","","","","","","","","","","","","","fixation","","","","","",""
"d3-animate-choice","148","253157","0.0-77.0-0.4","2928","5928","9","Male","true","false","true","true","""event"",""trial"",""time""
""fullscreenenter"",""5"",""7877""
","
","
","""event"",""trial"",""time""
""fullscreenenter"",""5"",""7877""
","
","266.60000002384186","","48","","","3000","1","","","images/earth.jpg","images/rocket2","images/rocket1","null","images/rocket2","","1","real","null","2","","",""
"d3-animate-choice","149","256431","0.0-77.0-1.4","2928","5928","9","Male","true","false","true","true","""event"",""trial"",""time""
""fullscreenenter"",""5"",""7877""
","
","
","""event"",""trial"",""time""
""fullscreenenter"",""5"",""7877""
","
","1265.0999999046326","","48","","","3000","1","","","images/purpleplanet.jpg","images/alien4","images/alien3","images/rocket2","images/alien4","images/nothing.png","2","real","false","2","rare","0","2023-01-26 19:23:54.471"
"two-step-fixation","150","257439","0.0-77.0-2.4","2928","5928","9","Male","true","false","true","true","""event"",""trial"",""time""
""fullscreenenter"",""5"",""7877""
","
","
","""event"",""trial"",""time""
""fullscreenenter"",""5"",""7877""
","
","","images/earth.jpg","","","","","","","","","","","","","","fixation","","","","","",""
"d3-animate-choice","151","259734","0.0-77.0-0.5","2928","5928","9","Male","true","false","true","true","""event"",""trial"",""time""
""fullscreenenter"",""5"",""7877""
","
","
","""event"",""trial"",""time""
""fullscreenenter"",""5"",""7877""
","
","288.2000000476837","","49","","","3000","1","","","images/earth.jpg","images/rocket2","images/rocket1","null","images/rocket1","","1","real","null","1","","",""
"d3-animate-choice","152","262119","0.0-77.0-1.5","2928","5928","9","Male","true","false","true","true","""event"",""trial"",""time""
""fullscreenenter"",""5"",""7877""
","
","
","""event"",""trial"",""time""
""fullscreenenter"",""5"",""7877""
","
","378.10000002384186","","49","","","3000","1","","","images/redplanet1.jpg","images/alien2","images/alien1","images/rocket1","images/alien1","images/t.png","2","real","false","1","rare","1","2023-01-26 19:24:00.159"
"two-step-fixation","153","263134","0.0-77.0-2.5","2928","5928","9","Male","true","false","true","true","""event"",""trial"",""time""
""fullscreenenter"",""5"",""7877""
","
","
","""event"",""trial"",""time""
""fullscreenenter"",""5"",""7877""
","
","","images/earth.jpg","","","","","","","","","","","","","","fixation","","","","","",""
"d3-animate-choice","154","265790","0.0-77.0-0.6","2928","5928","9","Male","true","false","true","true","""event"",""trial"",""time""
""fullscreenenter"",""5"",""7877""
","
","
","""event"",""trial"",""time""
""fullscreenenter"",""5"",""7877""
","
","647.6000000238419","","49","","","3000","1","","","images/earth.jpg","images/rocket2","images/rocket1","null","images/rocket1","","1","real","null","1","","",""
"d3-animate-choice","155","268543","0.0-77.0-1.6","2928","5928","9","Male","true","false","true","true","""event"",""trial"",""time""
""fullscreenenter"",""5"",""7877""
","
","
","""event"",""trial"",""time""
""fullscreenenter"",""5"",""7877""
","
","744.5","","48","","","3000","1","","","images/redplanet1.jpg","images/alien2","images/alien1","images/rocket1","images/alien2","images/nothing.png","2","real","false","2","rare","0","2023-01-26 19:24:06.584"
"two-step-fixation","156","269551","0.0-77.0-2.6","2928","5928","9","Male","true","false","true","true","""event"",""trial"",""time""
""fullscreenenter"",""5"",""7877""
","
","
","""event"",""trial"",""time""
""fullscreenenter"",""5"",""7877""
","
","","images/earth.jpg","","","","","","","","","","","","","","fixation","","","","","",""
"d3-animate-choice","157","271935","0.0-77.0-0.7","2928","5928","9","Male","true","false","true","true","""event"",""trial"",""time""
""fullscreenenter"",""5"",""7877""
","
","
","""event"",""trial"",""time""
""fullscreenenter"",""5"",""7877""
","
","375.39999997615814","","49","","","3000","1","","","images/earth.jpg","images/rocket2","images/rocket1","null","images/rocket1","","1","real","null","1","","",""
"d3-animate-choice","158","274352","0.0-77.0-1.7","2928","5928","9","Male","true","false","true","true","""event"",""trial"",""time""
""fullscreenenter"",""5"",""7877""
","
","
","""event"",""trial"",""time""
""fullscreenenter"",""5"",""7877""
","
","408.39999997615814","","48","","","3000","1","","","images/purpleplanet.jpg","images/alien4","images/alien3","images/rocket1","images/alien4","images/t.png","2","real","true","2","common","1","2023-01-26 19:24:12.392"
"two-step-fixation","159","275359","0.0-77.0-2.7","2928","5928","9","Male","true","false","true","true","""event"",""trial"",""time""
""fullscreenenter"",""5"",""7877""
","
","
","""event"",""trial"",""time""
""fullscreenenter"",""5"",""7877""
","
","","images/earth.jpg","","","","","","","","","","","","","","fixation","","","","","",""
"d3-animate-choice","160","277710","0.0-77.0-0.8","2928","5928","9","Male","true","false","true","true","""event"",""trial"",""time""
""fullscreenenter"",""5"",""7877""
","
","
","""event"",""trial"",""time""
""fullscreenenter"",""5"",""7877""
","
","343.09999990463257","","49","","","3000","1","","","images/earth.jpg","images/rocket2","images/rocket1","null","images/rocket1","","1","real","null","1","","",""
"d3-animate-choice","161","280887","0.0-77.0-1.8","2928","5928","9","Male","true","false","true","true","""event"",""trial"",""time""
""fullscreenenter"",""5"",""7877""
","
","
","""event"",""trial"",""time""
""fullscreenenter"",""5"",""7877""
","
","1167.8999999761581","","49","","","3000","1","","","images/redplanet1.jpg","images/alien2","images/alien1","images/rocket1","images/alien1","images/t.png","2","real","false","1","rare","1","2023-01-26 19:24:18.927"
"two-step-fixation","162","281895","0.0-77.0-2.8","2928","5928","9","Male","true","false","true","true","""event"",""trial"",""time""
""fullscreenenter"",""5"",""7877""
","
","
","""event"",""trial"",""time""
""fullscreenenter"",""5"",""7877""
","
","","images/earth.jpg","","","","","","","","","","","","","","fixation","","","","","",""
"d3-animate-choice","163","284335","0.0-77.0-0.9","2928","5928","9","Male","true","false","true","true","""event"",""trial"",""time""
""fullscreenenter"",""5"",""7877""
","
","
","""event"",""trial"",""time""
""fullscreenenter"",""5"",""7877""
","
","432.60000002384186","","49","","","3000","1","","","images/earth.jpg","images/rocket2","images/rocket1","null","images/rocket1","","1","real","null","1","","",""
"d3-animate-choice","164","286872","0.0-77.0-1.9","2928","5928","9","Male","true","false","true","true","""event"",""trial"",""time""
""fullscreenenter"",""5"",""7877""
","
","
","""event"",""trial"",""time""
""fullscreenenter"",""5"",""7877""
","
","527.8000000715256","","48","","","3000","1","","","images/purpleplanet.jpg","images/alien4","images/alien3","images/rocket1","images/alien4","images/t.png","2","real","true","2","common","1","2023-01-26 19:24:24.912"
"two-step-fixation","165","287879","0.0-77.0-2.9","2928","5928","9","Male","true","false","true","true","""event"",""trial"",""time""
""fullscreenenter"",""5"",""7877""
","
","
","""event"",""trial"",""time""
""fullscreenenter"",""5"",""7877""
","
","","images/earth.jpg","","","","","","","","","","","","","","fixation","","","","","",""
"d3-animate-choice","166","290191","0.0-77.0-0.10","2928","5928","9","Male","true","false","true","true","""event"",""trial"",""time""
""fullscreenenter"",""5"",""7877""
","
","
","""event"",""trial"",""time""
""fullscreenenter"",""5"",""7877""
","
","303","","49","","","3000","1","1023.2999999523163,1727.1999999284744","49,49","images/earth.jpg","images/rocket2","images/rocket1","null","images/rocket1","","1","real","null","1","","",""
"d3-animate-choice","167","292207","0.0-77.0-1.10","2928","5928","9","Male","true","false","true","true","""event"",""trial"",""time""
""fullscreenenter"",""5"",""7877""
","
","
","""event"",""trial"",""time""
""fullscreenenter"",""5"",""7877""
","
","5.799999952316284","","49","","","3000","1","","","images/redplanet1.jpg","images/alien2","images/alien1","images/rocket1","images/alien1","images/nothing.png","2","real","false","1","rare","0","2023-01-26 19:24:30.248"
"two-step-fixation","168","293214","0.0-77.0-2.10","2928","5928","9","Male","true","false","true","true","""event"",""trial"",""time""
""fullscreenenter"",""5"",""7877""
","
","
","""event"",""trial"",""time""
""fullscreenenter"",""5"",""7877""
","
","","images/earth.jpg","","","","","","","","","","","","","","fixation","","","","","",""
"d3-animate-choice","169","296543","0.0-77.0-0.11","2928","5928","9","Male","true","false","true","true","""event"",""trial"",""time""
""fullscreenenter"",""5"",""7877""
","
","
","""event"",""trial"",""time""
""fullscreenenter"",""5"",""7877""
","
","1319.3999999761581","","49","","","3000","1","","","images/earth.jpg","images/rocket2","images/rocket1","null","images/rocket1","","1","real","null","1","","",""
"d3-animate-choice","170","298927","0.0-77.0-1.11","2928","5928","9","Male","true","false","true","true","""event"",""trial"",""time""
""fullscreenenter"",""5"",""7877""
","
","
","""event"",""trial"",""time""
""fullscreenenter"",""5"",""7877""
","
","375.2999999523163","","48","","","3000","1","","","images/purpleplanet.jpg","images/alien4","images/alien3","images/rocket1","images/alien4","images/nothing.png","2","real","true","2","common","0","2023-01-26 19:24:36.967"
"two-step-fixation","171","299935","0.0-77.0-2.11","2928","5928","9","Male","true","false","true","true","""event"",""trial"",""time""
""fullscreenenter"",""5"",""7877""
","
","
","""event"",""trial"",""time""
""fullscreenenter"",""5"",""7877""
","
","","images/earth.jpg","","","","","","","","","","","","","","fixation","","","","","",""
"d3-animate-choice","172","302743","0.0-77.0-0.12","2928","5928","9","Male","true","false","true","true","""event"",""trial"",""time""
""fullscreenenter"",""5"",""7877""
","
","
","""event"",""trial"",""time""
""fullscreenenter"",""5"",""7877""
","
","799.1000000238419","","49","","","3000","1","","","images/earth.jpg","images/rocket2","images/rocket1","null","images/rocket1","","1","real","null","1","","",""
"d3-animate-choice","173","305143","0.0-77.0-1.12","2928","5928","9","Male","true","false","true","true","""event"",""trial"",""time""
""fullscreenenter"",""5"",""7877""
","
","
","""event"",""trial"",""time""
""fullscreenenter"",""5"",""7877""
","
","392","","49","","","3000","1","","","images/redplanet1.jpg","images/alien2","images/alien1","images/rocket1","images/alien1","images/nothing.png","2","real","false","1","rare","0","2023-01-26 19:24:43.183"
"two-step-fixation","174","306155","0.0-77.0-2.12","2928","5928","9","Male","true","false","true","true","""event"",""trial"",""time""
""fullscreenenter"",""5"",""7877""
","
","
","""event"",""trial"",""time""
""fullscreenenter"",""5"",""7877""
","
","","images/earth.jpg","","","","","","","","","","","","","","fixation","","","","","",""
"d3-animate-choice","175","308935","0.0-77.0-0.13","2928","5928","9","Male","true","false","true","true","""event"",""trial"",""time""
""fullscreenenter"",""5"",""7877""
","
","
","""event"",""trial"",""time""
""fullscreenenter"",""5"",""7877""
","
","771.8999999761581","","49","","","3000","1","","","images/earth.jpg","images/rocket2","images/rocket1","null","images/rocket1","","1","real","null","1","","",""
"d3-animate-choice","176","312278","0.0-77.0-1.13","2928","5928","9","Male","true","false","true","true","""event"",""trial"",""time""
""fullscreenenter"",""5"",""7877""
","
","
","""event"",""trial"",""time""
""fullscreenenter"",""5"",""7877""
","
","1335.6000000238419","","48","","","3000","1","","","images/redplanet1.jpg","images/alien2","images/alien1","images/rocket1","images/alien2","images/t.png","2","real","false","2","rare","1","2023-01-26 19:24:50.318"
"two-step-fixation","177","313286","0.0-77.0-2.13","2928","5928","9","Male","true","false","true","true","""event"",""trial"",""time""
""fullscreenenter"",""5"",""7877""
","
","
","""event"",""trial"",""time""
""fullscreenenter"",""5"",""7877""
","
","","images/earth.jpg","","","","","","","","","","","","","","fixation","","","","","",""
"d3-animate-choice","178","315791","0.0-77.0-0.14","2928","5928","9","Male","true","false","true","true","""event"",""trial"",""time""
""fullscreenenter"",""5"",""7877""
","
","
","""event"",""trial"",""time""
""fullscreenenter"",""5"",""7877""
","
","497.5","","49","","","3000","1","","","images/earth.jpg","images/rocket2","images/rocket1","null","images/rocket1","","1","real","null","1","","",""
"d3-animate-choice","179","318558","0.0-77.0-1.14","2928","5928","9","Male","true","false","true","true","""event"",""trial"",""time""
""fullscreenenter"",""5"",""7877""
","
","
","""event"",""trial"",""time""
""fullscreenenter"",""5"",""7877""
","
","759.7999999523163","","49","","","3000","1","","","images/purpleplanet.jpg","images/alien4","images/alien3","images/rocket1","images/alien3","images/nothing.png","2","real","true","1","common","0","2023-01-26 19:24:56.599"
"two-step-fixation","180","319567","0.0-77.0-2.14","2928","5928","9","Male","true","false","true","true","""event"",""trial"",""time""
""fullscreenenter"",""5"",""7877""
","
","
","""event"",""trial"",""time""
""fullscreenenter"",""5"",""7877""
","
","","images/earth.jpg","","","","","","","","","","","","","","fixation","","","","","",""
"d3-animate-choice","181","321992","0.0-77.0-0.15","2928","5928","9","Male","true","false","true","true","""event"",""trial"",""time""
""fullscreenenter"",""5"",""7877""
","
","
","""event"",""trial"",""time""
""fullscreenenter"",""5"",""7877""
","
","415.90000009536743","","49","","","3000","1","416.90000009536743","48","images/earth.jpg","images/rocket2","images/rocket1","null","images/rocket1","","1","real","null","1","","",""
"d3-animate-choice","182","324031","0.0-77.0-1.15","2928","5928","9","Male","true","false","true","true","""event"",""trial"",""time""
""fullscreenenter"",""5"",""7877""
","
","
","""event"",""trial"",""time""
""fullscreenenter"",""5"",""7877""
","
","29.5","","48","","","3000","1","","","images/redplanet1.jpg","images/alien2","images/alien1","images/rocket1","images/alien2","images/nothing.png","2","real","false","2","rare","0","2023-01-26 19:25:02.071"
"two-step-fixation","183","325039","0.0-77.0-2.15","2928","5928","9","Male","true","false","true","true","""event"",""trial"",""time""
""fullscreenenter"",""5"",""7877""
","
","
","""event"",""trial"",""time""
""fullscreenenter"",""5"",""7877""
","
","","images/earth.jpg","","","","","","","","","","","","","","fixation","","","","","",""
"d3-animate-choice","184","327215","0.0-77.0-0.16","2928","5928","9","Male","true","false","true","true","""event"",""trial"",""time""
""fullscreenenter"",""5"",""7877""
","
","
","""event"",""trial"",""time""
""fullscreenenter"",""5"",""7877""
","
","167.5","","49","","","3000","1","190.79999995231628","48","images/earth.jpg","images/rocket2","images/rocket1","null","images/rocket1","","1","real","null","1","","",""
"d3-animate-choice","185","329477","0.0-77.0-1.16","2928","5928","9","Male","true","false","true","true","""event"",""trial"",""time""
""fullscreenenter"",""5"",""7877""
","
","
","""event"",""trial"",""time""
""fullscreenenter"",""5"",""7877""
","
","256","","48","","","3000","1","271.39999997615814","49","images/redplanet1.jpg","images/alien2","images/alien1","images/rocket1","images/alien2","images/t.png","2","real","false","2","rare","1","2023-01-26 19:25:07.517"
"two-step-fixation","186","330487","0.0-77.0-2.16","2928","5928","9","Male","true","false","true","true","""event"",""trial"",""time""
""fullscreenenter"",""5"",""7877""
","
","
","""event"",""trial"",""time""
""fullscreenenter"",""5"",""7877""
","
","","images/earth.jpg","","","","","","","","","","","","","","fixation","","","","","",""
"d3-animate-choice","187","332759","0.0-77.0-0.17","2928","5928","9","Male","true","false","true","true","""event"",""trial"",""time""
""fullscreenenter"",""5"",""7877""
","
","
","""event"",""trial"",""time""
""fullscreenenter"",""5"",""7877""
","
","264.3000000715256","","49","","","3000","1","265.39999997615814","48","images/earth.jpg","images/rocket2","images/rocket1","null","images/rocket1","","1","real","null","1","","",""
"d3-animate-choice","188","335319","0.0-77.0-1.17","2928","5928","9","Male","true","false","true","true","""event"",""trial"",""time""
""fullscreenenter"",""5"",""7877""
","
","
","""event"",""trial"",""time""
""fullscreenenter"",""5"",""7877""
","
","550.6999999284744","","48","","","3000","1","","","images/redplanet1.jpg","images/alien2","images/alien1","images/rocket1","images/alien2","images/nothing.png","2","real","false","2","rare","0","2023-01-26 19:25:13.359"
"two-step-fixation","189","336326","0.0-77.0-2.17","2928","5928","9","Male","true","false","true","true","""event"",""trial"",""time""
""fullscreenenter"",""5"",""7877""
","
","
","""event"",""trial"",""time""
""fullscreenenter"",""5"",""7877""
","
","","images/earth.jpg","","","","","","","","","","","","","","fixation","","","","","",""
"d3-animate-choice","190","338359","0.0-77.0-0.18","2928","5928","9","Male","true","false","true","true","""event"",""trial"",""time""
""fullscreenenter"",""5"",""7877""
","
","
","""event"",""trial"",""time""
""fullscreenenter"",""5"",""7877""
","
","23.799999952316284","","48","","","3000","1","47.799999952316284","49","images/earth.jpg","images/rocket2","images/rocket1","null","images/rocket2","","1","real","null","2","","",""
"d3-animate-choice","191","340824","0.0-77.0-1.18","2928","5928","9","Male","true","false","true","true","""event"",""trial"",""time""
""fullscreenenter"",""5"",""7877""
","
","
","""event"",""trial"",""time""
""fullscreenenter"",""5"",""7877""
","
","456","","49","","","3000","1","511.39999997615814","48","images/purpleplanet.jpg","images/alien4","images/alien3","images/rocket2","images/alien3","images/t.png","2","real","false","1","rare","1","2023-01-26 19:25:18.864"
"two-step-fixation","192","341831","0.0-77.0-2.18","2928","5928","9","Male","true","false","true","true","""event"",""trial"",""time""
""fullscreenenter"",""5"",""7877""
","
","
","""event"",""trial"",""time""
""fullscreenenter"",""5"",""7877""
","
","","images/earth.jpg","","","","","","","","","","","","","","fixation","","","","","",""
"d3-animate-choice","193","343919","0.0-77.0-0.19","2928","5928","9","Male","true","false","true","true","""event"",""trial"",""time""
""fullscreenenter"",""5"",""7877""
","
","
","""event"",""trial"",""time""
""fullscreenenter"",""5"",""7877""
","
","79.80000007152557","","49","","","3000","1","103.80000007152557","48","images/earth.jpg","images/rocket2","images/rocket1","null","images/rocket1","","1","real","null","1","","",""
"d3-animate-choice","194","346687","0.0-77.0-1.19","2928","5928","9","Male","true","false","true","true","""event"",""trial"",""time""
""fullscreenenter"",""5"",""7877""
","
","
","""event"",""trial"",""time""
""fullscreenenter"",""5"",""7877""
","
","760.1999999284744","","49","","","3000","1","799.1999999284744","48","images/purpleplanet.jpg","images/alien4","images/alien3","images/rocket1","images/alien3","images/t.png","2","real","true","1","common","1","2023-01-26 19:25:24.727"
"two-step-fixation","195","347693","0.0-77.0-2.19","2928","5928","9","Male","true","false","true","true","""event"",""trial"",""time""
""fullscreenenter"",""5"",""7877""
","
","
","""event"",""trial"",""time""
""fullscreenenter"",""5"",""7877""
","
","","images/earth.jpg","","","","","","","","","","","","","","fixation","","","","","",""
"d3-animate-choice","196","349735","0.0-77.0-0.20","2928","5928","9","Male","true","false","true","true","""event"",""trial"",""time""
""fullscreenenter"",""5"",""7877""
","
","
","""event"",""trial"",""time""
""fullscreenenter"",""5"",""7877""
","
","32.799999952316284","","49","","","3000","1","64.29999995231628","48","images/earth.jpg","images/rocket2","images/rocket1","null","images/rocket1","","1","real","null","1","","",""
"d3-animate-choice","197","352213","0.0-77.0-1.20","2928","5928","9","Male","true","false","true","true","""event"",""trial"",""time""
""fullscreenenter"",""5"",""7877""
","
","
","""event"",""trial"",""time""
""fullscreenenter"",""5"",""7877""
","
","472.10000002384186","","49","","","3000","1","535.5","48","images/purpleplanet.jpg","images/alien4","images/alien3","images/rocket1","images/alien3","images/t.png","2","real","true","1","common","1","2023-01-26 19:25:30.253"
"two-step-fixation","198","353223","0.0-77.0-2.20","2928","5928","9","Male","true","false","true","true","""event"",""trial"",""time""
""fullscreenenter"",""5"",""7877""
","
","
","""event"",""trial"",""time""
""fullscreenenter"",""5"",""7877""
","
","","images/earth.jpg","","","","","","","","","","","","","","fixation","","","","","",""
"d3-animate-choice","199","355255","0.0-77.0-0.21","2928","5928","9","Male","true","false","true","true","""event"",""trial"",""time""
""fullscreenenter"",""5"",""7877""
","
","
","""event"",""trial"",""time""
""fullscreenenter"",""5"",""7877""
","
","22","","48","","","3000","1","","","images/earth.jpg","images/rocket2","images/rocket1","null","images/rocket2","","1","real","null","2","","",""
"d3-animate-choice","200","357903","0.0-77.0-1.21","2928","5928","9","Male","true","false","true","true","""event"",""trial"",""time""
""fullscreenenter"",""5"",""7877""
","
","
","""event"",""trial"",""time""
""fullscreenenter"",""5"",""7877""
","
","640.1999999284744","","49","","","3000","1","712","48","images/purpleplanet.jpg","images/alien4","images/alien3","images/rocket2","images/alien3","images/t.png","2","real","false","1","rare","1","2023-01-26 19:25:35.943"
"two-step-fixation","201","358912","0.0-77.0-2.21","2928","5928","9","Male","true","false","true","true","""event"",""trial"",""time""
""fullscreenenter"",""5"",""7877""
","
","
","""event"",""trial"",""time""
""fullscreenenter"",""5"",""7877""
","
","","images/earth.jpg","","","","","","","","","","","","","","fixation","","","","","",""
"d3-animate-choice","202","361015","0.0-77.0-0.22","2928","5928","9","Male","true","false","true","true","""event"",""trial"",""time""
""fullscreenenter"",""5"",""7877""
","
","
","""event"",""trial"",""time""
""fullscreenenter"",""5"",""7877""
","
","94.69999992847443","","49","","","3000","1","662.7999999523163","48","images/earth.jpg","images/rocket2","images/rocket1","null","images/rocket1","","1","real","null","1","","",""
"d3-animate-choice","203","363639","0.0-77.0-1.22","2928","5928","9","Male","true","false","true","true","""event"",""trial"",""time""
""fullscreenenter"",""5"",""7877""
","
","
","""event"",""trial"",""time""
""fullscreenenter"",""5"",""7877""
","
","615.7000000476837","","49","","","3000","1","695.6000000238419","48","images/purpleplanet.jpg","images/alien4","images/alien3","images/rocket1","images/alien3","images/t.png","2","real","true","1","common","1","2023-01-26 19:25:41.679"
"two-step-fixation","204","364648","0.0-77.0-2.22","2928","5928","9","Male","true","false","true","true","""event"",""trial"",""time""
""fullscreenenter"",""5"",""7877""
","
","
","""event"",""trial"",""time""
""fullscreenenter"",""5"",""7877""
","
","","images/earth.jpg","","","","","","","","","","","","","","fixation","","","","","",""
"d3-animate-choice","205","366783","0.0-77.0-0.23","2928","5928","9","Male","true","false","true","true","""event"",""trial"",""time""
""fullscreenenter"",""5"",""7877""
","
","
","""event"",""trial"",""time""
""fullscreenenter"",""5"",""7877""
","
","126.70000004768372","","48","","","3000","1","","","images/earth.jpg","images/rocket2","images/rocket1","null","images/rocket2","","1","real","null","2","","",""
"d3-animate-choice","206","369958","0.0-77.0-1.23","2928","5928","9","Male","true","false","true","true","""event"",""trial"",""time""
""fullscreenenter"",""5"",""7877""
","
","
","""event"",""trial"",""time""
""fullscreenenter"",""5"",""7877""
","
","1167.8000000715256","","49","","","3000","1","","","images/redplanet1.jpg","images/alien2","images/alien1","images/rocket2","images/alien1","images/t.png","2","real","true","1","common","1","2023-01-26 19:25:47.999"
"two-step-fixation","207","370967","0.0-77.0-2.23","2928","5928","9","Male","true","false","true","true","""event"",""trial"",""time""
""fullscreenenter"",""5"",""7877""
","
","
","""event"",""trial"",""time""
""fullscreenenter"",""5"",""7877""
","
","","images/earth.jpg","","","","","","","","","","","","","","fixation","","","","","",""
"d3-animate-choice","208","373191","0.0-77.0-0.24","2928","5928","9","Male","true","false","true","true","""event"",""trial"",""time""
""fullscreenenter"",""5"",""7877""
","
","
","""event"",""trial"",""time""
""fullscreenenter"",""5"",""7877""
","
","215.20000004768372","","49","","","3000","1","975.3999999761581,1239.1000000238419,1495.6000000238419,1694.3999999761581,1927.5,2135.399999976158","49,49,49,49,49,49","images/earth.jpg","images/rocket2","images/rocket1","null","images/rocket1","","1","real","null","1","","",""
"d3-animate-choice","209","375339","0.0-77.0-1.24","2928","5928","9","Male","true","false","true","true","""event"",""trial"",""time""
""fullscreenenter"",""5"",""7877""
","
","
","""event"",""trial"",""time""
""fullscreenenter"",""5"",""7877""
","
","142.70000004768372","","49","","","3000","1","343.3000000715256,551.4000000953674,759.6000000238419,943.6000000238419,1159.5,1423.6000000238419,1599.4000000953674,1815.1000000238419,1959.6000000238419,2143.5","49,49,49,49,49,49,49,49,49,49","images/redplanet1.jpg","images/alien2","images/alien1","images/rocket1","images/alien1","images/t.png","2","real","false","1","rare","1","2023-01-26 19:25:53.379"
"two-step-fixation","210","376351","0.0-77.0-2.24","2928","5928","9","Male","true","false","true","true","""event"",""trial"",""time""
""fullscreenenter"",""5"",""7877""
","
","
","""event"",""trial"",""time""
""fullscreenenter"",""5"",""7877""
","
","","images/earth.jpg","","","","","","","","","","","","","","fixation","","","","","",""
"d3-animate-choice","211","378423","0.0-77.0-0.25","2928","5928","9","Male","true","false","true","true","""event"",""trial"",""time""
""fullscreenenter"",""5"",""7877""
","
","
","""event"",""trial"",""time""
""fullscreenenter"",""5"",""7877""
","
","63.700000047683716","","49","","","3000","1","319.89999997615814,535.8999999761581,855.5,1136,1367.8000000715256,1671.5,1903.8999999761581","49,49,49,49,49,49,49","images/earth.jpg","images/rocket2","images/rocket1","null","images/rocket1","","1","real","null","1","","",""
"d3-animate-choice","212","380567","0.0-77.0-1.25","2928","5928","9","Male","true","false","true","true","""event"",""trial"",""time""
""fullscreenenter"",""5"",""7877""
","
","
","""event"",""trial"",""time""
""fullscreenenter"",""5"",""7877""
","
","134.89999997615814","","49","","","3000","1","375.10000002384186,679.6000000238419,959.5,1223.5","49,49,49,49","images/purpleplanet.jpg","images/alien4","images/alien3","images/rocket1","images/alien3","images/nothing.png","2","real","true","1","common","0","2023-01-26 19:25:58.607"
"two-step-fixation","213","381574","0.0-77.0-2.25","2928","5928","9","Male","true","false","true","true","""event"",""trial"",""time""
""fullscreenenter"",""5"",""7877""
","
","
","""event"",""trial"",""time""
""fullscreenenter"",""5"",""7877""
","
","","images/earth.jpg","","","","","","","","","","","","","","fixation","","","","","",""
"d3-animate-choice","214","383903","0.0-77.0-0.26","2928","5928","9","Male","true","false","true","true","""event"",""trial"",""time""
""fullscreenenter"",""5"",""7877""
","
","
","""event"",""trial"",""time""
""fullscreenenter"",""5"",""7877""
","
","320.2000000476837","","49","","","3000","1","1008.5","49","images/earth.jpg","images/rocket2","images/rocket1","null","images/rocket1","","1","real","null","1","","",""
"d3-animate-choice","215","386359","0.0-77.0-1.26","2928","5928","9","Male","true","false","true","true","""event"",""trial"",""time""
""fullscreenenter"",""5"",""7877""
","
","
","""event"",""trial"",""time""
""fullscreenenter"",""5"",""7877""
","
","447.2999999523163","","49","","","3000","1","","","images/purpleplanet.jpg","images/alien4","images/alien3","images/rocket1","images/alien3","images/nothing.png","2","real","true","1","common","0","2023-01-26 19:26:04.399"
"two-step-fixation","216","387368","0.0-77.0-2.26","2928","5928","9","Male","true","false","true","true","""event"",""trial"",""time""
""fullscreenenter"",""5"",""7877""
","
","
","""event"",""trial"",""time""
""fullscreenenter"",""5"",""7877""
","
","","images/earth.jpg","","","","","","","","","","","","","","fixation","","","","","",""
"d3-animate-choice","217","389463","0.0-77.0-0.27","2928","5928","9","Male","true","false","true","true","""event"",""trial"",""time""
""fullscreenenter"",""5"",""7877""
","
","
","""event"",""trial"",""time""
""fullscreenenter"",""5"",""7877""
","
","86.70000004768372","","49","","","3000","1","","","images/earth.jpg","images/rocket2","images/rocket1","null","images/rocket1","","1","real","null","1","","",""
"d3-animate-choice","218","391941","0.0-77.0-1.27","2928","5928","9","Male","true","false","true","true","""event"",""trial"",""time""
""fullscreenenter"",""5"",""7877""
","
","
","""event"",""trial"",""time""
""fullscreenenter"",""5"",""7877""
","
","473.5","","48","","","3000","1","","","images/purpleplanet.jpg","images/alien4","images/alien3","images/rocket1","images/alien4","images/t.png","2","real","true","2","common","1","2023-01-26 19:26:09.982"
"two-step-fixation","219","392952","0.0-77.0-2.27","2928","5928","9","Male","true","false","true","true","""event"",""trial"",""time""
""fullscreenenter"",""5"",""7877""
","
","
","""event"",""trial"",""time""
""fullscreenenter"",""5"",""7877""
","
","","images/earth.jpg","","","","","","","","","","","","","","fixation","","","","","",""
"d3-animate-choice","220","395287","0.0-77.0-0.28","2928","5928","9","Male","true","false","true","true","""event"",""trial"",""time""
""fullscreenenter"",""5"",""7877""
","
","
","""event"",""trial"",""time""
""fullscreenenter"",""5"",""7877""
","
","326.60000002384186","","49","","","3000","1","","","images/earth.jpg","images/rocket2","images/rocket1","null","images/rocket1","","1","real","null","1","","",""
"d3-animate-choice","221","397983","0.0-77.0-1.28","2928","5928","9","Male","true","false","true","true","""event"",""trial"",""time""
""fullscreenenter"",""5"",""7877""
","
","
","""event"",""trial"",""time""
""fullscreenenter"",""5"",""7877""
","
","688.1000000238419","","48","","","3000","1","","","images/purpleplanet.jpg","images/alien4","images/alien3","images/rocket1","images/alien4","images/nothing.png","2","real","true","2","common","0","2023-01-26 19:26:16.023"
"two-step-fixation","222","398991","0.0-77.0-2.28","2928","5928","9","Male","true","false","true","true","""event"",""trial"",""time""
""fullscreenenter"",""5"",""7877""
","
","
","""event"",""trial"",""time""
""fullscreenenter"",""5"",""7877""
","
","","images/earth.jpg","","","","","","","","","","","","","","fixation","","","","","",""
"d3-animate-choice","223","401552","0.0-77.0-0.29","2928","5928","9","Male","true","false","true","true","""event"",""trial"",""time""
""fullscreenenter"",""5"",""7877""
","
","
","""event"",""trial"",""time""
""fullscreenenter"",""5"",""7877""
","
","552.2999999523163","","49","","","3000","1","567.7999999523163","48","images/earth.jpg","images/rocket2","images/rocket1","null","images/rocket1","","1","real","null","1","","",""
"d3-animate-choice","224","404178","0.0-77.0-1.29","2928","5928","9","Male","true","false","true","true","""event"",""trial"",""time""
""fullscreenenter"",""5"",""7877""
","
","
","""event"",""trial"",""time""
""fullscreenenter"",""5"",""7877""
","
","607.5","","49","","","3000","1","","","images/redplanet1.jpg","images/alien2","images/alien1","images/rocket1","images/alien1","images/t.png","2","real","false","1","rare","1","2023-01-26 19:26:22.218"
"two-step-fixation","225","405191","0.0-77.0-2.29","2928","5928","9","Male","true","false","true","true","""event"",""trial"",""time""
""fullscreenenter"",""5"",""7877""
","
","
","""event"",""trial"",""time""
""fullscreenenter"",""5"",""7877""
","
","","images/earth.jpg","","","","","","","","","","","","","","fixation","","","","","",""
"d3-animate-choice","226","407511","0.0-77.0-0.30","2928","5928","9","Male","true","false","true","true","""event"",""trial"",""time""
""fullscreenenter"",""5"",""7877""
","
","
","""event"",""trial"",""time""
""fullscreenenter"",""5"",""7877""
","
","313.40000009536743","","49","","","3000","1","","","images/earth.jpg","images/rocket2","images/rocket1","null","images/rocket1","","1","real","null","1","","",""
"d3-animate-choice","227","410303","0.0-77.0-1.30","2928","5928","9","Male","true","false","true","true","""event"",""trial"",""time""
""fullscreenenter"",""5"",""7877""
","
","
","""event"",""trial"",""time""
""fullscreenenter"",""5"",""7877""
","
","784.0999999046326","","49","","","3000","1","","","images/redplanet1.jpg","images/alien2","images/alien1","images/rocket1","images/alien1","images/t.png","2","real","false","1","rare","1","2023-01-26 19:26:28.343"
"two-step-fixation","228","411311","0.0-77.0-2.30","2928","5928","9","Male","true","false","true","true","""event"",""trial"",""time""
""fullscreenenter"",""5"",""7877""
","
","
","""event"",""trial"",""time""
""fullscreenenter"",""5"",""7877""
","
","","images/earth.jpg","","","","","","","","","","","","","","fixation","","","","","",""
"d3-animate-choice","229","413648","0.0-77.0-0.31","2928","5928","9","Male","true","false","true","true","""event"",""trial"",""time""
""fullscreenenter"",""5"",""7877""
","
","
","""event"",""trial"",""time""
""fullscreenenter"",""5"",""7877""
","
","327.1999999284744","","49","","","3000","1","","","images/earth.jpg","images/rocket2","images/rocket1","null","images/rocket1","","1","real","null","1","","",""
"d3-animate-choice","230","416471","0.0-77.0-1.31","2928","5928","9","Male","true","false","true","true","""event"",""trial"",""time""
""fullscreenenter"",""5"",""7877""
","
","
","""event"",""trial"",""time""
""fullscreenenter"",""5"",""7877""
","
","815.3000000715256","","49","","","3000","1","","","images/purpleplanet.jpg","images/alien4","images/alien3","images/rocket1","images/alien3","images/nothing.png","2","real","true","1","common","0","2023-01-26 19:26:34.511"
"two-step-fixation","231","417479","0.0-77.0-2.31","2928","5928","9","Male","true","false","true","true","""event"",""trial"",""time""
""fullscreenenter"",""5"",""7877""
","
","
","""event"",""trial"",""time""
""fullscreenenter"",""5"",""7877""
","
","","images/earth.jpg","","","","","","","","","","","","","","fixation","","","","","",""
"d3-animate-choice","232","419527","0.0-77.0-0.32","2928","5928","9","Male","true","false","true","true","""event"",""trial"",""time""
""fullscreenenter"",""5"",""7877""
","
","
","""event"",""trial"",""time""
""fullscreenenter"",""5"",""7877""
","
","38.700000047683716","","49","","","3000","1","","","images/earth.jpg","images/rocket2","images/rocket1","null","images/rocket1","","1","real","null","1","","",""
"d3-animate-choice","233","421924","0.0-77.0-1.32","2928","5928","9","Male","true","false","true","true","""event"",""trial"",""time""
""fullscreenenter"",""5"",""7877""
","
","
","""event"",""trial"",""time""
""fullscreenenter"",""5"",""7877""
","
","392.2999999523163","","49","","","3000","1","","","images/redplanet1.jpg","images/alien2","images/alien1","images/rocket1","images/alien1","images/nothing.png","2","real","false","1","rare","0","2023-01-26 19:26:39.964"
"two-step-fixation","234","422935","0.0-77.0-2.32","2928","5928","9","Male","true","false","true","true","""event"",""trial"",""time""
""fullscreenenter"",""5"",""7877""
","
","
","""event"",""trial"",""time""
""fullscreenenter"",""5"",""7877""
","
","","images/earth.jpg","","","","","","","","","","","","","","fixation","","","","","",""
"d3-animate-choice","235","425047","0.0-77.0-0.33","2928","5928","9","Male","true","false","true","true","""event"",""trial"",""time""
""fullscreenenter"",""5"",""7877""
","
","
","""event"",""trial"",""time""
""fullscreenenter"",""5"",""7877""
","
","102.89999997615814","","49","","","3000","1","","","images/earth.jpg","images/rocket2","images/rocket1","null","images/rocket1","","1","real","null","1","","",""
"d3-animate-choice","236","428032","0.0-77.0-1.33","2928","5928","9","Male","true","false","true","true","""event"",""trial"",""time""
