"trial_type","trial_index","time_elapsed","internal_node_id","participant_id","subject_id","age","gender","rocket_sides","red_planet_first_rocket","red_display_order","purple_display_order","interactions","blur_events","focus_events","fullscreenenter_events","fullscreenexit_events","rt","stimulus","key_press","button_pressed","success","duration","valid_pressed","rts","keys","planet_text","right_text","left_text","center_text","chosen_text","reward_text","trial_stage","practice_trial","transition_type","choice","transition","reward","timestamp"
"pavlovia","0","14","0.0-0.0","965","1233","16","Female","false","true","false","true","
","
","
","
","
","","","","","","","","","","","","","","","","","","","","","",""
"html-keyboard-response","1","1977","0.0-1.0","965","1233","16","Female","false","true","false","true","
","
","
","
","
","1961","Welcome! Press the space bar to begin.","32","","","","","","","","","","","","","","","","","","",""
"audio-keyboard-response","2","8479","0.0-2.0","965","1233","16","Female","false","true","false","true","
","
","
","
","
","4384","audio/beep_loop.wav","32","","","","","","","","","","","","","","","","","","",""
"audio-button-response","3","11571","0.0-3.0","965","1233","16","Female","false","true","false","true","
","
","
","
","
","NaN","audio/fish.mp3","","1","","","","","","","","","","","","","","","","","",""
"audio-button-response","4","15006","0.0-4.0","965","1233","16","Female","false","true","false","true","""event"",""trial"",""time""
""fullscreenenter"",""5"",""18557""
","
","
","""event"",""trial"",""time""
""fullscreenenter"",""5"",""18557""
","
","NaN","audio/tiger.mp3","","4","","","","","","","","","","","","","","","","","",""
"fullscreen","5","19440","0.0-5.0","965","1233","16","Female","false","true","false","true","""event"",""trial"",""time""
""fullscreenenter"",""5"",""18557""
","
","
","""event"",""trial"",""time""
""fullscreenenter"",""5"",""18557""
","
","","","","","true","","","","","","","","","","","","","","","","",""
"d3-instructions","6","37186","0.0-6.0","965","1233","16","Female","false","true","false","true","""event"",""trial"",""time""
""fullscreenenter"",""5"",""18557""
","
","
","""event"",""trial"",""time""
""fullscreenenter"",""5"",""18557""
","
","","","","","","","","","","","","","","","","","","","","","",""
"d3-instructions","7","47612","0.0-7.0","965","1233","16","Female","false","true","false","true","""event"",""trial"",""time""
""fullscreenenter"",""5"",""18557""
","
","
","""event"",""trial"",""time""
""fullscreenenter"",""5"",""18557""
","
","","","","","","","","","","","","","","","","","","","","","",""
"d3-instructions","8","55635","0.0-8.0","965","1233","16","Female","false","true","false","true","""event"",""trial"",""time""
""fullscreenenter"",""5"",""18557""
","
","
","""event"",""trial"",""time""
""fullscreenenter"",""5"",""18557""
","
","","","","","","","","","","","","","","","","","","","","","",""
"d3-instructions","9","67581","0.0-9.0","965","1233","16","Female","false","true","false","true","""event"",""trial"",""time""
""fullscreenenter"",""5"",""18557""
","
","
","""event"",""trial"",""time""
""fullscreenenter"",""5"",""18557""
","
","","","","","","","","","","","","","","","","","","","","","",""
"d3-instructions","10","89110","0.0-10.0","965","1233","16","Female","false","true","false","true","""event"",""trial"",""time""
""fullscreenenter"",""5"",""18557""
","
","
","""event"",""trial"",""time""
""fullscreenenter"",""5"",""18557""
","
","","","","","","","","","","","","","","","","","","","","","",""
"d3-animate-choice","11","92897","0.0-11.0","965","1233","16","Female","false","true","false","true","""event"",""trial"",""time""
""fullscreenenter"",""5"",""18557""
","
","
","""event"",""trial"",""time""
""fullscreenenter"",""5"",""18557""
","
","1760.2999999970198","","49","","","3000","1","","","images/tutgreenplanet.jpg","images/tutalien1","images/tutalien2","null","images/tutalien2","","NA","practice","null","","","",""
"d3-animate-choice","12","95083","0.0-12.0","965","1233","16","Female","false","true","false","true","""event"",""trial"",""time""
""fullscreenenter"",""5"",""18557""
","
","
","""event"",""trial"",""time""
""fullscreenenter"",""5"",""18557""
","
","173.09999999403954","","48","","","3000","1","","","images/tutgreenplanet.jpg","images/tutalien1","images/tutalien2","null","images/tutalien1","","NA","practice","null","","","",""
"d3-animate-choice","13","97538","0.0-13.0","965","1233","16","Female","false","true","false","true","""event"",""trial"",""time""
""fullscreenenter"",""5"",""18557""
","
","
","""event"",""trial"",""time""
""fullscreenenter"",""5"",""18557""
","
","449.1000000014901","","49","","","3000","1","","","images/tutgreenplanet.jpg","images/tutalien1","images/tutalien2","null","images/tutalien2","","NA","practice","null","","","",""
"d3-animate-choice","14","99739","0.0-14.0","965","1233","16","Female","false","true","false","true","""event"",""trial"",""time""
""fullscreenenter"",""5"",""18557""
","
","
","""event"",""trial"",""time""
""fullscreenenter"",""5"",""18557""
","
","180.10000000149012","","48","","","3000","1","","","images/tutgreenplanet.jpg","images/tutalien1","images/tutalien2","null","images/tutalien1","","NA","practice","null","","","",""
"d3-instructions","15","108907","0.0-15.0","965","1233","16","Female","false","true","false","true","""event"",""trial"",""time""
""fullscreenenter"",""5"",""18557""
","
","
","""event"",""trial"",""time""
""fullscreenenter"",""5"",""18557""
","
","","","","","","","","","","","","","","","","","","","","","",""
"d3-instructions","16","117861","0.0-16.0","965","1233","16","Female","false","true","false","true","""event"",""trial"",""time""
""fullscreenenter"",""5"",""18557""
","
","
","""event"",""trial"",""time""
""fullscreenenter"",""5"",""18557""
","
","","","","","","","","","","","","","","","","","","","","","",""
"d3-instructions","17","129247","0.0-17.0","965","1233","16","Female","false","true","false","true","""event"",""trial"",""time""
""fullscreenenter"",""5"",""18557""
","
","
","""event"",""trial"",""time""
""fullscreenenter"",""5"",""18557""
","
","","","","","","","","","","","","","","","","","","","","","",""
"d3-instructions","18","143585","0.0-18.0","965","1233","16","Female","false","true","false","true","""event"",""trial"",""time""
""fullscreenenter"",""5"",""18557""
","
","
","""event"",""trial"",""time""
""fullscreenenter"",""5"",""18557""
","
","","","","","","","","","","","","","","","","","","","","","",""
"d3-instructions","19","165198","0.0-19.0","965","1233","16","Female","false","true","false","true","""event"",""trial"",""time""
""fullscreenenter"",""5"",""18557""
","
","
","""event"",""trial"",""time""
""fullscreenenter"",""5"",""18557""
","
","","","","","","","","","","","","","","","","","","","","","",""
"d3-animate-choice","20","168483","0.0-20.0","965","1233","16","Female","false","true","false","true","""event"",""trial"",""time""
""fullscreenenter"",""5"",""18557""
","
","
","""event"",""trial"",""time""
""fullscreenenter"",""5"",""18557""
","
","1280.3999999985099","","49","","","3000","1","","","images/tutyellowplanet.jpg","null","images/tutalien3","null","images/tutalien3","images/t.png","NA","practice","null","","","",""
"d3-animate-choice","21","171043","0.0-21.0","965","1233","16","Female","false","true","false","true","""event"",""trial"",""time""
""fullscreenenter"",""5"",""18557""
","
","
","""event"",""trial"",""time""
""fullscreenenter"",""5"",""18557""
","
","555.5","","49","","","3000","1","","","images/tutyellowplanet.jpg","null","images/tutalien3","null","images/tutalien3","images/t.png","NA","practice","null","","","",""
"d3-animate-choice","22","173707","0.0-22.0","965","1233","16","Female","false","true","false","true","""event"",""trial"",""time""
""fullscreenenter"",""5"",""18557""
","
","
","""event"",""trial"",""time""
""fullscreenenter"",""5"",""18557""
","
","660","","49","","","3000","1","","","images/tutyellowplanet.jpg","null","images/tutalien3","null","images/tutalien3","images/t.png","NA","practice","null","","","",""
"d3-animate-choice","23","176160","0.0-23.0","965","1233","16","Female","false","true","false","true","""event"",""trial"",""time""
""fullscreenenter"",""5"",""18557""
","
","
","""event"",""trial"",""time""
""fullscreenenter"",""5"",""18557""
","
","449.70000000298023","","49","","","3000","1","","","images/tutyellowplanet.jpg","null","images/tutalien3","null","images/tutalien3","images/nothing.png","NA","practice","null","","","",""
"d3-animate-choice","24","178590","0.0-24.0","965","1233","16","Female","false","true","false","true","""event"",""trial"",""time""
""fullscreenenter"",""5"",""18557""
","
","
","""event"",""trial"",""time""
""fullscreenenter"",""5"",""18557""
","
","426.3999999985099","","49","","","3000","1","","","images/tutyellowplanet.jpg","null","images/tutalien3","null","images/tutalien3","images/t.png","NA","practice","null","","","",""
"d3-animate-choice","25","181015","0.0-25.0","965","1233","16","Female","false","true","false","true","""event"",""trial"",""time""
""fullscreenenter"",""5"",""18557""
","
","
","""event"",""trial"",""time""
""fullscreenenter"",""5"",""18557""
","
","420.8999999985099","","49","","","3000","1","","","images/tutyellowplanet.jpg","null","images/tutalien3","null","images/tutalien3","images/t.png","NA","practice","null","","","",""
"d3-animate-choice","26","183395","0.0-26.0","965","1233","16","Female","false","true","false","true","""event"",""trial"",""time""
""fullscreenenter"",""5"",""18557""
","
","
","""event"",""trial"",""time""
""fullscreenenter"",""5"",""18557""
","
","376","","49","","","3000","1","","","images/tutyellowplanet.jpg","null","images/tutalien3","null","images/tutalien3","images/nothing.png","NA","practice","null","","","",""
"d3-animate-choice","27","185770","0.0-27.0","965","1233","16","Female","false","true","false","true","""event"",""trial"",""time""
""fullscreenenter"",""5"",""18557""
","
","
","""event"",""trial"",""time""
""fullscreenenter"",""5"",""18557""
","
","371.1000000014901","","49","","","3000","1","","","images/tutyellowplanet.jpg","null","images/tutalien3","null","images/tutalien3","images/t.png","NA","practice","null","","","",""
"d3-animate-choice","28","188153","0.0-28.0","965","1233","16","Female","false","true","false","true","""event"",""trial"",""time""
""fullscreenenter"",""5"",""18557""
","
","
","""event"",""trial"",""time""
""fullscreenenter"",""5"",""18557""
","
","378.79999999701977","","49","","","3000","1","","","images/tutyellowplanet.jpg","null","images/tutalien3","null","images/tutalien3","images/t.png","NA","practice","null","","","",""
"d3-animate-choice","29","190502","0.0-29.0","965","1233","16","Female","false","true","false","true","""event"",""trial"",""time""
""fullscreenenter"",""5"",""18557""
","
","
","""event"",""trial"",""time""
""fullscreenenter"",""5"",""18557""
","
","346.1000000014901","","49","","","3000","1","","","images/tutyellowplanet.jpg","null","images/tutalien3","null","images/tutalien3","images/t.png","NA","practice","null","","","",""
"d3-instructions","30","198326","0.0-30.0","965","1233","16","Female","false","true","false","true","""event"",""trial"",""time""
""fullscreenenter"",""5"",""18557""
","
","
","""event"",""trial"",""time""
""fullscreenenter"",""5"",""18557""
","
","","","","","","","","","","","","","","","","","","","","","",""
"d3-instructions","31","209559","0.0-31.0","965","1233","16","Female","false","true","false","true","""event"",""trial"",""time""
""fullscreenenter"",""5"",""18557""
","
","
","""event"",""trial"",""time""
""fullscreenenter"",""5"",""18557""
","
","","","","","","","","","","","","","","","","","","","","","",""
"d3-instructions","32","218439","0.0-32.0","965","1233","16","Female","false","true","false","true","""event"",""trial"",""time""
""fullscreenenter"",""5"",""18557""
","
","
","""event"",""trial"",""time""
""fullscreenenter"",""5"",""18557""
","
","","","","","","","","","","","","","","","","","","","","","",""
"d3-instructions","33","240979","0.0-33.0","965","1233","16","Female","false","true","false","true","""event"",""trial"",""time""
""fullscreenenter"",""5"",""18557""
","
","
","""event"",""trial"",""time""
""fullscreenenter"",""5"",""18557""
","
","","","","","","","","","","","","","","","","","","","","","",""
"d3-animate-choice","34","244333","0.0-34.0","965","1233","16","Female","false","true","false","true","""event"",""trial"",""time""
""fullscreenenter"",""5"",""18557""
","
","
","""event"",""trial"",""time""
""fullscreenenter"",""5"",""18557""
","
","1349.5999999940395","","49","","","3000","1","","","images/tutgreenplanet.jpg","images/tutalien1","images/tutalien2","null","images/tutalien2","images/t.png","NA","practice","null","","","",""
"d3-animate-choice","35","248870","0.0-35.0","965","1233","16","Female","false","true","false","true","""event"",""trial"",""time""
""fullscreenenter"",""5"",""18557""
","
","
","""event"",""trial"",""time""
""fullscreenenter"",""5"",""18557""
","
","1509.7999999970198","","50","","","3000","1","2529.6999999955297","48","images/tutgreenplanet.jpg","images/tutalien1","images/tutalien2","null","images/tutalien1","images/nothing.png","NA","practice","null","","","",""
"d3-animate-choice","36","252434","0.0-36.0","965","1233","16","Female","false","true","false","true","""event"",""trial"",""time""
""fullscreenenter"",""5"",""18557""
","
","
","""event"",""trial"",""time""
""fullscreenenter"",""5"",""18557""
","
","1559.2999999970198","","49","","","3000","1","","","images/tutgreenplanet.jpg","images/tutalien1","images/tutalien2","null","images/tutalien2","images/t.png","NA","practice","null","","","",""
"d3-animate-choice","37","256086","0.0-37.0","965","1233","16","Female","false","true","false","true","""event"",""trial"",""time""
""fullscreenenter"",""5"",""18557""
","
","
","""event"",""trial"",""time""
""fullscreenenter"",""5"",""18557""
","
","1647.5","","49","","","3000","1","","","images/tutgreenplanet.jpg","images/tutalien1","images/tutalien2","null","images/tutalien2","images/t.png","NA","practice","null","","","",""
"d3-animate-choice","38","259482","0.0-38.0","965","1233","16","Female","false","true","false","true","""event"",""trial"",""time""
""fullscreenenter"",""5"",""18557""
","
","
","""event"",""trial"",""time""
""fullscreenenter"",""5"",""18557""
","
","1391.7999999970198","","48","","","3000","1","","","images/tutgreenplanet.jpg","images/tutalien1","images/tutalien2","null","images/tutalien1","images/nothing.png","NA","practice","null","","","",""
"d3-animate-choice","39","262453","0.0-39.0","965","1233","16","Female","false","true","false","true","""event"",""trial"",""time""
""fullscreenenter"",""5"",""18557""
","
","
","""event"",""trial"",""time""
""fullscreenenter"",""5"",""18557""
","
","967.3999999985099","","49","","","3000","1","","","images/tutgreenplanet.jpg","images/tutalien1","images/tutalien2","null","images/tutalien2","images/t.png","NA","practice","null","","","",""
"d3-animate-choice","40","266396","0.0-40.0","965","1233","16","Female","false","true","false","true","""event"",""trial"",""time""
""fullscreenenter"",""5"",""18557""
","
","
","""event"",""trial"",""time""
""fullscreenenter"",""5"",""18557""
","
","1938.8999999985099","","48","","","3000","1","","","images/tutgreenplanet.jpg","images/tutalien1","images/tutalien2","null","images/tutalien1","images/nothing.png","NA","practice","null","","","",""
"d3-animate-choice","41","269368","0.0-41.0","965","1233","16","Female","false","true","false","true","""event"",""trial"",""time""
""fullscreenenter"",""5"",""18557""
","
","
","""event"",""trial"",""time""
""fullscreenenter"",""5"",""18557""
","
","968.5999999940395","","49","","","3000","1","","","images/tutgreenplanet.jpg","images/tutalien1","images/tutalien2","null","images/tutalien2","images/t.png","NA","practice","null","","","",""
"d3-animate-choice","42","272604","0.0-42.0","965","1233","16","Female","false","true","false","true","""event"",""trial"",""time""
""fullscreenenter"",""5"",""18557""
","
","
","""event"",""trial"",""time""
""fullscreenenter"",""5"",""18557""
","
","1232.1999999955297","","48","","","3000","1","","","images/tutgreenplanet.jpg","images/tutalien1","images/tutalien2","null","images/tutalien1","images/nothing.png","NA","practice","null","","","",""
"d3-animate-choice","43","275412","0.0-43.0","965","1233","16","Female","false","true","false","true","""event"",""trial"",""time""
""fullscreenenter"",""5"",""18557""
","
","
","""event"",""trial"",""time""
""fullscreenenter"",""5"",""18557""
","
","804.6000000014901","","48","","","3000","1","","","images/tutgreenplanet.jpg","images/tutalien1","images/tutalien2","null","images/tutalien1","images/nothing.png","NA","practice","null","","","",""
"d3-instructions","44","289860","0.0-44.0","965","1233","16","Female","false","true","false","true","""event"",""trial"",""time""
""fullscreenenter"",""5"",""18557""
","
","
","""event"",""trial"",""time""
""fullscreenenter"",""5"",""18557""
","
","","","","","","","","","","","","","","","","","","","","","",""
"d3-instructions","45","297377","0.0-45.0","965","1233","16","Female","false","true","false","true","""event"",""trial"",""time""
""fullscreenenter"",""5"",""18557""
","
","
","""event"",""trial"",""time""
""fullscreenenter"",""5"",""18557""
","
","","","","","","","","","","","","","","","","","","","","","",""
"d3-instructions","46","304012","0.0-46.0","965","1233","16","Female","false","true","false","true","""event"",""trial"",""time""
""fullscreenenter"",""5"",""18557""
","
","
","""event"",""trial"",""time""
""fullscreenenter"",""5"",""18557""
","
","","","","","","","","","","","","","","","","","","","","","",""
"d3-instructions","47","335108","0.0-47.0","965","1233","16","Female","false","true","false","true","""event"",""trial"",""time""
""fullscreenenter"",""5"",""18557""
","
","
","""event"",""trial"",""time""
""fullscreenenter"",""5"",""18557""
","
","","","","","","","","","","","","","","","","","","","","","",""
"d3-instructions","48","345237","0.0-48.0","965","1233","16","Female","false","true","false","true","""event"",""trial"",""time""
""fullscreenenter"",""5"",""18557""
","
","
","""event"",""trial"",""time""
""fullscreenenter"",""5"",""18557""
","
","","","","","","","","","","","","","","","","","","","","","",""
"d3-instructions","49","357552","0.0-49.0","965","1233","16","Female","false","true","false","true","""event"",""trial"",""time""
""fullscreenenter"",""5"",""18557""
","
","
","""event"",""trial"",""time""
""fullscreenenter"",""5"",""18557""
","
","","","","","","","","","","","","","","","","","","","","","",""
"d3-instructions","50","368336","0.0-50.0","965","1233","16","Female","false","true","false","true","""event"",""trial"",""time""
""fullscreenenter"",""5"",""18557""
","
","
","""event"",""trial"",""time""
""fullscreenenter"",""5"",""18557""
","
","","","","","","","","","","","","","","","","","","","","","",""
"d3-instructions","51","373217","0.0-51.0","965","1233","16","Female","false","true","false","true","""event"",""trial"",""time""
""fullscreenenter"",""5"",""18557""
","
","
","""event"",""trial"",""time""
""fullscreenenter"",""5"",""18557""
","
","","","","","","","","","","","","","","","","","","","","","",""
"d3-instructions","52","378456","0.0-52.0","965","1233","16","Female","false","true","false","true","""event"",""trial"",""time""
""fullscreenenter"",""5"",""18557""
","
","
","""event"",""trial"",""time""
""fullscreenenter"",""5"",""18557""
","
","","","","","","","","","","","","","","","","","","","","","",""
"d3-instructions","53","393757","0.0-53.0","965","1233","16","Female","false","true","false","true","""event"",""trial"",""time""
""fullscreenenter"",""5"",""18557""
","
","
","""event"",""trial"",""time""
""fullscreenenter"",""5"",""18557""
","
","","","","","","","","","","","","","","","","","","","","","",""
"d3-instructions","54","412791","0.0-54.0","965","1233","16","Female","false","true","false","true","""event"",""trial"",""time""
""fullscreenenter"",""5"",""18557""
","
","
","""event"",""trial"",""time""
""fullscreenenter"",""5"",""18557""
","
","","","","","","","","","","","","","","","","","","","","","",""
"d3-instructions","55","428833","0.0-55.0","965","1233","16","Female","false","true","false","true","""event"",""trial"",""time""
""fullscreenenter"",""5"",""18557""
","
","
","""event"",""trial"",""time""
""fullscreenenter"",""5"",""18557""
","
","","","","","","","","","","","","","","","","","","","","","",""
"d3-instructions","56","441073","0.0-56.0","965","1233","16","Female","false","true","false","true","""event"",""trial"",""time""
""fullscreenenter"",""5"",""18557""
","
","
","""event"",""trial"",""time""
""fullscreenenter"",""5"",""18557""
","
","","","","","","","","","","","","","","","","","","","","","",""
"d3-instructions","57","454572","0.0-57.0","965","1233","16","Female","false","true","false","true","""event"",""trial"",""time""
""fullscreenenter"",""5"",""18557""
","
","
","""event"",""trial"",""time""
""fullscreenenter"",""5"",""18557""
","
","","","","","","","","","","","","","","","","","","","","","",""
"d3-instructions","58","466776","0.0-58.0","965","1233","16","Female","false","true","false","true","""event"",""trial"",""time""
""fullscreenenter"",""5"",""18557""
","
","
","""event"",""trial"",""time""
""fullscreenenter"",""5"",""18557""
","
","","","","","","","","","","","","","","","","","","","","","",""
"d3-instructions","59","544460","0.0-59.0","965","1233","16","Female","false","true","false","true","""event"",""trial"",""time""
""fullscreenenter"",""5"",""18557""
","
","
","""event"",""trial"",""time""
""fullscreenenter"",""5"",""18557""
","
","","","","","","","","","","","","","","","","","","","","","",""
"d3-instructions","60","554647","0.0-60.0","965","1233","16","Female","false","true","false","true","""event"",""trial"",""time""
""fullscreenenter"",""5"",""18557""
","
","
","""event"",""trial"",""time""
""fullscreenenter"",""5"",""18557""
","
","","","","","","","","","","","","","","","","","","","","","",""
"d3-animate-choice","61","557866","0.0-61.0-0.0","965","1233","16","Female","false","true","false","true","""event"",""trial"",""time""
""fullscreenenter"",""5"",""18557""
","
","
","""event"",""trial"",""time""
""fullscreenenter"",""5"",""18557""
","
","1213.1000000014901","","49","","","3000","1","","","images/earth.jpg","images/tutrocket1","images/tutrocket2","null","images/tutrocket2","","1","practice","null","1","","",""
"d3-animate-choice","62","561664","0.0-61.0-1.0","965","1233","16","Female","false","true","false","true","""event"",""trial"",""time""
""fullscreenenter"",""5"",""18557""
","
","
","""event"",""trial"",""time""
""fullscreenenter"",""5"",""18557""
","
","1790.6000000014901","","49","","","3000","1","","","images/tutyellowplanet.jpg","images/tutalien4","images/tutalien3","images/tutrocket2","images/tutalien3","images/nothing.png","2","practice","true","1","common","0","2022-03-20 22:51:08.398"
"two-step-fixation","63","562669","0.0-61.0-2.0","965","1233","16","Female","false","true","false","true","""event"",""trial"",""time""
""fullscreenenter"",""5"",""18557""
","
","
","""event"",""trial"",""time""
""fullscreenenter"",""5"",""18557""
","
","","images/earth.jpg","","","","","","","","","","","","","","fixation","","","","","",""
"d3-animate-choice","64","565826","0.0-61.0-0.1","965","1233","16","Female","false","true","false","true","""event"",""trial"",""time""
""fullscreenenter"",""5"",""18557""
","
","
","""event"",""trial"",""time""
""fullscreenenter"",""5"",""18557""
","
","1151.8000000044703","","48","","","3000","1","","","images/earth.jpg","images/tutrocket1","images/tutrocket2","null","images/tutrocket1","","1","practice","null","2","","",""
"d3-animate-choice","65","568921","0.0-61.0-1.1","965","1233","16","Female","false","true","false","true","""event"",""trial"",""time""
""fullscreenenter"",""5"",""18557""
","
","
","""event"",""trial"",""time""
""fullscreenenter"",""5"",""18557""
","
","1090.8000000044703","","48","","","3000","1","","","images/tutgreenplanet.jpg","images/tutalien2","images/tutalien1","images/tutrocket1","images/tutalien2","images/nothing.png","2","practice","true","2","common","0","2022-03-20 22:51:15.654"
"two-step-fixation","66","569925","0.0-61.0-2.1","965","1233","16","Female","false","true","false","true","""event"",""trial"",""time""
""fullscreenenter"",""5"",""18557""
","
","
","""event"",""trial"",""time""
""fullscreenenter"",""5"",""18557""
","
","","images/earth.jpg","","","","","","","","","","","","","","fixation","","","","","",""
"d3-animate-choice","67","572476","0.0-61.0-0.2","965","1233","16","Female","false","true","false","true","""event"",""trial"",""time""
""fullscreenenter"",""5"",""18557""
","
","
","""event"",""trial"",""time""
""fullscreenenter"",""5"",""18557""
","
","546.4000000059605","","49","","","3000","1","","","images/earth.jpg","images/tutrocket1","images/tutrocket2","null","images/tutrocket2","","1","practice","null","1","","",""
"d3-animate-choice","68","575365","0.0-61.0-1.2","965","1233","16","Female","false","true","false","true","""event"",""trial"",""time""
""fullscreenenter"",""5"",""18557""
","
","
","""event"",""trial"",""time""
""fullscreenenter"",""5"",""18557""
","
","884.3999999985099","","48","","","3000","1","","","images/tutgreenplanet.jpg","images/tutalien2","images/tutalien1","images/tutrocket2","images/tutalien2","images/nothing.png","2","practice","false","2","rare","0","2022-03-20 22:51:22.098"
"two-step-fixation","69","576369","0.0-61.0-2.2","965","1233","16","Female","false","true","false","true","""event"",""trial"",""time""
""fullscreenenter"",""5"",""18557""
","
","
","""event"",""trial"",""time""
""fullscreenenter"",""5"",""18557""
","
","","images/earth.jpg","","","","","","","","","","","","","","fixation","","","","","",""
"d3-animate-choice","70","580373","0.0-61.0-0.3","965","1233","16","Female","false","true","false","true","""event"",""trial"",""time""
""fullscreenenter"",""5"",""18557""
","
","
","""event"",""trial"",""time""
""fullscreenenter"",""5"",""18557""
","
","1409.2999999970198","","50","","","3000","1","2477.0999999940395","48","images/earth.jpg","images/tutrocket1","images/tutrocket2","null","images/tutrocket1","","1","practice","null","","","",""
"d3-animate-choice","71","582881","0.0-61.0-1.3","965","1233","16","Female","false","true","false","true","""event"",""trial"",""time""
""fullscreenenter"",""5"",""18557""
","
","
","""event"",""trial"",""time""
""fullscreenenter"",""5"",""18557""
","
","503.6000000014901","","49","","","3000","1","","","images/tutyellowplanet.jpg","images/tutalien4","images/tutalien3","images/tutrocket1","images/tutalien3","images/nothing.png","2","practice","false","1","rare","0","2022-03-20 22:51:29.614"
"two-step-fixation","72","583884","0.0-61.0-2.3","965","1233","16","Female","false","true","false","true","""event"",""trial"",""time""
""fullscreenenter"",""5"",""18557""
","
","
","""event"",""trial"",""time""
""fullscreenenter"",""5"",""18557""
","
","","images/earth.jpg","","","","","","","","","","","","","","fixation","","","","","",""
"d3-animate-choice","73","586567","0.0-61.0-0.4","965","1233","16","Female","false","true","false","true","""event"",""trial"",""time""
""fullscreenenter"",""5"",""18557""
","
","
","""event"",""trial"",""time""
""fullscreenenter"",""5"",""18557""
","
","678.1000000014901","","49","","","3000","1","","","images/earth.jpg","images/tutrocket1","images/tutrocket2","null","images/tutrocket2","","1","practice","null","1","","",""
"d3-animate-choice","74","588930","0.0-61.0-1.4","965","1233","16","Female","false","true","false","true","""event"",""trial"",""time""
""fullscreenenter"",""5"",""18557""
","
","
","""event"",""trial"",""time""
""fullscreenenter"",""5"",""18557""
","
","352.30000000447035","","49","","","3000","1","","","images/tutyellowplanet.jpg","images/tutalien4","images/tutalien3","images/tutrocket2","images/tutalien3","images/t.png","2","practice","true","1","common","1","2022-03-20 22:51:35.663"
"two-step-fixation","75","589936","0.0-61.0-2.4","965","1233","16","Female","false","true","false","true","""event"",""trial"",""time""
""fullscreenenter"",""5"",""18557""
","
","
","""event"",""trial"",""time""
""fullscreenenter"",""5"",""18557""
","
","","images/earth.jpg","","","","","","","","","","","","","","fixation","","","","","",""
"d3-animate-choice","76","592501","0.0-61.0-0.5","965","1233","16","Female","false","true","false","true","""event"",""trial"",""time""
""fullscreenenter"",""5"",""18557""
","
","
","""event"",""trial"",""time""
""fullscreenenter"",""5"",""18557""
","
","561.2999999970198","","48","","","3000","1","","","images/earth.jpg","images/tutrocket1","images/tutrocket2","null","images/tutrocket1","","1","practice","null","2","","",""
"d3-animate-choice","77","595139","0.0-61.0-1.5","965","1233","16","Female","false","true","false","true","""event"",""trial"",""time""
""fullscreenenter"",""5"",""18557""
","
","
","""event"",""trial"",""time""
""fullscreenenter"",""5"",""18557""
","
","633.3999999985099","","49","","","3000","1","","","images/tutyellowplanet.jpg","images/tutalien4","images/tutalien3","images/tutrocket1","images/tutalien3","images/nothing.png","2","practice","false","1","rare","0","2022-03-20 22:51:41.872"
"two-step-fixation","78","596142","0.0-61.0-2.5","965","1233","16","Female","false","true","false","true","""event"",""trial"",""time""
""fullscreenenter"",""5"",""18557""
","
","
","""event"",""trial"",""time""
""fullscreenenter"",""5"",""18557""
","
","","images/earth.jpg","","","","","","","","","","","","","","fixation","","","","","",""
"d3-animate-choice","79","598502","0.0-61.0-0.6","965","1233","16","Female","false","true","false","true","""event"",""trial"",""time""
""fullscreenenter"",""5"",""18557""
","
","
","""event"",""trial"",""time""
""fullscreenenter"",""5"",""18557""
","
","354.69999999552965","","48","","","3000","1","","","images/earth.jpg","images/tutrocket1","images/tutrocket2","null","images/tutrocket1","","1","practice","null","2","","",""
"d3-animate-choice","80","601159","0.0-61.0-1.6","965","1233","16","Female","false","true","false","true","""event"",""trial"",""time""
""fullscreenenter"",""5"",""18557""
","
","
","""event"",""trial"",""time""
""fullscreenenter"",""5"",""18557""
","
","653.6000000014901","","48","","","3000","1","","","images/tutgreenplanet.jpg","images/tutalien2","images/tutalien1","images/tutrocket1","images/tutalien2","images/nothing.png","2","practice","true","2","common","0","2022-03-20 22:51:47.892"
"two-step-fixation","81","602163","0.0-61.0-2.6","965","1233","16","Female","false","true","false","true","""event"",""trial"",""time""
""fullscreenenter"",""5"",""18557""
","
","
","""event"",""trial"",""time""
""fullscreenenter"",""5"",""18557""
","
","","images/earth.jpg","","","","","","","","","","","","","","fixation","","","","","",""
"d3-animate-choice","82","605477","0.0-61.0-0.7","965","1233","16","Female","false","true","false","true","""event"",""trial"",""time""
""fullscreenenter"",""5"",""18557""
","
","
","""event"",""trial"",""time""
""fullscreenenter"",""5"",""18557""
","
","1307","","49","","","3000","1","","","images/earth.jpg","images/tutrocket1","images/tutrocket2","null","images/tutrocket2","","1","practice","null","1","","",""
"d3-animate-choice","83","607863","0.0-61.0-1.7","965","1233","16","Female","false","true","false","true","""event"",""trial"",""time""
""fullscreenenter"",""5"",""18557""
","
","
","""event"",""trial"",""time""
""fullscreenenter"",""5"",""18557""
","
","377.80000000447035","","49","","","3000","1","","","images/tutyellowplanet.jpg","images/tutalien4","images/tutalien3","images/tutrocket2","images/tutalien3","images/nothing.png","2","practice","true","1","common","0","2022-03-20 22:51:54.596"
"two-step-fixation","84","608866","0.0-61.0-2.7","965","1233","16","Female","false","true","false","true","""event"",""trial"",""time""
""fullscreenenter"",""5"",""18557""
","
","
","""event"",""trial"",""time""
""fullscreenenter"",""5"",""18557""
","
","","images/earth.jpg","","","","","","","","","","","","","","fixation","","","","","",""
"d3-animate-choice","85","612312","0.0-61.0-0.8","965","1233","16","Female","false","true","false","true","""event"",""trial"",""time""
""fullscreenenter"",""5"",""18557""
","
","
","""event"",""trial"",""time""
""fullscreenenter"",""5"",""18557""
","
","1219.7000000029802","","189","","","3000","1","1441","48","images/earth.jpg","images/tutrocket1","images/tutrocket2","null","images/tutrocket1","","1","practice","null","","","",""
"d3-animate-choice","86","614856","0.0-61.0-1.8","965","1233","16","Female","false","true","false","true","""event"",""trial"",""time""
""fullscreenenter"",""5"",""18557""
","
","
","""event"",""trial"",""time""
""fullscreenenter"",""5"",""18557""
","
","535.1000000014901","","49","","","3000","1","","","images/tutgreenplanet.jpg","images/tutalien2","images/tutalien1","images/tutrocket1","images/tutalien1","images/nothing.png","2","practice","true","1","common","0","2022-03-20 22:52:01.589"
"two-step-fixation","87","615860","0.0-61.0-2.8","965","1233","16","Female","false","true","false","true","""event"",""trial"",""time""
""fullscreenenter"",""5"",""18557""
","
","
","""event"",""trial"",""time""
""fullscreenenter"",""5"",""18557""
","
","","images/earth.jpg","","","","","","","","","","","","","","fixation","","","","","",""
"d3-animate-choice","88","619045","0.0-61.0-0.9","965","1233","16","Female","false","true","false","true","""event"",""trial"",""time""
""fullscreenenter"",""5"",""18557""
","
","
","""event"",""trial"",""time""
""fullscreenenter"",""5"",""18557""
","
","1180.1999999955297","","49","","","3000","1","","","images/earth.jpg","images/tutrocket1","images/tutrocket2","null","images/tutrocket2","","1","practice","null","1","","",""
"d3-animate-choice","89","621515","0.0-61.0-1.9","965","1233","16","Female","false","true","false","true","""event"",""trial"",""time""
""fullscreenenter"",""5"",""18557""
","
","
","""event"",""trial"",""time""
""fullscreenenter"",""5"",""18557""
","
","466.1000000014901","","48","","","3000","1","","","images/tutyellowplanet.jpg","images/tutalien4","images/tutalien3","images/tutrocket2","images/tutalien4","images/nothing.png","2","practice","true","2","common","0","2022-03-20 22:52:08.248"
"two-step-fixation","90","622520","0.0-61.0-2.9","965","1233","16","Female","false","true","false","true","""event"",""trial"",""time""
""fullscreenenter"",""5"",""18557""
","
","
","""event"",""trial"",""time""
""fullscreenenter"",""5"",""18557""
","
","","images/earth.jpg","","","","","","","","","","","","","","fixation","","","","","",""
"d3-animate-choice","91","624990","0.0-61.0-0.10","965","1233","16","Female","false","true","false","true","""event"",""trial"",""time""
""fullscreenenter"",""5"",""18557""
","
","
","""event"",""trial"",""time""
""fullscreenenter"",""5"",""18557""
","
","465.5","","49","","","3000","1","","","images/earth.jpg","images/tutrocket1","images/tutrocket2","null","images/tutrocket2","","1","practice","null","1","","",""
"d3-animate-choice","92","627546","0.0-61.0-1.10","965","1233","16","Female","false","true","false","true","""event"",""trial"",""time""
""fullscreenenter"",""5"",""18557""
","
","
","""event"",""trial"",""time""
""fullscreenenter"",""5"",""18557""
","
","551.8999999985099","","48","","","3000","1","","","images/tutyellowplanet.jpg","images/tutalien4","images/tutalien3","images/tutrocket2","images/tutalien4","images/nothing.png","2","practice","true","2","common","0","2022-03-20 22:52:14.279"
"two-step-fixation","93","628549","0.0-61.0-2.10","965","1233","16","Female","false","true","false","true","""event"",""trial"",""time""
""fullscreenenter"",""5"",""18557""
","
","
","""event"",""trial"",""time""
""fullscreenenter"",""5"",""18557""
","
","","images/earth.jpg","","","","","","","","","","","","","","fixation","","","","","",""
"d3-animate-choice","94","632553","0.0-61.0-0.11","965","1233","16","Female","false","true","false","true","""event"",""trial"",""time""
""fullscreenenter"",""5"",""18557""
","
","
","""event"",""trial"",""time""
""fullscreenenter"",""5"",""18557""
","
","2262.1999999955297","","48","","","3000","1","","","images/earth.jpg","images/tutrocket1","images/tutrocket2","null","images/tutrocket1","","1","practice","null","2","","",""
"d3-animate-choice","95","635090","0.0-61.0-1.11","965","1233","16","Female","false","true","false","true","""event"",""trial"",""time""
""fullscreenenter"",""5"",""18557""
","
","
","""event"",""trial"",""time""
""fullscreenenter"",""5"",""18557""
","
","532.3999999985099","","49","","","3000","1","","","images/tutgreenplanet.jpg","images/tutalien2","images/tutalien1","images/tutrocket1","images/tutalien1","images/nothing.png","2","practice","true","1","common","0","2022-03-20 22:52:21.823"
"two-step-fixation","96","636094","0.0-61.0-2.11","965","1233","16","Female","false","true","false","true","""event"",""trial"",""time""
""fullscreenenter"",""5"",""18557""
","
","
","""event"",""trial"",""time""
""fullscreenenter"",""5"",""18557""
","
","","images/earth.jpg","","","","","","","","","","","","","","fixation","","","","","",""
"d3-animate-choice","97","638705","0.0-61.0-0.12","965","1233","16","Female","false","true","false","true","""event"",""trial"",""time""
""fullscreenenter"",""5"",""18557""
","
","
","""event"",""trial"",""time""
""fullscreenenter"",""5"",""18557""
","
","606.5","","48","","","3000","1","","","images/earth.jpg","images/tutrocket1","images/tutrocket2","null","images/tutrocket1","","1","practice","null","2","","",""
"d3-animate-choice","98","641485","0.0-61.0-1.12","965","1233","16","Female","false","true","false","true","""event"",""trial"",""time""
""fullscreenenter"",""5"",""18557""
","
","
","""event"",""trial"",""time""
""fullscreenenter"",""5"",""18557""
","
","775.2000000029802","","48","","","3000","1","","","images/tutyellowplanet.jpg","images/tutalien4","images/tutalien3","images/tutrocket1","images/tutalien4","images/t.png","2","practice","false","2","rare","1","2022-03-20 22:52:28.218"
"two-step-fixation","99","642489","0.0-61.0-2.12","965","1233","16","Female","false","true","false","true","""event"",""trial"",""time""
""fullscreenenter"",""5"",""18557""
","
","
","""event"",""trial"",""time""
""fullscreenenter"",""5"",""18557""
","
","","images/earth.jpg","","","","","","","","","","","","","","fixation","","","","","",""
"d3-animate-choice","100","644954","0.0-61.0-0.13","965","1233","16","Female","false","true","false","true","""event"",""trial"",""time""
""fullscreenenter"",""5"",""18557""
","
","
","""event"",""trial"",""time""
""fullscreenenter"",""5"",""18557""
","
","460.29999999701977","","49","","","3000","1","","","images/earth.jpg","images/tutrocket1","images/tutrocket2","null","images/tutrocket2","","1","practice","null","1","","",""
"d3-animate-choice","101","648031","0.0-61.0-1.13","965","1233","16","Female","false","true","false","true","""event"",""trial"",""time""
""fullscreenenter"",""5"",""18557""
","
","
","""event"",""trial"",""time""
""fullscreenenter"",""5"",""18557""
","
","1072.5","","49","","","3000","1","","","images/tutyellowplanet.jpg","images/tutalien4","images/tutalien3","images/tutrocket2","images/tutalien3","images/t.png","2","practice","true","1","common","1","2022-03-20 22:52:34.764"
"two-step-fixation","102","649034","0.0-61.0-2.13","965","1233","16","Female","false","true","false","true","""event"",""trial"",""time""
""fullscreenenter"",""5"",""18557""
","
","
","""event"",""trial"",""time""
""fullscreenenter"",""5"",""18557""
","
","","images/earth.jpg","","","","","","","","","","","","","","fixation","","","","","",""
"d3-animate-choice","103","651819","0.0-61.0-0.14","965","1233","16","Female","false","true","false","true","""event"",""trial"",""time""
""fullscreenenter"",""5"",""18557""
","
","
","""event"",""trial"",""time""
""fullscreenenter"",""5"",""18557""
","
","780.3999999985099","","49","","","3000","1","","","images/earth.jpg","images/tutrocket1","images/tutrocket2","null","images/tutrocket2","","1","practice","null","1","","",""
"d3-animate-choice","104","654227","0.0-61.0-1.14","965","1233","16","Female","false","true","false","true","""event"",""trial"",""time""
""fullscreenenter"",""5"",""18557""
","
","
","""event"",""trial"",""time""
""fullscreenenter"",""5"",""18557""
","
","402.70000000298023","","48","","","3000","1","","","images/tutgreenplanet.jpg","images/tutalien2","images/tutalien1","images/tutrocket2","images/tutalien2","images/t.png","2","practice","false","2","rare","1","2022-03-20 22:52:40.960"
"two-step-fixation","105","655230","0.0-61.0-2.14","965","1233","16","Female","false","true","false","true","""event"",""trial"",""time""
""fullscreenenter"",""5"",""18557""
","
","
","""event"",""trial"",""time""
""fullscreenenter"",""5"",""18557""
","
","","images/earth.jpg","","","","","","","","","","","","","","fixation","","","","","",""
"d3-animate-choice","106","657849","0.0-61.0-0.15","965","1233","16","Female","false","true","false","true","""event"",""trial"",""time""
""fullscreenenter"",""5"",""18557""
","
","
","""event"",""trial"",""time""
""fullscreenenter"",""5"",""18557""
","
","614.1999999955297","","49","","","3000","1","","","images/earth.jpg","images/tutrocket1","images/tutrocket2","null","images/tutrocket2","","1","practice","null","1","","",""
"d3-animate-choice","107","660259","0.0-61.0-1.15","965","1233","16","Female","false","true","false","true","""event"",""trial"",""time""
""fullscreenenter"",""5"",""18557""
","
","
","""event"",""trial"",""time""
""fullscreenenter"",""5"",""18557""
","
","405.19999999552965","","48","","","3000","1","","","images/tutyellowplanet.jpg","images/tutalien4","images/tutalien3","images/tutrocket2","images/tutalien4","images/t.png","2","practice","true","2","common","1","2022-03-20 22:52:46.992"
"two-step-fixation","108","661263","0.0-61.0-2.15","965","1233","16","Female","false","true","false","true","""event"",""trial"",""time""
""fullscreenenter"",""5"",""18557""
","
","
","""event"",""trial"",""time""
""fullscreenenter"",""5"",""18557""
","
","","images/earth.jpg","","","","","","","","","","","","","","fixation","","","","","",""
"d3-animate-choice","109","663626","0.0-61.0-0.16","965","1233","16","Female","false","true","false","true","""event"",""trial"",""time""
""fullscreenenter"",""5"",""18557""
","
","
","""event"",""trial"",""time""
""fullscreenenter"",""5"",""18557""
","
","358.70000000298023","","49","","","3000","1","","","images/earth.jpg","images/tutrocket1","images/tutrocket2","null","images/tutrocket2","","1","practice","null","1","","",""
"d3-animate-choice","110","666163","0.0-61.0-1.16","965","1233","16","Female","false","true","false","true","""event"",""trial"",""time""
""fullscreenenter"",""5"",""18557""
","
","
","""event"",""trial"",""time""
""fullscreenenter"",""5"",""18557""
","
","532.3999999985099","","48","","","3000","1","","","images/tutyellowplanet.jpg","images/tutalien4","images/tutalien3","images/tutrocket2","images/tutalien4","images/nothing.png","2","practice","true","2","common","0","2022-03-20 22:52:52.896"
"two-step-fixation","111","667166","0.0-61.0-2.16","965","1233","16","Female","false","true","false","true","""event"",""trial"",""time""
""fullscreenenter"",""5"",""18557""
","
","
","""event"",""trial"",""time""
""fullscreenenter"",""5"",""18557""
","
","","images/earth.jpg","","","","","","","","","","","","","","fixation","","","","","",""
"d3-animate-choice","112","670302","0.0-61.0-0.17","965","1233","16","Female","false","true","false","true","""event"",""trial"",""time""
""fullscreenenter"",""5"",""18557""
","
","
","""event"",""trial"",""time""
""fullscreenenter"",""5"",""18557""
","
","1131.3000000044703","","48","","","3000","1","","","images/earth.jpg","images/tutrocket1","images/tutrocket2","null","images/tutrocket1","","1","practice","null","2","","",""
"d3-animate-choice","113","672681","0.0-61.0-1.17","965","1233","16","Female","false","true","false","true","""event"",""trial"",""time""
""fullscreenenter"",""5"",""18557""
","
","
","""event"",""trial"",""time""
""fullscreenenter"",""5"",""18557""
","
","374.09999999403954","","49","","","3000","1","","","images/tutyellowplanet.jpg","images/tutalien4","images/tutalien3","images/tutrocket1","images/tutalien3","images/t.png","2","practice","false","1","rare","1","2022-03-20 22:52:59.414"
"two-step-fixation","114","673685","0.0-61.0-2.17","965","1233","16","Female","false","true","false","true","""event"",""trial"",""time""
""fullscreenenter"",""5"",""18557""
","
","
","""event"",""trial"",""time""
""fullscreenenter"",""5"",""18557""
","
","","images/earth.jpg","","","","","","","","","","","","","","fixation","","","","","",""
"d3-animate-choice","115","676077","0.0-61.0-0.18","965","1233","16","Female","false","true","false","true","""event"",""trial"",""time""
""fullscreenenter"",""5"",""18557""
","
","
","""event"",""trial"",""time""
""fullscreenenter"",""5"",""18557""
","
","386.79999999701977","","49","","","3000","1","","","images/earth.jpg","images/tutrocket1","images/tutrocket2","null","images/tutrocket2","","1","practice","null","1","","",""
"d3-animate-choice","116","678556","0.0-61.0-1.18","965","1233","16","Female","false","true","false","true","""event"",""trial"",""time""
""fullscreenenter"",""5"",""18557""
","
","
","""event"",""trial"",""time""
""fullscreenenter"",""5"",""18557""
","
","470","","48","","","3000","1","","","images/tutyellowplanet.jpg","images/tutalien4","images/tutalien3","images/tutrocket2","images/tutalien4","images/t.png","2","practice","true","2","common","1","2022-03-20 22:53:05.290"
"two-step-fixation","117","679560","0.0-61.0-2.18","965","1233","16","Female","false","true","false","true","""event"",""trial"",""time""
""fullscreenenter"",""5"",""18557""
","
","
","""event"",""trial"",""time""
""fullscreenenter"",""5"",""18557""
","
","","images/earth.jpg","","","","","","","","","","","","","","fixation","","","","","",""
"d3-animate-choice","118","681881","0.0-61.0-0.19","965","1233","16","Female","false","true","false","true","""event"",""trial"",""time""
""fullscreenenter"",""5"",""18557""
","
","
","""event"",""trial"",""time""
""fullscreenenter"",""5"",""18557""
","
","314","","49","","","3000","1","","","images/earth.jpg","images/tutrocket1","images/tutrocket2","null","images/tutrocket2","","1","practice","null","1","","",""
"d3-animate-choice","119","684435","0.0-61.0-1.19","965","1233","16","Female","false","true","false","true","""event"",""trial"",""time""
""fullscreenenter"",""5"",""18557""
","
","
","""event"",""trial"",""time""
""fullscreenenter"",""5"",""18557""
","
","549.1000000014901","","48","","","3000","1","","","images/tutyellowplanet.jpg","images/tutalien4","images/tutalien3","images/tutrocket2","images/tutalien4","images/nothing.png","2","practice","true","2","common","0","2022-03-20 22:53:11.168"
"two-step-fixation","120","685439","0.0-61.0-2.19","965","1233","16","Female","false","true","false","true","""event"",""trial"",""time""
""fullscreenenter"",""5"",""18557""
","
","
","""event"",""trial"",""time""
""fullscreenenter"",""5"",""18557""
","
","","images/earth.jpg","","","","","","","","","","","","","","fixation","","","","","",""
"d3-instructions","121","694249","0.0-62.0","965","1233","16","Female","false","true","false","true","""event"",""trial"",""time""
""fullscreenenter"",""5"",""18557""
","
","
","""event"",""trial"",""time""
""fullscreenenter"",""5"",""18557""
","
","","","","","","","","","","","","","","","","","","","","","",""
"audio-keyboard-response","122","700764","0.0-63.0","965","1233","16","Female","false","true","false","true","""event"",""trial"",""time""
""fullscreenenter"",""5"",""18557""
","
","
","""event"",""trial"",""time""
""fullscreenenter"",""5"",""18557""
","
","6507","audio/instructions/treasure_feedback.wav","32","","","","","","","","","","","","","","","","","","",""
"d3-instructions","123","721805","0.0-64.0","965","1233","16","Female","false","true","false","true","""event"",""trial"",""time""
""fullscreenenter"",""5"",""18557""
","
","
","""event"",""trial"",""time""
""fullscreenenter"",""5"",""18557""
","
","","","","","","","","","","","","","","","","","","","","","",""
"d3-instructions","124","737411","0.0-65.0","965","1233","16","Female","false","true","false","true","""event"",""trial"",""time""
""fullscreenenter"",""5"",""18557""
","
","
","""event"",""trial"",""time""
""fullscreenenter"",""5"",""18557""
","
","","","","","","","","","","","","","","","","","","","","","",""
"d3-instructions","125","763363","0.0-66.0","965","1233","16","Female","false","true","false","true","""event"",""trial"",""time""
""fullscreenenter"",""5"",""18557""
","
","
","""event"",""trial"",""time""
""fullscreenenter"",""5"",""18557""
","
","","","","","","","","","","","","","","","","","","","","","",""
"d3-instructions","126","784563","0.0-67.0","965","1233","16","Female","false","true","false","true","""event"",""trial"",""time""
""fullscreenenter"",""5"",""18557""
","
","
","""event"",""trial"",""time""
""fullscreenenter"",""5"",""18557""
","
","","","","","","","","","","","","","","","","","","","","","",""
"d3-instructions","127","795044","0.0-68.0","965","1233","16","Female","false","true","false","true","""event"",""trial"",""time""
""fullscreenenter"",""5"",""18557""
","
","
","""event"",""trial"",""time""
""fullscreenenter"",""5"",""18557""
","
","","","","","","","","","","","","","","","","","","","","","",""
"instructions-quiz","128","800981","0.0-69.0","965","1233","16","Female","false","true","false","true","""event"",""trial"",""time""
""fullscreenenter"",""5"",""18557""
","
","
","""event"",""trial"",""time""
""fullscreenenter"",""5"",""18557""
","
","5907.89999999851","audio/quiz/Q1_Prompt.wav","","1","","","","","","","","","","","","","","","","","",""
"audio-keyboard-response","129","810163","0.0-70.0","965","1233","16","Female","false","true","false","true","""event"",""trial"",""time""
""fullscreenenter"",""5"",""18557""
","
","
","""event"",""trial"",""time""
""fullscreenenter"",""5"",""18557""
","
","null","audio/quiz/Q1_Correct.wav","null","","","","","","","","","","","","","","","","","","",""
"instructions-quiz","130","823430","0.0-71.0","965","1233","16","Female","false","true","false","true","""event"",""trial"",""time""
""fullscreenenter"",""5"",""18557""
","
","
","""event"",""trial"",""time""
""fullscreenenter"",""5"",""18557""
","
","13260.39999999851","audio/quiz/Q2_Prompt.wav","","1","","","","","","","","","","","","","","","","","",""
"audio-keyboard-response","131","837516","0.0-72.0","965","1233","16","Female","false","true","false","true","""event"",""trial"",""time""
""fullscreenenter"",""5"",""18557""
","
","
","""event"",""trial"",""time""
""fullscreenenter"",""5"",""18557""
","
","null","audio/quiz/Q2_Incorrect.wav","null","","","","","","","","","","","","","","","","","","",""
"instructions-quiz","132","842518","0.0-73.0","965","1233","16","Female","false","true","false","true","""event"",""trial"",""time""
""fullscreenenter"",""5"",""18557""
","
","
","""event"",""trial"",""time""
""fullscreenenter"",""5"",""18557""
","
","4995.80000000447","audio/quiz/Q3_Prompt.wav","","1","","","","","","","","","","","","","","","","","",""
"audio-keyboard-response","133","848327","0.0-74.0","965","1233","16","Female","false","true","false","true","""event"",""trial"",""time""
""fullscreenenter"",""5"",""18557""
","
","
","""event"",""trial"",""time""
""fullscreenenter"",""5"",""18557""
","
","null","audio/quiz/Q3_Correct.wav","null","","","","","","","","","","","","","","","","","","",""
"d3-instructions","134","865802","0.0-75.0","965","1233","16","Female","false","true","false","true","""event"",""trial"",""time""
""fullscreenenter"",""5"",""18557""
","
","
","""event"",""trial"",""time""
""fullscreenenter"",""5"",""18557""
","
","","","","","","","","","","","","","","","","","","","","","",""
"d3-animate-choice","135","869263","0.0-76.0-0.0","965","1233","16","Female","false","true","false","true","""event"",""trial"",""time""
""fullscreenenter"",""5"",""18557""
","
","
","""event"",""trial"",""time""
""fullscreenenter"",""5"",""18557""
","
","1450.7999999970198","","49","","","3000","1","","","images/earth.jpg","images/rocket1","images/rocket2","null","images/rocket2","","1","real","null","1","","",""
"d3-animate-choice","136","872176","0.0-76.0-1.0","965","1233","16","Female","false","true","false","true","""event"",""trial"",""time""
""fullscreenenter"",""5"",""18557""
","
","
","""event"",""trial"",""time""
""fullscreenenter"",""5"",""18557""
","
","905.7999999970198","","49","","","3000","1","","","images/redplanet1.jpg","images/alien2","images/alien1","images/rocket2","images/alien1","images/nothing.png","2","real","false","1","rare","0","2022-03-20 22:56:18.909"
"two-step-fixation","137","873182","0.0-76.0-2.0","965","1233","16","Female","false","true","false","true","""event"",""trial"",""time""
""fullscreenenter"",""5"",""18557""
","
","
","""event"",""trial"",""time""
""fullscreenenter"",""5"",""18557""
","
","","images/earth.jpg","","","","","","","","","","","","","","fixation","","","","","",""
"d3-animate-choice","138","876892","0.0-76.0-0.1","965","1233","16","Female","false","true","false","true","""event"",""trial"",""time""
""fullscreenenter"",""5"",""18557""
","
","
","""event"",""trial"",""time""
""fullscreenenter"",""5"",""18557""
","
","635.6999999955297","","50","","","3000","1","1703.5","48","images/earth.jpg","images/rocket1","images/rocket2","null","images/rocket1","","1","real","null","","","",""
"d3-animate-choice","139","879557","0.0-76.0-1.1","965","1233","16","Female","false","true","false","true","""event"",""trial"",""time""
""fullscreenenter"",""5"",""18557""
","
","
","""event"",""trial"",""time""
""fullscreenenter"",""5"",""18557""
","
","656.3999999985099","","48","","","3000","1","","","images/redplanet1.jpg","images/alien2","images/alien1","images/rocket1","images/alien2","images/nothing.png","2","real","true","2","common","0","2022-03-20 22:56:26.291"
"two-step-fixation","140","880566","0.0-76.0-2.1","965","1233","16","Female","false","true","false","true","""event"",""trial"",""time""
""fullscreenenter"",""5"",""18557""
","
","
","""event"",""trial"",""time""
""fullscreenenter"",""5"",""18557""
","
","","images/earth.jpg","","","","","","","","","","","","","","fixation","","","","","",""
"d3-animate-choice","141","883424","0.0-76.0-0.2","965","1233","16","Female","false","true","false","true","""event"",""trial"",""time""
""fullscreenenter"",""5"",""18557""
","
","
","""event"",""trial"",""time""
""fullscreenenter"",""5"",""18557""
","
","851.2000000029802","","49","","","3000","1","","","images/earth.jpg","images/rocket1","images/rocket2","null","images/rocket2","","1","real","null","1","","",""
"d3-animate-choice","142","886099","0.0-76.0-1.2","965","1233","16","Female","false","true","false","true","""event"",""trial"",""time""
""fullscreenenter"",""5"",""18557""
","
","
","""event"",""trial"",""time""
""fullscreenenter"",""5"",""18557""
","
","667.6000000014901","","48","","","3000","1","","","images/purpleplanet.jpg","images/alien4","images/alien3","images/rocket2","images/alien4","images/t.png","2","real","true","2","common","1","2022-03-20 22:56:32.832"
"two-step-fixation","143","887108","0.0-76.0-2.2","965","1233","16","Female","false","true","false","true","""event"",""trial"",""time""
""fullscreenenter"",""5"",""18557""
","
","
","""event"",""trial"",""time""
""fullscreenenter"",""5"",""18557""
","
","","images/earth.jpg","","","","","","","","","","","","","","fixation","","","","","",""
"d3-animate-choice","144","889590","0.0-76.0-0.3","965","1233","16","Female","false","true","false","true","""event"",""trial"",""time""
""fullscreenenter"",""5"",""18557""
","
","
","""event"",""trial"",""time""
""fullscreenenter"",""5"",""18557""
","
","468.79999999701977","","48","","","3000","1","","","images/earth.jpg","images/rocket1","images/rocket2","null","images/rocket1","","1","real","null","2","","",""
"d3-animate-choice","145","892108","0.0-76.0-1.3","965","1233","16","Female","false","true","false","true","""event"",""trial"",""time""
""fullscreenenter"",""5"",""18557""
","
","
","""event"",""trial"",""time""
""fullscreenenter"",""5"",""18557""
","
","510.5","","49","","","3000","1","","","images/redplanet1.jpg","images/alien2","images/alien1","images/rocket1","images/alien1","images/nothing.png","2","real","true","1","common","0","2022-03-20 22:56:38.841"
"two-step-fixation","146","893119","0.0-76.0-2.3","965","1233","16","Female","false","true","false","true","""event"",""trial"",""time""
""fullscreenenter"",""5"",""18557""
","
","
","""event"",""trial"",""time""
""fullscreenenter"",""5"",""18557""
","
","","images/earth.jpg","","","","","","","","","","","","","","fixation","","","","","",""
"d3-animate-choice","147","896309","0.0-76.0-0.4","965","1233","16","Female","false","true","false","true","""event"",""trial"",""time""
""fullscreenenter"",""5"",""18557""
","
","
","""event"",""trial"",""time""
""fullscreenenter"",""5"",""18557""
","
","1178","","48","","","3000","1","","","images/earth.jpg","images/rocket1","images/rocket2","null","images/rocket1","","1","real","null","2","","",""
"d3-animate-choice","148","899490","0.0-76.0-1.4","965","1233","16","Female","false","true","false","true","""event"",""trial"",""time""
""fullscreenenter"",""5"",""18557""
","
","
","""event"",""trial"",""time""
""fullscreenenter"",""5"",""18557""
","
","1174","","49","","","3000","1","","","images/redplanet1.jpg","images/alien2","images/alien1","images/rocket1","images/alien1","images/nothing.png","2","real","true","1","common","0","2022-03-20 22:56:46.223"
"two-step-fixation","149","900493","0.0-76.0-2.4","965","1233","16","Female","false","true","false","true","""event"",""trial"",""time""
""fullscreenenter"",""5"",""18557""
","
","
","""event"",""trial"",""time""
""fullscreenenter"",""5"",""18557""
","
","","images/earth.jpg","","","","","","","","","","","","","","fixation","","","","","",""
"d3-animate-choice","150","903119","0.0-76.0-0.5","965","1233","16","Female","false","true","false","true","""event"",""trial"",""time""
""fullscreenenter"",""5"",""18557""
","
","
","""event"",""trial"",""time""
""fullscreenenter"",""5"",""18557""
","
","620.1000000014901","","49","","","3000","1","","","images/earth.jpg","images/rocket1","images/rocket2","null","images/rocket2","","1","real","null","1","","",""
"d3-animate-choice","151","906367","0.0-76.0-1.5","965","1233","16","Female","false","true","false","true","""event"",""trial"",""time""
""fullscreenenter"",""5"",""18557""
","
","
","""event"",""trial"",""time""
""fullscreenenter"",""5"",""18557""
","
","1243.1999999955297","","49","","","3000","1","","","images/purpleplanet.jpg","images/alien4","images/alien3","images/rocket2","images/alien3","images/t.png","2","real","true","1","common","1","2022-03-20 22:56:53.100"
"two-step-fixation","152","907370","0.0-76.0-2.5","965","1233","16","Female","false","true","false","true","""event"",""trial"",""time""
""fullscreenenter"",""5"",""18557""
","
","
","""event"",""trial"",""time""
""fullscreenenter"",""5"",""18557""
","
","","images/earth.jpg","","","","","","","","","","","","","","fixation","","","","","",""
"d3-animate-choice","153","910071","0.0-76.0-0.6","965","1233","16","Female","false","true","false","true","""event"",""trial"",""time""
""fullscreenenter"",""5"",""18557""
","
","
","""event"",""trial"",""time""
""fullscreenenter"",""5"",""18557""
","
","696.2999999970198","","49","","","3000","1","","","images/earth.jpg","images/rocket1","images/rocket2","null","images/rocket2","","1","real","null","1","","",""
"d3-animate-choice","154","913151","0.0-76.0-1.6","965","1233","16","Female","false","true","false","true","""event"",""trial"",""time""
""fullscreenenter"",""5"",""18557""
","
","
","""event"",""trial"",""time""
""fullscreenenter"",""5"",""18557""
","
","1075.8999999985099","","48","","","3000","1","","","images/purpleplanet.jpg","images/alien4","images/alien3","images/rocket2","images/alien4","images/nothing.png","2","real","true","2","common","0","2022-03-20 22:56:59.885"
"two-step-fixation","155","914155","0.0-76.0-2.6","965","1233","16","Female","false","true","false","true","""event"",""trial"",""time""
""fullscreenenter"",""5"",""18557""
","
","
","""event"",""trial"",""time""
""fullscreenenter"",""5"",""18557""
","
","","images/earth.jpg","","","","","","","","","","","","","","fixation","","","","","",""
"d3-animate-choice","156","916709","0.0-76.0-0.7","965","1233","16","Female","false","true","false","true","""event"",""trial"",""time""
""fullscreenenter"",""5"",""18557""
","
","
","""event"",""trial"",""time""
""fullscreenenter"",""5"",""18557""
","
","549.1999999955297","","49","","","3000","1","","","images/earth.jpg","images/rocket1","images/rocket2","null","images/rocket2","","1","real","null","1","","",""
"d3-animate-choice","157","919096","0.0-76.0-1.7","965","1233","16","Female","false","true","false","true","""event"",""trial"",""time""
""fullscreenenter"",""5"",""18557""
","
","
","""event"",""trial"",""time""
""fullscreenenter"",""5"",""18557""
","
","382.30000000447035","","49","","","3000","1","","","images/purpleplanet.jpg","images/alien4","images/alien3","images/rocket2","images/alien3","images/nothing.png","2","real","true","1","common","0","2022-03-20 22:57:05.829"
"two-step-fixation","158","920099","0.0-76.0-2.7","965","1233","16","Female","false","true","false","true","""event"",""trial"",""time""
""fullscreenenter"",""5"",""18557""
","
","
","""event"",""trial"",""time""
""fullscreenenter"",""5"",""18557""
","
","","images/earth.jpg","","","","","","","","","","","","","","fixation","","","","","",""
"d3-animate-choice","159","922714","0.0-76.0-0.8","965","1233","16","Female","false","true","false","true","""event"",""trial"",""time""
""fullscreenenter"",""5"",""18557""
","
","
","""event"",""trial"",""time""
""fullscreenenter"",""5"",""18557""
","
","609.7000000029802","","48","","","3000","1","","","images/earth.jpg","images/rocket1","images/rocket2","null","images/rocket1","","1","real","null","2","","",""
"d3-animate-choice","160","925120","0.0-76.0-1.8","965","1233","16","Female","false","true","false","true","""event"",""trial"",""time""
""fullscreenenter"",""5"",""18557""
","
","
","""event"",""trial"",""time""
""fullscreenenter"",""5"",""18557""
","
","402.1000000014901","","49","","","3000","1","","","images/redplanet1.jpg","images/alien2","images/alien1","images/rocket1","images/alien1","images/t.png","2","real","true","1","common","1","2022-03-20 22:57:11.853"
"two-step-fixation","161","926124","0.0-76.0-2.8","965","1233","16","Female","false","true","false","true","""event"",""trial"",""time""
""fullscreenenter"",""5"",""18557""
","
","
","""event"",""trial"",""time""
""fullscreenenter"",""5"",""18557""
","
","","images/earth.jpg","","","","","","","","","","","","","","fixation","","","","","",""
"d3-animate-choice","162","928923","0.0-76.0-0.9","965","1233","16","Female","false","true","false","true","""event"",""trial"",""time""
""fullscreenenter"",""5"",""18557""
","
","
","""event"",""trial"",""time""
""fullscreenenter"",""5"",""18557""
","
","795.7999999970198","","49","","","3000","1","","","images/earth.jpg","images/rocket1","images/rocket2","null","images/rocket2","","1","real","null","1","","",""
"d3-animate-choice","163","931995","0.0-76.0-1.9","965","1233","16","Female","false","true","false","true","""event"",""trial"",""time""
""fullscreenenter"",""5"",""18557""
","
","
","""event"",""trial"",""time""
""fullscreenenter"",""5"",""18557""
","
","1065.8000000044703","","49","","","3000","1","","","images/purpleplanet.jpg","images/alien4","images/alien3","images/rocket2","images/alien3","images/nothing.png","2","real","true","1","common","0","2022-03-20 22:57:18.728"
"two-step-fixation","164","932999","0.0-76.0-2.9","965","1233","16","Female","false","true","false","true","""event"",""trial"",""time""
""fullscreenenter"",""5"",""18557""
","
","
","""event"",""trial"",""time""
""fullscreenenter"",""5"",""18557""
","
","","images/earth.jpg","","","","","","","","","","","","","","fixation","","","","","",""
"d3-animate-choice","165","935448","0.0-76.0-0.10","965","1233","16","Female","false","true","false","true","""event"",""trial"",""time""
""fullscreenenter"",""5"",""18557""
","
","
","""event"",""trial"",""time""
""fullscreenenter"",""5"",""18557""
","
","444.70000000298023","","49","","","3000","1","","","images/earth.jpg","images/rocket1","images/rocket2","null","images/rocket2","","1","real","null","1","","",""
"d3-animate-choice","166","937875","0.0-76.0-1.10","965","1233","16","Female","false","true","false","true","""event"",""trial"",""time""
""fullscreenenter"",""5"",""18557""
","
","
","""event"",""trial"",""time""
""fullscreenenter"",""5"",""18557""
","
","423.20000000298023","","48","","","3000","1","","","images/purpleplanet.jpg","images/alien4","images/alien3","images/rocket2","images/alien4","images/t.png","2","real","true","2","common","1","2022-03-20 22:57:24.608"
"two-step-fixation","167","938879","0.0-76.0-2.10","965","1233","16","Female","false","true","false","true","""event"",""trial"",""time""
""fullscreenenter"",""5"",""18557""
","
","
","""event"",""trial"",""time""
""fullscreenenter"",""5"",""18557""
","
","","images/earth.jpg","","","","","","","","","","","","","","fixation","","","","","",""
"d3-animate-choice","168","941187","0.0-76.0-0.11","965","1233","16","Female","false","true","false","true","""event"",""trial"",""time""
""fullscreenenter"",""5"",""18557""
","
","
","""event"",""trial"",""time""
""fullscreenenter"",""5"",""18557""
","
","301.69999999552965","","49","","","3000","1","","","images/earth.jpg","images/rocket1","images/rocket2","null","images/rocket2","","1","real","null","1","","",""
"d3-animate-choice","169","943582","0.0-76.0-1.11","965","1233","16","Female","false","true","false","true","""event"",""trial"",""time""
""fullscreenenter"",""5"",""18557""
","
","
","""event"",""trial"",""time""
""fullscreenenter"",""5"",""18557""
","
","390","","48","","","3000","1","","","images/redplanet1.jpg","images/alien2","images/alien1","images/rocket2","images/alien2","images/nothing.png","2","real","false","2","rare","0","2022-03-20 22:57:30.315"
"two-step-fixation","170","944585","0.0-76.0-2.11","965","1233","16","Female","false","true","false","true","""event"",""trial"",""time""
""fullscreenenter"",""5"",""18557""
","
","
","""event"",""trial"",""time""
""fullscreenenter"",""5"",""18557""
","
","","images/earth.jpg","","","","","","","","","","","","","","fixation","","","","","",""
"d3-animate-choice","171","946984","0.0-76.0-0.12","965","1233","16","Female","false","true","false","true","""event"",""trial"",""time""
""fullscreenenter"",""5"",""18557""
","
","
","""event"",""trial"",""time""
""fullscreenenter"",""5"",""18557""
","
","394.69999999552965","","49","","","3000","1","","","images/earth.jpg","images/rocket1","images/rocket2","null","images/rocket2","","1","real","null","1","","",""
"d3-animate-choice","172","950057","0.0-76.0-1.12","965","1233","16","Female","false","true","false","true","""event"",""trial"",""time""
""fullscreenenter"",""5"",""18557""
","
","
","""event"",""trial"",""time""
""fullscreenenter"",""5"",""18557""
","
","1067.7999999970198","","48","","","3000","1","","","images/purpleplanet.jpg","images/alien4","images/alien3","images/rocket2","images/alien4","images/t.png","2","real","true","2","common","1","2022-03-20 22:57:36.791"
"two-step-fixation","173","951062","0.0-76.0-2.12","965","1233","16","Female","false","true","false","true","""event"",""trial"",""time""
""fullscreenenter"",""5"",""18557""
","
","
","""event"",""trial"",""time""
""fullscreenenter"",""5"",""18557""
","
","","images/earth.jpg","","","","","","","","","","","","","","fixation","","","","","",""
"d3-animate-choice","174","953771","0.0-76.0-0.13","965","1233","16","Female","false","true","false","true","""event"",""trial"",""time""
""fullscreenenter"",""5"",""18557""
","
","
","""event"",""trial"",""time""
""fullscreenenter"",""5"",""18557""
","
","705","","49","","","3000","1","","","images/earth.jpg","images/rocket1","images/rocket2","null","images/rocket2","","1","real","null","1","","",""
"d3-animate-choice","175","956391","0.0-76.0-1.13","965","1233","16","Female","false","true","false","true","""event"",""trial"",""time""
""fullscreenenter"",""5"",""18557""
","
","
","""event"",""trial"",""time""
""fullscreenenter"",""5"",""18557""
","
","613.6999999955297","","49","","","3000","1","","","images/redplanet1.jpg","images/alien2","images/alien1","images/rocket2","images/alien1","images/nothing.png","2","real","false","1","rare","0","2022-03-20 22:57:43.125"
"two-step-fixation","176","957396","0.0-76.0-2.13","965","1233","16","Female","false","true","false","true","""event"",""trial"",""time""
""fullscreenenter"",""5"",""18557""
","
","
","""event"",""trial"",""time""
""fullscreenenter"",""5"",""18557""
","
","","images/earth.jpg","","","","","","","","","","","","","","fixation","","","","","",""
"d3-animate-choice","177","959868","0.0-76.0-0.14","965","1233","16","Female","false","true","false","true","""event"",""trial"",""time""
""fullscreenenter"",""5"",""18557""
","
","
","""event"",""trial"",""time""
""fullscreenenter"",""5"",""18557""
","
","465.30000000447035","","48","","","3000","1","","","images/earth.jpg","images/rocket1","images/rocket2","null","images/rocket1","","1","real","null","2","","",""
"d3-animate-choice","178","963106","0.0-76.0-1.14","965","1233","16","Female","false","true","false","true","""event"",""trial"",""time""
""fullscreenenter"",""5"",""18557""
","
","
","""event"",""trial"",""time""
""fullscreenenter"",""5"",""18557""
","
","1233.1999999955297","","48","","","3000","1","","","images/redplanet1.jpg","images/alien2","images/alien1","images/rocket1","images/alien2","images/t.png","2","real","true","2","common","1","2022-03-20 22:57:49.839"
"two-step-fixation","179","964110","0.0-76.0-2.14","965","1233","16","Female","false","true","false","true","""event"",""trial"",""time""
""fullscreenenter"",""5"",""18557""
","
","
","""event"",""trial"",""time""
""fullscreenenter"",""5"",""18557""
","
","","images/earth.jpg","","","","","","","","","","","","","","fixation","","","","","",""
"d3-animate-choice","180","966693","0.0-76.0-0.15","965","1233","16","Female","false","true","false","true","""event"",""trial"",""time""
""fullscreenenter"",""5"",""18557""
","
","
","""event"",""trial"",""time""
""fullscreenenter"",""5"",""18557""
","
","577.8999999985099","","48","","","3000","1","","","images/earth.jpg","images/rocket1","images/rocket2","null","images/rocket1","","1","real","null","2","","",""
"d3-animate-choice","181","969708","0.0-76.0-1.15","965","1233","16","Female","false","true","false","true","""event"",""trial"",""time""
""fullscreenenter"",""5"",""18557""
","
","
","""event"",""trial"",""time""
""fullscreenenter"",""5"",""18557""
","
","1009.8999999985099","","48","","","3000","1","","","images/purpleplanet.jpg","images/alien4","images/alien3","images/rocket1","images/alien4","images/t.png","2","real","false","2","rare","1","2022-03-20 22:57:56.441"
"two-step-fixation","182","970712","0.0-76.0-2.15","965","1233","16","Female","false","true","false","true","""event"",""trial"",""time""
""fullscreenenter"",""5"",""18557""
","
","
","""event"",""trial"",""time""
""fullscreenenter"",""5"",""18557""
","
","","images/earth.jpg","","","","","","","","","","","","","","fixation","","","","","",""
"d3-animate-choice","183","973010","0.0-76.0-0.16","965","1233","16","Female","false","true","false","true","""event"",""trial"",""time""
""fullscreenenter"",""5"",""18557""
","
","
","""event"",""trial"",""time""
""fullscreenenter"",""5"",""18557""
","
","290.29999999701977","","48","","","3000","1","","","images/earth.jpg","images/rocket1","images/rocket2","null","images/rocket1","","1","real","null","2","","",""
"d3-animate-choice","184","975559","0.0-76.0-1.16","965","1233","16","Female","false","true","false","true","""event"",""trial"",""time""
""fullscreenenter"",""5"",""18557""
","
","
","""event"",""trial"",""time""
""fullscreenenter"",""5"",""18557""
","
","544.9000000059605","","48","","","3000","1","","","images/purpleplanet.jpg","images/alien4","images/alien3","images/rocket1","images/alien4","images/t.png","2","real","false","2","rare","1","2022-03-20 22:58:02.292"
"two-step-fixation","185","976566","0.0-76.0-2.16","965","1233","16","Female","false","true","false","true","""event"",""trial"",""time""
""fullscreenenter"",""5"",""18557""
","
","
","""event"",""trial"",""time""
""fullscreenenter"",""5"",""18557""
","
","","images/earth.jpg","","","","","","","","","","","","","","fixation","","","","","",""
"d3-animate-choice","186","978820","0.0-76.0-0.17","965","1233","16","Female","false","true","false","true","""event"",""trial"",""time""
""fullscreenenter"",""5"",""18557""
","
","
","""event"",""trial"",""time""
""fullscreenenter"",""5"",""18557""
","
","250","","48","","","3000","1","","","images/earth.jpg","images/rocket1","images/rocket2","null","images/rocket1","","1","real","null","2","","",""
"d3-animate-choice","187","981293","0.0-76.0-1.17","965","1233","16","Female","false","true","false","true","""event"",""trial"",""time""
""fullscreenenter"",""5"",""18557""
","
","
","""event"",""trial"",""time""
""fullscreenenter"",""5"",""18557""
","
","469.1000000014901","","48","","","3000","1","","","images/redplanet1.jpg","images/alien2","images/alien1","images/rocket1","images/alien2","images/nothing.png","2","real","true","2","common","0","2022-03-20 22:58:08.027"
"two-step-fixation","188","982297","0.0-76.0-2.17","965","1233","16","Female","false","true","false","true","""event"",""trial"",""time""
""fullscreenenter"",""5"",""18557""
","
","
","""event"",""trial"",""time""
""fullscreenenter"",""5"",""18557""
","
","","images/earth.jpg","","","","","","","","","","","","","","fixation","","","","","",""
"d3-animate-choice","189","984751","0.0-76.0-0.18","965","1233","16","Female","false","true","false","true","""event"",""trial"",""time""
""fullscreenenter"",""5"",""18557""
","
","
","""event"",""trial"",""time""
""fullscreenenter"",""5"",""18557""
","
","449.40000000596046","","49","","","3000","1","","","images/earth.jpg","images/rocket1","images/rocket2","null","images/rocket2","","1","real","null","1","","",""
"d3-animate-choice","190","987459","0.0-76.0-1.18","965","1233","16","Female","false","true","false","true","""event"",""trial"",""time""
""fullscreenenter"",""5"",""18557""
","
","
","""event"",""trial"",""time""
""fullscreenenter"",""5"",""18557""
","
","703.5","","49","","","3000","1","","","images/purpleplanet.jpg","images/alien4","images/alien3","images/rocket2","images/alien3","images/nothing.png","2","real","true","1","common","0","2022-03-20 22:58:14.192"
"two-step-fixation","191","988463","0.0-76.0-2.18","965","1233","16","Female","false","true","false","true","""event"",""trial"",""time""
""fullscreenenter"",""5"",""18557""
","
","
","""event"",""trial"",""time""
""fullscreenenter"",""5"",""18557""
","
","","images/earth.jpg","","","","","","","","","","","","","","fixation","","","","","",""
"d3-animate-choice","192","991661","0.0-76.0-0.19","965","1233","16","Female","false","true","false","true","""event"",""trial"",""time""
""fullscreenenter"",""5"",""18557""
","
","
","""event"",""trial"",""time""
""fullscreenenter"",""5"",""18557""
","
","1193.3999999985099","","48","","","3000","1","","","images/earth.jpg","images/rocket1","images/rocket2","null","images/rocket1","","1","real","null","2","","",""
"d3-animate-choice","193","994082","0.0-76.0-1.19","965","1233","16","Female","false","true","false","true","""event"",""trial"",""time""
""fullscreenenter"",""5"",""18557""
","
","
","""event"",""trial"",""time""
""fullscreenenter"",""5"",""18557""
","
","416.6000000014901","","48","","","3000","1","","","images/redplanet1.jpg","images/alien2","images/alien1","images/rocket1","images/alien2","images/nothing.png","2","real","true","2","common","0","2022-03-20 22:58:20.815"
"two-step-fixation","194","995086","0.0-76.0-2.19","965","1233","16","Female","false","true","false","true","""event"",""trial"",""time""
""fullscreenenter"",""5"",""18557""
","
","
","""event"",""trial"",""time""
""fullscreenenter"",""5"",""18557""
","
","","images/earth.jpg","","","","","","","","","","","","","","fixation","","","","","",""
"d3-animate-choice","195","997577","0.0-76.0-0.20","965","1233","16","Female","false","true","false","true","""event"",""trial"",""time""
""fullscreenenter"",""5"",""18557""
","
","
","""event"",""trial"",""time""
""fullscreenenter"",""5"",""18557""
","
","486.6000000014901","","49","","","3000","1","","","images/earth.jpg","images/rocket1","images/rocket2","null","images/rocket2","","1","real","null","1","","",""
"d3-animate-choice","196","1001174","0.0-76.0-1.20","965","1233","16","Female","false","true","false","true","""event"",""trial"",""time""
""fullscreenenter"",""5"",""18557""
","
","
","""event"",""trial"",""time""
""fullscreenenter"",""5"",""18557""
","
","1591.6000000014901","","48","","","3000","1","","","images/purpleplanet.jpg","images/alien4","images/alien3","images/rocket2","images/alien4","images/nothing.png","2","real","true","2","common","0","2022-03-20 22:58:27.907"
"two-step-fixation","197","1002177","0.0-76.0-2.20","965","1233","16","Female","false","true","false","true","""event"",""trial"",""time""
""fullscreenenter"",""5"",""18557""
","
","
","""event"",""trial"",""time""
""fullscreenenter"",""5"",""18557""
","
","","images/earth.jpg","","","","","","","","","","","","","","fixation","","","","","",""
"d3-animate-choice","198","1004462","0.0-76.0-0.21","965","1233","16","Female","false","true","false","true","""event"",""trial"",""time""
""fullscreenenter"",""5"",""18557""
","
","
","""event"",""trial"",""time""
""fullscreenenter"",""5"",""18557""
","
","280.6000000014901","","49","","","3000","1","","","images/earth.jpg","images/rocket1","images/rocket2","null","images/rocket2","","1","real","null","1","","",""
"d3-animate-choice","199","1006935","0.0-76.0-1.21","965","1233","16","Female","false","true","false","true","""event"",""trial"",""time""
""fullscreenenter"",""5"",""18557""
","
","
","""event"",""trial"",""time""
""fullscreenenter"",""5"",""18557""
","
","466.5","","49","","","3000","1","","","images/purpleplanet.jpg","images/alien4","images/alien3","images/rocket2","images/alien3","images/t.png","2","real","true","1","common","1","2022-03-20 22:58:33.668"
"two-step-fixation","200","1007940","0.0-76.0-2.21","965","1233","16","Female","false","true","false","true","""event"",""trial"",""time""
""fullscreenenter"",""5"",""18557""
","
","
","""event"",""trial"",""time""
""fullscreenenter"",""5"",""18557""
","
","","images/earth.jpg","","","","","","","","","","","","","","fixation","","","","","",""
"d3-animate-choice","201","1010259","0.0-76.0-0.22","965","1233","16","Female","false","true","false","true","""event"",""trial"",""time""
""fullscreenenter"",""5"",""18557""
","
","
","""event"",""trial"",""time""
""fullscreenenter"",""5"",""18557""
","
","314.29999999701977","","49","","","3000","1","","","images/earth.jpg","images/rocket1","images/rocket2","null","images/rocket2","","1","real","null","1","","",""
"d3-animate-choice","202","1012670","0.0-76.0-1.22","965","1233","16","Female","false","true","false","true","""event"",""trial"",""time""
""fullscreenenter"",""5"",""18557""
","
","
","""event"",""trial"",""time""
""fullscreenenter"",""5"",""18557""
","
","406","","49","","","3000","1","","","images/purpleplanet.jpg","images/alien4","images/alien3","images/rocket2","images/alien3","images/nothing.png","2","real","true","1","common","0","2022-03-20 22:58:39.403"
"two-step-fixation","203","1013674","0.0-76.0-2.22","965","1233","16","Female","false","true","false","true","""event"",""trial"",""time""
""fullscreenenter"",""5"",""18557""
","
","
","""event"",""trial"",""time""
""fullscreenenter"",""5"",""18557""
","
","","images/earth.jpg","","","","","","","","","","","","","","fixation","","","","","",""
"d3-animate-choice","204","1015883","0.0-76.0-0.23","965","1233","16","Female","false","true","false","true","""event"",""trial"",""time""
""fullscreenenter"",""5"",""18557""
","
","
","""event"",""trial"",""time""
""fullscreenenter"",""5"",""18557""
","
","204","","48","","","3000","1","","","images/earth.jpg","images/rocket1","images/rocket2","null","images/rocket1","","1","real","null","2","","",""
"d3-animate-choice","205","1018356","0.0-76.0-1.23","965","1233","16","Female","false","true","false","true","""event"",""trial"",""time""
""fullscreenenter"",""5"",""18557""
","
","
","""event"",""trial"",""time""
""fullscreenenter"",""5"",""18557""
","
","468.3999999985099","","48","","","3000","1","","","images/redplanet1.jpg","images/alien2","images/alien1","images/rocket1","images/alien2","images/nothing.png","2","real","true","2","common","0","2022-03-20 22:58:45.089"
"two-step-fixation","206","1019361","0.0-76.0-2.23","965","1233","16","Female","false","true","false","true","""event"",""trial"",""time""
""fullscreenenter"",""5"",""18557""
","
","
","""event"",""trial"",""time""
""fullscreenenter"",""5"",""18557""
","
","","images/earth.jpg","","","","","","","","","","","","","","fixation","","","","","",""
"d3-animate-choice","207","1021619","0.0-76.0-0.24","965","1233","16","Female","false","true","false","true","""event"",""trial"",""time""
""fullscreenenter"",""5"",""18557""
","
","
","""event"",""trial"",""time""
""fullscreenenter"",""5"",""18557""
","
","251.70000000298023","","48","","","3000","1","","","images/earth.jpg","images/rocket1","images/rocket2","null","images/rocket1","","1","real","null","2","","",""
"d3-animate-choice","208","1024392","0.0-76.0-1.24","965","1233","16","Female","false","true","false","true","""event"",""trial"",""time""
""fullscreenenter"",""5"",""18557""
","
","
","""event"",""trial"",""time""
""fullscreenenter"",""5"",""18557""
","
","767.2000000029802","","48","","","3000","1","1264.1000000014901","48","images/redplanet1.jpg","images/alien2","images/alien1","images/rocket1","images/alien2","images/t.png","2","real","true","2","common","1","2022-03-20 22:58:51.125"
"two-step-fixation","209","1025395","0.0-76.0-2.24","965","1233","16","Female","false","true","false","true","""event"",""trial"",""time""
""fullscreenenter"",""5"",""18557""
","
","
","""event"",""trial"",""time""
""fullscreenenter"",""5"",""18557""
","
","","images/earth.jpg","","","","","","","","","","","","","","fixation","","","","","",""
"d3-animate-choice","210","1027979","0.0-76.0-0.25","965","1233","16","Female","false","true","false","true","""event"",""trial"",""time""
""fullscreenenter"",""5"",""18557""
","
","
","""event"",""trial"",""time""
""fullscreenenter"",""5"",""18557""
","
","578.6999999955297","","48","","","3000","1","","","images/earth.jpg","images/rocket1","images/rocket2","null","images/rocket1","","1","real","null","2","","",""
"d3-animate-choice","211","1030359","0.0-76.0-1.25","965","1233","16","Female","false","true","false","true","""event"",""trial"",""time""
""fullscreenenter"",""5"",""18557""
","
","
","""event"",""trial"",""time""
""fullscreenenter"",""5"",""18557""
","
","375","","48","","","3000","1","","","images/redplanet1.jpg","images/alien2","images/alien1","images/rocket1","images/alien2","images/t.png","2","real","true","2","common","1","2022-03-20 22:58:57.092"
"two-step-fixation","212","1031363","0.0-76.0-2.25","965","1233","16","Female","false","true","false","true","""event"",""trial"",""time""
""fullscreenenter"",""5"",""18557""
","
","
","""event"",""trial"",""time""
""fullscreenenter"",""5"",""18557""
","
","","images/earth.jpg","","","","","","","","","","","","","","fixation","","","","","",""
"d3-animate-choice","213","1033651","0.0-76.0-0.26","965","1233","16","Female","false","true","false","true","""event"",""trial"",""time""
""fullscreenenter"",""5"",""18557""
","
","
","""event"",""trial"",""time""
""fullscreenenter"",""5"",""18557""
","
","280.70000000298023","","48","","","3000","1","","","images/earth.jpg","images/rocket1","images/rocket2","null","images/rocket1","","1","real","null","2","","",""
"d3-animate-choice","214","1036107","0.0-76.0-1.26","965","1233","16","Female","false","true","false","true","""event"",""trial"",""time""
""fullscreenenter"",""5"",""18557""
","
","
","""event"",""trial"",""time""
""fullscreenenter"",""5"",""18557""
","
","450.8999999985099","","48","","","3000","1","","","images/redplanet1.jpg","images/alien2","images/alien1","images/rocket1","images/alien2","images/nothing.png","2","real","true","2","common","0","2022-03-20 22:59:02.840"
"two-step-fixation","215","1037111","0.0-76.0-2.26","965","1233","16","Female","false","true","false","true","""event"",""trial"",""time""
""fullscreenenter"",""5"",""18557""
","
","
","""event"",""trial"",""time""
""fullscreenenter"",""5"",""18557""
","
","","images/earth.jpg","","","","","","","","","","","","","","fixation","","","","","",""
"d3-animate-choice","216","1039533","0.0-76.0-0.27","965","1233","16","Female","false","true","false","true","""event"",""trial"",""time""
""fullscreenenter"",""5"",""18557""
","
","
","""event"",""trial"",""time""
""fullscreenenter"",""5"",""18557""
","
","417.59999999403954","","49","","","3000","1","","","images/earth.jpg","images/rocket1","images/rocket2","null","images/rocket2","","1","real","null","1","","",""
"d3-animate-choice","217","1042324","0.0-76.0-1.27","965","1233","16","Female","false","true","false","true","""event"",""trial"",""time""
""fullscreenenter"",""5"",""18557""
","
","
","""event"",""trial"",""time""
""fullscreenenter"",""5"",""18557""
","
","784.0999999940395","","48","","","3000","1","","","images/purpleplanet.jpg","images/alien4","images/alien3","images/rocket2","images/alien4","images/t.png","2","real","true","2","common","1","2022-03-20 22:59:09.057"
"two-step-fixation","218","1043330","0.0-76.0-2.27","965","1233","16","Female","false","true","false","true","""event"",""trial"",""time""
""fullscreenenter"",""5"",""18557""
","
","
","""event"",""trial"",""time""
""fullscreenenter"",""5"",""18557""
","
","","images/earth.jpg","","","","","","","","","","","","","","fixation","","","","","",""
"d3-animate-choice","219","1045524","0.0-76.0-0.28","965","1233","16","Female","false","true","false","true","""event"",""trial"",""time""
""fullscreenenter"",""5"",""18557""
","
","
","""event"",""trial"",""time""
""fullscreenenter"",""5"",""18557""
","
","188.89999999850988","","49","","","3000","1","","","images/earth.jpg","images/rocket1","images/rocket2","null","images/rocket2","","1","real","null","1","","",""
"d3-animate-choice","220","1047898","0.0-76.0-1.28","965","1233","16","Female","false","true","false","true","""event"",""trial"",""time""
""fullscreenenter"",""5"",""18557""
","
","
","""event"",""trial"",""time""
""fullscreenenter"",""5"",""18557""
","
","366.79999999701977","","48","","","3000","1","","","images/redplanet1.jpg","images/alien2","images/alien1","images/rocket2","images/alien2","images/t.png","2","real","false","2","rare","1","2022-03-20 22:59:14.631"
"two-step-fixation","221","1048901","0.0-76.0-2.28","965","1233","16","Female","false","true","false","true","""event"",""trial"",""time""
""fullscreenenter"",""5"",""18557""
","
","
","""event"",""trial"",""time""
""fullscreenenter"",""5"",""18557""
","
","","images/earth.jpg","","","","","","","","","","","","","","fixation","","","","","",""
"d3-animate-choice","222","1051285","0.0-76.0-0.29","965","1233","16","Female","false","true","false","true","""event"",""trial"",""time""
""fullscreenenter"",""5"",""18557""
","
","
","""event"",""trial"",""time""
""fullscreenenter"",""5"",""18557""
","
","378.5","","49","","","3000","1","","","images/earth.jpg","images/rocket1","images/rocket2","null","images/rocket2","","1","real","null","1","","",""
"d3-animate-choice","223","1053900","0.0-76.0-1.29","965","1233","16","Female","false","true","false","true","""event"",""trial"",""time""
""fullscreenenter"",""5"",""18557""
","
","
","""event"",""trial"",""time""
""fullscreenenter"",""5"",""18557""
","
","610.3999999985099","","49","","","3000","1","","","images/purpleplanet.jpg","images/alien4","images/alien3","images/rocket2","images/alien3","images/t.png","2","real","true","1","common","1","2022-03-20 22:59:20.633"
"two-step-fixation","224","1054904","0.0-76.0-2.29","965","1233","16","Female","false","true","false","true","""event"",""trial"",""time""
""fullscreenenter"",""5"",""18557""
","
","
","""event"",""trial"",""time""
""fullscreenenter"",""5"",""18557""
","
","","images/earth.jpg","","","","","","","","","","","","","","fixation","","","","","",""
"d3-animate-choice","225","1057306","0.0-76.0-0.30","965","1233","16","Female","false","true","false","true","""event"",""trial"",""time""
""fullscreenenter"",""5"",""18557""
","
","
","""event"",""trial"",""time""
""fullscreenenter"",""5"",""18557""
","
","396.30000000447035","","49","","","3000","1","","","images/earth.jpg","images/rocket1","images/rocket2","null","images/rocket2","","1","real","null","1","","",""
"d3-animate-choice","226","1059657","0.0-76.0-1.30","965","1233","16","Female","false","true","false","true","""event"",""trial"",""time""
""fullscreenenter"",""5"",""18557""
","
","
","""event"",""trial"",""time""
""fullscreenenter"",""5"",""18557""
","
","343","","49","","","3000","1","","","images/purpleplanet.jpg","images/alien4","images/alien3","images/rocket2","images/alien3","images/nothing.png","2","real","true","1","common","0","2022-03-20 22:59:26.391"
"two-step-fixation","227","1060664","0.0-76.0-2.30","965","1233","16","Female","false","true","false","true","""event"",""trial"",""time""
""fullscreenenter"",""5"",""18557""
","
","
","""event"",""trial"",""time""
""fullscreenenter"",""5"",""18557""
","
","","images/earth.jpg","","","","","","","","","","","","","","fixation","","","","","",""
"d3-animate-choice","228","1063085","0.0-76.0-0.31","965","1233","16","Female","false","true","false","true","""event"",""trial"",""time""
""fullscreenenter"",""5"",""18557""
","
","
","""event"",""trial"",""time""
""fullscreenenter"",""5"",""18557""
","
","414.90000000596046","","48","","","3000","1","","","images/earth.jpg","images/rocket1","images/rocket2","null","images/rocket1","","1","real","null","2","","",""
"d3-animate-choice","229","1065710","0.0-76.0-1.31","965","1233","16","Female","false","true","false","true","""event"",""trial"",""time""
""fullscreenenter"",""5"",""18557""
","
","
","""event"",""trial"",""time""
""fullscreenenter"",""5"",""18557""
","
","618.1999999955297","","49","","","3000","1","","","images/purpleplanet.jpg","images/alien4","images/alien3","images/rocket1","images/alien3","images/nothing.png","2","real","false","1","rare","0","2022-03-20 22:59:32.443"
"two-step-fixation","230","1066716","0.0-76.0-2.31","965","1233","16","Female","false","true","false","true","""event"",""trial"",""time""
""fullscreenenter"",""5"",""18557""
","
","
","""event"",""trial"",""time""
""fullscreenenter"",""5"",""18557""
","
","","images/earth.jpg","","","","","","","","","","","","","","fixation","","","","","",""
"d3-animate-choice","231","1069029","0.0-76.0-0.32","965","1233","16","Female","false","true","false","true","""event"",""trial"",""time""
""fullscreenenter"",""5"",""18557""
","
","
","""event"",""trial"",""time""
""fullscreenenter"",""5"",""18557""
","
","306.3999999985099","","48","","","3000","1","","","images/earth.jpg","images/rocket1","images/rocket2","null","images/rocket1","","1","real","null","2","","",""
"d3-animate-choice","232","1071364","0.0-76.0-1.32","965","1233","16","Female","false","true","false","true","""event"",""trial"",""time""
""fullscreenenter"",""5"",""18557""
","
","
","""event"",""trial"",""time""
""fullscreenenter"",""5"",""18557""
","
","329.6000000014901","","48","","","3000","1","","","images/purpleplanet.jpg","images/alien4","images/alien3","images/rocket1","images/alien4","images/nothing.png","2","real","false","2","rare","0","2022-03-20 22:59:38.097"
"two-step-fixation","233","1072368","0.0-76.0-2.32","965","1233","16","Female","false","true","false","true","""event"",""trial"",""time""
""fullscreenenter"",""5"",""18557""
","
","
","""event"",""trial"",""time""
""fullscreenenter"",""5"",""18557""
","
","","images/earth.jpg","","","","","","","","","","","","","","fixation","","","","","",""
"d3-animate-choice","234","1074717","0.0-76.0-0.33","965","1233","16","Female","false","true","false","true","""event"",""trial"",""time""
""fullscreenenter"",""5"",""18557""
","
","
","""event"",""trial"",""time""
""fullscreenenter"",""5"",""18557""
","
","342.6000000014901","","49","","","3000","1","","","images/earth.jpg","images/rocket1","images/rocket2","null","images/rocket2","","1","real","null","1","","",""
"d3-animate-choice","235","1077715","0.0-76.0-1.33","965","1233","16","Female","false","true","false","true","""event"",""trial"",""time""
""fullscreenenter"",""5"",""18557""
","
","
","""event"",""trial"",""time""
""fullscreenenter"",""5"",""18557""
","
","991.1000000014901","","48","","","3000","1","","","images/purpleplanet.jpg","images/alien4","images/alien3","images/rocket2","images/alien4","images/t.png","2","real","true","2","common","1","2022-03-20 22:59:44.448"
"two-step-fixation","236","1078719","0.0-76.0-2.33","965","1233","16","Female","false","true","false","true","""event"",""trial"",""time""
""fullscreenenter"",""5"",""18557""
","
","
","""event"",""trial"",""time""
""fullscreenenter"",""5"",""18557""
","
","","images/earth.jpg","","","","","","","","","","","","","","fixation","","","","","",""
"d3-animate-choice","237","1081113","0.0-76.0-0.34","965","1233","16","Female","false","true","false","true","""event"",""trial"",""time""
""fullscreenenter"",""5"",""18557""
","
","
","""event"",""trial"",""time""
""fullscreenenter"",""5"",""18557""
","
","389.20000000298023","","49","","","3000","1","","","images/earth.jpg","images/rocket1","images/rocket2","null","images/rocket2","","1","real","null","1","","",""
"d3-animate-choice","238","1083430","0.0-76.0-1.34","965","1233","16","Female","false","true","false","true","""event"",""trial"",""time""
""fullscreenenter"",""5"",""18557""
","
","
","""event"",""trial"",""time""
""fullscreenenter"",""5"",""18557""
","
","311.59999999403954","","48","","","3000","1","","","images/purpleplanet.jpg","images/alien4","images/alien3","images/rocket2","images/alien4","images/nothing.png","2","real","true","2","common","0","2022-03-20 22:59:50.163"
"two-step-fixation","239","1084444","0.0-76.0-2.34","965","1233","16","Female","false","true","false","true","""event"",""trial"",""time""
""fullscreenenter"",""5"",""18557""
","
","
","""event"",""trial"",""time""
""fullscreenenter"",""5"",""18557""
","
","","images/earth.jpg","","","","","","","","","","","","","","fixation","","","","","",""
"d3-animate-choice","240","1086978","0.0-76.0-0.35","965","1233","16","Female","false","true","false","true","""event"",""trial"",""time""
""fullscreenenter"",""5"",""18557""
","
","
","""event"",""trial"",""time""
""fullscreenenter"",""5"",""18557""
","
","529.1999999955297","","48","","","3000","1","","","images/earth.jpg","images/rocket1","images/rocket2","null","images/rocket1","","1","real","null","2","","",""
"d3-animate-choice","241","1089366","0.0-76.0-1.35","965","1233","16","Female","false","true","false","true","""event"",""trial"",""time""
""fullscreenenter"",""5"",""18557""
","
","
","""event"",""trial"",""time""
""fullscreenenter"",""5"",""18557""
","
","383.6000000014901","","49","","","3000","1","","","images/redplanet1.jpg","images/alien2","images/alien1","images/rocket1","images/alien1","images/t.png","2","real","true","1","common","1","2022-03-20 22:59:56.099"
"two-step-fixation","242","1090383","0.0-76.0-2.35","965","1233","16","Female","false","true","false","true","""event"",""trial"",""time""
""fullscreenenter"",""5"",""18557""
","
","
","""event"",""trial"",""time""
""fullscreenenter"",""5"",""18557""
","
","","images/earth.jpg","","","","","","","","","","","","","","fixation","","","","","",""
"d3-animate-choice","243","1092623","0.0-76.0-0.36","965","1233","16","Female","false","true","false","true","""event"",""trial"",""time""
""fullscreenenter"",""5"",""18557""
","
","
","""event"",""trial"",""time""
""fullscreenenter"",""5"",""18557""
","
","234.29999999701977","","48","","","3000","1","","","images/earth.jpg","images/rocket1","images/rocket2","null","images/rocket1","","1","real","null","2","","",""
"d3-animate-choice","244","1095046","0.0-76.0-1.36","965","1233","16","Female","false","true","false","true","""event"",""trial"",""time""
""fullscreenenter"",""5"",""18557""
","
","
","""event"",""trial"",""time""
""fullscreenenter"",""5"",""18557""
","
","418.6000000014901","","49","","","3000","1","","","images/redplanet1.jpg","images/alien2","images/alien1","images/rocket1","images/alien1","images/nothing.png","2","real","true","1","common","0","2022-03-20 23:00:01.779"
"two-step-fixation","245","1096050","0.0-76.0-2.36","965","1233","16","Female","false","true","false","true","""event"",""trial"",""time""
""fullscreenenter"",""5"",""18557""
","
","
","""event"",""trial"",""time""
""fullscreenenter"",""5"",""18557""
","
