"trial_type","trial_index","time_elapsed","internal_node_id","participant_id","subject_id","age","gender","rocket_sides","red_planet_first_rocket","red_display_order","purple_display_order","interactions","blur_events","focus_events","fullscreenenter_events","fullscreenexit_events","rt","stimulus","key_press","button_pressed","success","duration","valid_pressed","rts","keys","planet_text","right_text","left_text","center_text","chosen_text","reward_text","trial_stage","practice_trial","transition_type","choice","transition","reward","timestamp"
"pavlovia","0","3","0.0-0.0","3932","7269","25","Male","true","false","true","true","
","
","
","
","
","","","","","","","","","","","","","","","","","","","","","",""
"html-keyboard-response","1","1622","0.0-1.0","3932","7269","25","Male","true","false","true","true","
","
","
","
","
","1618.1000000238419","Welcome! Press the space bar to begin.","32","","","","","","","","","","","","","","","","","","",""
"audio-keyboard-response","2","6472","0.0-2.0","3932","7269","25","Male","true","false","true","true","
","
","
","
","
","4719","audio/beep_loop.wav","32","","","","","","","","","","","","","","","","","","",""
"audio-button-response","3","8543","0.0-3.0","3932","7269","25","Male","true","false","true","true","
","
","
","
","
","NaN","audio/fish.mp3","","1","","","","","","","","","","","","","","","","","",""
"audio-button-response","4","11307","0.0-4.0","3932","7269","25","Male","true","false","true","true","""event"",""trial"",""time""
""fullscreenenter"",""5"",""14518""
","
","
","""event"",""trial"",""time""
""fullscreenenter"",""5"",""14518""
","
","NaN","audio/tiger.mp3","","4","","","","","","","","","","","","","","","","","",""
"fullscreen","5","15519","0.0-5.0","3932","7269","25","Male","true","false","true","true","""event"",""trial"",""time""
""fullscreenenter"",""5"",""14518""
","
","
","""event"",""trial"",""time""
""fullscreenenter"",""5"",""14518""
","
","","","","","true","","","","","","","","","","","","","","","","",""
"d3-instructions","6","27291","0.0-6.0","3932","7269","25","Male","true","false","true","true","""event"",""trial"",""time""
""fullscreenenter"",""5"",""14518""
","
","
","""event"",""trial"",""time""
""fullscreenenter"",""5"",""14518""
","
","","","","","","","","","","","","","","","","","","","","","",""
"d3-instructions","7","33651","0.0-7.0","3932","7269","25","Male","true","false","true","true","""event"",""trial"",""time""
""fullscreenenter"",""5"",""14518""
","
","
","""event"",""trial"",""time""
""fullscreenenter"",""5"",""14518""
","
","","","","","","","","","","","","","","","","","","","","","",""
"d3-instructions","8","39714","0.0-8.0","3932","7269","25","Male","true","false","true","true","""event"",""trial"",""time""
""fullscreenenter"",""5"",""14518""
","
","
","""event"",""trial"",""time""
""fullscreenenter"",""5"",""14518""
","
","","","","","","","","","","","","","","","","","","","","","",""
"d3-instructions","9","44023","0.0-9.0","3932","7269","25","Male","true","false","true","true","""event"",""trial"",""time""
""fullscreenenter"",""5"",""14518""
","
","
","""event"",""trial"",""time""
""fullscreenenter"",""5"",""14518""
","
","","","","","","","","","","","","","","","","","","","","","",""
"d3-instructions","10","47702","0.0-10.0","3932","7269","25","Male","true","false","true","true","""event"",""trial"",""time""
""fullscreenenter"",""5"",""14518""
","
","
","""event"",""trial"",""time""
""fullscreenenter"",""5"",""14518""
","
","","","","","","","","","","","","","","","","","","","","","",""
"d3-animate-choice","11","53162","0.0-11.0","3932","7269","25","Male","true","false","true","true","""event"",""trial"",""time""
""fullscreenenter"",""5"",""14518""
","
","
","""event"",""trial"",""time""
""fullscreenenter"",""5"",""14518""
","
","3454.2000000476837","","49","","","3000","1","","","images/tutgreenplanet.jpg","images/tutalien1","images/tutalien2","null","images/tutalien2","","NA","practice","null","","","",""
"d3-animate-choice","12","59649","0.0-12.0","3932","7269","25","Male","true","false","true","true","""event"",""trial"",""time""
""fullscreenenter"",""5"",""14518""
","
","
","""event"",""trial"",""time""
""fullscreenenter"",""5"",""14518""
","
","1691.6999999284744","","50","","","3000","1","4476.5","48","images/tutgreenplanet.jpg","images/tutalien1","images/tutalien2","null","images/tutalien1","","NA","practice","null","","","",""
"d3-animate-choice","13","62996","0.0-13.0","3932","7269","25","Male","true","false","true","true","""event"",""trial"",""time""
""fullscreenenter"",""5"",""14518""
","
","
","""event"",""trial"",""time""
""fullscreenenter"",""5"",""14518""
","
","1338","","49","","","3000","1","","","images/tutgreenplanet.jpg","images/tutalien1","images/tutalien2","null","images/tutalien2","","NA","practice","null","","","",""
"d3-animate-choice","14","65492","0.0-14.0","3932","7269","25","Male","true","false","true","true","""event"",""trial"",""time""
""fullscreenenter"",""5"",""14518""
","
","
","""event"",""trial"",""time""
""fullscreenenter"",""5"",""14518""
","
","489.7999999523163","","49","","","3000","1","","","images/tutgreenplanet.jpg","images/tutalien1","images/tutalien2","null","images/tutalien2","","NA","practice","null","","","",""
"d3-instructions","15","72045","0.0-15.0","3932","7269","25","Male","true","false","true","true","""event"",""trial"",""time""
""fullscreenenter"",""5"",""14518""
","
","
","""event"",""trial"",""time""
""fullscreenenter"",""5"",""14518""
","
","","","","","","","","","","","","","","","","","","","","","",""
"d3-instructions","16","74094","0.0-16.0","3932","7269","25","Male","true","false","true","true","""event"",""trial"",""time""
""fullscreenenter"",""5"",""14518""
","
","
","""event"",""trial"",""time""
""fullscreenenter"",""5"",""14518""
","
","","","","","","","","","","","","","","","","","","","","","",""
"d3-instructions","17","78935","0.0-17.0","3932","7269","25","Male","true","false","true","true","""event"",""trial"",""time""
""fullscreenenter"",""5"",""14518""
","
","
","""event"",""trial"",""time""
""fullscreenenter"",""5"",""14518""
","
","","","","","","","","","","","","","","","","","","","","","",""
"d3-instructions","18","83417","0.0-18.0","3932","7269","25","Male","true","false","true","true","""event"",""trial"",""time""
""fullscreenenter"",""5"",""14518""
","
","
","""event"",""trial"",""time""
""fullscreenenter"",""5"",""14518""
","
","","","","","","","","","","","","","","","","","","","","","",""
"d3-instructions","19","95116","0.0-19.0","3932","7269","25","Male","true","false","true","true","""event"",""trial"",""time""
""fullscreenenter"",""5"",""14518""
","
","
","""event"",""trial"",""time""
""fullscreenenter"",""5"",""14518""
","
","","","","","","","","","","","","","","","","","","","","","",""
"d3-animate-choice","20","97861","0.0-20.0","3932","7269","25","Male","true","false","true","true","""event"",""trial"",""time""
""fullscreenenter"",""5"",""14518""
","
","
","""event"",""trial"",""time""
""fullscreenenter"",""5"",""14518""
","
","739.6000000238419","","49","","","3000","1","","","images/tutyellowplanet.jpg","null","images/tutalien3","null","images/tutalien3","images/t.png","NA","practice","null","","","",""
"d3-animate-choice","21","100317","0.0-21.0","3932","7269","25","Male","true","false","true","true","""event"",""trial"",""time""
""fullscreenenter"",""5"",""14518""
","
","
","""event"",""trial"",""time""
""fullscreenenter"",""5"",""14518""
","
","445.2000000476837","","49","","","3000","1","","","images/tutyellowplanet.jpg","null","images/tutalien3","null","images/tutalien3","images/t.png","NA","practice","null","","","",""
"d3-animate-choice","22","102715","0.0-22.0","3932","7269","25","Male","true","false","true","true","""event"",""trial"",""time""
""fullscreenenter"",""5"",""14518""
","
","
","""event"",""trial"",""time""
""fullscreenenter"",""5"",""14518""
","
","386.7000000476837","","49","","","3000","1","","","images/tutyellowplanet.jpg","null","images/tutalien3","null","images/tutalien3","images/t.png","NA","practice","null","","","",""
"d3-animate-choice","23","105124","0.0-23.0","3932","7269","25","Male","true","false","true","true","""event"",""trial"",""time""
""fullscreenenter"",""5"",""14518""
","
","
","""event"",""trial"",""time""
""fullscreenenter"",""5"",""14518""
","
","401.7999999523163","","49","","","3000","1","","","images/tutyellowplanet.jpg","null","images/tutalien3","null","images/tutalien3","images/t.png","NA","practice","null","","","",""
"d3-animate-choice","24","107455","0.0-24.0","3932","7269","25","Male","true","false","true","true","""event"",""trial"",""time""
""fullscreenenter"",""5"",""14518""
","
","
","""event"",""trial"",""time""
""fullscreenenter"",""5"",""14518""
","
","322.39999997615814","","49","","","3000","1","","","images/tutyellowplanet.jpg","null","images/tutalien3","null","images/tutalien3","images/t.png","NA","practice","null","","","",""
"d3-animate-choice","25","109861","0.0-25.0","3932","7269","25","Male","true","false","true","true","""event"",""trial"",""time""
""fullscreenenter"",""5"",""14518""
","
","
","""event"",""trial"",""time""
""fullscreenenter"",""5"",""14518""
","
","397.7000000476837","","49","","","3000","1","","","images/tutyellowplanet.jpg","null","images/tutalien3","null","images/tutalien3","images/t.png","NA","practice","null","","","",""
"d3-animate-choice","26","112131","0.0-26.0","3932","7269","25","Male","true","false","true","true","""event"",""trial"",""time""
""fullscreenenter"",""5"",""14518""
","
","
","""event"",""trial"",""time""
""fullscreenenter"",""5"",""14518""
","
","259.90000009536743","","49","","","3000","1","","","images/tutyellowplanet.jpg","null","images/tutalien3","null","images/tutalien3","images/t.png","NA","practice","null","","","",""
"d3-animate-choice","27","114443","0.0-27.0","3932","7269","25","Male","true","false","true","true","""event"",""trial"",""time""
""fullscreenenter"",""5"",""14518""
","
","
","""event"",""trial"",""time""
""fullscreenenter"",""5"",""14518""
","
","307.5","","49","","","3000","1","","","images/tutyellowplanet.jpg","null","images/tutalien3","null","images/tutalien3","images/t.png","NA","practice","null","","","",""
"d3-animate-choice","28","116740","0.0-28.0","3932","7269","25","Male","true","false","true","true","""event"",""trial"",""time""
""fullscreenenter"",""5"",""14518""
","
","
","""event"",""trial"",""time""
""fullscreenenter"",""5"",""14518""
","
","290.2000000476837","","49","","","3000","1","","","images/tutyellowplanet.jpg","null","images/tutalien3","null","images/tutalien3","images/t.png","NA","practice","null","","","",""
"d3-animate-choice","29","119108","0.0-29.0","3932","7269","25","Male","true","false","true","true","""event"",""trial"",""time""
""fullscreenenter"",""5"",""14518""
","
","
","""event"",""trial"",""time""
""fullscreenenter"",""5"",""14518""
","
","360.7000000476837","","49","","","3000","1","","","images/tutyellowplanet.jpg","null","images/tutalien3","null","images/tutalien3","images/t.png","NA","practice","null","","","",""
"d3-instructions","30","122222","0.0-30.0","3932","7269","25","Male","true","false","true","true","""event"",""trial"",""time""
""fullscreenenter"",""5"",""14518""
","
","
","""event"",""trial"",""time""
""fullscreenenter"",""5"",""14518""
","
","","","","","","","","","","","","","","","","","","","","","",""
"d3-instructions","31","125731","0.0-31.0","3932","7269","25","Male","true","false","true","true","""event"",""trial"",""time""
""fullscreenenter"",""5"",""14518""
","
","
","""event"",""trial"",""time""
""fullscreenenter"",""5"",""14518""
","
","","","","","","","","","","","","","","","","","","","","","",""
"d3-instructions","32","127047","0.0-32.0","3932","7269","25","Male","true","false","true","true","""event"",""trial"",""time""
""fullscreenenter"",""5"",""14518""
","
","
","""event"",""trial"",""time""
""fullscreenenter"",""5"",""14518""
","
","","","","","","","","","","","","","","","","","","","","","",""
"d3-instructions","33","130917","0.0-33.0","3932","7269","25","Male","true","false","true","true","""event"",""trial"",""time""
""fullscreenenter"",""5"",""14518""
","
","
","""event"",""trial"",""time""
""fullscreenenter"",""5"",""14518""
","
","","","","","","","","","","","","","","","","","","","","","",""
"d3-animate-choice","34","133917","0.0-34.0","3932","7269","25","Male","true","false","true","true","""event"",""trial"",""time""
""fullscreenenter"",""5"",""14518""
","
","
","""event"",""trial"",""time""
""fullscreenenter"",""5"",""14518""
","
","991.0999999046326","","49","","","3000","1","","","images/tutgreenplanet.jpg","images/tutalien1","images/tutalien2","null","images/tutalien2","images/t.png","NA","practice","null","","","",""
"d3-animate-choice","35","136404","0.0-35.0","3932","7269","25","Male","true","false","true","true","""event"",""trial"",""time""
""fullscreenenter"",""5"",""14518""
","
","
","""event"",""trial"",""time""
""fullscreenenter"",""5"",""14518""
","
","477.2999999523163","","49","","","3000","1","","","images/tutgreenplanet.jpg","images/tutalien1","images/tutalien2","null","images/tutalien2","images/t.png","NA","practice","null","","","",""
"d3-animate-choice","36","138875","0.0-36.0","3932","7269","25","Male","true","false","true","true","""event"",""trial"",""time""
""fullscreenenter"",""5"",""14518""
","
","
","""event"",""trial"",""time""
""fullscreenenter"",""5"",""14518""
","
","464.6999999284744","","49","","","3000","1","","","images/tutgreenplanet.jpg","images/tutalien1","images/tutalien2","null","images/tutalien2","images/t.png","NA","practice","null","","","",""
"d3-animate-choice","37","141196","0.0-37.0","3932","7269","25","Male","true","false","true","true","""event"",""trial"",""time""
""fullscreenenter"",""5"",""14518""
","
","
","""event"",""trial"",""time""
""fullscreenenter"",""5"",""14518""
","
","312.60000002384186","","49","","","3000","1","","","images/tutgreenplanet.jpg","images/tutalien1","images/tutalien2","null","images/tutalien2","images/t.png","NA","practice","null","","","",""
"d3-animate-choice","38","143583","0.0-38.0","3932","7269","25","Male","true","false","true","true","""event"",""trial"",""time""
""fullscreenenter"",""5"",""14518""
","
","
","""event"",""trial"",""time""
""fullscreenenter"",""5"",""14518""
","
","375.10000002384186","","49","","","3000","1","","","images/tutgreenplanet.jpg","images/tutalien1","images/tutalien2","null","images/tutalien2","images/t.png","NA","practice","null","","","",""
"d3-animate-choice","39","146044","0.0-39.0","3932","7269","25","Male","true","false","true","true","""event"",""trial"",""time""
""fullscreenenter"",""5"",""14518""
","
","
","""event"",""trial"",""time""
""fullscreenenter"",""5"",""14518""
","
","457.5","","49","","","3000","1","","","images/tutgreenplanet.jpg","images/tutalien1","images/tutalien2","null","images/tutalien2","images/t.png","NA","practice","null","","","",""
"d3-animate-choice","40","148256","0.0-40.0","3932","7269","25","Male","true","false","true","true","""event"",""trial"",""time""
""fullscreenenter"",""5"",""14518""
","
","
","""event"",""trial"",""time""
""fullscreenenter"",""5"",""14518""
","
","199.60000002384186","","49","","","3000","1","2141.2000000476837","49","images/tutgreenplanet.jpg","images/tutalien1","images/tutalien2","null","images/tutalien2","images/t.png","NA","practice","null","","","",""
"d3-animate-choice","41","150532","0.0-41.0","3932","7269","25","Male","true","false","true","true","""event"",""trial"",""time""
""fullscreenenter"",""5"",""14518""
","
","
","""event"",""trial"",""time""
""fullscreenenter"",""5"",""14518""
","
","267.60000002384186","","49","","","3000","1","","","images/tutgreenplanet.jpg","images/tutalien1","images/tutalien2","null","images/tutalien2","images/t.png","NA","practice","null","","","",""
"d3-animate-choice","42","153013","0.0-42.0","3932","7269","25","Male","true","false","true","true","""event"",""trial"",""time""
""fullscreenenter"",""5"",""14518""
","
","
","""event"",""trial"",""time""
""fullscreenenter"",""5"",""14518""
","
","474.89999997615814","","49","","","3000","1","","","images/tutgreenplanet.jpg","images/tutalien1","images/tutalien2","null","images/tutalien2","images/t.png","NA","practice","null","","","",""
"d3-animate-choice","43","155383","0.0-43.0","3932","7269","25","Male","true","false","true","true","""event"",""trial"",""time""
""fullscreenenter"",""5"",""14518""
","
","
","""event"",""trial"",""time""
""fullscreenenter"",""5"",""14518""
","
","362.59999990463257","","49","","","3000","1","","","images/tutgreenplanet.jpg","images/tutalien1","images/tutalien2","null","images/tutalien2","images/t.png","NA","practice","null","","","",""
"d3-instructions","44","166402","0.0-44.0","3932","7269","25","Male","true","false","true","true","""event"",""trial"",""time""
""fullscreenenter"",""5"",""14518""
","
","
","""event"",""trial"",""time""
""fullscreenenter"",""5"",""14518""
","
","","","","","","","","","","","","","","","","","","","","","",""
"d3-instructions","45","168607","0.0-45.0","3932","7269","25","Male","true","false","true","true","""event"",""trial"",""time""
""fullscreenenter"",""5"",""14518""
","
","
","""event"",""trial"",""time""
""fullscreenenter"",""5"",""14518""
","
","","","","","","","","","","","","","","","","","","","","","",""
"d3-instructions","46","170316","0.0-46.0","3932","7269","25","Male","true","false","true","true","""event"",""trial"",""time""
""fullscreenenter"",""5"",""14518""
","
","
","""event"",""trial"",""time""
""fullscreenenter"",""5"",""14518""
","
","","","","","","","","","","","","","","","","","","","","","",""
"d3-instructions","47","173194","0.0-47.0","3932","7269","25","Male","true","false","true","true","""event"",""trial"",""time""
""fullscreenenter"",""5"",""14518""
","
","
","""event"",""trial"",""time""
""fullscreenenter"",""5"",""14518""
","
","","","","","","","","","","","","","","","","","","","","","",""
"d3-instructions","48","174545","0.0-48.0","3932","7269","25","Male","true","false","true","true","""event"",""trial"",""time""
""fullscreenenter"",""5"",""14518""
","
","
","""event"",""trial"",""time""
""fullscreenenter"",""5"",""14518""
","
","","","","","","","","","","","","","","","","","","","","","",""
"d3-instructions","49","175582","0.0-49.0","3932","7269","25","Male","true","false","true","true","""event"",""trial"",""time""
""fullscreenenter"",""5"",""14518""
","
","
","""event"",""trial"",""time""
""fullscreenenter"",""5"",""14518""
","
","","","","","","","","","","","","","","","","","","","","","",""
"d3-instructions","50","178933","0.0-50.0","3932","7269","25","Male","true","false","true","true","""event"",""trial"",""time""
""fullscreenenter"",""5"",""14518""
","
","
","""event"",""trial"",""time""
""fullscreenenter"",""5"",""14518""
","
","","","","","","","","","","","","","","","","","","","","","",""
"d3-instructions","51","181813","0.0-51.0","3932","7269","25","Male","true","false","true","true","""event"",""trial"",""time""
""fullscreenenter"",""5"",""14518""
","
","
","""event"",""trial"",""time""
""fullscreenenter"",""5"",""14518""
","
","","","","","","","","","","","","","","","","","","","","","",""
"d3-instructions","52","182841","0.0-52.0","3932","7269","25","Male","true","false","true","true","""event"",""trial"",""time""
""fullscreenenter"",""5"",""14518""
","
","
","""event"",""trial"",""time""
""fullscreenenter"",""5"",""14518""
","
","","","","","","","","","","","","","","","","","","","","","",""
"d3-instructions","53","189438","0.0-53.0","3932","7269","25","Male","true","false","true","true","""event"",""trial"",""time""
""fullscreenenter"",""5"",""14518""
","
","
","""event"",""trial"",""time""
""fullscreenenter"",""5"",""14518""
","
","","","","","","","","","","","","","","","","","","","","","",""
"d3-instructions","54","191460","0.0-54.0","3932","7269","25","Male","true","false","true","true","""event"",""trial"",""time""
""fullscreenenter"",""5"",""14518""
","
","
","""event"",""trial"",""time""
""fullscreenenter"",""5"",""14518""
","
","","","","","","","","","","","","","","","","","","","","","",""
"d3-instructions","55","193284","0.0-55.0","3932","7269","25","Male","true","false","true","true","""event"",""trial"",""time""
""fullscreenenter"",""5"",""14518""
","
","
","""event"",""trial"",""time""
""fullscreenenter"",""5"",""14518""
","
","","","","","","","","","","","","","","","","","","","","","",""
"d3-instructions","56","194549","0.0-56.0","3932","7269","25","Male","true","false","true","true","""event"",""trial"",""time""
""fullscreenenter"",""5"",""14518""
","
","
","""event"",""trial"",""time""
""fullscreenenter"",""5"",""14518""
","
","","","","","","","","","","","","","","","","","","","","","",""
"d3-instructions","57","197719","0.0-57.0","3932","7269","25","Male","true","false","true","true","""event"",""trial"",""time""
""fullscreenenter"",""5"",""14518""
","
","
","""event"",""trial"",""time""
""fullscreenenter"",""5"",""14518""
","
","","","","","","","","","","","","","","","","","","","","","",""
"d3-instructions","58","205731","0.0-58.0","3932","7269","25","Male","true","false","true","true","""event"",""trial"",""time""
""fullscreenenter"",""5"",""14518""
","
","
","""event"",""trial"",""time""
""fullscreenenter"",""5"",""14518""
","
","","","","","","","","","","","","","","","","","","","","","",""
"d3-instructions","59","207307","0.0-59.0","3932","7269","25","Male","true","false","true","true","""event"",""trial"",""time""
""fullscreenenter"",""5"",""14518""
","
","
","""event"",""trial"",""time""
""fullscreenenter"",""5"",""14518""
","
","","","","","","","","","","","","","","","","","","","","","",""
"d3-instructions","60","211080","0.0-60.0","3932","7269","25","Male","true","false","true","true","""event"",""trial"",""time""
""fullscreenenter"",""5"",""14518""
","
","
","""event"",""trial"",""time""
""fullscreenenter"",""5"",""14518""
","
","","","","","","","","","","","","","","","","","","","","","",""
"d3-animate-choice","61","214081","0.0-61.0-0.0","3932","7269","25","Male","true","false","true","true","""event"",""trial"",""time""
""fullscreenenter"",""5"",""14518""
","
","
","""event"",""trial"",""time""
""fullscreenenter"",""5"",""14518""
","
","992.3000000715256","","49","","","3000","1","","","images/earth.jpg","images/tutrocket2","images/tutrocket1","null","images/tutrocket1","","1","practice","null","1","","",""
"d3-animate-choice","62","218096","0.0-61.0-1.0","3932","7269","25","Male","true","false","true","true","""event"",""trial"",""time""
""fullscreenenter"",""5"",""14518""
","
","
","""event"",""trial"",""time""
""fullscreenenter"",""5"",""14518""
","
","2351","","49","","","3000","1","","","images/tutyellowplanet.jpg","images/tutalien4","images/tutalien3","images/tutrocket1","images/tutalien3","images/t.png","2","practice","true","1","common","1","2023-03-04 13:18:50.342"
"two-step-fixation","63","219102","0.0-61.0-2.0","3932","7269","25","Male","true","false","true","true","""event"",""trial"",""time""
""fullscreenenter"",""5"",""14518""
","
","
","""event"",""trial"",""time""
""fullscreenenter"",""5"",""14518""
","
","","images/earth.jpg","","","","","","","","","","","","","","fixation","","","","","",""
"d3-animate-choice","64","221654","0.0-61.0-0.1","3932","7269","25","Male","true","false","true","true","""event"",""trial"",""time""
""fullscreenenter"",""5"",""14518""
","
","
","""event"",""trial"",""time""
""fullscreenenter"",""5"",""14518""
","
","547.2999999523163","","48","","","3000","1","","","images/earth.jpg","images/tutrocket2","images/tutrocket1","null","images/tutrocket2","","1","practice","null","2","","",""
"d3-animate-choice","65","224751","0.0-61.0-1.1","3932","7269","25","Male","true","false","true","true","""event"",""trial"",""time""
""fullscreenenter"",""5"",""14518""
","
","
","""event"",""trial"",""time""
""fullscreenenter"",""5"",""14518""
","
","1088","","48","","","3000","1","","","images/tutgreenplanet.jpg","images/tutalien2","images/tutalien1","images/tutrocket2","images/tutalien2","images/t.png","2","practice","true","2","common","1","2023-03-04 13:18:56.996"
"two-step-fixation","66","225758","0.0-61.0-2.1","3932","7269","25","Male","true","false","true","true","""event"",""trial"",""time""
""fullscreenenter"",""5"",""14518""
","
","
","""event"",""trial"",""time""
""fullscreenenter"",""5"",""14518""
","
","","images/earth.jpg","","","","","","","","","","","","","","fixation","","","","","",""
"d3-animate-choice","67","228610","0.0-61.0-0.2","3932","7269","25","Male","true","false","true","true","""event"",""trial"",""time""
""fullscreenenter"",""5"",""14518""
","
","
","""event"",""trial"",""time""
""fullscreenenter"",""5"",""14518""
","
","838.5","","49","","","3000","1","","","images/earth.jpg","images/tutrocket2","images/tutrocket1","null","images/tutrocket1","","1","practice","null","1","","",""
"d3-animate-choice","68","232112","0.0-61.0-1.2","3932","7269","25","Male","true","false","true","true","""event"",""trial"",""time""
""fullscreenenter"",""5"",""14518""
","
","
","""event"",""trial"",""time""
""fullscreenenter"",""5"",""14518""
","
","1496.1000000238419","","49","","","3000","1","","","images/tutgreenplanet.jpg","images/tutalien2","images/tutalien1","images/tutrocket1","images/tutalien1","images/nothing.png","2","practice","false","1","rare","0","2023-03-04 13:19:04.357"
"two-step-fixation","69","233122","0.0-61.0-2.2","3932","7269","25","Male","true","false","true","true","""event"",""trial"",""time""
""fullscreenenter"",""5"",""14518""
","
","
","""event"",""trial"",""time""
""fullscreenenter"",""5"",""14518""
","
","","images/earth.jpg","","","","","","","","","","","","","","fixation","","","","","",""
"d3-animate-choice","70","236048","0.0-61.0-0.3","3932","7269","25","Male","true","false","true","true","""event"",""trial"",""time""
""fullscreenenter"",""5"",""14518""
","
","
","""event"",""trial"",""time""
""fullscreenenter"",""5"",""14518""
","
","913.9000000953674","","48","","","3000","1","","","images/earth.jpg","images/tutrocket2","images/tutrocket1","null","images/tutrocket2","","1","practice","null","2","","",""
"d3-animate-choice","71","239206","0.0-61.0-1.3","3932","7269","25","Male","true","false","true","true","""event"",""trial"",""time""
""fullscreenenter"",""5"",""14518""
","
","
","""event"",""trial"",""time""
""fullscreenenter"",""5"",""14518""
","
","1153.7000000476837","","48","","","3000","1","","","images/tutgreenplanet.jpg","images/tutalien2","images/tutalien1","images/tutrocket2","images/tutalien2","images/nothing.png","2","practice","true","2","common","0","2023-03-04 13:19:11.451"
"two-step-fixation","72","240216","0.0-61.0-2.3","3932","7269","25","Male","true","false","true","true","""event"",""trial"",""time""
""fullscreenenter"",""5"",""14518""
","
","
","""event"",""trial"",""time""
""fullscreenenter"",""5"",""14518""
","
","","images/earth.jpg","","","","","","","","","","","","","","fixation","","","","","",""
"d3-animate-choice","73","242359","0.0-61.0-0.4","3932","7269","25","Male","true","false","true","true","""event"",""trial"",""time""
""fullscreenenter"",""5"",""14518""
","
","
","""event"",""trial"",""time""
""fullscreenenter"",""5"",""14518""
","
","136.40000009536743","","48","","","3000","1","","","images/earth.jpg","images/tutrocket2","images/tutrocket1","null","images/tutrocket2","","1","practice","null","2","","",""
"d3-animate-choice","74","246295","0.0-61.0-1.4","3932","7269","25","Male","true","false","true","true","""event"",""trial"",""time""
""fullscreenenter"",""5"",""14518""
","
","
","""event"",""trial"",""time""
""fullscreenenter"",""5"",""14518""
","
","1927.6999999284744","","49","","","3000","1","","","images/tutgreenplanet.jpg","images/tutalien2","images/tutalien1","images/tutrocket2","images/tutalien1","images/nothing.png","2","practice","true","1","common","0","2023-03-04 13:19:18.540"
"two-step-fixation","75","247299","0.0-61.0-2.4","3932","7269","25","Male","true","false","true","true","""event"",""trial"",""time""
""fullscreenenter"",""5"",""14518""
","
","
","""event"",""trial"",""time""
""fullscreenenter"",""5"",""14518""
","
","","images/earth.jpg","","","","","","","","","","","","","","fixation","","","","","",""
"d3-animate-choice","76","250201","0.0-61.0-0.5","3932","7269","25","Male","true","false","true","true","""event"",""trial"",""time""
""fullscreenenter"",""5"",""14518""
","
","
","""event"",""trial"",""time""
""fullscreenenter"",""5"",""14518""
","
","888.5","","48","","","3000","1","","","images/earth.jpg","images/tutrocket2","images/tutrocket1","null","images/tutrocket2","","1","practice","null","2","","",""
"d3-animate-choice","77","252883","0.0-61.0-1.5","3932","7269","25","Male","true","false","true","true","""event"",""trial"",""time""
""fullscreenenter"",""5"",""14518""
","
","
","""event"",""trial"",""time""
""fullscreenenter"",""5"",""14518""
","
","669.7000000476837","","48","","","3000","1","","","images/tutgreenplanet.jpg","images/tutalien2","images/tutalien1","images/tutrocket2","images/tutalien2","images/nothing.png","2","practice","true","2","common","0","2023-03-04 13:19:25.128"
"two-step-fixation","78","253888","0.0-61.0-2.5","3932","7269","25","Male","true","false","true","true","""event"",""trial"",""time""
""fullscreenenter"",""5"",""14518""
","
","
","""event"",""trial"",""time""
""fullscreenenter"",""5"",""14518""
","
","","images/earth.jpg","","","","","","","","","","","","","","fixation","","","","","",""
"d3-animate-choice","79","256175","0.0-61.0-0.6","3932","7269","25","Male","true","false","true","true","""event"",""trial"",""time""
""fullscreenenter"",""5"",""14518""
","
","
","""event"",""trial"",""time""
""fullscreenenter"",""5"",""14518""
","
","277.5","","49","","","3000","1","","","images/earth.jpg","images/tutrocket2","images/tutrocket1","null","images/tutrocket1","","1","practice","null","1","","",""
"d3-animate-choice","80","258961","0.0-61.0-1.6","3932","7269","25","Male","true","false","true","true","""event"",""trial"",""time""
""fullscreenenter"",""5"",""14518""
","
","
","""event"",""trial"",""time""
""fullscreenenter"",""5"",""14518""
","
","777.6000000238419","","49","","","3000","1","","","images/tutgreenplanet.jpg","images/tutalien2","images/tutalien1","images/tutrocket1","images/tutalien1","images/nothing.png","2","practice","false","1","rare","0","2023-03-04 13:19:31.206"
"two-step-fixation","81","259967","0.0-61.0-2.6","3932","7269","25","Male","true","false","true","true","""event"",""trial"",""time""
""fullscreenenter"",""5"",""14518""
","
","
","""event"",""trial"",""time""
""fullscreenenter"",""5"",""14518""
","
","","images/earth.jpg","","","","","","","","","","","","","","fixation","","","","","",""
"d3-animate-choice","82","262369","0.0-61.0-0.7","3932","7269","25","Male","true","false","true","true","""event"",""trial"",""time""
""fullscreenenter"",""5"",""14518""
","
","
","""event"",""trial"",""time""
""fullscreenenter"",""5"",""14518""
","
","396.1999999284744","","49","","","3000","1","","","images/earth.jpg","images/tutrocket2","images/tutrocket1","null","images/tutrocket1","","1","practice","null","1","","",""
"d3-animate-choice","83","265928","0.0-61.0-1.7","3932","7269","25","Male","true","false","true","true","""event"",""trial"",""time""
""fullscreenenter"",""5"",""14518""
","
","
","""event"",""trial"",""time""
""fullscreenenter"",""5"",""14518""
","
","1547.2000000476837","","49","","","3000","1","","","images/tutyellowplanet.jpg","images/tutalien4","images/tutalien3","images/tutrocket1","images/tutalien3","images/nothing.png","2","practice","true","1","common","0","2023-03-04 13:19:38.173"
"two-step-fixation","84","266938","0.0-61.0-2.7","3932","7269","25","Male","true","false","true","true","""event"",""trial"",""time""
""fullscreenenter"",""5"",""14518""
","
","
","""event"",""trial"",""time""
""fullscreenenter"",""5"",""14518""
","
","","images/earth.jpg","","","","","","","","","","","","","","fixation","","","","","",""
"d3-animate-choice","85","269329","0.0-61.0-0.8","3932","7269","25","Male","true","false","true","true","""event"",""trial"",""time""
""fullscreenenter"",""5"",""14518""
","
","
","""event"",""trial"",""time""
""fullscreenenter"",""5"",""14518""
","
","381.8000000715256","","49","","","3000","1","","","images/earth.jpg","images/tutrocket2","images/tutrocket1","null","images/tutrocket1","","1","practice","null","1","","",""
"d3-animate-choice","86","271855","0.0-61.0-1.8","3932","7269","25","Male","true","false","true","true","""event"",""trial"",""time""
""fullscreenenter"",""5"",""14518""
","
","
","""event"",""trial"",""time""
""fullscreenenter"",""5"",""14518""
","
","515.0999999046326","","48","","","3000","1","","","images/tutgreenplanet.jpg","images/tutalien2","images/tutalien1","images/tutrocket1","images/tutalien2","images/t.png","2","practice","false","2","rare","1","2023-03-04 13:19:44.100"
"two-step-fixation","87","272865","0.0-61.0-2.8","3932","7269","25","Male","true","false","true","true","""event"",""trial"",""time""
""fullscreenenter"",""5"",""14518""
","
","
","""event"",""trial"",""time""
""fullscreenenter"",""5"",""14518""
","
","","images/earth.jpg","","","","","","","","","","","","","","fixation","","","","","",""
"d3-animate-choice","88","275204","0.0-61.0-0.9","3932","7269","25","Male","true","false","true","true","""event"",""trial"",""time""
""fullscreenenter"",""5"",""14518""
","
","
","""event"",""trial"",""time""
""fullscreenenter"",""5"",""14518""
","
","326.89999997615814","","49","","","3000","1","","","images/earth.jpg","images/tutrocket2","images/tutrocket1","null","images/tutrocket1","","1","practice","null","1","","",""
"d3-animate-choice","89","278072","0.0-61.0-1.9","3932","7269","25","Male","true","false","true","true","""event"",""trial"",""time""
""fullscreenenter"",""5"",""14518""
","
","
","""event"",""trial"",""time""
""fullscreenenter"",""5"",""14518""
","
","858.8999999761581","","48","","","3000","1","","","images/tutyellowplanet.jpg","images/tutalien4","images/tutalien3","images/tutrocket1","images/tutalien4","images/t.png","2","practice","true","2","common","1","2023-03-04 13:19:50.317"
"two-step-fixation","90","279082","0.0-61.0-2.9","3932","7269","25","Male","true","false","true","true","""event"",""trial"",""time""
""fullscreenenter"",""5"",""14518""
","
","
","""event"",""trial"",""time""
""fullscreenenter"",""5"",""14518""
","
","","images/earth.jpg","","","","","","","","","","","","","","fixation","","","","","",""
"d3-animate-choice","91","281503","0.0-61.0-0.10","3932","7269","25","Male","true","false","true","true","""event"",""trial"",""time""
""fullscreenenter"",""5"",""14518""
","
","
","""event"",""trial"",""time""
""fullscreenenter"",""5"",""14518""
","
","414.2000000476837","","49","","","3000","1","","","images/earth.jpg","images/tutrocket2","images/tutrocket1","null","images/tutrocket1","","1","practice","null","1","","",""
"d3-animate-choice","92","284992","0.0-61.0-1.10","3932","7269","25","Male","true","false","true","true","""event"",""trial"",""time""
""fullscreenenter"",""5"",""14518""
","
","
","""event"",""trial"",""time""
""fullscreenenter"",""5"",""14518""
","
","1484.1999999284744","","49","","","3000","1","","","images/tutgreenplanet.jpg","images/tutalien2","images/tutalien1","images/tutrocket1","images/tutalien1","images/nothing.png","2","practice","false","1","rare","0","2023-03-04 13:19:57.237"
"two-step-fixation","93","286002","0.0-61.0-2.10","3932","7269","25","Male","true","false","true","true","""event"",""trial"",""time""
""fullscreenenter"",""5"",""14518""
","
","
","""event"",""trial"",""time""
""fullscreenenter"",""5"",""14518""
","
","","images/earth.jpg","","","","","","","","","","","","","","fixation","","","","","",""
"d3-animate-choice","94","288364","0.0-61.0-0.11","3932","7269","25","Male","true","false","true","true","""event"",""trial"",""time""
""fullscreenenter"",""5"",""14518""
","
","
","""event"",""trial"",""time""
""fullscreenenter"",""5"",""14518""
","
","353.5","","49","","","3000","1","","","images/earth.jpg","images/tutrocket2","images/tutrocket1","null","images/tutrocket1","","1","practice","null","1","","",""
"d3-animate-choice","95","291714","0.0-61.0-1.11","3932","7269","25","Male","true","false","true","true","""event"",""trial"",""time""
""fullscreenenter"",""5"",""14518""
","
","
","""event"",""trial"",""time""
""fullscreenenter"",""5"",""14518""
","
","1340.6000000238419","","48","","","3000","1","","","images/tutyellowplanet.jpg","images/tutalien4","images/tutalien3","images/tutrocket1","images/tutalien4","images/t.png","2","practice","true","2","common","1","2023-03-04 13:20:03.959"
"two-step-fixation","96","292724","0.0-61.0-2.11","3932","7269","25","Male","true","false","true","true","""event"",""trial"",""time""
""fullscreenenter"",""5"",""14518""
","
","
","""event"",""trial"",""time""
""fullscreenenter"",""5"",""14518""
","
","","images/earth.jpg","","","","","","","","","","","","","","fixation","","","","","",""
"d3-animate-choice","97","295180","0.0-61.0-0.12","3932","7269","25","Male","true","false","true","true","""event"",""trial"",""time""
""fullscreenenter"",""5"",""14518""
","
","
","""event"",""trial"",""time""
""fullscreenenter"",""5"",""14518""
","
","445.2000000476837","","49","","","3000","1","","","images/earth.jpg","images/tutrocket2","images/tutrocket1","null","images/tutrocket1","","1","practice","null","1","","",""
"d3-animate-choice","98","297908","0.0-61.0-1.12","3932","7269","25","Male","true","false","true","true","""event"",""trial"",""time""
""fullscreenenter"",""5"",""14518""
","
","
","""event"",""trial"",""time""
""fullscreenenter"",""5"",""14518""
","
","719.8000000715256","","48","","","3000","1","","","images/tutyellowplanet.jpg","images/tutalien4","images/tutalien3","images/tutrocket1","images/tutalien4","images/t.png","2","practice","true","2","common","1","2023-03-04 13:20:10.153"
"two-step-fixation","99","298913","0.0-61.0-2.12","3932","7269","25","Male","true","false","true","true","""event"",""trial"",""time""
""fullscreenenter"",""5"",""14518""
","
","
","""event"",""trial"",""time""
""fullscreenenter"",""5"",""14518""
","
","","images/earth.jpg","","","","","","","","","","","","","","fixation","","","","","",""
"d3-animate-choice","100","301403","0.0-61.0-0.13","3932","7269","25","Male","true","false","true","true","""event"",""trial"",""time""
""fullscreenenter"",""5"",""14518""
","
","
","""event"",""trial"",""time""
""fullscreenenter"",""5"",""14518""
","
","482.09999990463257","","49","","","3000","1","","","images/earth.jpg","images/tutrocket2","images/tutrocket1","null","images/tutrocket1","","1","practice","null","1","","",""
"d3-animate-choice","101","305229","0.0-61.0-1.13","3932","7269","25","Male","true","false","true","true","""event"",""trial"",""time""
""fullscreenenter"",""5"",""14518""
","
","
","""event"",""trial"",""time""
""fullscreenenter"",""5"",""14518""
","
","1818.5","","48","","","3000","1","","","images/tutgreenplanet.jpg","images/tutalien2","images/tutalien1","images/tutrocket1","images/tutalien2","images/nothing.png","2","practice","false","2","rare","0","2023-03-04 13:20:17.474"
"two-step-fixation","102","306232","0.0-61.0-2.13","3932","7269","25","Male","true","false","true","true","""event"",""trial"",""time""
""fullscreenenter"",""5"",""14518""
","
","
","""event"",""trial"",""time""
""fullscreenenter"",""5"",""14518""
","
","","images/earth.jpg","","","","","","","","","","","","","","fixation","","","","","",""
"d3-animate-choice","103","308648","0.0-61.0-0.14","3932","7269","25","Male","true","false","true","true","""event"",""trial"",""time""
""fullscreenenter"",""5"",""14518""
","
","
","""event"",""trial"",""time""
""fullscreenenter"",""5"",""14518""
","
","405.89999997615814","","49","","","3000","1","","","images/earth.jpg","images/tutrocket2","images/tutrocket1","null","images/tutrocket1","","1","practice","null","1","","",""
"d3-animate-choice","104","311352","0.0-61.0-1.14","3932","7269","25","Male","true","false","true","true","""event"",""trial"",""time""
""fullscreenenter"",""5"",""14518""
","
","
","""event"",""trial"",""time""
""fullscreenenter"",""5"",""14518""
","
","695.1000000238419","","48","","","3000","1","","","images/tutyellowplanet.jpg","images/tutalien4","images/tutalien3","images/tutrocket1","images/tutalien4","images/nothing.png","2","practice","true","2","common","0","2023-03-04 13:20:23.597"
"two-step-fixation","105","312363","0.0-61.0-2.14","3932","7269","25","Male","true","false","true","true","""event"",""trial"",""time""
""fullscreenenter"",""5"",""14518""
","
","
","""event"",""trial"",""time""
""fullscreenenter"",""5"",""14518""
","
","","images/earth.jpg","","","","","","","","","","","","","","fixation","","","","","",""
"d3-animate-choice","106","314449","0.0-61.0-0.15","3932","7269","25","Male","true","false","true","true","""event"",""trial"",""time""
""fullscreenenter"",""5"",""14518""
","
","
","""event"",""trial"",""time""
""fullscreenenter"",""5"",""14518""
","
","76.89999997615814","","49","","","3000","1","","","images/earth.jpg","images/tutrocket2","images/tutrocket1","null","images/tutrocket1","","1","practice","null","1","","",""
"d3-animate-choice","107","317001","0.0-61.0-1.15","3932","7269","25","Male","true","false","true","true","""event"",""trial"",""time""
""fullscreenenter"",""5"",""14518""
","
","
","""event"",""trial"",""time""
""fullscreenenter"",""5"",""14518""
","
","544.5","","48","","","3000","1","","","images/tutgreenplanet.jpg","images/tutalien2","images/tutalien1","images/tutrocket1","images/tutalien2","images/t.png","2","practice","false","2","rare","1","2023-03-04 13:20:29.246"
"two-step-fixation","108","318011","0.0-61.0-2.15","3932","7269","25","Male","true","false","true","true","""event"",""trial"",""time""
""fullscreenenter"",""5"",""14518""
","
","
","""event"",""trial"",""time""
""fullscreenenter"",""5"",""14518""
","
","","images/earth.jpg","","","","","","","","","","","","","","fixation","","","","","",""
"d3-animate-choice","109","320496","0.0-61.0-0.16","3932","7269","25","Male","true","false","true","true","""event"",""trial"",""time""
""fullscreenenter"",""5"",""14518""
","
","
","""event"",""trial"",""time""
""fullscreenenter"",""5"",""14518""
","
","481.7000000476837","","49","","","3000","1","","","images/earth.jpg","images/tutrocket2","images/tutrocket1","null","images/tutrocket1","","1","practice","null","1","","",""
"d3-animate-choice","110","323056","0.0-61.0-1.16","3932","7269","25","Male","true","false","true","true","""event"",""trial"",""time""
""fullscreenenter"",""5"",""14518""
","
","
","""event"",""trial"",""time""
""fullscreenenter"",""5"",""14518""
","
","556.7000000476837","","48","","","3000","1","","","images/tutgreenplanet.jpg","images/tutalien2","images/tutalien1","images/tutrocket1","images/tutalien2","images/nothing.png","2","practice","false","2","rare","0","2023-03-04 13:20:35.301"
"two-step-fixation","111","324066","0.0-61.0-2.16","3932","7269","25","Male","true","false","true","true","""event"",""trial"",""time""
""fullscreenenter"",""5"",""14518""
","
","
","""event"",""trial"",""time""
""fullscreenenter"",""5"",""14518""
","
","","images/earth.jpg","","","","","","","","","","","","","","fixation","","","","","",""
"d3-animate-choice","112","326557","0.0-61.0-0.17","3932","7269","25","Male","true","false","true","true","""event"",""trial"",""time""
""fullscreenenter"",""5"",""14518""
","
","
","""event"",""trial"",""time""
""fullscreenenter"",""5"",""14518""
","
","487.59999990463257","","48","","","3000","1","","","images/earth.jpg","images/tutrocket2","images/tutrocket1","null","images/tutrocket2","","1","practice","null","2","","",""
"d3-animate-choice","113","329268","0.0-61.0-1.17","3932","7269","25","Male","true","false","true","true","""event"",""trial"",""time""
""fullscreenenter"",""5"",""14518""
","
","
","""event"",""trial"",""time""
""fullscreenenter"",""5"",""14518""
","
","700","","48","","","3000","1","","","images/tutyellowplanet.jpg","images/tutalien4","images/tutalien3","images/tutrocket2","images/tutalien4","images/t.png","2","practice","false","2","rare","1","2023-03-04 13:20:41.513"
"two-step-fixation","114","330276","0.0-61.0-2.17","3932","7269","25","Male","true","false","true","true","""event"",""trial"",""time""
""fullscreenenter"",""5"",""14518""
","
","
","""event"",""trial"",""time""
""fullscreenenter"",""5"",""14518""
","
","","images/earth.jpg","","","","","","","","","","","","","","fixation","","","","","",""
"d3-animate-choice","115","332803","0.0-61.0-0.18","3932","7269","25","Male","true","false","true","true","""event"",""trial"",""time""
""fullscreenenter"",""5"",""14518""
","
","
","""event"",""trial"",""time""
""fullscreenenter"",""5"",""14518""
","
","518.7000000476837","","48","","","3000","1","","","images/earth.jpg","images/tutrocket2","images/tutrocket1","null","images/tutrocket2","","1","practice","null","2","","",""
"d3-animate-choice","116","335772","0.0-61.0-1.18","3932","7269","25","Male","true","false","true","true","""event"",""trial"",""time""
""fullscreenenter"",""5"",""14518""
","
","
","""event"",""trial"",""time""
""fullscreenenter"",""5"",""14518""
","
","961.7999999523163","","49","","","3000","1","","","images/tutgreenplanet.jpg","images/tutalien2","images/tutalien1","images/tutrocket2","images/tutalien1","images/nothing.png","2","practice","true","1","common","0","2023-03-04 13:20:48.017"
"two-step-fixation","117","336779","0.0-61.0-2.18","3932","7269","25","Male","true","false","true","true","""event"",""trial"",""time""
""fullscreenenter"",""5"",""14518""
","
","
","""event"",""trial"",""time""
""fullscreenenter"",""5"",""14518""
","
","","images/earth.jpg","","","","","","","","","","","","","","fixation","","","","","",""
"d3-animate-choice","118","339204","0.0-61.0-0.19","3932","7269","25","Male","true","false","true","true","""event"",""trial"",""time""
""fullscreenenter"",""5"",""14518""
","
","
","""event"",""trial"",""time""
""fullscreenenter"",""5"",""14518""
","
","418.6999999284744","","48","","","3000","1","","","images/earth.jpg","images/tutrocket2","images/tutrocket1","null","images/tutrocket2","","1","practice","null","2","","",""
"d3-animate-choice","119","342382","0.0-61.0-1.19","3932","7269","25","Male","true","false","true","true","""event"",""trial"",""time""
""fullscreenenter"",""5"",""14518""
","
","
","""event"",""trial"",""time""
""fullscreenenter"",""5"",""14518""
","
","1162.4000000953674","","48","","","3000","1","","","images/tutgreenplanet.jpg","images/tutalien2","images/tutalien1","images/tutrocket2","images/tutalien2","images/nothing.png","2","practice","true","2","common","0","2023-03-04 13:20:54.627"
"two-step-fixation","120","343386","0.0-61.0-2.19","3932","7269","25","Male","true","false","true","true","""event"",""trial"",""time""
""fullscreenenter"",""5"",""14518""
","
","
","""event"",""trial"",""time""
""fullscreenenter"",""5"",""14518""
","
","","images/earth.jpg","","","","","","","","","","","","","","fixation","","","","","",""
"d3-instructions","121","346682","0.0-62.0","3932","7269","25","Male","true","false","true","true","""event"",""trial"",""time""
""fullscreenenter"",""5"",""14518""
","
","
","""event"",""trial"",""time""
""fullscreenenter"",""5"",""14518""
","
","","","","","","","","","","","","","","","","","","","","","",""
"audio-keyboard-response","122","349403","0.0-63.0","3932","7269","25","Male","true","false","true","true","""event"",""trial"",""time""
""fullscreenenter"",""5"",""14518""
","
","
","""event"",""trial"",""time""
""fullscreenenter"",""5"",""14518""
","
","2717","audio/instructions/treasure_feedback.wav","32","","","","","","","","","","","","","","","","","","",""
"d3-instructions","123","356004","0.0-64.0","3932","7269","25","Male","true","false","true","true","""event"",""trial"",""time""
""fullscreenenter"",""5"",""14518""
","
","
","""event"",""trial"",""time""
""fullscreenenter"",""5"",""14518""
","
","","","","","","","","","","","","","","","","","","","","","",""
"d3-instructions","124","367589","0.0-65.0","3932","7269","25","Male","true","false","true","true","""event"",""trial"",""time""
""fullscreenenter"",""5"",""14518""
","
","
","""event"",""trial"",""time""
""fullscreenenter"",""5"",""14518""
","
","","","","","","","","","","","","","","","","","","","","","",""
"d3-instructions","125","379895","0.0-66.0","3932","7269","25","Male","true","false","true","true","""event"",""trial"",""time""
""fullscreenenter"",""5"",""14518""
","
","
","""event"",""trial"",""time""
""fullscreenenter"",""5"",""14518""
","
","","","","","","","","","","","","","","","","","","","","","",""
"d3-instructions","126","387646","0.0-67.0","3932","7269","25","Male","true","false","true","true","""event"",""trial"",""time""
""fullscreenenter"",""5"",""14518""
","
","
","""event"",""trial"",""time""
""fullscreenenter"",""5"",""14518""
","
","","","","","","","","","","","","","","","","","","","","","",""
"d3-instructions","127","390117","0.0-68.0","3932","7269","25","Male","true","false","true","true","""event"",""trial"",""time""
""fullscreenenter"",""5"",""14518""
","
","
","""event"",""trial"",""time""
""fullscreenenter"",""5"",""14518""
","
","","","","","","","","","","","","","","","","","","","","","",""
"instructions-quiz","128","394087","0.0-69.0","3932","7269","25","Male","true","false","true","true","""event"",""trial"",""time""
""fullscreenenter"",""5"",""14518""
","
","
","""event"",""trial"",""time""
""fullscreenenter"",""5"",""14518""
","
","3968.899999976158","audio/quiz/Q1_Prompt.wav","","1","","","","","","","","","","","","","","","","","",""
"audio-keyboard-response","129","395845","0.0-70.0","3932","7269","25","Male","true","false","true","true","""event"",""trial"",""time""
""fullscreenenter"",""5"",""14518""
","
","
","""event"",""trial"",""time""
""fullscreenenter"",""5"",""14518""
","
","1759","audio/quiz/Q1_Correct.wav","32","","","","","","","","","","","","","","","","","","",""
"instructions-quiz","130","402823","0.0-71.0","3932","7269","25","Male","true","false","true","true","""event"",""trial"",""time""
""fullscreenenter"",""5"",""14518""
","
","
","""event"",""trial"",""time""
""fullscreenenter"",""5"",""14518""
","
","6977.300000071526","audio/quiz/Q2_Prompt.wav","","0","","","","","","","","","","","","","","","","","",""
"audio-keyboard-response","131","403552","0.0-72.0","3932","7269","25","Male","true","false","true","true","""event"",""trial"",""time""
""fullscreenenter"",""5"",""14518""
","
","
","""event"",""trial"",""time""
""fullscreenenter"",""5"",""14518""
","
","726","audio/quiz/Q2_Correct.wav","32","","","","","","","","","","","","","","","","","","",""
"instructions-quiz","132","406467","0.0-73.0","3932","7269","25","Male","true","false","true","true","""event"",""trial"",""time""
""fullscreenenter"",""5"",""14518""
","
","
","""event"",""trial"",""time""
""fullscreenenter"",""5"",""14518""
","
","2914.5","audio/quiz/Q3_Prompt.wav","","1","","","","","","","","","","","","","","","","","",""
"audio-keyboard-response","133","406854","0.0-74.0","3932","7269","25","Male","true","false","true","true","""event"",""trial"",""time""
""fullscreenenter"",""5"",""14518""
","
","
","""event"",""trial"",""time""
""fullscreenenter"",""5"",""14518""
","
","383","audio/quiz/Q3_Correct.wav","32","","","","","","","","","","","","","","","","","","",""
"d3-instructions","134","408519","0.0-75.0","3932","7269","25","Male","true","false","true","true","""event"",""trial"",""time""
""fullscreenenter"",""5"",""14518""
","
","
","""event"",""trial"",""time""
""fullscreenenter"",""5"",""14518""
","
","","","","","","","","","","","","","","","","","","","","","",""
"pavlovia","135","408520","0.0-76.0","3932","7269","25","Male","true","false","true","true","""event"",""trial"",""time""
""fullscreenenter"",""5"",""14518""
","
","
","""event"",""trial"",""time""
""fullscreenenter"",""5"",""14518""
","
","","","","","","","","","","","","","","","","","","","","","",""
"d3-animate-choice","136","411839","0.0-77.0-0.0","3932","7269","25","Male","true","false","true","true","""event"",""trial"",""time""
""fullscreenenter"",""5"",""14518""
","
","
","""event"",""trial"",""time""
""fullscreenenter"",""5"",""14518""
","
","1316.6999999284744","","49","","","3000","1","","","images/earth.jpg","images/rocket2","images/rocket1","null","images/rocket1","","1","real","null","1","","",""
"d3-animate-choice","137","415397","0.0-77.0-1.0","3932","7269","25","Male","true","false","true","true","""event"",""trial"",""time""
""fullscreenenter"",""5"",""14518""
","
","
","""event"",""trial"",""time""
""fullscreenenter"",""5"",""14518""
","
","1554","","49","","","3000","1","","","images/purpleplanet.jpg","images/alien4","images/alien3","images/rocket1","images/alien3","images/nothing.png","2","real","true","1","common","0","2023-03-04 13:22:07.642"
"two-step-fixation","138","416407","0.0-77.0-2.0","3932","7269","25","Male","true","false","true","true","""event"",""trial"",""time""
""fullscreenenter"",""5"",""14518""
","
","
","""event"",""trial"",""time""
""fullscreenenter"",""5"",""14518""
","
","","images/earth.jpg","","","","","","","","","","","","","","fixation","","","","","",""
"d3-animate-choice","139","418908","0.0-77.0-0.1","3932","7269","25","Male","true","false","true","true","""event"",""trial"",""time""
""fullscreenenter"",""5"",""14518""
","
","
","""event"",""trial"",""time""
""fullscreenenter"",""5"",""14518""
","
","497","","49","","","3000","1","","","images/earth.jpg","images/rocket2","images/rocket1","null","images/rocket1","","1","real","null","1","","",""
"d3-animate-choice","140","422924","0.0-77.0-1.1","3932","7269","25","Male","true","false","true","true","""event"",""trial"",""time""
""fullscreenenter"",""5"",""14518""
","
","
","""event"",""trial"",""time""
""fullscreenenter"",""5"",""14518""
","
","2133.7999999523163","","48","","","3000","1","","","images/purpleplanet.jpg","images/alien4","images/alien3","images/rocket1","images/alien4","images/t.png","2","real","true","2","common","1","2023-03-04 13:22:15.169"
"two-step-fixation","141","423936","0.0-77.0-2.1","3932","7269","25","Male","true","false","true","true","""event"",""trial"",""time""
""fullscreenenter"",""5"",""14518""
","
","
","""event"",""trial"",""time""
""fullscreenenter"",""5"",""14518""
","
","","images/earth.jpg","","","","","","","","","","","","","","fixation","","","","","",""
"d3-animate-choice","142","426334","0.0-77.0-0.2","3932","7269","25","Male","true","false","true","true","""event"",""trial"",""time""
""fullscreenenter"",""5"",""14518""
","
","
","""event"",""trial"",""time""
""fullscreenenter"",""5"",""14518""
","
","386.60000002384186","","49","","","3000","1","","","images/earth.jpg","images/rocket2","images/rocket1","null","images/rocket1","","1","real","null","1","","",""
"d3-animate-choice","143","428952","0.0-77.0-1.2","3932","7269","25","Male","true","false","true","true","""event"",""trial"",""time""
""fullscreenenter"",""5"",""14518""
","
","
","""event"",""trial"",""time""
""fullscreenenter"",""5"",""14518""
","
","605.0999999046326","","48","","","3000","1","","","images/purpleplanet.jpg","images/alien4","images/alien3","images/rocket1","images/alien4","images/t.png","2","real","true","2","common","1","2023-03-04 13:22:21.197"
"two-step-fixation","144","429956","0.0-77.0-2.2","3932","7269","25","Male","true","false","true","true","""event"",""trial"",""time""
""fullscreenenter"",""5"",""14518""
","
","
","""event"",""trial"",""time""
""fullscreenenter"",""5"",""14518""
","
","","images/earth.jpg","","","","","","","","","","","","","","fixation","","","","","",""
"d3-animate-choice","145","432373","0.0-77.0-0.3","3932","7269","25","Male","true","false","true","true","""event"",""trial"",""time""
""fullscreenenter"",""5"",""14518""
","
","
","""event"",""trial"",""time""
""fullscreenenter"",""5"",""14518""
","
","405.7999999523163","","49","","","3000","1","","","images/earth.jpg","images/rocket2","images/rocket1","null","images/rocket1","","1","real","null","1","","",""
"d3-animate-choice","146","434838","0.0-77.0-1.3","3932","7269","25","Male","true","false","true","true","""event"",""trial"",""time""
""fullscreenenter"",""5"",""14518""
","
","
","""event"",""trial"",""time""
""fullscreenenter"",""5"",""14518""
","
","453.59999990463257","","48","","","3000","1","","","images/purpleplanet.jpg","images/alien4","images/alien3","images/rocket1","images/alien4","images/t.png","2","real","true","2","common","1","2023-03-04 13:22:27.083"
"two-step-fixation","147","435848","0.0-77.0-2.3","3932","7269","25","Male","true","false","true","true","""event"",""trial"",""time""
""fullscreenenter"",""5"",""14518""
","
","
","""event"",""trial"",""time""
""fullscreenenter"",""5"",""14518""
","
","","images/earth.jpg","","","","","","","","","","","","","","fixation","","","","","",""
"d3-animate-choice","148","438199","0.0-77.0-0.4","3932","7269","25","Male","true","false","true","true","""event"",""trial"",""time""
""fullscreenenter"",""5"",""14518""
","
","
","""event"",""trial"",""time""
""fullscreenenter"",""5"",""14518""
","
","337.7999999523163","","49","","","3000","1","","","images/earth.jpg","images/rocket2","images/rocket1","null","images/rocket1","","1","real","null","1","","",""
"d3-animate-choice","149","442073","0.0-77.0-1.4","3932","7269","25","Male","true","false","true","true","""event"",""trial"",""time""
""fullscreenenter"",""5"",""14518""
","
","
","""event"",""trial"",""time""
""fullscreenenter"",""5"",""14518""
","
","1858.8999999761581","","49","","","3000","1","","","images/redplanet1.jpg","images/alien2","images/alien1","images/rocket1","images/alien1","images/t.png","2","real","false","1","rare","1","2023-03-04 13:22:34.318"
"two-step-fixation","150","443077","0.0-77.0-2.4","3932","7269","25","Male","true","false","true","true","""event"",""trial"",""time""
""fullscreenenter"",""5"",""14518""
","
","
","""event"",""trial"",""time""
""fullscreenenter"",""5"",""14518""
","
","","images/earth.jpg","","","","","","","","","","","","","","fixation","","","","","",""
"d3-animate-choice","151","445503","0.0-77.0-0.5","3932","7269","25","Male","true","false","true","true","""event"",""trial"",""time""
""fullscreenenter"",""5"",""14518""
","
","
","""event"",""trial"",""time""
""fullscreenenter"",""5"",""14518""
","
","416.3000000715256","","49","","","3000","1","","","images/earth.jpg","images/rocket2","images/rocket1","null","images/rocket1","","1","real","null","1","","",""
"d3-animate-choice","152","448608","0.0-77.0-1.5","3932","7269","25","Male","true","false","true","true","""event"",""trial"",""time""
""fullscreenenter"",""5"",""14518""
","
","
","""event"",""trial"",""time""
""fullscreenenter"",""5"",""14518""
","
","1095.1000000238419","","48","","","3000","1","","","images/purpleplanet.jpg","images/alien4","images/alien3","images/rocket1","images/alien4","images/t.png","2","real","true","2","common","1","2023-03-04 13:22:40.854"
"two-step-fixation","153","449613","0.0-77.0-2.5","3932","7269","25","Male","true","false","true","true","""event"",""trial"",""time""
""fullscreenenter"",""5"",""14518""
","
","
","""event"",""trial"",""time""
""fullscreenenter"",""5"",""14518""
","
","","images/earth.jpg","","","","","","","","","","","","","","fixation","","","","","",""
"d3-animate-choice","154","452110","0.0-77.0-0.6","3932","7269","25","Male","true","false","true","true","""event"",""trial"",""time""
""fullscreenenter"",""5"",""14518""
","
","
","""event"",""trial"",""time""
""fullscreenenter"",""5"",""14518""
","
","489","","49","","","3000","1","","","images/earth.jpg","images/rocket2","images/rocket1","null","images/rocket1","","1","real","null","1","","",""
"d3-animate-choice","155","454664","0.0-77.0-1.6","3932","7269","25","Male","true","false","true","true","""event"",""trial"",""time""
""fullscreenenter"",""5"",""14518""
","
","
","""event"",""trial"",""time""
""fullscreenenter"",""5"",""14518""
","
","547.7000000476837","","48","","","3000","1","","","images/purpleplanet.jpg","images/alien4","images/alien3","images/rocket1","images/alien4","images/nothing.png","2","real","true","2","common","0","2023-03-04 13:22:46.909"
"two-step-fixation","156","455668","0.0-77.0-2.6","3932","7269","25","Male","true","false","true","true","""event"",""trial"",""time""
""fullscreenenter"",""5"",""14518""
","
","
","""event"",""trial"",""time""
""fullscreenenter"",""5"",""14518""
","
","","images/earth.jpg","","","","","","","","","","","","","","fixation","","","","","",""
"d3-animate-choice","157","458054","0.0-77.0-0.7","3932","7269","25","Male","true","false","true","true","""event"",""trial"",""time""
""fullscreenenter"",""5"",""14518""
","
","
","""event"",""trial"",""time""
""fullscreenenter"",""5"",""14518""
","
","377.89999997615814","","49","","","3000","1","","","images/earth.jpg","images/rocket2","images/rocket1","null","images/rocket1","","1","real","null","1","","",""
"d3-animate-choice","158","461624","0.0-77.0-1.7","3932","7269","25","Male","true","false","true","true","""event"",""trial"",""time""
""fullscreenenter"",""5"",""14518""
","
","
","""event"",""trial"",""time""
""fullscreenenter"",""5"",""14518""
","
","1563.8000000715256","","49","","","3000","1","","","images/redplanet1.jpg","images/alien2","images/alien1","images/rocket1","images/alien1","images/nothing.png","2","real","false","1","rare","0","2023-03-04 13:22:53.869"
"two-step-fixation","159","462628","0.0-77.0-2.7","3932","7269","25","Male","true","false","true","true","""event"",""trial"",""time""
""fullscreenenter"",""5"",""14518""
","
","
","""event"",""trial"",""time""
""fullscreenenter"",""5"",""14518""
","
","","images/earth.jpg","","","","","","","","","","","","","","fixation","","","","","",""
"d3-animate-choice","160","465073","0.0-77.0-0.8","3932","7269","25","Male","true","false","true","true","""event"",""trial"",""time""
""fullscreenenter"",""5"",""14518""
","
","
","""event"",""trial"",""time""
""fullscreenenter"",""5"",""14518""
","
","432","","49","","","3000","1","","","images/earth.jpg","images/rocket2","images/rocket1","null","images/rocket1","","1","real","null","1","","",""
"d3-animate-choice","161","468695","0.0-77.0-1.8","3932","7269","25","Male","true","false","true","true","""event"",""trial"",""time""
""fullscreenenter"",""5"",""14518""
","
","
","""event"",""trial"",""time""
""fullscreenenter"",""5"",""14518""
","
","1616.6000000238419","","48","","","3000","1","","","images/redplanet1.jpg","images/alien2","images/alien1","images/rocket1","images/alien2","images/nothing.png","2","real","false","2","rare","0","2023-03-04 13:23:00.940"
"two-step-fixation","162","469705","0.0-77.0-2.8","3932","7269","25","Male","true","false","true","true","""event"",""trial"",""time""
""fullscreenenter"",""5"",""14518""
","
","
","""event"",""trial"",""time""
""fullscreenenter"",""5"",""14518""
","
","","images/earth.jpg","","","","","","","","","","","","","","fixation","","","","","",""
"d3-animate-choice","163","472149","0.0-77.0-0.9","3932","7269","25","Male","true","false","true","true","""event"",""trial"",""time""
""fullscreenenter"",""5"",""14518""
","
","
","""event"",""trial"",""time""
""fullscreenenter"",""5"",""14518""
","
","438","","48","","","3000","1","","","images/earth.jpg","images/rocket2","images/rocket1","null","images/rocket2","","1","real","null","2","","",""
"d3-animate-choice","164","475882","0.0-77.0-1.9","3932","7269","25","Male","true","false","true","true","""event"",""trial"",""time""
""fullscreenenter"",""5"",""14518""
","
","
","""event"",""trial"",""time""
""fullscreenenter"",""5"",""14518""
","
","1723.6000000238419","","48","","","3000","1","","","images/redplanet1.jpg","images/alien2","images/alien1","images/rocket2","images/alien2","images/t.png","2","real","true","2","common","1","2023-03-04 13:23:08.127"
"two-step-fixation","165","476886","0.0-77.0-2.9","3932","7269","25","Male","true","false","true","true","""event"",""trial"",""time""
""fullscreenenter"",""5"",""14518""
","
","
","""event"",""trial"",""time""
""fullscreenenter"",""5"",""14518""
","
","","images/earth.jpg","","","","","","","","","","","","","","fixation","","","","","",""
"d3-animate-choice","166","479278","0.0-77.0-0.10","3932","7269","25","Male","true","false","true","true","""event"",""trial"",""time""
""fullscreenenter"",""5"",""14518""
","
","
","""event"",""trial"",""time""
""fullscreenenter"",""5"",""14518""
","
","384","","48","","","3000","1","","","images/earth.jpg","images/rocket2","images/rocket1","null","images/rocket2","","1","real","null","2","","",""
"d3-animate-choice","167","482447","0.0-77.0-1.10","3932","7269","25","Male","true","false","true","true","""event"",""trial"",""time""
""fullscreenenter"",""5"",""14518""
","
","
","""event"",""trial"",""time""
""fullscreenenter"",""5"",""14518""
","
","1160.1000000238419","","48","","","3000","1","","","images/purpleplanet.jpg","images/alien4","images/alien3","images/rocket2","images/alien4","images/t.png","2","real","false","2","rare","1","2023-03-04 13:23:14.693"
"two-step-fixation","168","483458","0.0-77.0-2.10","3932","7269","25","Male","true","false","true","true","""event"",""trial"",""time""
""fullscreenenter"",""5"",""14518""
","
","
","""event"",""trial"",""time""
""fullscreenenter"",""5"",""14518""
","
","","images/earth.jpg","","","","","","","","","","","","","","fixation","","","","","",""
"d3-animate-choice","169","486406","0.0-77.0-0.11","3932","7269","25","Male","true","false","true","true","""event"",""trial"",""time""
""fullscreenenter"",""5"",""14518""
","
","
","""event"",""trial"",""time""
""fullscreenenter"",""5"",""14518""
","
","944.6999999284744","","48","","","3000","1","","","images/earth.jpg","images/rocket2","images/rocket1","null","images/rocket2","","1","real","null","2","","",""
"d3-animate-choice","170","489592","0.0-77.0-1.11","3932","7269","25","Male","true","false","true","true","""event"",""trial"",""time""
""fullscreenenter"",""5"",""14518""
","
","
","""event"",""trial"",""time""
""fullscreenenter"",""5"",""14518""
","
","1174.8999999761581","","48","","","3000","1","","","images/redplanet1.jpg","images/alien2","images/alien1","images/rocket2","images/alien2","images/t.png","2","real","true","2","common","1","2023-03-04 13:23:21.837"
"two-step-fixation","171","490598","0.0-77.0-2.11","3932","7269","25","Male","true","false","true","true","""event"",""trial"",""time""
""fullscreenenter"",""5"",""14518""
","
","
","""event"",""trial"",""time""
""fullscreenenter"",""5"",""14518""
","
","","images/earth.jpg","","","","","","","","","","","","","","fixation","","","","","",""
"d3-animate-choice","172","493065","0.0-77.0-0.12","3932","7269","25","Male","true","false","true","true","""event"",""trial"",""time""
""fullscreenenter"",""5"",""14518""
","
","
","""event"",""trial"",""time""
""fullscreenenter"",""5"",""14518""
","
","459.8000000715256","","48","","","3000","1","","","images/earth.jpg","images/rocket2","images/rocket1","null","images/rocket2","","1","real","null","2","","",""
"d3-animate-choice","173","496194","0.0-77.0-1.12","3932","7269","25","Male","true","false","true","true","""event"",""trial"",""time""
""fullscreenenter"",""5"",""14518""
","
","
","""event"",""trial"",""time""
""fullscreenenter"",""5"",""14518""
","
","1115","","48","","","3000","1","","","images/redplanet1.jpg","images/alien2","images/alien1","images/rocket2","images/alien2","images/t.png","2","real","true","2","common","1","2023-03-04 13:23:28.439"
"two-step-fixation","174","497198","0.0-77.0-2.12","3932","7269","25","Male","true","false","true","true","""event"",""trial"",""time""
""fullscreenenter"",""5"",""14518""
","
","
","""event"",""trial"",""time""
""fullscreenenter"",""5"",""14518""
","
","","images/earth.jpg","","","","","","","","","","","","","","fixation","","","","","",""
"d3-animate-choice","175","499613","0.0-77.0-0.13","3932","7269","25","Male","true","false","true","true","""event"",""trial"",""time""
""fullscreenenter"",""5"",""14518""
","
","
","""event"",""trial"",""time""
""fullscreenenter"",""5"",""14518""
","
","406.5","","48","","","3000","1","","","images/earth.jpg","images/rocket2","images/rocket1","null","images/rocket2","","1","real","null","2","","",""
"d3-animate-choice","176","502281","0.0-77.0-1.13","3932","7269","25","Male","true","false","true","true","""event"",""trial"",""time""
""fullscreenenter"",""5"",""14518""
","
","
","""event"",""trial"",""time""
""fullscreenenter"",""5"",""14518""
","
","657.7999999523163","","48","","","3000","1","","","images/redplanet1.jpg","images/alien2","images/alien1","images/rocket2","images/alien2","images/t.png","2","real","true","2","common","1","2023-03-04 13:23:34.527"
"two-step-fixation","177","503287","0.0-77.0-2.13","3932","7269","25","Male","true","false","true","true","""event"",""trial"",""time""
""fullscreenenter"",""5"",""14518""
","
","
","""event"",""trial"",""time""
""fullscreenenter"",""5"",""14518""
","
","","images/earth.jpg","","","","","","","","","","","","","","fixation","","","","","",""
"d3-animate-choice","178","505732","0.0-77.0-0.14","3932","7269","25","Male","true","false","true","true","""event"",""trial"",""time""
""fullscreenenter"",""5"",""14518""
","
","
","""event"",""trial"",""time""
""fullscreenenter"",""5"",""14518""
","
","436.40000009536743","","48","","","3000","1","","","images/earth.jpg","images/rocket2","images/rocket1","null","images/rocket2","","1","real","null","2","","",""
"d3-animate-choice","179","508321","0.0-77.0-1.14","3932","7269","25","Male","true","false","true","true","""event"",""trial"",""time""
""fullscreenenter"",""5"",""14518""
","
","
","""event"",""trial"",""time""
""fullscreenenter"",""5"",""14518""
","
","578.1999999284744","","48","","","3000","1","","","images/redplanet1.jpg","images/alien2","images/alien1","images/rocket2","images/alien2","images/nothing.png","2","real","true","2","common","0","2023-03-04 13:23:40.566"
"two-step-fixation","180","509329","0.0-77.0-2.14","3932","7269","25","Male","true","false","true","true","""event"",""trial"",""time""
""fullscreenenter"",""5"",""14518""
","
","
","""event"",""trial"",""time""
""fullscreenenter"",""5"",""14518""
","
","","images/earth.jpg","","","","","","","","","","","","","","fixation","","","","","",""
"d3-animate-choice","181","511566","0.0-77.0-0.15","3932","7269","25","Male","true","false","true","true","""event"",""trial"",""time""
""fullscreenenter"",""5"",""14518""
","
","
","""event"",""trial"",""time""
""fullscreenenter"",""5"",""14518""
","
","231.10000002384186","","48","","","3000","1","","","images/earth.jpg","images/rocket2","images/rocket1","null","images/rocket2","","1","real","null","2","","",""
"d3-animate-choice","182","514047","0.0-77.0-1.15","3932","7269","25","Male","true","false","true","true","""event"",""trial"",""time""
""fullscreenenter"",""5"",""14518""
","
","
","""event"",""trial"",""time""
""fullscreenenter"",""5"",""14518""
","
","475.10000002384186","","48","","","3000","1","","","images/redplanet1.jpg","images/alien2","images/alien1","images/rocket2","images/alien2","images/t.png","2","real","true","2","common","1","2023-03-04 13:23:46.292"
"two-step-fixation","183","515054","0.0-77.0-2.15","3932","7269","25","Male","true","false","true","true","""event"",""trial"",""time""
""fullscreenenter"",""5"",""14518""
","
","
","""event"",""trial"",""time""
""fullscreenenter"",""5"",""14518""
","
","","images/earth.jpg","","","","","","","","","","","","","","fixation","","","","","",""
"d3-animate-choice","184","517446","0.0-77.0-0.16","3932","7269","25","Male","true","false","true","true","""event"",""trial"",""time""
""fullscreenenter"",""5"",""14518""
","
","
","""event"",""trial"",""time""
""fullscreenenter"",""5"",""14518""
","
","386","","48","","","3000","1","","","images/earth.jpg","images/rocket2","images/rocket1","null","images/rocket2","","1","real","null","2","","",""
"d3-animate-choice","185","520175","0.0-77.0-1.16","3932","7269","25","Male","true","false","true","true","""event"",""trial"",""time""
""fullscreenenter"",""5"",""14518""
","
","
","""event"",""trial"",""time""
""fullscreenenter"",""5"",""14518""
","
","718.7000000476837","","48","","","3000","1","","","images/purpleplanet.jpg","images/alien4","images/alien3","images/rocket2","images/alien4","images/t.png","2","real","false","2","rare","1","2023-03-04 13:23:52.420"
"two-step-fixation","186","521185","0.0-77.0-2.16","3932","7269","25","Male","true","false","true","true","""event"",""trial"",""time""
""fullscreenenter"",""5"",""14518""
","
","
","""event"",""trial"",""time""
""fullscreenenter"",""5"",""14518""
","
","","images/earth.jpg","","","","","","","","","","","","","","fixation","","","","","",""
"d3-animate-choice","187","523583","0.0-77.0-0.17","3932","7269","25","Male","true","false","true","true","""event"",""trial"",""time""
""fullscreenenter"",""5"",""14518""
","
","
","""event"",""trial"",""time""
""fullscreenenter"",""5"",""14518""
","
","388.90000009536743","","48","","","3000","1","","","images/earth.jpg","images/rocket2","images/rocket1","null","images/rocket2","","1","real","null","2","","",""
"d3-animate-choice","188","526351","0.0-77.0-1.17","3932","7269","25","Male","true","false","true","true","""event"",""trial"",""time""
""fullscreenenter"",""5"",""14518""
","
","
","""event"",""trial"",""time""
""fullscreenenter"",""5"",""14518""
","
","761.1000000238419","","48","","","3000","1","","","images/redplanet1.jpg","images/alien2","images/alien1","images/rocket2","images/alien2","images/nothing.png","2","real","true","2","common","0","2023-03-04 13:23:58.596"
"two-step-fixation","189","527361","0.0-77.0-2.17","3932","7269","25","Male","true","false","true","true","""event"",""trial"",""time""
""fullscreenenter"",""5"",""14518""
","
","
","""event"",""trial"",""time""
""fullscreenenter"",""5"",""14518""
","
","","images/earth.jpg","","","","","","","","","","","","","","fixation","","","","","",""
"d3-animate-choice","190","529800","0.0-77.0-0.18","3932","7269","25","Male","true","false","true","true","""event"",""trial"",""time""
""fullscreenenter"",""5"",""14518""
","
","
","""event"",""trial"",""time""
""fullscreenenter"",""5"",""14518""
","
","430.7000000476837","","48","","","3000","1","","","images/earth.jpg","images/rocket2","images/rocket1","null","images/rocket2","","1","real","null","2","","",""
"d3-animate-choice","191","532363","0.0-77.0-1.18","3932","7269","25","Male","true","false","true","true","""event"",""trial"",""time""
""fullscreenenter"",""5"",""14518""
","
","
","""event"",""trial"",""time""
""fullscreenenter"",""5"",""14518""
","
","557.2999999523163","","48","","","3000","1","","","images/redplanet1.jpg","images/alien2","images/alien1","images/rocket2","images/alien2","images/t.png","2","real","true","2","common","1","2023-03-04 13:24:04.608"
"two-step-fixation","192","533370","0.0-77.0-2.18","3932","7269","25","Male","true","false","true","true","""event"",""trial"",""time""
""fullscreenenter"",""5"",""14518""
","
","
","""event"",""trial"",""time""
""fullscreenenter"",""5"",""14518""
","
","","images/earth.jpg","","","","","","","","","","","","","","fixation","","","","","",""
"d3-animate-choice","193","535780","0.0-77.0-0.19","3932","7269","25","Male","true","false","true","true","""event"",""trial"",""time""
""fullscreenenter"",""5"",""14518""
","
","
","""event"",""trial"",""time""
""fullscreenenter"",""5"",""14518""
","
","400.89999997615814","","48","","","3000","1","","","images/earth.jpg","images/rocket2","images/rocket1","null","images/rocket2","","1","real","null","2","","",""
"d3-animate-choice","194","538866","0.0-77.0-1.19","3932","7269","25","Male","true","false","true","true","""event"",""trial"",""time""
""fullscreenenter"",""5"",""14518""
","
","
","""event"",""trial"",""time""
""fullscreenenter"",""5"",""14518""
","
","1073.8999999761581","","48","","","3000","1","","","images/purpleplanet.jpg","images/alien4","images/alien3","images/rocket2","images/alien4","images/nothing.png","2","real","false","2","rare","0","2023-03-04 13:24:11.112"
"two-step-fixation","195","539872","0.0-77.0-2.19","3932","7269","25","Male","true","false","true","true","""event"",""trial"",""time""
""fullscreenenter"",""5"",""14518""
","
","
","""event"",""trial"",""time""
""fullscreenenter"",""5"",""14518""
","
","","images/earth.jpg","","","","","","","","","","","","","","fixation","","","","","",""
"d3-animate-choice","196","542297","0.0-77.0-0.20","3932","7269","25","Male","true","false","true","true","""event"",""trial"",""time""
""fullscreenenter"",""5"",""14518""
","
","
","""event"",""trial"",""time""
""fullscreenenter"",""5"",""14518""
","
","415.7999999523163","","49","","","3000","1","","","images/earth.jpg","images/rocket2","images/rocket1","null","images/rocket1","","1","real","null","1","","",""
"d3-animate-choice","197","545169","0.0-77.0-1.20","3932","7269","25","Male","true","false","true","true","""event"",""trial"",""time""
""fullscreenenter"",""5"",""14518""
","
","
","""event"",""trial"",""time""
""fullscreenenter"",""5"",""14518""
","
","862.5","","48","","","3000","1","","","images/redplanet1.jpg","images/alien2","images/alien1","images/rocket1","images/alien2","images/t.png","2","real","false","2","rare","1","2023-03-04 13:24:17.414"
"two-step-fixation","198","546176","0.0-77.0-2.20","3932","7269","25","Male","true","false","true","true","""event"",""trial"",""time""
""fullscreenenter"",""5"",""14518""
","
","
","""event"",""trial"",""time""
""fullscreenenter"",""5"",""14518""
","
","","images/earth.jpg","","","","","","","","","","","","","","fixation","","","","","",""
"d3-animate-choice","199","548748","0.0-77.0-0.21","3932","7269","25","Male","true","false","true","true","""event"",""trial"",""time""
""fullscreenenter"",""5"",""14518""
","
","
","""event"",""trial"",""time""
""fullscreenenter"",""5"",""14518""
","
","562.5999999046326","","49","","","3000","1","","","images/earth.jpg","images/rocket2","images/rocket1","null","images/rocket1","","1","real","null","1","","",""
"d3-animate-choice","200","551499","0.0-77.0-1.21","3932","7269","25","Male","true","false","true","true","""event"",""trial"",""time""
""fullscreenenter"",""5"",""14518""
","
","
","""event"",""trial"",""time""
""fullscreenenter"",""5"",""14518""
","
","739.2999999523163","","48","","","3000","1","","","images/redplanet1.jpg","images/alien2","images/alien1","images/rocket1","images/alien2","images/t.png","2","real","false","2","rare","1","2023-03-04 13:24:23.744"
"two-step-fixation","201","552504","0.0-77.0-2.21","3932","7269","25","Male","true","false","true","true","""event"",""trial"",""time""
""fullscreenenter"",""5"",""14518""
","
","
","""event"",""trial"",""time""
""fullscreenenter"",""5"",""14518""
","
","","images/earth.jpg","","","","","","","","","","","","","","fixation","","","","","",""
"d3-animate-choice","202","554884","0.0-77.0-0.22","3932","7269","25","Male","true","false","true","true","""event"",""trial"",""time""
""fullscreenenter"",""5"",""14518""
","
","
","""event"",""trial"",""time""
""fullscreenenter"",""5"",""14518""
","
","371.40000009536743","","49","","","3000","1","","","images/earth.jpg","images/rocket2","images/rocket1","null","images/rocket1","","1","real","null","1","","",""
"d3-animate-choice","203","557787","0.0-77.0-1.22","3932","7269","25","Male","true","false","true","true","""event"",""trial"",""time""
""fullscreenenter"",""5"",""14518""
","
","
","""event"",""trial"",""time""
""fullscreenenter"",""5"",""14518""
","
","890","","48","","","3000","1","","","images/purpleplanet.jpg","images/alien4","images/alien3","images/rocket1","images/alien4","images/nothing.png","2","real","true","2","common","0","2023-03-04 13:24:30.032"
"two-step-fixation","204","558793","0.0-77.0-2.22","3932","7269","25","Male","true","false","true","true","""event"",""trial"",""time""
""fullscreenenter"",""5"",""14518""
","
","
","""event"",""trial"",""time""
""fullscreenenter"",""5"",""14518""
","
","","images/earth.jpg","","","","","","","","","","","","","","fixation","","","","","",""
"d3-animate-choice","205","561241","0.0-77.0-0.23","3932","7269","25","Male","true","false","true","true","""event"",""trial"",""time""
""fullscreenenter"",""5"",""14518""
","
","
","""event"",""trial"",""time""
""fullscreenenter"",""5"",""14518""
","
","440.2000000476837","","49","","","3000","1","","","images/earth.jpg","images/rocket2","images/rocket1","null","images/rocket1","","1","real","null","1","","",""
"d3-animate-choice","206","563727","0.0-77.0-1.23","3932","7269","25","Male","true","false","true","true","""event"",""trial"",""time""
""fullscreenenter"",""5"",""14518""
","
","
","""event"",""trial"",""time""
""fullscreenenter"",""5"",""14518""
","
","479.2000000476837","","48","","","3000","1","","","images/redplanet1.jpg","images/alien2","images/alien1","images/rocket1","images/alien2","images/nothing.png","2","real","false","2","rare","0","2023-03-04 13:24:35.973"
"two-step-fixation","207","564736","0.0-77.0-2.23","3932","7269","25","Male","true","false","true","true","""event"",""trial"",""time""
""fullscreenenter"",""5"",""14518""
","
","
","""event"",""trial"",""time""
""fullscreenenter"",""5"",""14518""
","
","","images/earth.jpg","","","","","","","","","","","","","","fixation","","","","","",""
"d3-animate-choice","208","567104","0.0-77.0-0.24","3932","7269","25","Male","true","false","true","true","""event"",""trial"",""time""
""fullscreenenter"",""5"",""14518""
","
","
","""event"",""trial"",""time""
""fullscreenenter"",""5"",""14518""
","
","364.2999999523163","","49","","","3000","1","","","images/earth.jpg","images/rocket2","images/rocket1","null","images/rocket1","","1","real","null","1","","",""
"d3-animate-choice","209","569681","0.0-77.0-1.24","3932","7269","25","Male","true","false","true","true","""event"",""trial"",""time""
""fullscreenenter"",""5"",""14518""
","
","
","""event"",""trial"",""time""
""fullscreenenter"",""5"",""14518""
","
","570.7999999523163","","48","","","3000","1","","","images/purpleplanet.jpg","images/alien4","images/alien3","images/rocket1","images/alien4","images/nothing.png","2","real","true","2","common","0","2023-03-04 13:24:41.926"
"two-step-fixation","210","570684","0.0-77.0-2.24","3932","7269","25","Male","true","false","true","true","""event"",""trial"",""time""
""fullscreenenter"",""5"",""14518""
","
","
","""event"",""trial"",""time""
""fullscreenenter"",""5"",""14518""
","
","","images/earth.jpg","","","","","","","","","","","","","","fixation","","","","","",""
"d3-animate-choice","211","573060","0.0-77.0-0.25","3932","7269","25","Male","true","false","true","true","""event"",""trial"",""time""
""fullscreenenter"",""5"",""14518""
","
","
","""event"",""trial"",""time""
""fullscreenenter"",""5"",""14518""
","
","367.5","","49","","","3000","1","","","images/earth.jpg","images/rocket2","images/rocket1","null","images/rocket1","","1","real","null","1","","",""
"d3-animate-choice","212","575649","0.0-77.0-1.25","3932","7269","25","Male","true","false","true","true","""event"",""trial"",""time""
""fullscreenenter"",""5"",""14518""
","
","
","""event"",""trial"",""time""
""fullscreenenter"",""5"",""14518""
","
","584.5","","48","","","3000","1","","","images/redplanet1.jpg","images/alien2","images/alien1","images/rocket1","images/alien2","images/t.png","2","real","false","2","rare","1","2023-03-04 13:24:47.895"
"two-step-fixation","213","576659","0.0-77.0-2.25","3932","7269","25","Male","true","false","true","true","""event"",""trial"",""time""
""fullscreenenter"",""5"",""14518""
","
","
","""event"",""trial"",""time""
""fullscreenenter"",""5"",""14518""
","
","","images/earth.jpg","","","","","","","","","","","","","","fixation","","","","","",""
"d3-animate-choice","214","579161","0.0-77.0-0.26","3932","7269","25","Male","true","false","true","true","""event"",""trial"",""time""
""fullscreenenter"",""5"",""14518""
","
","
","""event"",""trial"",""time""
""fullscreenenter"",""5"",""14518""
","
","493.2000000476837","","49","","","3000","1","","","images/earth.jpg","images/rocket2","images/rocket1","null","images/rocket1","","1","real","null","1","","",""
"d3-animate-choice","215","581837","0.0-77.0-1.26","3932","7269","25","Male","true","false","true","true","""event"",""trial"",""time""
""fullscreenenter"",""5"",""14518""
","
","
","""event"",""trial"",""time""
""fullscreenenter"",""5"",""14518""
","
","672","","48","","","3000","1","","","images/purpleplanet.jpg","images/alien4","images/alien3","images/rocket1","images/alien4","images/t.png","2","real","true","2","common","1","2023-03-04 13:24:54.083"
"two-step-fixation","216","582842","0.0-77.0-2.26","3932","7269","25","Male","true","false","true","true","""event"",""trial"",""time""
""fullscreenenter"",""5"",""14518""
","
","
","""event"",""trial"",""time""
""fullscreenenter"",""5"",""14518""
","
","","images/earth.jpg","","","","","","","","","","","","","","fixation","","","","","",""
"d3-animate-choice","217","585274","0.0-77.0-0.27","3932","7269","25","Male","true","false","true","true","""event"",""trial"",""time""
""fullscreenenter"",""5"",""14518""
","
","
","""event"",""trial"",""time""
""fullscreenenter"",""5"",""14518""
","
","424.10000002384186","","49","","","3000","1","","","images/earth.jpg","images/rocket2","images/rocket1","null","images/rocket1","","1","real","null","1","","",""
"d3-animate-choice","218","587852","0.0-77.0-1.27","3932","7269","25","Male","true","false","true","true","""event"",""trial"",""time""
""fullscreenenter"",""5"",""14518""
","
","
","""event"",""trial"",""time""
""fullscreenenter"",""5"",""14518""
","
","567","","48","","","3000","1","","","images/redplanet1.jpg","images/alien2","images/alien1","images/rocket1","images/alien2","images/nothing.png","2","real","false","2","rare","0","2023-03-04 13:25:00.097"
"two-step-fixation","219","588858","0.0-77.0-2.27","3932","7269","25","Male","true","false","true","true","""event"",""trial"",""time""
""fullscreenenter"",""5"",""14518""
","
","
","""event"",""trial"",""time""
""fullscreenenter"",""5"",""14518""
","
","","images/earth.jpg","","","","","","","","","","","","","","fixation","","","","","",""
"d3-animate-choice","220","591265","0.0-77.0-0.28","3932","7269","25","Male","true","false","true","true","""event"",""trial"",""time""
""fullscreenenter"",""5"",""14518""
","
","
","""event"",""trial"",""time""
""fullscreenenter"",""5"",""14518""
","
","399.90000009536743","","49","","","3000","1","","","images/earth.jpg","images/rocket2","images/rocket1","null","images/rocket1","","1","real","null","1","","",""
"d3-animate-choice","221","593860","0.0-77.0-1.28","3932","7269","25","Male","true","false","true","true","""event"",""trial"",""time""
""fullscreenenter"",""5"",""14518""
","
","
","""event"",""trial"",""time""
""fullscreenenter"",""5"",""14518""
","
","587.2999999523163","","48","","","3000","1","","","images/purpleplanet.jpg","images/alien4","images/alien3","images/rocket1","images/alien4","images/nothing.png","2","real","true","2","common","0","2023-03-04 13:25:06.105"
"two-step-fixation","222","594864","0.0-77.0-2.28","3932","7269","25","Male","true","false","true","true","""event"",""trial"",""time""
""fullscreenenter"",""5"",""14518""
","
","
","""event"",""trial"",""time""
""fullscreenenter"",""5"",""14518""
","
","","images/earth.jpg","","","","","","","","","","","","","","fixation","","","","","",""
"d3-animate-choice","223","597312","0.0-77.0-0.29","3932","7269","25","Male","true","false","true","true","""event"",""trial"",""time""
""fullscreenenter"",""5"",""14518""
","
","
","""event"",""trial"",""time""
""fullscreenenter"",""5"",""14518""
","
","443.10000002384186","","48","","","3000","1","","","images/earth.jpg","images/rocket2","images/rocket1","null","images/rocket2","","1","real","null","2","","",""
"d3-animate-choice","224","600577","0.0-77.0-1.29","3932","7269","25","Male","true","false","true","true","""event"",""trial"",""time""
""fullscreenenter"",""5"",""14518""
","
","
","""event"",""trial"",""time""
""fullscreenenter"",""5"",""14518""
","
","1258.1000000238419","","48","","","3000","1","","","images/purpleplanet.jpg","images/alien4","images/alien3","images/rocket2","images/alien4","images/nothing.png","2","real","false","2","rare","0","2023-03-04 13:25:12.822"
"two-step-fixation","225","601581","0.0-77.0-2.29","3932","7269","25","Male","true","false","true","true","""event"",""trial"",""time""
""fullscreenenter"",""5"",""14518""
","
","
","""event"",""trial"",""time""
""fullscreenenter"",""5"",""14518""
","
","","images/earth.jpg","","","","","","","","","","","","","","fixation","","","","","",""
"d3-animate-choice","226","603973","0.0-77.0-0.30","3932","7269","25","Male","true","false","true","true","""event"",""trial"",""time""
""fullscreenenter"",""5"",""14518""
","
","
","""event"",""trial"",""time""
""fullscreenenter"",""5"",""14518""
","
","383.60000002384186","","48","","","3000","1","","","images/earth.jpg","images/rocket2","images/rocket1","null","images/rocket2","","1","real","null","2","","",""
"d3-animate-choice","227","606826","0.0-77.0-1.30","3932","7269","25","Male","true","false","true","true","""event"",""trial"",""time""
""fullscreenenter"",""5"",""14518""
","
","
","""event"",""trial"",""time""
""fullscreenenter"",""5"",""14518""
","
","846.6000000238419","","48","","","3000","1","","","images/redplanet1.jpg","images/alien2","images/alien1","images/rocket2","images/alien2","images/t.png","2","real","true","2","common","1","2023-03-04 13:25:19.071"
"two-step-fixation","228","607833","0.0-77.0-2.30","3932","7269","25","Male","true","false","true","true","""event"",""trial"",""time""
""fullscreenenter"",""5"",""14518""
","
","
","""event"",""trial"",""time""
""fullscreenenter"",""5"",""14518""
","
","","images/earth.jpg","","","","","","","","","","","","","","fixation","","","","","",""
"d3-animate-choice","229","610405","0.0-77.0-0.31","3932","7269","25","Male","true","false","true","true","""event"",""trial"",""time""
""fullscreenenter"",""5"",""14518""
","
","
","""event"",""trial"",""time""
""fullscreenenter"",""5"",""14518""
","
","561","","48","","","3000","1","","","images/earth.jpg","images/rocket2","images/rocket1","null","images/rocket2","","1","real","null","2","","",""
"d3-animate-choice","230","613133","0.0-77.0-1.31","3932","7269","25","Male","true","false","true","true","""event"",""trial"",""time""
""fullscreenenter"",""5"",""14518""
","
","
","""event"",""trial"",""time""
""fullscreenenter"",""5"",""14518""
","
","719.3999999761581","","49","","","3000","1","","","images/purpleplanet.jpg","images/alien4","images/alien3","images/rocket2","images/alien3","images/nothing.png","2","real","false","1","rare","0","2023-03-04 13:25:25.378"
"two-step-fixation","231","614137","0.0-77.0-2.31","3932","7269","25","Male","true","false","true","true","""event"",""trial"",""time""
""fullscreenenter"",""5"",""14518""
","
","
","""event"",""trial"",""time""
""fullscreenenter"",""5"",""14518""
","
","","images/earth.jpg","","","","","","","","","","","","","","fixation","","","","","",""
"d3-animate-choice","232","616419","0.0-77.0-0.32","3932","7269","25","Male","true","false","true","true","""event"",""trial"",""time""
""fullscreenenter"",""5"",""14518""
","
","
","""event"",""trial"",""time""
""fullscreenenter"",""5"",""14518""
","
","277.39999997615814","","48","","","3000","1","","","images/earth.jpg","images/rocket2","images/rocket1","null","images/rocket2","","1","real","null","2","","",""
"d3-animate-choice","233","619490","0.0-77.0-1.32","3932","7269","25","Male","true","false","true","true","""event"",""trial"",""time""
""fullscreenenter"",""5"",""14518""
","
","
","""event"",""trial"",""time""
""fullscreenenter"",""5"",""14518""
","
","1065.7000000476837","","48","","","3000","1","","","images/redplanet1.jpg","images/alien2","images/alien1","images/rocket2","images/alien2","images/nothing.png","2","real","true","2","common","0","2023-03-04 13:25:31.735"
"two-step-fixation","234","620499","0.0-77.0-2.32","3932","7269","25","Male","true","false","true","true","""event"",""trial"",""time""
""fullscreenenter"",""5"",""14518""
","
","
","""event"",""trial"",""time""
""fullscreenenter"",""5"",""14518""
","
","","images/earth.jpg","","","","","","","","","","","","","","fixation","","","","","",""
"d3-animate-choice","235","622915","0.0-77.0-0.33","3932","7269","25","Male","true","false","true","true","""event"",""trial"",""time""
""fullscreenenter"",""5"",""14518""
","
","
","""event"",""trial"",""time""
""fullscreenenter"",""5"",""14518""
","
","403.5","","48","","","3000","1","","","images/earth.jpg","images/rocket2","images/rocket1","null","images/rocket2","","1","real","null","2","","",""
"d3-animate-choice","236","625826","0.0-77.0-1.33","3932","7269","25","Male","true","false","true","true","""event"",""trial"",""time""
""fullscreenenter"",""5"",""14518""
","
","
","""event"",""trial"",""time""
""fullscreenenter"",""5"",""14518""
","
","902.6000000238419","","48","","","3000","1","","","images/purpleplanet.jpg","images/alien4","images/alien3","images/rocket2","images/alien4","images/t.png","2","real","false","2","rare","1","2023-03-04 13:25:38.071"
"two-step-fixation","237","626833","0.0-77.0-2.33","3932","7269","25","Male","true","false","true","true","""event"",""trial"",""time""
""fullscreenenter"",""5"",""14518""
","
","
","""event"",""trial"",""time""
""fullscreenenter"",""5"",""14518""
","
","","images/earth.jpg","","","","","","","","","","","","","","fixation","","","","","",""
"d3-animate-choice","238","629475","0.0-77.0-0.34","3932","7269","25","Male","true","false","true","true","""event"",""trial"",""time""
""fullscreenenter"",""5"",""14518""
","
","
","""event"",""trial"",""time""
""fullscreenenter"",""5"",""14518""
","
","629.8999999761581","","48","","","3000","1","","","images/earth.jpg","images/rocket2","images/rocket1","null","images/rocket2","","1","real","null","2","","",""
"d3-animate-choice","239","632610","0.0-77.0-1.34","3932","7269","25","Male","true","false","true","true","""event"",""trial"",""time""
""fullscreenenter"",""5"",""14518""
","
","
","""event"",""trial"",""time""
""fullscreenenter"",""5"",""14518""
","
","1126.7000000476837","","48","","","3000","1","","","images/redplanet1.jpg","images/alien2","images/alien1","images/rocket2","images/alien2","images/t.png","2","real","true","2","common","1","2023-03-04 13:25:44.855"
"two-step-fixation","240","633614","0.0-77.0-2.34","3932","7269","25","Male","true","false","true","true","""event"",""trial"",""time""
""fullscreenenter"",""5"",""14518""
","
","
","""event"",""trial"",""time""
""fullscreenenter"",""5"",""14518""
","
","","images/earth.jpg","","","","","","","","","","","","","","fixation","","","","","",""
"d3-animate-choice","241","636180","0.0-77.0-0.35","3932","7269","25","Male","true","false","true","true","""event"",""trial"",""time""
""fullscreenenter"",""5"",""14518""
","
","
","""event"",""trial"",""time""
""fullscreenenter"",""5"",""14518""
","
","556.1000000238419","","48","","","3000","1","","","images/earth.jpg","images/rocket2","images/rocket1","null","images/rocket2","","1","real","null","2","","",""
"d3-animate-choice","242","638733","0.0-77.0-1.35","3932","7269","25","Male","true","false","true","true","""event"",""trial"",""time""
""fullscreenenter"",""5"",""14518""
","
","
","""event"",""trial"",""time""
""fullscreenenter"",""5"",""14518""
","
","541","","48","","","3000","1","","","images/purpleplanet.jpg","images/alien4","images/alien3","images/rocket2","images/alien4","images/nothing.png","2","real","false","2","rare","0","2023-03-04 13:25:50.978"
"two-step-fixation","243","639738","0.0-77.0-2.35","3932","7269","25","Male","true","false","true","true","""event"",""trial"",""time""
""fullscreenenter"",""5"",""14518""
","
","
","""event"",""trial"",""time""
""fullscreenenter"",""5"",""14518""
","
","","images/earth.jpg","","","","","","","","","","","","","","fixation","","","","","",""
"d3-animate-choice","244","642850","0.0-77.0-0.36","3932","7269","25","Male","true","false","true","true","""event"",""trial"",""time""
""fullscreenenter"",""5"",""14518""
","
","
","""event"",""trial"",""time""
""fullscreenenter"",""5"",""14518""
","
","1107","","48","","","3000","1","","","images/earth.jpg","images/rocket2","images/rocket1","null","images/rocket2","","1","real","null","2","","",""
"d3-animate-choice","245","645836","0.0-77.0-1.36","3932","7269","25","Male","true","false","true","true","""event"",""trial"",""time""
""fullscreenenter"",""5"",""14518""
","
","
","""event"",""trial"",""time""
""fullscreenenter"",""5"",""14518""
","
","980.7999999523163","","48","","","3000","1","","","images/redplanet1.jpg","images/alien2","images/alien1","images/rocket2","images/alien2","images/t.png","2","real","true","2","common","1","2023-03-04 13:25:58.082"
"two-step-fixation","246","646843","0.0-77.0-2.36","3932","7269","25","Male","true","false","true","true","""event"",""trial"",""time""
""fullscreenenter"",""5"",""14518""
","
","
","""event"",""trial"",""time""
""fullscreenenter"",""5"",""14518""
","
","","images/earth.jpg","","","","","","","","","","","","","","fixation","","","","","",""
"d3-animate-choice","247","649583","0.0-77.0-0.37","3932","7269","25","Male","true","false","true","true","""event"",""trial"",""time""
""fullscreenenter"",""5"",""14518""
","
","
","""event"",""trial"",""time""
""fullscreenenter"",""5"",""14518""
","
