"trial_type","trial_index","time_elapsed","internal_node_id","participant_id","subject_id","age","gender","rocket_sides","red_planet_first_rocket","red_display_order","purple_display_order","interactions","blur_events","focus_events","fullscreenenter_events","fullscreenexit_events","rt","stimulus","key_press","button_pressed","success","duration","valid_pressed","rts","keys","planet_text","right_text","left_text","center_text","chosen_text","reward_text","trial_stage","practice_trial","transition_type","choice","transition","reward","timestamp"
"pavlovia","0","6","0.0-0.0","1225","1302","19","Female","false","false","false","true","""event"",""trial"",""time""
""focus"",""0"",""0""
","
","""event"",""trial"",""time""
""focus"",""0"",""0""
","
","
","","","","","","","","","","","","","","","","","","","","","",""
"html-keyboard-response","1","1126","0.0-1.0","1225","1302","19","Female","false","false","false","true","""event"",""trial"",""time""
""focus"",""0"",""0""
","
","""event"",""trial"",""time""
""focus"",""0"",""0""
","
","
","1118.2999999523163","Welcome! Press the space bar to begin.","32","","","","","","","","","","","","","","","","","","",""
"audio-keyboard-response","2","3215","0.0-2.0","1225","1302","19","Female","false","false","false","true","""event"",""trial"",""time""
""focus"",""0"",""0""
","
","""event"",""trial"",""time""
""focus"",""0"",""0""
","
","
","2000","audio/beep_loop.wav","32","","","","","","","","","","","","","","","","","","",""
"audio-button-response","3","6017","0.0-3.0","1225","1302","19","Female","false","false","false","true","""event"",""trial"",""time""
""focus"",""0"",""0""
","
","""event"",""trial"",""time""
""focus"",""0"",""0""
","
","
","NaN","audio/fish.mp3","","1","","","","","","","","","","","","","","","","","",""
"audio-button-response","4","8565","0.0-4.0","1225","1302","19","Female","false","false","false","true","""event"",""trial"",""time""
""focus"",""0"",""0""
""fullscreenenter"",""5"",""13095""
","
","""event"",""trial"",""time""
""focus"",""0"",""0""
","""event"",""trial"",""time""
""fullscreenenter"",""5"",""13095""
","
","NaN","audio/tiger.mp3","","4","","","","","","","","","","","","","","","","","",""
"fullscreen","5","14060","0.0-5.0","1225","1302","19","Female","false","false","false","true","""event"",""trial"",""time""
""focus"",""0"",""0""
""fullscreenenter"",""5"",""13095""
","
","""event"",""trial"",""time""
""focus"",""0"",""0""
","""event"",""trial"",""time""
""fullscreenenter"",""5"",""13095""
","
","","","","","true","","","","","","","","","","","","","","","","",""
"d3-instructions","6","29415","0.0-6.0","1225","1302","19","Female","false","false","false","true","""event"",""trial"",""time""
""focus"",""0"",""0""
""fullscreenenter"",""5"",""13095""
","
","""event"",""trial"",""time""
""focus"",""0"",""0""
","""event"",""trial"",""time""
""fullscreenenter"",""5"",""13095""
","
","","","","","","","","","","","","","","","","","","","","","",""
"d3-instructions","7","39465","0.0-7.0","1225","1302","19","Female","false","false","false","true","""event"",""trial"",""time""
""focus"",""0"",""0""
""fullscreenenter"",""5"",""13095""
","
","""event"",""trial"",""time""
""focus"",""0"",""0""
","""event"",""trial"",""time""
""fullscreenenter"",""5"",""13095""
","
","","","","","","","","","","","","","","","","","","","","","",""
"d3-instructions","8","46585","0.0-8.0","1225","1302","19","Female","false","false","false","true","""event"",""trial"",""time""
""focus"",""0"",""0""
""fullscreenenter"",""5"",""13095""
","
","""event"",""trial"",""time""
""focus"",""0"",""0""
","""event"",""trial"",""time""
""fullscreenenter"",""5"",""13095""
","
","","","","","","","","","","","","","","","","","","","","","",""
"d3-instructions","9","58685","0.0-9.0","1225","1302","19","Female","false","false","false","true","""event"",""trial"",""time""
""focus"",""0"",""0""
""fullscreenenter"",""5"",""13095""
","
","""event"",""trial"",""time""
""focus"",""0"",""0""
","""event"",""trial"",""time""
""fullscreenenter"",""5"",""13095""
","
","","","","","","","","","","","","","","","","","","","","","",""
"d3-instructions","10","68165","0.0-10.0","1225","1302","19","Female","false","false","false","true","""event"",""trial"",""time""
""focus"",""0"",""0""
""fullscreenenter"",""5"",""13095""
","
","""event"",""trial"",""time""
""focus"",""0"",""0""
","""event"",""trial"",""time""
""fullscreenenter"",""5"",""13095""
","
","","","","","","","","","","","","","","","","","","","","","",""
"d3-animate-choice","11","72907","0.0-11.0","1225","1302","19","Female","false","false","false","true","""event"",""trial"",""time""
""focus"",""0"",""0""
""fullscreenenter"",""5"",""13095""
","
","""event"",""trial"",""time""
""focus"",""0"",""0""
","""event"",""trial"",""time""
""fullscreenenter"",""5"",""13095""
","
","2720.600000023842","","49","","","3000","1","","","images/tutgreenplanet.jpg","images/tutalien1","images/tutalien2","null","images/tutalien2","","NA","practice","null","","","",""
"d3-animate-choice","12","77980","0.0-12.0","1225","1302","19","Female","false","false","false","true","""event"",""trial"",""time""
""focus"",""0"",""0""
""fullscreenenter"",""5"",""13095""
","
","""event"",""trial"",""time""
""focus"",""0"",""0""
","""event"",""trial"",""time""
""fullscreenenter"",""5"",""13095""
","
","686.0999999642372","","50","","","3000","1","1184.699999988079,3055.199999988079","50,48","images/tutgreenplanet.jpg","images/tutalien1","images/tutalien2","null","images/tutalien1","","NA","practice","null","","","",""
"d3-animate-choice","13","80401","0.0-13.0","1225","1302","19","Female","false","false","false","true","""event"",""trial"",""time""
""focus"",""0"",""0""
""fullscreenenter"",""5"",""13095""
","
","""event"",""trial"",""time""
""focus"",""0"",""0""
","""event"",""trial"",""time""
""fullscreenenter"",""5"",""13095""
","
","412.19999998807907","","49","","","3000","1","","","images/tutgreenplanet.jpg","images/tutalien1","images/tutalien2","null","images/tutalien2","","NA","practice","null","","","",""
"d3-animate-choice","14","82733","0.0-14.0","1225","1302","19","Female","false","false","false","true","""event"",""trial"",""time""
""focus"",""0"",""0""
""fullscreenenter"",""5"",""13095""
","
","""event"",""trial"",""time""
""focus"",""0"",""0""
","""event"",""trial"",""time""
""fullscreenenter"",""5"",""13095""
","
","322.5999999642372","","48","","","3000","1","","","images/tutgreenplanet.jpg","images/tutalien1","images/tutalien2","null","images/tutalien1","","NA","practice","null","","","",""
"d3-instructions","15","89004","0.0-15.0","1225","1302","19","Female","false","false","false","true","""event"",""trial"",""time""
""focus"",""0"",""0""
""fullscreenenter"",""5"",""13095""
","
","""event"",""trial"",""time""
""focus"",""0"",""0""
","""event"",""trial"",""time""
""fullscreenenter"",""5"",""13095""
","
","","","","","","","","","","","","","","","","","","","","","",""
"d3-instructions","16","93155","0.0-16.0","1225","1302","19","Female","false","false","false","true","""event"",""trial"",""time""
""focus"",""0"",""0""
""fullscreenenter"",""5"",""13095""
","
","""event"",""trial"",""time""
""focus"",""0"",""0""
","""event"",""trial"",""time""
""fullscreenenter"",""5"",""13095""
","
","","","","","","","","","","","","","","","","","","","","","",""
"d3-instructions","17","96265","0.0-17.0","1225","1302","19","Female","false","false","false","true","""event"",""trial"",""time""
""focus"",""0"",""0""
""fullscreenenter"",""5"",""13095""
","
","""event"",""trial"",""time""
""focus"",""0"",""0""
","""event"",""trial"",""time""
""fullscreenenter"",""5"",""13095""
","
","","","","","","","","","","","","","","","","","","","","","",""
"d3-instructions","18","100446","0.0-18.0","1225","1302","19","Female","false","false","false","true","""event"",""trial"",""time""
""focus"",""0"",""0""
""fullscreenenter"",""5"",""13095""
","
","""event"",""trial"",""time""
""focus"",""0"",""0""
","""event"",""trial"",""time""
""fullscreenenter"",""5"",""13095""
","
","","","","","","","","","","","","","","","","","","","","","",""
"d3-instructions","19","106835","0.0-19.0","1225","1302","19","Female","false","false","false","true","""event"",""trial"",""time""
""focus"",""0"",""0""
""fullscreenenter"",""5"",""13095""
","
","""event"",""trial"",""time""
""focus"",""0"",""0""
","""event"",""trial"",""time""
""fullscreenenter"",""5"",""13095""
","
","","","","","","","","","","","","","","","","","","","","","",""
"d3-animate-choice","20","109410","0.0-20.0","1225","1302","19","Female","false","false","false","true","""event"",""trial"",""time""
""focus"",""0"",""0""
""fullscreenenter"",""5"",""13095""
","
","""event"",""trial"",""time""
""focus"",""0"",""0""
","""event"",""trial"",""time""
""fullscreenenter"",""5"",""13095""
","
","557.6999999880791","","49","","","3000","1","947.5,1297.0999999642372,1666.7999999523163,2077.099999964237","49,49,49,49","images/tutyellowplanet.jpg","null","images/tutalien3","null","images/tutalien3","images/t.png","NA","practice","null","","","",""
"d3-animate-choice","21","111770","0.0-21.0","1225","1302","19","Female","false","false","false","true","""event"",""trial"",""time""
""focus"",""0"",""0""
""fullscreenenter"",""5"",""13095""
","
","""event"",""trial"",""time""
""focus"",""0"",""0""
","""event"",""trial"",""time""
""fullscreenenter"",""5"",""13095""
","
","342.19999998807907","","49","","","3000","1","807.5999999642372,1212.199999988079,1572.5999999642372","49,49,49","images/tutyellowplanet.jpg","null","images/tutalien3","null","images/tutalien3","images/t.png","NA","practice","null","","","",""
"d3-animate-choice","22","114668","0.0-22.0","1225","1302","19","Female","false","false","false","true","""event"",""trial"",""time""
""focus"",""0"",""0""
""fullscreenenter"",""5"",""13095""
","
","""event"",""trial"",""time""
""focus"",""0"",""0""
","""event"",""trial"",""time""
""fullscreenenter"",""5"",""13095""
","
","894.5","","49","","","3000","1","1181.800000011921,1412,1662.6000000238419,1912.3999999761581,2182","49,49,49,49,49","images/tutyellowplanet.jpg","null","images/tutalien3","null","images/tutalien3","images/t.png","NA","practice","null","","","",""
"d3-animate-choice","23","116975","0.0-23.0","1225","1302","19","Female","false","false","false","true","""event"",""trial"",""time""
""focus"",""0"",""0""
""fullscreenenter"",""5"",""13095""
","
","""event"",""trial"",""time""
""focus"",""0"",""0""
","""event"",""trial"",""time""
""fullscreenenter"",""5"",""13095""
","
","295.30000001192093","","49","","","3000","1","","","images/tutyellowplanet.jpg","null","images/tutalien3","null","images/tutalien3","images/t.png","NA","practice","null","","","",""
"d3-animate-choice","24","118998","0.0-24.0","1225","1302","19","Female","false","false","false","true","""event"",""trial"",""time""
""focus"",""0"",""0""
""fullscreenenter"",""5"",""13095""
","
","""event"",""trial"",""time""
""focus"",""0"",""0""
","""event"",""trial"",""time""
""fullscreenenter"",""5"",""13095""
","
","9.800000011920929","","49","","","3000","1","1367.699999988079","49","images/tutyellowplanet.jpg","null","images/tutalien3","null","images/tutalien3","images/t.png","NA","practice","null","","","",""
"d3-animate-choice","25","121207","0.0-25.0","1225","1302","19","Female","false","false","false","true","""event"",""trial"",""time""
""focus"",""0"",""0""
""fullscreenenter"",""5"",""13095""
","
","""event"",""trial"",""time""
""focus"",""0"",""0""
","""event"",""trial"",""time""
""fullscreenenter"",""5"",""13095""
","
","204.69999998807907","","49","","","3000","1","","","images/tutyellowplanet.jpg","null","images/tutalien3","null","images/tutalien3","images/t.png","NA","practice","null","","","",""
"d3-animate-choice","26","123463","0.0-26.0","1225","1302","19","Female","false","false","false","true","""event"",""trial"",""time""
""focus"",""0"",""0""
""fullscreenenter"",""5"",""13095""
","
","""event"",""trial"",""time""
""focus"",""0"",""0""
","""event"",""trial"",""time""
""fullscreenenter"",""5"",""13095""
","
","251.10000002384186","","49","","","3000","1","","","images/tutyellowplanet.jpg","null","images/tutalien3","null","images/tutalien3","images/t.png","NA","practice","null","","","",""
"d3-animate-choice","27","125571","0.0-27.0","1225","1302","19","Female","false","false","false","true","""event"",""trial"",""time""
""focus"",""0"",""0""
""fullscreenenter"",""5"",""13095""
","
","""event"",""trial"",""time""
""focus"",""0"",""0""
","""event"",""trial"",""time""
""fullscreenenter"",""5"",""13095""
","
","91.5","","49","","","3000","1","","","images/tutyellowplanet.jpg","null","images/tutalien3","null","images/tutalien3","images/t.png","NA","practice","null","","","",""
"d3-animate-choice","28","127632","0.0-28.0","1225","1302","19","Female","false","false","false","true","""event"",""trial"",""time""
""focus"",""0"",""0""
""fullscreenenter"",""5"",""13095""
","
","""event"",""trial"",""time""
""focus"",""0"",""0""
","""event"",""trial"",""time""
""fullscreenenter"",""5"",""13095""
","
","52.200000047683716","","49","","","3000","1","","","images/tutyellowplanet.jpg","null","images/tutalien3","null","images/tutalien3","images/t.png","NA","practice","null","","","",""
"d3-animate-choice","29","129840","0.0-29.0","1225","1302","19","Female","false","false","false","true","""event"",""trial"",""time""
""focus"",""0"",""0""
""fullscreenenter"",""5"",""13095""
","
","""event"",""trial"",""time""
""focus"",""0"",""0""
","""event"",""trial"",""time""
""fullscreenenter"",""5"",""13095""
","
","191.20000004768372","","49","","","3000","1","","","images/tutyellowplanet.jpg","null","images/tutalien3","null","images/tutalien3","images/nothing.png","NA","practice","null","","","",""
"d3-instructions","30","132045","0.0-30.0","1225","1302","19","Female","false","false","false","true","""event"",""trial"",""time""
""focus"",""0"",""0""
""fullscreenenter"",""5"",""13095""
","
","""event"",""trial"",""time""
""focus"",""0"",""0""
","""event"",""trial"",""time""
""fullscreenenter"",""5"",""13095""
","
","","","","","","","","","","","","","","","","","","","","","",""
"d3-instructions","31","135495","0.0-31.0","1225","1302","19","Female","false","false","false","true","""event"",""trial"",""time""
""focus"",""0"",""0""
""fullscreenenter"",""5"",""13095""
","
","""event"",""trial"",""time""
""focus"",""0"",""0""
","""event"",""trial"",""time""
""fullscreenenter"",""5"",""13095""
","
","","","","","","","","","","","","","","","","","","","","","",""
"d3-instructions","32","138215","0.0-32.0","1225","1302","19","Female","false","false","false","true","""event"",""trial"",""time""
""focus"",""0"",""0""
""fullscreenenter"",""5"",""13095""
","
","""event"",""trial"",""time""
""focus"",""0"",""0""
","""event"",""trial"",""time""
""fullscreenenter"",""5"",""13095""
","
","","","","","","","","","","","","","","","","","","","","","",""
"d3-instructions","33","140315","0.0-33.0","1225","1302","19","Female","false","false","false","true","""event"",""trial"",""time""
""focus"",""0"",""0""
""fullscreenenter"",""5"",""13095""
","
","""event"",""trial"",""time""
""focus"",""0"",""0""
","""event"",""trial"",""time""
""fullscreenenter"",""5"",""13095""
","
","","","","","","","","","","","","","","","","","","","","","",""
"d3-animate-choice","34","143448","0.0-34.0","1225","1302","19","Female","false","false","false","true","""event"",""trial"",""time""
""focus"",""0"",""0""
""fullscreenenter"",""5"",""13095""
","
","""event"",""trial"",""time""
""focus"",""0"",""0""
","""event"",""trial"",""time""
""fullscreenenter"",""5"",""13095""
","
","1127.0999999642372","","48","","","3000","1","","","images/tutgreenplanet.jpg","images/tutalien1","images/tutalien2","null","images/tutalien1","images/t.png","NA","practice","null","","","",""
"d3-animate-choice","35","146269","0.0-35.0","1225","1302","19","Female","false","false","false","true","""event"",""trial"",""time""
""focus"",""0"",""0""
""fullscreenenter"",""5"",""13095""
","
","""event"",""trial"",""time""
""focus"",""0"",""0""
","""event"",""trial"",""time""
""fullscreenenter"",""5"",""13095""
","
","807.3000000119209","","49","","","3000","1","","","images/tutgreenplanet.jpg","images/tutalien1","images/tutalien2","null","images/tutalien2","images/t.png","NA","practice","null","","","",""
"d3-animate-choice","36","148470","0.0-36.0","1225","1302","19","Female","false","false","false","true","""event"",""trial"",""time""
""focus"",""0"",""0""
""fullscreenenter"",""5"",""13095""
","
","""event"",""trial"",""time""
""focus"",""0"",""0""
","""event"",""trial"",""time""
""fullscreenenter"",""5"",""13095""
","
","192.5","","49","","","3000","1","1054.3999999761581","49","images/tutgreenplanet.jpg","images/tutalien1","images/tutalien2","null","images/tutalien2","images/t.png","NA","practice","null","","","",""
"d3-animate-choice","37","150840","0.0-37.0","1225","1302","19","Female","false","false","false","true","""event"",""trial"",""time""
""focus"",""0"",""0""
""fullscreenenter"",""5"",""13095""
","
","""event"",""trial"",""time""
""focus"",""0"",""0""
","""event"",""trial"",""time""
""fullscreenenter"",""5"",""13095""
","
","352.30000001192093","","49","","","3000","1","","","images/tutgreenplanet.jpg","images/tutalien1","images/tutalien2","null","images/tutalien2","images/t.png","NA","practice","null","","","",""
"d3-animate-choice","38","153008","0.0-38.0","1225","1302","19","Female","false","false","false","true","""event"",""trial"",""time""
""focus"",""0"",""0""
""fullscreenenter"",""5"",""13095""
","
","""event"",""trial"",""time""
""focus"",""0"",""0""
","""event"",""trial"",""time""
""fullscreenenter"",""5"",""13095""
","
","162.19999998807907","","48","","","3000","1","","","images/tutgreenplanet.jpg","images/tutalien1","images/tutalien2","null","images/tutalien1","images/nothing.png","NA","practice","null","","","",""
"d3-animate-choice","39","155106","0.0-39.0","1225","1302","19","Female","false","false","false","true","""event"",""trial"",""time""
""focus"",""0"",""0""
""fullscreenenter"",""5"",""13095""
","
","""event"",""trial"",""time""
""focus"",""0"",""0""
","""event"",""trial"",""time""
""fullscreenenter"",""5"",""13095""
","
","90.89999997615814","","49","","","3000","1","","","images/tutgreenplanet.jpg","images/tutalien1","images/tutalien2","null","images/tutalien2","images/t.png","NA","practice","null","","","",""
"d3-animate-choice","40","157540","0.0-40.0","1225","1302","19","Female","false","false","false","true","""event"",""trial"",""time""
""focus"",""0"",""0""
""fullscreenenter"",""5"",""13095""
","
","""event"",""trial"",""time""
""focus"",""0"",""0""
","""event"",""trial"",""time""
""fullscreenenter"",""5"",""13095""
","
","428.69999998807907","","48","","","3000","1","","","images/tutgreenplanet.jpg","images/tutalien1","images/tutalien2","null","images/tutalien1","images/t.png","NA","practice","null","","","",""
"d3-animate-choice","41","159933","0.0-41.0","1225","1302","19","Female","false","false","false","true","""event"",""trial"",""time""
""focus"",""0"",""0""
""fullscreenenter"",""5"",""13095""
","
","""event"",""trial"",""time""
""focus"",""0"",""0""
","""event"",""trial"",""time""
""fullscreenenter"",""5"",""13095""
","
","382.30000001192093","","48","","","3000","1","","","images/tutgreenplanet.jpg","images/tutalien1","images/tutalien2","null","images/tutalien1","images/nothing.png","NA","practice","null","","","",""
"d3-animate-choice","42","162087","0.0-42.0","1225","1302","19","Female","false","false","false","true","""event"",""trial"",""time""
""focus"",""0"",""0""
""fullscreenenter"",""5"",""13095""
","
","""event"",""trial"",""time""
""focus"",""0"",""0""
","""event"",""trial"",""time""
""fullscreenenter"",""5"",""13095""
","
","149.19999998807907","","49","","","3000","1","1731.5","49","images/tutgreenplanet.jpg","images/tutalien1","images/tutalien2","null","images/tutalien2","images/t.png","NA","practice","null","","","",""
"d3-animate-choice","43","164376","0.0-43.0","1225","1302","19","Female","false","false","false","true","""event"",""trial"",""time""
""focus"",""0"",""0""
""fullscreenenter"",""5"",""13095""
","
","""event"",""trial"",""time""
""focus"",""0"",""0""
","""event"",""trial"",""time""
""fullscreenenter"",""5"",""13095""
","
","277.19999998807907","","49","","","3000","1","","","images/tutgreenplanet.jpg","images/tutalien1","images/tutalien2","null","images/tutalien2","images/t.png","NA","practice","null","","","",""
"d3-instructions","44","168204","0.0-44.0","1225","1302","19","Female","false","false","false","true","""event"",""trial"",""time""
""focus"",""0"",""0""
""fullscreenenter"",""5"",""13095""
","
","""event"",""trial"",""time""
""focus"",""0"",""0""
","""event"",""trial"",""time""
""fullscreenenter"",""5"",""13095""
","
","","","","","","","","","","","","","","","","","","","","","",""
"d3-instructions","45","169644","0.0-45.0","1225","1302","19","Female","false","false","false","true","""event"",""trial"",""time""
""focus"",""0"",""0""
""fullscreenenter"",""5"",""13095""
","
","""event"",""trial"",""time""
""focus"",""0"",""0""
","""event"",""trial"",""time""
""fullscreenenter"",""5"",""13095""
","
","","","","","","","","","","","","","","","","","","","","","",""
"d3-instructions","46","173104","0.0-46.0","1225","1302","19","Female","false","false","false","true","""event"",""trial"",""time""
""focus"",""0"",""0""
""fullscreenenter"",""5"",""13095""
","
","""event"",""trial"",""time""
""focus"",""0"",""0""
","""event"",""trial"",""time""
""fullscreenenter"",""5"",""13095""
","
","","","","","","","","","","","","","","","","","","","","","",""
"d3-instructions","47","179460","0.0-47.0","1225","1302","19","Female","false","false","false","true","""event"",""trial"",""time""
""focus"",""0"",""0""
""fullscreenenter"",""5"",""13095""
","
","""event"",""trial"",""time""
""focus"",""0"",""0""
","""event"",""trial"",""time""
""fullscreenenter"",""5"",""13095""
","
","","","","","","","","","","","","","","","","","","","","","",""
"d3-instructions","48","181234","0.0-48.0","1225","1302","19","Female","false","false","false","true","""event"",""trial"",""time""
""focus"",""0"",""0""
""fullscreenenter"",""5"",""13095""
","
","""event"",""trial"",""time""
""focus"",""0"",""0""
","""event"",""trial"",""time""
""fullscreenenter"",""5"",""13095""
","
","","","","","","","","","","","","","","","","","","","","","",""
"d3-instructions","49","185494","0.0-49.0","1225","1302","19","Female","false","false","false","true","""event"",""trial"",""time""
""focus"",""0"",""0""
""fullscreenenter"",""5"",""13095""
","
","""event"",""trial"",""time""
""focus"",""0"",""0""
","""event"",""trial"",""time""
""fullscreenenter"",""5"",""13095""
","
","","","","","","","","","","","","","","","","","","","","","",""
"d3-instructions","50","187644","0.0-50.0","1225","1302","19","Female","false","false","false","true","""event"",""trial"",""time""
""focus"",""0"",""0""
""fullscreenenter"",""5"",""13095""
","
","""event"",""trial"",""time""
""focus"",""0"",""0""
","""event"",""trial"",""time""
""fullscreenenter"",""5"",""13095""
","
","","","","","","","","","","","","","","","","","","","","","",""
"d3-instructions","51","188936","0.0-51.0","1225","1302","19","Female","false","false","false","true","""event"",""trial"",""time""
""focus"",""0"",""0""
""fullscreenenter"",""5"",""13095""
","
","""event"",""trial"",""time""
""focus"",""0"",""0""
","""event"",""trial"",""time""
""fullscreenenter"",""5"",""13095""
","
","","","","","","","","","","","","","","","","","","","","","",""
"d3-instructions","52","189905","0.0-52.0","1225","1302","19","Female","false","false","false","true","""event"",""trial"",""time""
""focus"",""0"",""0""
""fullscreenenter"",""5"",""13095""
","
","""event"",""trial"",""time""
""focus"",""0"",""0""
","""event"",""trial"",""time""
""fullscreenenter"",""5"",""13095""
","
","","","","","","","","","","","","","","","","","","","","","",""
"d3-instructions","53","194476","0.0-53.0","1225","1302","19","Female","false","false","false","true","""event"",""trial"",""time""
""focus"",""0"",""0""
""fullscreenenter"",""5"",""13095""
","
","""event"",""trial"",""time""
""focus"",""0"",""0""
","""event"",""trial"",""time""
""fullscreenenter"",""5"",""13095""
","
","","","","","","","","","","","","","","","","","","","","","",""
"d3-instructions","54","197524","0.0-54.0","1225","1302","19","Female","false","false","false","true","""event"",""trial"",""time""
""focus"",""0"",""0""
""fullscreenenter"",""5"",""13095""
","
","""event"",""trial"",""time""
""focus"",""0"",""0""
","""event"",""trial"",""time""
""fullscreenenter"",""5"",""13095""
","
","","","","","","","","","","","","","","","","","","","","","",""
"d3-instructions","55","198834","0.0-55.0","1225","1302","19","Female","false","false","false","true","""event"",""trial"",""time""
""focus"",""0"",""0""
""fullscreenenter"",""5"",""13095""
","
","""event"",""trial"",""time""
""focus"",""0"",""0""
","""event"",""trial"",""time""
""fullscreenenter"",""5"",""13095""
","
","","","","","","","","","","","","","","","","","","","","","",""
"d3-instructions","56","200205","0.0-56.0","1225","1302","19","Female","false","false","false","true","""event"",""trial"",""time""
""focus"",""0"",""0""
""fullscreenenter"",""5"",""13095""
","
","""event"",""trial"",""time""
""focus"",""0"",""0""
","""event"",""trial"",""time""
""fullscreenenter"",""5"",""13095""
","
","","","","","","","","","","","","","","","","","","","","","",""
"d3-instructions","57","206784","0.0-57.0","1225","1302","19","Female","false","false","false","true","""event"",""trial"",""time""
""focus"",""0"",""0""
""fullscreenenter"",""5"",""13095""
","
","""event"",""trial"",""time""
""focus"",""0"",""0""
","""event"",""trial"",""time""
""fullscreenenter"",""5"",""13095""
","
","","","","","","","","","","","","","","","","","","","","","",""
"d3-instructions","58","211801","0.0-58.0","1225","1302","19","Female","false","false","false","true","""event"",""trial"",""time""
""focus"",""0"",""0""
""fullscreenenter"",""5"",""13095""
","
","""event"",""trial"",""time""
""focus"",""0"",""0""
","""event"",""trial"",""time""
""fullscreenenter"",""5"",""13095""
","
","","","","","","","","","","","","","","","","","","","","","",""
"d3-instructions","59","213544","0.0-59.0","1225","1302","19","Female","false","false","false","true","""event"",""trial"",""time""
""focus"",""0"",""0""
""fullscreenenter"",""5"",""13095""
","
","""event"",""trial"",""time""
""focus"",""0"",""0""
","""event"",""trial"",""time""
""fullscreenenter"",""5"",""13095""
","
","","","","","","","","","","","","","","","","","","","","","",""
"d3-instructions","60","215710","0.0-60.0","1225","1302","19","Female","false","false","false","true","""event"",""trial"",""time""
""focus"",""0"",""0""
""fullscreenenter"",""5"",""13095""
","
","""event"",""trial"",""time""
""focus"",""0"",""0""
","""event"",""trial"",""time""
""fullscreenenter"",""5"",""13095""
","
","","","","","","","","","","","","","","","","","","","","","",""
"d3-animate-choice","61","218381","0.0-61.0-0.0","1225","1302","19","Female","false","false","false","true","""event"",""trial"",""time""
""focus"",""0"",""0""
""fullscreenenter"",""5"",""13095""
","
","""event"",""trial"",""time""
""focus"",""0"",""0""
","""event"",""trial"",""time""
""fullscreenenter"",""5"",""13095""
","
","660.9000000357628","","48","","","3000","1","","","images/earth.jpg","images/tutrocket1","images/tutrocket2","null","images/tutrocket1","","1","practice","null","2","","",""
"d3-animate-choice","62","221330","0.0-61.0-1.0","1225","1302","19","Female","false","false","false","true","""event"",""trial"",""time""
""focus"",""0"",""0""
""fullscreenenter"",""5"",""13095""
","
","""event"",""trial"",""time""
""focus"",""0"",""0""
","""event"",""trial"",""time""
""fullscreenenter"",""5"",""13095""
","
","940.6999999880791","","48","","","3000","1","","","images/tutgreenplanet.jpg","images/tutalien2","images/tutalien1","images/tutrocket1","images/tutalien2","images/nothing.png","2","practice","false","2","rare","0","2022-04-01 02:05:51.090"
"two-step-fixation","63","222340","0.0-61.0-2.0","1225","1302","19","Female","false","false","false","true","""event"",""trial"",""time""
""focus"",""0"",""0""
""fullscreenenter"",""5"",""13095""
","
","""event"",""trial"",""time""
""focus"",""0"",""0""
","""event"",""trial"",""time""
""fullscreenenter"",""5"",""13095""
","
","","images/earth.jpg","","","","","","","","","","","","","","fixation","","","","","",""
"d3-animate-choice","64","224959","0.0-61.0-0.1","1225","1302","19","Female","false","false","false","true","""event"",""trial"",""time""
""focus"",""0"",""0""
""fullscreenenter"",""5"",""13095""
","
","""event"",""trial"",""time""
""focus"",""0"",""0""
","""event"",""trial"",""time""
""fullscreenenter"",""5"",""13095""
","
","612.3000000119209","","48","","","3000","1","","","images/earth.jpg","images/tutrocket1","images/tutrocket2","null","images/tutrocket1","","1","practice","null","2","","",""
"d3-animate-choice","65","227196","0.0-61.0-1.1","1225","1302","19","Female","false","false","false","true","""event"",""trial"",""time""
""focus"",""0"",""0""
""fullscreenenter"",""5"",""13095""
","
","""event"",""trial"",""time""
""focus"",""0"",""0""
","""event"",""trial"",""time""
""fullscreenenter"",""5"",""13095""
","
","231.89999997615814","","49","","","3000","1","","","images/tutyellowplanet.jpg","images/tutalien4","images/tutalien3","images/tutrocket1","images/tutalien3","images/nothing.png","2","practice","true","1","common","0","2022-04-01 02:05:56.956"
"two-step-fixation","66","228199","0.0-61.0-2.1","1225","1302","19","Female","false","false","false","true","""event"",""trial"",""time""
""focus"",""0"",""0""
""fullscreenenter"",""5"",""13095""
","
","""event"",""trial"",""time""
""focus"",""0"",""0""
","""event"",""trial"",""time""
""fullscreenenter"",""5"",""13095""
","
","","images/earth.jpg","","","","","","","","","","","","","","fixation","","","","","",""
"d3-animate-choice","67","230417","0.0-61.0-0.2","1225","1302","19","Female","false","false","false","true","""event"",""trial"",""time""
""focus"",""0"",""0""
""fullscreenenter"",""5"",""13095""
","
","""event"",""trial"",""time""
""focus"",""0"",""0""
","""event"",""trial"",""time""
""fullscreenenter"",""5"",""13095""
","
","211.69999998807907","","49","","","3000","1","","","images/earth.jpg","images/tutrocket1","images/tutrocket2","null","images/tutrocket2","","1","practice","null","1","","",""
"d3-animate-choice","68","232667","0.0-61.0-1.2","1225","1302","19","Female","false","false","false","true","""event"",""trial"",""time""
""focus"",""0"",""0""
""fullscreenenter"",""5"",""13095""
","
","""event"",""trial"",""time""
""focus"",""0"",""0""
","""event"",""trial"",""time""
""fullscreenenter"",""5"",""13095""
","
","244.89999997615814","","48","","","3000","1","","","images/tutyellowplanet.jpg","images/tutalien4","images/tutalien3","images/tutrocket2","images/tutalien4","images/nothing.png","2","practice","false","2","rare","0","2022-04-01 02:06:02.427"
"two-step-fixation","69","233672","0.0-61.0-2.2","1225","1302","19","Female","false","false","false","true","""event"",""trial"",""time""
""focus"",""0"",""0""
""fullscreenenter"",""5"",""13095""
","
","""event"",""trial"",""time""
""focus"",""0"",""0""
","""event"",""trial"",""time""
""fullscreenenter"",""5"",""13095""
","
","","images/earth.jpg","","","","","","","","","","","","","","fixation","","","","","",""
"d3-animate-choice","70","235958","0.0-61.0-0.3","1225","1302","19","Female","false","false","false","true","""event"",""trial"",""time""
""focus"",""0"",""0""
""fullscreenenter"",""5"",""13095""
","
","""event"",""trial"",""time""
""focus"",""0"",""0""
","""event"",""trial"",""time""
""fullscreenenter"",""5"",""13095""
","
","272.7000000476837","","49","","","3000","1","","","images/earth.jpg","images/tutrocket1","images/tutrocket2","null","images/tutrocket2","","1","practice","null","1","","",""
"d3-animate-choice","71","238230","0.0-61.0-1.3","1225","1302","19","Female","false","false","false","true","""event"",""trial"",""time""
""focus"",""0"",""0""
""fullscreenenter"",""5"",""13095""
","
","""event"",""trial"",""time""
""focus"",""0"",""0""
","""event"",""trial"",""time""
""fullscreenenter"",""5"",""13095""
","
","255.89999997615814","","48","","","3000","1","","","images/tutgreenplanet.jpg","images/tutalien2","images/tutalien1","images/tutrocket2","images/tutalien2","images/nothing.png","2","practice","true","2","common","0","2022-04-01 02:06:07.990"
"two-step-fixation","72","239235","0.0-61.0-2.3","1225","1302","19","Female","false","false","false","true","""event"",""trial"",""time""
""focus"",""0"",""0""
""fullscreenenter"",""5"",""13095""
","
","""event"",""trial"",""time""
""focus"",""0"",""0""
","""event"",""trial"",""time""
""fullscreenenter"",""5"",""13095""
","
","","images/earth.jpg","","","","","","","","","","","","","","fixation","","","","","",""
"d3-animate-choice","73","241480","0.0-61.0-0.4","1225","1302","19","Female","false","false","false","true","""event"",""trial"",""time""
""focus"",""0"",""0""
""fullscreenenter"",""5"",""13095""
","
","""event"",""trial"",""time""
""focus"",""0"",""0""
","""event"",""trial"",""time""
""fullscreenenter"",""5"",""13095""
","
","226.70000004768372","","48","","","3000","1","","","images/earth.jpg","images/tutrocket1","images/tutrocket2","null","images/tutrocket1","","1","practice","null","2","","",""
"d3-animate-choice","74","243746","0.0-61.0-1.4","1225","1302","19","Female","false","false","false","true","""event"",""trial"",""time""
""focus"",""0"",""0""
""fullscreenenter"",""5"",""13095""
","
","""event"",""trial"",""time""
""focus"",""0"",""0""
","""event"",""trial"",""time""
""fullscreenenter"",""5"",""13095""
","
","261.60000002384186","","49","","","3000","1","","","images/tutyellowplanet.jpg","images/tutalien4","images/tutalien3","images/tutrocket1","images/tutalien3","images/nothing.png","2","practice","true","1","common","0","2022-04-01 02:06:13.506"
"two-step-fixation","75","244753","0.0-61.0-2.4","1225","1302","19","Female","false","false","false","true","""event"",""trial"",""time""
""focus"",""0"",""0""
""fullscreenenter"",""5"",""13095""
","
","""event"",""trial"",""time""
""focus"",""0"",""0""
","""event"",""trial"",""time""
""fullscreenenter"",""5"",""13095""
","
","","images/earth.jpg","","","","","","","","","","","","","","fixation","","","","","",""
"d3-animate-choice","76","246967","0.0-61.0-0.5","1225","1302","19","Female","false","false","false","true","""event"",""trial"",""time""
""focus"",""0"",""0""
""fullscreenenter"",""5"",""13095""
","
","""event"",""trial"",""time""
""focus"",""0"",""0""
","""event"",""trial"",""time""
""fullscreenenter"",""5"",""13095""
","
","208.60000002384186","","48","","","3000","1","2138.5","48","images/earth.jpg","images/tutrocket1","images/tutrocket2","null","images/tutrocket1","","1","practice","null","2","","",""
"d3-animate-choice","77","249227","0.0-61.0-1.5","1225","1302","19","Female","false","false","false","true","""event"",""trial"",""time""
""focus"",""0"",""0""
""fullscreenenter"",""5"",""13095""
","
","""event"",""trial"",""time""
""focus"",""0"",""0""
","""event"",""trial"",""time""
""fullscreenenter"",""5"",""13095""
","
","254.79999995231628","","48","","","3000","1","","","images/tutyellowplanet.jpg","images/tutalien4","images/tutalien3","images/tutrocket1","images/tutalien4","images/t.png","2","practice","true","2","common","1","2022-04-01 02:06:18.987"
"two-step-fixation","78","250231","0.0-61.0-2.5","1225","1302","19","Female","false","false","false","true","""event"",""trial"",""time""
""focus"",""0"",""0""
""fullscreenenter"",""5"",""13095""
","
","""event"",""trial"",""time""
""focus"",""0"",""0""
","""event"",""trial"",""time""
""fullscreenenter"",""5"",""13095""
","
","","images/earth.jpg","","","","","","","","","","","","","","fixation","","","","","",""
"d3-animate-choice","79","252366","0.0-61.0-0.6","1225","1302","19","Female","false","false","false","true","""event"",""trial"",""time""
""focus"",""0"",""0""
""fullscreenenter"",""5"",""13095""
","
","""event"",""trial"",""time""
""focus"",""0"",""0""
","""event"",""trial"",""time""
""fullscreenenter"",""5"",""13095""
","
","129.80000001192093","","48","","","3000","1","359.30000001192093,1379.8999999761581,1599.3999999761581,1849.800000011921,2079.5","48,48,48,48,48","images/earth.jpg","images/tutrocket1","images/tutrocket2","null","images/tutrocket1","","1","practice","null","2","","",""
"d3-animate-choice","80","254497","0.0-61.0-1.6","1225","1302","19","Female","false","false","false","true","""event"",""trial"",""time""
""focus"",""0"",""0""
""fullscreenenter"",""5"",""13095""
","
","""event"",""trial"",""time""
""focus"",""0"",""0""
","""event"",""trial"",""time""
""fullscreenenter"",""5"",""13095""
","
","126.09999996423721","","48","","","3000","1","284.69999998807907","48","images/tutgreenplanet.jpg","images/tutalien2","images/tutalien1","images/tutrocket1","images/tutalien2","images/t.png","2","practice","false","2","rare","1","2022-04-01 02:06:24.257"
"two-step-fixation","81","255501","0.0-61.0-2.6","1225","1302","19","Female","false","false","false","true","""event"",""trial"",""time""
""focus"",""0"",""0""
""fullscreenenter"",""5"",""13095""
","
","""event"",""trial"",""time""
""focus"",""0"",""0""
","""event"",""trial"",""time""
""fullscreenenter"",""5"",""13095""
","
","","images/earth.jpg","","","","","","","","","","","","","","fixation","","","","","",""
"d3-animate-choice","82","257858","0.0-61.0-0.7","1225","1302","19","Female","false","false","false","true","""event"",""trial"",""time""
""focus"",""0"",""0""
""fullscreenenter"",""5"",""13095""
","
","""event"",""trial"",""time""
""focus"",""0"",""0""
","""event"",""trial"",""time""
""fullscreenenter"",""5"",""13095""
","
","350.5","","49","","","3000","1","","","images/earth.jpg","images/tutrocket1","images/tutrocket2","null","images/tutrocket2","","1","practice","null","1","","",""
"d3-animate-choice","83","260357","0.0-61.0-1.7","1225","1302","19","Female","false","false","false","true","""event"",""trial"",""time""
""focus"",""0"",""0""
""fullscreenenter"",""5"",""13095""
","
","""event"",""trial"",""time""
""focus"",""0"",""0""
","""event"",""trial"",""time""
""fullscreenenter"",""5"",""13095""
","
","493.5","","48","","","3000","1","","","images/tutgreenplanet.jpg","images/tutalien2","images/tutalien1","images/tutrocket2","images/tutalien2","images/nothing.png","2","practice","true","2","common","0","2022-04-01 02:06:30.117"
"two-step-fixation","84","261360","0.0-61.0-2.7","1225","1302","19","Female","false","false","false","true","""event"",""trial"",""time""
""focus"",""0"",""0""
""fullscreenenter"",""5"",""13095""
","
","""event"",""trial"",""time""
""focus"",""0"",""0""
","""event"",""trial"",""time""
""fullscreenenter"",""5"",""13095""
","
","","images/earth.jpg","","","","","","","","","","","","","","fixation","","","","","",""
"d3-animate-choice","85","263566","0.0-61.0-0.8","1225","1302","19","Female","false","false","false","true","""event"",""trial"",""time""
""focus"",""0"",""0""
""fullscreenenter"",""5"",""13095""
","
","""event"",""trial"",""time""
""focus"",""0"",""0""
","""event"",""trial"",""time""
""fullscreenenter"",""5"",""13095""
","
","202.60000002384186","","49","","","3000","1","","","images/earth.jpg","images/tutrocket1","images/tutrocket2","null","images/tutrocket2","","1","practice","null","1","","",""
"d3-animate-choice","86","265976","0.0-61.0-1.8","1225","1302","19","Female","false","false","false","true","""event"",""trial"",""time""
""focus"",""0"",""0""
""fullscreenenter"",""5"",""13095""
","
","""event"",""trial"",""time""
""focus"",""0"",""0""
","""event"",""trial"",""time""
""fullscreenenter"",""5"",""13095""
","
","406.60000002384186","","49","","","3000","1","","","images/tutgreenplanet.jpg","images/tutalien2","images/tutalien1","images/tutrocket2","images/tutalien1","images/nothing.png","2","practice","true","1","common","0","2022-04-01 02:06:35.737"
"two-step-fixation","87","266981","0.0-61.0-2.8","1225","1302","19","Female","false","false","false","true","""event"",""trial"",""time""
""focus"",""0"",""0""
""fullscreenenter"",""5"",""13095""
","
","""event"",""trial"",""time""
""focus"",""0"",""0""
","""event"",""trial"",""time""
""fullscreenenter"",""5"",""13095""
","
","","images/earth.jpg","","","","","","","","","","","","","","fixation","","","","","",""
"d3-animate-choice","88","269067","0.0-61.0-0.9","1225","1302","19","Female","false","false","false","true","""event"",""trial"",""time""
""focus"",""0"",""0""
""fullscreenenter"",""5"",""13095""
","
","""event"",""trial"",""time""
""focus"",""0"",""0""
","""event"",""trial"",""time""
""fullscreenenter"",""5"",""13095""
","
","80.40000003576279","","48","","","3000","1","","","images/earth.jpg","images/tutrocket1","images/tutrocket2","null","images/tutrocket1","","1","practice","null","2","","",""
"d3-animate-choice","89","271359","0.0-61.0-1.9","1225","1302","19","Female","false","false","false","true","""event"",""trial"",""time""
""focus"",""0"",""0""
""fullscreenenter"",""5"",""13095""
","
","""event"",""trial"",""time""
""focus"",""0"",""0""
","""event"",""trial"",""time""
""fullscreenenter"",""5"",""13095""
","
","286.2999999523163","","48","","","3000","1","","","images/tutyellowplanet.jpg","images/tutalien4","images/tutalien3","images/tutrocket1","images/tutalien4","images/t.png","2","practice","true","2","common","1","2022-04-01 02:06:41.119"
"two-step-fixation","90","272364","0.0-61.0-2.9","1225","1302","19","Female","false","false","false","true","""event"",""trial"",""time""
""focus"",""0"",""0""
""fullscreenenter"",""5"",""13095""
","
","""event"",""trial"",""time""
""focus"",""0"",""0""
","""event"",""trial"",""time""
""fullscreenenter"",""5"",""13095""
","
","","images/earth.jpg","","","","","","","","","","","","","","fixation","","","","","",""
"d3-animate-choice","91","274637","0.0-61.0-0.10","1225","1302","19","Female","false","false","false","true","""event"",""trial"",""time""
""focus"",""0"",""0""
""fullscreenenter"",""5"",""13095""
","
","""event"",""trial"",""time""
""focus"",""0"",""0""
","""event"",""trial"",""time""
""fullscreenenter"",""5"",""13095""
","
","267","","48","","","3000","1","","","images/earth.jpg","images/tutrocket1","images/tutrocket2","null","images/tutrocket1","","1","practice","null","2","","",""
"d3-animate-choice","92","277467","0.0-61.0-1.10","1225","1302","19","Female","false","false","false","true","""event"",""trial"",""time""
""focus"",""0"",""0""
""fullscreenenter"",""5"",""13095""
","
","""event"",""trial"",""time""
""focus"",""0"",""0""
","""event"",""trial"",""time""
""fullscreenenter"",""5"",""13095""
","
","824.9000000357628","","48","","","3000","1","","","images/tutgreenplanet.jpg","images/tutalien2","images/tutalien1","images/tutrocket1","images/tutalien2","images/nothing.png","2","practice","false","2","rare","0","2022-04-01 02:06:47.227"
"two-step-fixation","93","278472","0.0-61.0-2.10","1225","1302","19","Female","false","false","false","true","""event"",""trial"",""time""
""focus"",""0"",""0""
""fullscreenenter"",""5"",""13095""
","
","""event"",""trial"",""time""
""focus"",""0"",""0""
","""event"",""trial"",""time""
""fullscreenenter"",""5"",""13095""
","
","","images/earth.jpg","","","","","","","","","","","","","","fixation","","","","","",""
"d3-animate-choice","94","280482","0.0-61.0-0.11","1225","1302","19","Female","false","false","false","true","""event"",""trial"",""time""
""focus"",""0"",""0""
""fullscreenenter"",""5"",""13095""
","
","""event"",""trial"",""time""
""focus"",""0"",""0""
","""event"",""trial"",""time""
""fullscreenenter"",""5"",""13095""
","
","4.800000011920929","","49","","","3000","1","","","images/earth.jpg","images/tutrocket1","images/tutrocket2","null","images/tutrocket2","","1","practice","null","1","","",""
"d3-animate-choice","95","283207","0.0-61.0-1.11","1225","1302","19","Female","false","false","false","true","""event"",""trial"",""time""
""focus"",""0"",""0""
""fullscreenenter"",""5"",""13095""
","
","""event"",""trial"",""time""
""focus"",""0"",""0""
","""event"",""trial"",""time""
""fullscreenenter"",""5"",""13095""
","
","718.9000000357628","","49","","","3000","1","","","images/tutgreenplanet.jpg","images/tutalien2","images/tutalien1","images/tutrocket2","images/tutalien1","images/nothing.png","2","practice","true","1","common","0","2022-04-01 02:06:52.967"
"two-step-fixation","96","284212","0.0-61.0-2.11","1225","1302","19","Female","false","false","false","true","""event"",""trial"",""time""
""focus"",""0"",""0""
""fullscreenenter"",""5"",""13095""
","
","""event"",""trial"",""time""
""focus"",""0"",""0""
","""event"",""trial"",""time""
""fullscreenenter"",""5"",""13095""
","
","","images/earth.jpg","","","","","","","","","","","","","","fixation","","","","","",""
"d3-animate-choice","97","286270","0.0-61.0-0.12","1225","1302","19","Female","false","false","false","true","""event"",""trial"",""time""
""focus"",""0"",""0""
""fullscreenenter"",""5"",""13095""
","
","""event"",""trial"",""time""
""focus"",""0"",""0""
","""event"",""trial"",""time""
""fullscreenenter"",""5"",""13095""
","
","52.80000001192093","","49","","","3000","1","269.0999999642372","49","images/earth.jpg","images/tutrocket1","images/tutrocket2","null","images/tutrocket2","","1","practice","null","1","","",""
"d3-animate-choice","98","288556","0.0-61.0-1.12","1225","1302","19","Female","false","false","false","true","""event"",""trial"",""time""
""focus"",""0"",""0""
""fullscreenenter"",""5"",""13095""
","
","""event"",""trial"",""time""
""focus"",""0"",""0""
","""event"",""trial"",""time""
""fullscreenenter"",""5"",""13095""
","
","281.69999998807907","","48","","","3000","1","","","images/tutgreenplanet.jpg","images/tutalien2","images/tutalien1","images/tutrocket2","images/tutalien2","images/nothing.png","2","practice","true","2","common","0","2022-04-01 02:06:58.316"
"two-step-fixation","99","289561","0.0-61.0-2.12","1225","1302","19","Female","false","false","false","true","""event"",""trial"",""time""
""focus"",""0"",""0""
""fullscreenenter"",""5"",""13095""
","
","""event"",""trial"",""time""
""focus"",""0"",""0""
","""event"",""trial"",""time""
""fullscreenenter"",""5"",""13095""
","
","","images/earth.jpg","","","","","","","","","","","","","","fixation","","","","","",""
"d3-animate-choice","100","291897","0.0-61.0-0.13","1225","1302","19","Female","false","false","false","true","""event"",""trial"",""time""
""focus"",""0"",""0""
""fullscreenenter"",""5"",""13095""
","
","""event"",""trial"",""time""
""focus"",""0"",""0""
","""event"",""trial"",""time""
""fullscreenenter"",""5"",""13095""
","
","331.19999998807907","","48","","","3000","1","","","images/earth.jpg","images/tutrocket1","images/tutrocket2","null","images/tutrocket1","","1","practice","null","2","","",""
"d3-animate-choice","101","294157","0.0-61.0-1.13","1225","1302","19","Female","false","false","false","true","""event"",""trial"",""time""
""focus"",""0"",""0""
""fullscreenenter"",""5"",""13095""
","
","""event"",""trial"",""time""
""focus"",""0"",""0""
","""event"",""trial"",""time""
""fullscreenenter"",""5"",""13095""
","
","256.19999998807907","","48","","","3000","1","","","images/tutgreenplanet.jpg","images/tutalien2","images/tutalien1","images/tutrocket1","images/tutalien2","images/nothing.png","2","practice","false","2","rare","0","2022-04-01 02:07:03.917"
"two-step-fixation","102","295162","0.0-61.0-2.13","1225","1302","19","Female","false","false","false","true","""event"",""trial"",""time""
""focus"",""0"",""0""
""fullscreenenter"",""5"",""13095""
","
","""event"",""trial"",""time""
""focus"",""0"",""0""
","""event"",""trial"",""time""
""fullscreenenter"",""5"",""13095""
","
","","images/earth.jpg","","","","","","","","","","","","","","fixation","","","","","",""
"d3-animate-choice","103","297467","0.0-61.0-0.14","1225","1302","19","Female","false","false","false","true","""event"",""trial"",""time""
""focus"",""0"",""0""
""fullscreenenter"",""5"",""13095""
","
","""event"",""trial"",""time""
""focus"",""0"",""0""
","""event"",""trial"",""time""
""fullscreenenter"",""5"",""13095""
","
","299.5","","49","","","3000","1","1619.5999999642372","49","images/earth.jpg","images/tutrocket1","images/tutrocket2","null","images/tutrocket2","","1","practice","null","1","","",""
"d3-animate-choice","104","299747","0.0-61.0-1.14","1225","1302","19","Female","false","false","false","true","""event"",""trial"",""time""
""focus"",""0"",""0""
""fullscreenenter"",""5"",""13095""
","
","""event"",""trial"",""time""
""focus"",""0"",""0""
","""event"",""trial"",""time""
""fullscreenenter"",""5"",""13095""
","
","275.30000001192093","","49","","","3000","1","","","images/tutgreenplanet.jpg","images/tutalien2","images/tutalien1","images/tutrocket2","images/tutalien1","images/nothing.png","2","practice","true","1","common","0","2022-04-01 02:07:09.507"
"two-step-fixation","105","300752","0.0-61.0-2.14","1225","1302","19","Female","false","false","false","true","""event"",""trial"",""time""
""focus"",""0"",""0""
""fullscreenenter"",""5"",""13095""
","
","""event"",""trial"",""time""
""focus"",""0"",""0""
","""event"",""trial"",""time""
""fullscreenenter"",""5"",""13095""
","
","","images/earth.jpg","","","","","","","","","","","","","","fixation","","","","","",""
"d3-animate-choice","106","303067","0.0-61.0-0.15","1225","1302","19","Female","false","false","false","true","""event"",""trial"",""time""
""focus"",""0"",""0""
""fullscreenenter"",""5"",""13095""
","
","""event"",""trial"",""time""
""focus"",""0"",""0""
","""event"",""trial"",""time""
""fullscreenenter"",""5"",""13095""
","
","308.4000000357628","","48","","","3000","1","1718.300000011921","49","images/earth.jpg","images/tutrocket1","images/tutrocket2","null","images/tutrocket1","","1","practice","null","2","","",""
"d3-animate-choice","107","305307","0.0-61.0-1.15","1225","1302","19","Female","false","false","false","true","""event"",""trial"",""time""
""focus"",""0"",""0""
""fullscreenenter"",""5"",""13095""
","
","""event"",""trial"",""time""
""focus"",""0"",""0""
","""event"",""trial"",""time""
""fullscreenenter"",""5"",""13095""
","
","234.10000002384186","","49","","","3000","1","484.39999997615814","49","images/tutgreenplanet.jpg","images/tutalien2","images/tutalien1","images/tutrocket1","images/tutalien1","images/nothing.png","2","practice","false","1","rare","0","2022-04-01 02:07:15.067"
"two-step-fixation","108","306312","0.0-61.0-2.15","1225","1302","19","Female","false","false","false","true","""event"",""trial"",""time""
""focus"",""0"",""0""
""fullscreenenter"",""5"",""13095""
","
","""event"",""trial"",""time""
""focus"",""0"",""0""
","""event"",""trial"",""time""
""fullscreenenter"",""5"",""13095""
","
","","images/earth.jpg","","","","","","","","","","","","","","fixation","","","","","",""
"d3-animate-choice","109","308358","0.0-61.0-0.16","1225","1302","19","Female","false","false","false","true","""event"",""trial"",""time""
""focus"",""0"",""0""
""fullscreenenter"",""5"",""13095""
","
","""event"",""trial"",""time""
""focus"",""0"",""0""
","""event"",""trial"",""time""
""fullscreenenter"",""5"",""13095""
","
","39.60000002384186","","49","","","3000","1","1908.800000011921","49","images/earth.jpg","images/tutrocket1","images/tutrocket2","null","images/tutrocket2","","1","practice","null","1","","",""
"d3-animate-choice","110","310658","0.0-61.0-1.16","1225","1302","19","Female","false","false","false","true","""event"",""trial"",""time""
""focus"",""0"",""0""
""fullscreenenter"",""5"",""13095""
","
","""event"",""trial"",""time""
""focus"",""0"",""0""
","""event"",""trial"",""time""
""fullscreenenter"",""5"",""13095""
","
","294.30000001192093","","49","","","3000","1","583.8999999761581","49","images/tutgreenplanet.jpg","images/tutalien2","images/tutalien1","images/tutrocket2","images/tutalien1","images/t.png","2","practice","true","1","common","1","2022-04-01 02:07:20.418"
"two-step-fixation","111","311662","0.0-61.0-2.16","1225","1302","19","Female","false","false","false","true","""event"",""trial"",""time""
""focus"",""0"",""0""
""fullscreenenter"",""5"",""13095""
","
","""event"",""trial"",""time""
""focus"",""0"",""0""
","""event"",""trial"",""time""
""fullscreenenter"",""5"",""13095""
","
","","images/earth.jpg","","","","","","","","","","","","","","fixation","","","","","",""
"d3-animate-choice","112","313949","0.0-61.0-0.17","1225","1302","19","Female","false","false","false","true","""event"",""trial"",""time""
""focus"",""0"",""0""
""fullscreenenter"",""5"",""13095""
","
","""event"",""trial"",""time""
""focus"",""0"",""0""
","""event"",""trial"",""time""
""fullscreenenter"",""5"",""13095""
","
","282","","49","","","3000","1","","","images/earth.jpg","images/tutrocket1","images/tutrocket2","null","images/tutrocket2","","1","practice","null","1","","",""
"d3-animate-choice","113","316318","0.0-61.0-1.17","1225","1302","19","Female","false","false","false","true","""event"",""trial"",""time""
""focus"",""0"",""0""
""fullscreenenter"",""5"",""13095""
","
","""event"",""trial"",""time""
""focus"",""0"",""0""
","""event"",""trial"",""time""
""fullscreenenter"",""5"",""13095""
","
","362.9000000357628","","49","","","3000","1","","","images/tutyellowplanet.jpg","images/tutalien4","images/tutalien3","images/tutrocket2","images/tutalien3","images/t.png","2","practice","false","1","rare","1","2022-04-01 02:07:26.078"
"two-step-fixation","114","317323","0.0-61.0-2.17","1225","1302","19","Female","false","false","false","true","""event"",""trial"",""time""
""focus"",""0"",""0""
""fullscreenenter"",""5"",""13095""
","
","""event"",""trial"",""time""
""focus"",""0"",""0""
","""event"",""trial"",""time""
""fullscreenenter"",""5"",""13095""
","
","","images/earth.jpg","","","","","","","","","","","","","","fixation","","","","","",""
"d3-animate-choice","115","319659","0.0-61.0-0.18","1225","1302","19","Female","false","false","false","true","""event"",""trial"",""time""
""focus"",""0"",""0""
""fullscreenenter"",""5"",""13095""
","
","""event"",""trial"",""time""
""focus"",""0"",""0""
","""event"",""trial"",""time""
""fullscreenenter"",""5"",""13095""
","
","330.39999997615814","","49","","","3000","1","","","images/earth.jpg","images/tutrocket1","images/tutrocket2","null","images/tutrocket2","","1","practice","null","1","","",""
"d3-animate-choice","116","321919","0.0-61.0-1.18","1225","1302","19","Female","false","false","false","true","""event"",""trial"",""time""
""focus"",""0"",""0""
""fullscreenenter"",""5"",""13095""
","
","""event"",""trial"",""time""
""focus"",""0"",""0""
","""event"",""trial"",""time""
""fullscreenenter"",""5"",""13095""
","
","253.39999997615814","","49","","","3000","1","","","images/tutyellowplanet.jpg","images/tutalien4","images/tutalien3","images/tutrocket2","images/tutalien3","images/t.png","2","practice","false","1","rare","1","2022-04-01 02:07:31.679"
"two-step-fixation","117","322924","0.0-61.0-2.18","1225","1302","19","Female","false","false","false","true","""event"",""trial"",""time""
""focus"",""0"",""0""
""fullscreenenter"",""5"",""13095""
","
","""event"",""trial"",""time""
""focus"",""0"",""0""
","""event"",""trial"",""time""
""fullscreenenter"",""5"",""13095""
","
","","images/earth.jpg","","","","","","","","","","","","","","fixation","","","","","",""
"d3-animate-choice","118","325133","0.0-61.0-0.19","1225","1302","19","Female","false","false","false","true","""event"",""trial"",""time""
""focus"",""0"",""0""
""fullscreenenter"",""5"",""13095""
","
","""event"",""trial"",""time""
""focus"",""0"",""0""
","""event"",""trial"",""time""
""fullscreenenter"",""5"",""13095""
","
","203.69999998807907","","49","","","3000","1","","","images/earth.jpg","images/tutrocket1","images/tutrocket2","null","images/tutrocket2","","1","practice","null","1","","",""
"d3-animate-choice","119","327566","0.0-61.0-1.19","1225","1302","19","Female","false","false","false","true","""event"",""trial"",""time""
""focus"",""0"",""0""
""fullscreenenter"",""5"",""13095""
","
","""event"",""trial"",""time""
""focus"",""0"",""0""
","""event"",""trial"",""time""
""fullscreenenter"",""5"",""13095""
","
","427.60000002384186","","49","","","3000","1","","","images/tutgreenplanet.jpg","images/tutalien2","images/tutalien1","images/tutrocket2","images/tutalien1","images/t.png","2","practice","true","1","common","1","2022-04-01 02:07:37.326"
"two-step-fixation","120","328571","0.0-61.0-2.19","1225","1302","19","Female","false","false","false","true","""event"",""trial"",""time""
""focus"",""0"",""0""
""fullscreenenter"",""5"",""13095""
","
","""event"",""trial"",""time""
""focus"",""0"",""0""
","""event"",""trial"",""time""
""fullscreenenter"",""5"",""13095""
","
","","images/earth.jpg","","","","","","","","","","","","","","fixation","","","","","",""
"d3-instructions","121","331515","0.0-62.0","1225","1302","19","Female","false","false","false","true","""event"",""trial"",""time""
""focus"",""0"",""0""
""fullscreenenter"",""5"",""13095""
","
","""event"",""trial"",""time""
""focus"",""0"",""0""
","""event"",""trial"",""time""
""fullscreenenter"",""5"",""13095""
","
","","","","","","","","","","","","","","","","","","","","","",""
"audio-keyboard-response","122","333841","0.0-63.0","1225","1302","19","Female","false","false","false","true","""event"",""trial"",""time""
""focus"",""0"",""0""
""fullscreenenter"",""5"",""13095""
","
","""event"",""trial"",""time""
""focus"",""0"",""0""
","""event"",""trial"",""time""
""fullscreenenter"",""5"",""13095""
","
","2319","audio/instructions/treasure_feedback.wav","32","","","","","","","","","","","","","","","","","","",""
"d3-instructions","123","338955","0.0-64.0","1225","1302","19","Female","false","false","false","true","""event"",""trial"",""time""
""focus"",""0"",""0""
""fullscreenenter"",""5"",""13095""
","
","""event"",""trial"",""time""
""focus"",""0"",""0""
","""event"",""trial"",""time""
""fullscreenenter"",""5"",""13095""
","
","","","","","","","","","","","","","","","","","","","","","",""
"d3-instructions","124","342646","0.0-65.0","1225","1302","19","Female","false","false","false","true","""event"",""trial"",""time""
""focus"",""0"",""0""
""fullscreenenter"",""5"",""13095""
","
","""event"",""trial"",""time""
""focus"",""0"",""0""
","""event"",""trial"",""time""
""fullscreenenter"",""5"",""13095""
","
","","","","","","","","","","","","","","","","","","","","","",""
"d3-instructions","125","348509","0.0-66.0","1225","1302","19","Female","false","false","false","true","""event"",""trial"",""time""
""focus"",""0"",""0""
""fullscreenenter"",""5"",""13095""
","
","""event"",""trial"",""time""
""focus"",""0"",""0""
","""event"",""trial"",""time""
""fullscreenenter"",""5"",""13095""
","
","","","","","","","","","","","","","","","","","","","","","",""
"d3-instructions","126","354636","0.0-67.0","1225","1302","19","Female","false","false","false","true","""event"",""trial"",""time""
""focus"",""0"",""0""
""fullscreenenter"",""5"",""13095""
","
","""event"",""trial"",""time""
""focus"",""0"",""0""
","""event"",""trial"",""time""
""fullscreenenter"",""5"",""13095""
","
","","","","","","","","","","","","","","","","","","","","","",""
"d3-instructions","127","356756","0.0-68.0","1225","1302","19","Female","false","false","false","true","""event"",""trial"",""time""
""focus"",""0"",""0""
""fullscreenenter"",""5"",""13095""
","
","""event"",""trial"",""time""
""focus"",""0"",""0""
","""event"",""trial"",""time""
""fullscreenenter"",""5"",""13095""
","
","","","","","","","","","","","","","","","","","","","","","",""
"instructions-quiz","128","358582","0.0-69.0","1225","1302","19","Female","false","false","false","true","""event"",""trial"",""time""
""focus"",""0"",""0""
""fullscreenenter"",""5"",""13095""
","
","""event"",""trial"",""time""
""focus"",""0"",""0""
","""event"",""trial"",""time""
""fullscreenenter"",""5"",""13095""
","
","1822.1000000238419","audio/quiz/Q1_Prompt.wav","","1","","","","","","","","","","","","","","","","","",""
"audio-keyboard-response","129","359735","0.0-70.0","1225","1302","19","Female","false","false","false","true","""event"",""trial"",""time""
""focus"",""0"",""0""
""fullscreenenter"",""5"",""13095""
","
","""event"",""trial"",""time""
""focus"",""0"",""0""
","""event"",""trial"",""time""
""fullscreenenter"",""5"",""13095""
","
","1149","audio/quiz/Q1_Correct.wav","32","","","","","","","","","","","","","","","","","","",""
"instructions-quiz","130","361930","0.0-71.0","1225","1302","19","Female","false","false","false","true","""event"",""trial"",""time""
""focus"",""0"",""0""
""fullscreenenter"",""5"",""13095""
","
","""event"",""trial"",""time""
""focus"",""0"",""0""
","""event"",""trial"",""time""
""fullscreenenter"",""5"",""13095""
","
","2191.699999988079","audio/quiz/Q2_Prompt.wav","","0","","","","","","","","","","","","","","","","","",""
"audio-keyboard-response","131","362155","0.0-72.0","1225","1302","19","Female","false","false","false","true","""event"",""trial"",""time""
""focus"",""0"",""0""
""fullscreenenter"",""5"",""13095""
","
","""event"",""trial"",""time""
""focus"",""0"",""0""
","""event"",""trial"",""time""
""fullscreenenter"",""5"",""13095""
","
","221","audio/quiz/Q2_Correct.wav","32","","","","","","","","","","","","","","","","","","",""
"instructions-quiz","132","364340","0.0-73.0","1225","1302","19","Female","false","false","false","true","""event"",""trial"",""time""
""focus"",""0"",""0""
""fullscreenenter"",""5"",""13095""
","
","""event"",""trial"",""time""
""focus"",""0"",""0""
","""event"",""trial"",""time""
""fullscreenenter"",""5"",""13095""
","
","2182.099999964237","audio/quiz/Q3_Prompt.wav","","1","","","","","","","","","","","","","","","","","",""
"audio-keyboard-response","133","364596","0.0-74.0","1225","1302","19","Female","false","false","false","true","""event"",""trial"",""time""
""focus"",""0"",""0""
""fullscreenenter"",""5"",""13095""
","
","""event"",""trial"",""time""
""focus"",""0"",""0""
","""event"",""trial"",""time""
""fullscreenenter"",""5"",""13095""
","
","250","audio/quiz/Q3_Correct.wav","32","","","","","","","","","","","","","","","","","","",""
"d3-instructions","134","366385","0.0-75.0","1225","1302","19","Female","false","false","false","true","""event"",""trial"",""time""
""focus"",""0"",""0""
""fullscreenenter"",""5"",""13095""
","
","""event"",""trial"",""time""
""focus"",""0"",""0""
","""event"",""trial"",""time""
""fullscreenenter"",""5"",""13095""
","
","","","","","","","","","","","","","","","","","","","","","",""
"d3-animate-choice","135","368998","0.0-76.0-0.0","1225","1302","19","Female","false","false","false","true","""event"",""trial"",""time""
""focus"",""0"",""0""
""fullscreenenter"",""5"",""13095""
","
","""event"",""trial"",""time""
""focus"",""0"",""0""
","""event"",""trial"",""time""
""fullscreenenter"",""5"",""13095""
","
","606.6000000238419","","48","","","3000","1","","","images/earth.jpg","images/rocket1","images/rocket2","null","images/rocket1","","1","real","null","2","","",""
"d3-animate-choice","136","371480","0.0-76.0-1.0","1225","1302","19","Female","false","false","false","true","""event"",""trial"",""time""
""focus"",""0"",""0""
""fullscreenenter"",""5"",""13095""
","
","""event"",""trial"",""time""
""focus"",""0"",""0""
","""event"",""trial"",""time""
""fullscreenenter"",""5"",""13095""
","
","477.7999999523163","","48","","","3000","1","","","images/purpleplanet.jpg","images/alien4","images/alien3","images/rocket1","images/alien4","images/t.png","2","real","true","2","common","1","2022-04-01 02:08:21.241"
"two-step-fixation","137","372486","0.0-76.0-2.0","1225","1302","19","Female","false","false","false","true","""event"",""trial"",""time""
""focus"",""0"",""0""
""fullscreenenter"",""5"",""13095""
","
","""event"",""trial"",""time""
""focus"",""0"",""0""
","""event"",""trial"",""time""
""fullscreenenter"",""5"",""13095""
","
","","images/earth.jpg","","","","","","","","","","","","","","fixation","","","","","",""
"d3-animate-choice","138","374957","0.0-76.0-0.1","1225","1302","19","Female","false","false","false","true","""event"",""trial"",""time""
""focus"",""0"",""0""
""fullscreenenter"",""5"",""13095""
","
","""event"",""trial"",""time""
""focus"",""0"",""0""
","""event"",""trial"",""time""
""fullscreenenter"",""5"",""13095""
","
","465.2000000476837","","48","","","3000","1","","","images/earth.jpg","images/rocket1","images/rocket2","null","images/rocket1","","1","real","null","2","","",""
"d3-animate-choice","139","377218","0.0-76.0-1.1","1225","1302","19","Female","false","false","false","true","""event"",""trial"",""time""
""focus"",""0"",""0""
""fullscreenenter"",""5"",""13095""
","
","""event"",""trial"",""time""
""focus"",""0"",""0""
","""event"",""trial"",""time""
""fullscreenenter"",""5"",""13095""
","
","255.20000004768372","","48","","","3000","1","","","images/purpleplanet.jpg","images/alien4","images/alien3","images/rocket1","images/alien4","images/nothing.png","2","real","true","2","common","0","2022-04-01 02:08:26.978"
"two-step-fixation","140","378222","0.0-76.0-2.1","1225","1302","19","Female","false","false","false","true","""event"",""trial"",""time""
""focus"",""0"",""0""
""fullscreenenter"",""5"",""13095""
","
","""event"",""trial"",""time""
""focus"",""0"",""0""
","""event"",""trial"",""time""
""fullscreenenter"",""5"",""13095""
","
","","images/earth.jpg","","","","","","","","","","","","","","fixation","","","","","",""
"d3-animate-choice","141","380247","0.0-76.0-0.2","1225","1302","19","Female","false","false","false","true","""event"",""trial"",""time""
""focus"",""0"",""0""
""fullscreenenter"",""5"",""13095""
","
","""event"",""trial"",""time""
""focus"",""0"",""0""
","""event"",""trial"",""time""
""fullscreenenter"",""5"",""13095""
","
","19","","49","","","3000","1","198.80000001192093","49","images/earth.jpg","images/rocket1","images/rocket2","null","images/rocket2","","1","real","null","1","","",""
"d3-animate-choice","142","382301","0.0-76.0-1.2","1225","1302","19","Female","false","false","false","true","""event"",""trial"",""time""
""focus"",""0"",""0""
""fullscreenenter"",""5"",""13095""
","
","""event"",""trial"",""time""
""focus"",""0"",""0""
","""event"",""trial"",""time""
""fullscreenenter"",""5"",""13095""
","
","48.89999997615814","","48","","","3000","1","293.7999999523163","48","images/redplanet1.jpg","images/alien2","images/alien1","images/rocket2","images/alien2","images/nothing.png","2","real","true","2","common","0","2022-04-01 02:08:32.061"
"two-step-fixation","143","383313","0.0-76.0-2.2","1225","1302","19","Female","false","false","false","true","""event"",""trial"",""time""
""focus"",""0"",""0""
""fullscreenenter"",""5"",""13095""
","
","""event"",""trial"",""time""
""focus"",""0"",""0""
","""event"",""trial"",""time""
""fullscreenenter"",""5"",""13095""
","
","","images/earth.jpg","","","","","","","","","","","","","","fixation","","","","","",""
"d3-animate-choice","144","385438","0.0-76.0-0.3","1225","1302","19","Female","false","false","false","true","""event"",""trial"",""time""
""focus"",""0"",""0""
""fullscreenenter"",""5"",""13095""
","
","""event"",""trial"",""time""
""focus"",""0"",""0""
","""event"",""trial"",""time""
""fullscreenenter"",""5"",""13095""
","
","118.5","","49","","","3000","1","368.5,720.7999999523163,1589.199999988079,1749.2999999523163,1928.5","49,49,49,49,49","images/earth.jpg","images/rocket1","images/rocket2","null","images/rocket2","","1","real","null","1","","",""
"d3-animate-choice","145","387739","0.0-76.0-1.3","1225","1302","19","Female","false","false","false","true","""event"",""trial"",""time""
""focus"",""0"",""0""
""fullscreenenter"",""5"",""13095""
","
","""event"",""trial"",""time""
""focus"",""0"",""0""
","""event"",""trial"",""time""
""fullscreenenter"",""5"",""13095""
","
","297","","49","","","3000","1","484.10000002384186","49","images/purpleplanet.jpg","images/alien4","images/alien3","images/rocket2","images/alien3","images/t.png","2","real","false","1","rare","1","2022-04-01 02:08:37.499"
"two-step-fixation","146","388743","0.0-76.0-2.3","1225","1302","19","Female","false","false","false","true","""event"",""trial"",""time""
""focus"",""0"",""0""
""fullscreenenter"",""5"",""13095""
","
","""event"",""trial"",""time""
""focus"",""0"",""0""
","""event"",""trial"",""time""
""fullscreenenter"",""5"",""13095""
","
","","images/earth.jpg","","","","","","","","","","","","","","fixation","","","","","",""
"d3-animate-choice","147","391017","0.0-76.0-0.4","1225","1302","19","Female","false","false","false","true","""event"",""trial"",""time""
""focus"",""0"",""0""
""fullscreenenter"",""5"",""13095""
","
","""event"",""trial"",""time""
""focus"",""0"",""0""
","""event"",""trial"",""time""
""fullscreenenter"",""5"",""13095""
","
","268.19999998807907","","48","","","3000","1","","","images/earth.jpg","images/rocket1","images/rocket2","null","images/rocket1","","1","real","null","2","","",""
"d3-animate-choice","148","393465","0.0-76.0-1.4","1225","1302","19","Female","false","false","false","true","""event"",""trial"",""time""
""focus"",""0"",""0""
""fullscreenenter"",""5"",""13095""
","
","""event"",""trial"",""time""
""focus"",""0"",""0""
","""event"",""trial"",""time""
""fullscreenenter"",""5"",""13095""
","
","439.89999997615814","","49","","","3000","1","","","images/purpleplanet.jpg","images/alien4","images/alien3","images/rocket1","images/alien3","images/nothing.png","2","real","true","1","common","0","2022-04-01 02:08:43.225"
"two-step-fixation","149","394479","0.0-76.0-2.4","1225","1302","19","Female","false","false","false","true","""event"",""trial"",""time""
""focus"",""0"",""0""
""fullscreenenter"",""5"",""13095""
","
","""event"",""trial"",""time""
""focus"",""0"",""0""
","""event"",""trial"",""time""
""fullscreenenter"",""5"",""13095""
","
","","images/earth.jpg","","","","","","","","","","","","","","fixation","","","","","",""
"d3-animate-choice","150","396497","0.0-76.0-0.5","1225","1302","19","Female","false","false","false","true","""event"",""trial"",""time""
""focus"",""0"",""0""
""fullscreenenter"",""5"",""13095""
","
","""event"",""trial"",""time""
""focus"",""0"",""0""
","""event"",""trial"",""time""
""fullscreenenter"",""5"",""13095""
","
","12.899999976158142","","48","","","3000","1","","","images/earth.jpg","images/rocket1","images/rocket2","null","images/rocket1","","1","real","null","2","","",""
"d3-animate-choice","151","399058","0.0-76.0-1.5","1225","1302","19","Female","false","false","false","true","""event"",""trial"",""time""
""focus"",""0"",""0""
""fullscreenenter"",""5"",""13095""
","
","""event"",""trial"",""time""
""focus"",""0"",""0""
","""event"",""trial"",""time""
""fullscreenenter"",""5"",""13095""
","
","555.6999999880791","","49","","","3000","1","","","images/redplanet1.jpg","images/alien2","images/alien1","images/rocket1","images/alien1","images/t.png","2","real","false","1","rare","1","2022-04-01 02:08:48.818"
"two-step-fixation","152","400062","0.0-76.0-2.5","1225","1302","19","Female","false","false","false","true","""event"",""trial"",""time""
""focus"",""0"",""0""
""fullscreenenter"",""5"",""13095""
","
","""event"",""trial"",""time""
""focus"",""0"",""0""
","""event"",""trial"",""time""
""fullscreenenter"",""5"",""13095""
","
","","images/earth.jpg","","","","","","","","","","","","","","fixation","","","","","",""
"d3-animate-choice","153","402507","0.0-76.0-0.6","1225","1302","19","Female","false","false","false","true","""event"",""trial"",""time""
""focus"",""0"",""0""
""fullscreenenter"",""5"",""13095""
","
","""event"",""trial"",""time""
""focus"",""0"",""0""
","""event"",""trial"",""time""
""fullscreenenter"",""5"",""13095""
","
","119.69999998807907","","50","","","3000","1","439.80000001192093","49","images/earth.jpg","images/rocket1","images/rocket2","null","images/rocket2","","1","real","null","","","",""
"d3-animate-choice","154","404830","0.0-76.0-1.6","1225","1302","19","Female","false","false","false","true","""event"",""trial"",""time""
""focus"",""0"",""0""
""fullscreenenter"",""5"",""13095""
","
","""event"",""trial"",""time""
""focus"",""0"",""0""
","""event"",""trial"",""time""
""fullscreenenter"",""5"",""13095""
","
","318.10000002384186","","48","","","3000","1","","","images/redplanet1.jpg","images/alien2","images/alien1","images/rocket2","images/alien2","images/nothing.png","2","real","true","2","common","0","2022-04-01 02:08:54.590"
"two-step-fixation","155","405837","0.0-76.0-2.6","1225","1302","19","Female","false","false","false","true","""event"",""trial"",""time""
""focus"",""0"",""0""
""fullscreenenter"",""5"",""13095""
","
","""event"",""trial"",""time""
""focus"",""0"",""0""
","""event"",""trial"",""time""
""fullscreenenter"",""5"",""13095""
","
","","images/earth.jpg","","","","","","","","","","","","","","fixation","","","","","",""
"d3-animate-choice","156","408088","0.0-76.0-0.7","1225","1302","19","Female","false","false","false","true","""event"",""trial"",""time""
""focus"",""0"",""0""
""fullscreenenter"",""5"",""13095""
","
","""event"",""trial"",""time""
""focus"",""0"",""0""
","""event"",""trial"",""time""
""fullscreenenter"",""5"",""13095""
","
","244.80000001192093","","49","","","3000","1","","","images/earth.jpg","images/rocket1","images/rocket2","null","images/rocket2","","1","real","null","1","","",""
"d3-animate-choice","157","410356","0.0-76.0-1.7","1225","1302","19","Female","false","false","false","true","""event"",""trial"",""time""
""focus"",""0"",""0""
""fullscreenenter"",""5"",""13095""
","
","""event"",""trial"",""time""
""focus"",""0"",""0""
","""event"",""trial"",""time""
""fullscreenenter"",""5"",""13095""
","
","263.69999998807907","","49","","","3000","1","","","images/purpleplanet.jpg","images/alien4","images/alien3","images/rocket2","images/alien3","images/t.png","2","real","false","1","rare","1","2022-04-01 02:09:00.117"
"two-step-fixation","158","411361","0.0-76.0-2.7","1225","1302","19","Female","false","false","false","true","""event"",""trial"",""time""
""focus"",""0"",""0""
""fullscreenenter"",""5"",""13095""
","
","""event"",""trial"",""time""
""focus"",""0"",""0""
","""event"",""trial"",""time""
""fullscreenenter"",""5"",""13095""
","
","","images/earth.jpg","","","","","","","","","","","","","","fixation","","","","","",""
"d3-animate-choice","159","413488","0.0-76.0-0.8","1225","1302","19","Female","false","false","false","true","""event"",""trial"",""time""
""focus"",""0"",""0""
""fullscreenenter"",""5"",""13095""
","
","""event"",""trial"",""time""
""focus"",""0"",""0""
","""event"",""trial"",""time""
""fullscreenenter"",""5"",""13095""
","
","120.80000001192093","","48","","","3000","1","330.19999998807907","48","images/earth.jpg","images/rocket1","images/rocket2","null","images/rocket1","","1","real","null","2","","",""
"d3-animate-choice","160","415809","0.0-76.0-1.8","1225","1302","19","Female","false","false","false","true","""event"",""trial"",""time""
""focus"",""0"",""0""
""fullscreenenter"",""5"",""13095""
","
","""event"",""trial"",""time""
""focus"",""0"",""0""
","""event"",""trial"",""time""
""fullscreenenter"",""5"",""13095""
","
","316.30000001192093","","49","","","3000","1","","","images/purpleplanet.jpg","images/alien4","images/alien3","images/rocket1","images/alien3","images/nothing.png","2","real","true","1","common","0","2022-04-01 02:09:05.569"
"two-step-fixation","161","416813","0.0-76.0-2.8","1225","1302","19","Female","false","false","false","true","""event"",""trial"",""time""
""focus"",""0"",""0""
""fullscreenenter"",""5"",""13095""
","
","""event"",""trial"",""time""
""focus"",""0"",""0""
","""event"",""trial"",""time""
""fullscreenenter"",""5"",""13095""
","
","","images/earth.jpg","","","","","","","","","","","","","","fixation","","","","","",""
"d3-animate-choice","162","419046","0.0-76.0-0.9","1225","1302","19","Female","false","false","false","true","""event"",""trial"",""time""
""focus"",""0"",""0""
""fullscreenenter"",""5"",""13095""
","
","""event"",""trial"",""time""
""focus"",""0"",""0""
","""event"",""trial"",""time""
""fullscreenenter"",""5"",""13095""
","
","228.0999999642372","","49","","","3000","1","","","images/earth.jpg","images/rocket1","images/rocket2","null","images/rocket2","","1","real","null","1","","",""
"d3-animate-choice","163","421346","0.0-76.0-1.9","1225","1302","19","Female","false","false","false","true","""event"",""trial"",""time""
""focus"",""0"",""0""
""fullscreenenter"",""5"",""13095""
","
","""event"",""trial"",""time""
""focus"",""0"",""0""
","""event"",""trial"",""time""
""fullscreenenter"",""5"",""13095""
","
","295.9000000357628","","49","","","3000","1","","","images/redplanet1.jpg","images/alien2","images/alien1","images/rocket2","images/alien1","images/t.png","2","real","true","1","common","1","2022-04-01 02:09:11.106"
"two-step-fixation","164","422350","0.0-76.0-2.9","1225","1302","19","Female","false","false","false","true","""event"",""trial"",""time""
""focus"",""0"",""0""
""fullscreenenter"",""5"",""13095""
","
","""event"",""trial"",""time""
""focus"",""0"",""0""
","""event"",""trial"",""time""
""fullscreenenter"",""5"",""13095""
","
","","images/earth.jpg","","","","","","","","","","","","","","fixation","","","","","",""
"d3-animate-choice","165","424636","0.0-76.0-0.10","1225","1302","19","Female","false","false","false","true","""event"",""trial"",""time""
""focus"",""0"",""0""
""fullscreenenter"",""5"",""13095""
","
","""event"",""trial"",""time""
""focus"",""0"",""0""
","""event"",""trial"",""time""
""fullscreenenter"",""5"",""13095""
","
","281.30000001192093","","49","","","3000","1","","","images/earth.jpg","images/rocket1","images/rocket2","null","images/rocket2","","1","real","null","1","","",""
"d3-animate-choice","166","426867","0.0-76.0-1.10","1225","1302","19","Female","false","false","false","true","""event"",""trial"",""time""
""focus"",""0"",""0""
""fullscreenenter"",""5"",""13095""
","
","""event"",""trial"",""time""
""focus"",""0"",""0""
","""event"",""trial"",""time""
""fullscreenenter"",""5"",""13095""
","
","228.4000000357628","","49","","","3000","1","","","images/redplanet1.jpg","images/alien2","images/alien1","images/rocket2","images/alien1","images/nothing.png","2","real","true","1","common","0","2022-04-01 02:09:16.627"
"two-step-fixation","167","427870","0.0-76.0-2.10","1225","1302","19","Female","false","false","false","true","""event"",""trial"",""time""
""focus"",""0"",""0""
""fullscreenenter"",""5"",""13095""
","
","""event"",""trial"",""time""
""focus"",""0"",""0""
","""event"",""trial"",""time""
""fullscreenenter"",""5"",""13095""
","
","","images/earth.jpg","","","","","","","","","","","","","","fixation","","","","","",""
"d3-animate-choice","168","429987","0.0-76.0-0.11","1225","1302","19","Female","false","false","false","true","""event"",""trial"",""time""
""focus"",""0"",""0""
""fullscreenenter"",""5"",""13095""
","
","""event"",""trial"",""time""
""focus"",""0"",""0""
","""event"",""trial"",""time""
""fullscreenenter"",""5"",""13095""
","
","110.79999995231628","","48","","","3000","1","","","images/earth.jpg","images/rocket1","images/rocket2","null","images/rocket1","","1","real","null","2","","",""
"d3-animate-choice","169","432436","0.0-76.0-1.11","1225","1302","19","Female","false","false","false","true","""event"",""trial"",""time""
""focus"",""0"",""0""
""fullscreenenter"",""5"",""13095""
","
","""event"",""trial"",""time""
""focus"",""0"",""0""
","""event"",""trial"",""time""
""fullscreenenter"",""5"",""13095""
","
","445.2000000476837","","48","","","3000","1","","","images/redplanet1.jpg","images/alien2","images/alien1","images/rocket1","images/alien2","images/t.png","2","real","false","2","rare","1","2022-04-01 02:09:22.196"
"two-step-fixation","170","433442","0.0-76.0-2.11","1225","1302","19","Female","false","false","false","true","""event"",""trial"",""time""
""focus"",""0"",""0""
""fullscreenenter"",""5"",""13095""
","
","""event"",""trial"",""time""
""focus"",""0"",""0""
","""event"",""trial"",""time""
""fullscreenenter"",""5"",""13095""
","
","","images/earth.jpg","","","","","","","","","","","","","","fixation","","","","","",""
"d3-animate-choice","171","435738","0.0-76.0-0.12","1225","1302","19","Female","false","false","false","true","""event"",""trial"",""time""
""focus"",""0"",""0""
""fullscreenenter"",""5"",""13095""
","
","""event"",""trial"",""time""
""focus"",""0"",""0""
","""event"",""trial"",""time""
""fullscreenenter"",""5"",""13095""
","
","289.39999997615814","","48","","","3000","1","","","images/earth.jpg","images/rocket1","images/rocket2","null","images/rocket1","","1","real","null","2","","",""
"d3-animate-choice","172","438042","0.0-76.0-1.12","1225","1302","19","Female","false","false","false","true","""event"",""trial"",""time""
""focus"",""0"",""0""
""fullscreenenter"",""5"",""13095""
","
","""event"",""trial"",""time""
""focus"",""0"",""0""
","""event"",""trial"",""time""
""fullscreenenter"",""5"",""13095""
","
","299.10000002384186","","48","","","3000","1","","","images/redplanet1.jpg","images/alien2","images/alien1","images/rocket1","images/alien2","images/nothing.png","2","real","false","2","rare","0","2022-04-01 02:09:27.802"
"two-step-fixation","173","439046","0.0-76.0-2.12","1225","1302","19","Female","false","false","false","true","""event"",""trial"",""time""
""focus"",""0"",""0""
""fullscreenenter"",""5"",""13095""
","
","""event"",""trial"",""time""
""focus"",""0"",""0""
","""event"",""trial"",""time""
""fullscreenenter"",""5"",""13095""
","
","","images/earth.jpg","","","","","","","","","","","","","","fixation","","","","","",""
"d3-animate-choice","174","441397","0.0-76.0-0.13","1225","1302","19","Female","false","false","false","true","""event"",""trial"",""time""
""focus"",""0"",""0""
""fullscreenenter"",""5"",""13095""
","
","""event"",""trial"",""time""
""focus"",""0"",""0""
","""event"",""trial"",""time""
""fullscreenenter"",""5"",""13095""
","
","345.5999999642372","","49","","","3000","1","","","images/earth.jpg","images/rocket1","images/rocket2","null","images/rocket2","","1","real","null","1","","",""
"d3-animate-choice","175","443627","0.0-76.0-1.13","1225","1302","19","Female","false","false","false","true","""event"",""trial"",""time""
""focus"",""0"",""0""
""fullscreenenter"",""5"",""13095""
","
","""event"",""trial"",""time""
""focus"",""0"",""0""
","""event"",""trial"",""time""
""fullscreenenter"",""5"",""13095""
","
","224.69999998807907","","49","","","3000","1","","","images/purpleplanet.jpg","images/alien4","images/alien3","images/rocket2","images/alien3","images/nothing.png","2","real","false","1","rare","0","2022-04-01 02:09:33.387"
"two-step-fixation","176","444632","0.0-76.0-2.13","1225","1302","19","Female","false","false","false","true","""event"",""trial"",""time""
""focus"",""0"",""0""
""fullscreenenter"",""5"",""13095""
","
","""event"",""trial"",""time""
""focus"",""0"",""0""
","""event"",""trial"",""time""
""fullscreenenter"",""5"",""13095""
","
","","images/earth.jpg","","","","","","","","","","","","","","fixation","","","","","",""
"d3-animate-choice","177","446647","0.0-76.0-0.14","1225","1302","19","Female","false","false","false","true","""event"",""trial"",""time""
""focus"",""0"",""0""
""fullscreenenter"",""5"",""13095""
","
","""event"",""trial"",""time""
""focus"",""0"",""0""
","""event"",""trial"",""time""
""fullscreenenter"",""5"",""13095""
","
","9.700000047683716","","48","","","3000","1","","","images/earth.jpg","images/rocket1","images/rocket2","null","images/rocket1","","1","real","null","2","","",""
"d3-animate-choice","178","448840","0.0-76.0-1.14","1225","1302","19","Female","false","false","false","true","""event"",""trial"",""time""
""focus"",""0"",""0""
""fullscreenenter"",""5"",""13095""
","
","""event"",""trial"",""time""
""focus"",""0"",""0""
","""event"",""trial"",""time""
""fullscreenenter"",""5"",""13095""
","
","188.5","","48","","","3000","1","","","images/purpleplanet.jpg","images/alien4","images/alien3","images/rocket1","images/alien4","images/t.png","2","real","true","2","common","1","2022-04-01 02:09:38.600"
"two-step-fixation","179","449845","0.0-76.0-2.14","1225","1302","19","Female","false","false","false","true","""event"",""trial"",""time""
""focus"",""0"",""0""
""fullscreenenter"",""5"",""13095""
","
","""event"",""trial"",""time""
""focus"",""0"",""0""
","""event"",""trial"",""time""
""fullscreenenter"",""5"",""13095""
","
","","images/earth.jpg","","","","","","","","","","","","","","fixation","","","","","",""
"d3-animate-choice","180","452150","0.0-76.0-0.15","1225","1302","19","Female","false","false","false","true","""event"",""trial"",""time""
""focus"",""0"",""0""
""fullscreenenter"",""5"",""13095""
","
","""event"",""trial"",""time""
""focus"",""0"",""0""
","""event"",""trial"",""time""
""fullscreenenter"",""5"",""13095""
","
","299.5","","48","","","3000","1","","","images/earth.jpg","images/rocket1","images/rocket2","null","images/rocket1","","1","real","null","2","","",""
"d3-animate-choice","181","454486","0.0-76.0-1.15","1225","1302","19","Female","false","false","false","true","""event"",""trial"",""time""
""focus"",""0"",""0""
""fullscreenenter"",""5"",""13095""
","
","""event"",""trial"",""time""
""focus"",""0"",""0""
","""event"",""trial"",""time""
""fullscreenenter"",""5"",""13095""
","
","331.19999998807907","","48","","","3000","1","","","images/purpleplanet.jpg","images/alien4","images/alien3","images/rocket1","images/alien4","images/t.png","2","real","true","2","common","1","2022-04-01 02:09:44.246"
"two-step-fixation","182","455491","0.0-76.0-2.15","1225","1302","19","Female","false","false","false","true","""event"",""trial"",""time""
""focus"",""0"",""0""
""fullscreenenter"",""5"",""13095""
","
","""event"",""trial"",""time""
""focus"",""0"",""0""
","""event"",""trial"",""time""
""fullscreenenter"",""5"",""13095""
","
","","images/earth.jpg","","","","","","","","","","","","","","fixation","","","","","",""
"d3-animate-choice","183","457670","0.0-76.0-0.16","1225","1302","19","Female","false","false","false","true","""event"",""trial"",""time""
""focus"",""0"",""0""
""fullscreenenter"",""5"",""13095""
","
","""event"",""trial"",""time""
""focus"",""0"",""0""
","""event"",""trial"",""time""
""fullscreenenter"",""5"",""13095""
","
","174.0999999642372","","49","","","3000","1","","","images/earth.jpg","images/rocket1","images/rocket2","null","images/rocket2","","1","real","null","1","","",""
"d3-animate-choice","184","459910","0.0-76.0-1.16","1225","1302","19","Female","false","false","false","true","""event"",""trial"",""time""
""focus"",""0"",""0""
""fullscreenenter"",""5"",""13095""
","
","""event"",""trial"",""time""
""focus"",""0"",""0""
","""event"",""trial"",""time""
""fullscreenenter"",""5"",""13095""
","
","236","","49","","","3000","1","","","images/redplanet1.jpg","images/alien2","images/alien1","images/rocket2","images/alien1","images/nothing.png","2","real","true","1","common","0","2022-04-01 02:09:49.670"
"two-step-fixation","185","460915","0.0-76.0-2.16","1225","1302","19","Female","false","false","false","true","""event"",""trial"",""time""
""focus"",""0"",""0""
""fullscreenenter"",""5"",""13095""
","
","""event"",""trial"",""time""
""focus"",""0"",""0""
","""event"",""trial"",""time""
""fullscreenenter"",""5"",""13095""
","
","","images/earth.jpg","","","","","","","","","","","","","","fixation","","","","","",""
"d3-animate-choice","186","463296","0.0-76.0-0.17","1225","1302","19","Female","false","false","false","true","""event"",""trial"",""time""
""focus"",""0"",""0""
""fullscreenenter"",""5"",""13095""
","
","""event"",""trial"",""time""
""focus"",""0"",""0""
","""event"",""trial"",""time""
""fullscreenenter"",""5"",""13095""
","
","375.89999997615814","","49","","","3000","1","2256.699999988079","48","images/earth.jpg","images/rocket1","images/rocket2","null","images/rocket2","","1","real","null","1","","",""
"d3-animate-choice","187","465837","0.0-76.0-1.17","1225","1302","19","Female","false","false","false","true","""event"",""trial"",""time""
""focus"",""0"",""0""
""fullscreenenter"",""5"",""13095""
","
","""event"",""trial"",""time""
""focus"",""0"",""0""
","""event"",""trial"",""time""
""fullscreenenter"",""5"",""13095""
","
","533.3999999761581","","48","","","3000","1","","","images/purpleplanet.jpg","images/alien4","images/alien3","images/rocket2","images/alien4","images/t.png","2","real","false","2","rare","1","2022-04-01 02:09:55.597"
"two-step-fixation","188","466841","0.0-76.0-2.17","1225","1302","19","Female","false","false","false","true","""event"",""trial"",""time""
""focus"",""0"",""0""
""fullscreenenter"",""5"",""13095""
","
","""event"",""trial"",""time""
""focus"",""0"",""0""
","""event"",""trial"",""time""
""fullscreenenter"",""5"",""13095""
","
","","images/earth.jpg","","","","","","","","","","","","","","fixation","","","","","",""
"d3-animate-choice","189","469197","0.0-76.0-0.18","1225","1302","19","Female","false","false","false","true","""event"",""trial"",""time""
""focus"",""0"",""0""
""fullscreenenter"",""5"",""13095""
","
","""event"",""trial"",""time""
""focus"",""0"",""0""
","""event"",""trial"",""time""
""fullscreenenter"",""5"",""13095""
","
","350.9000000357628","","48","","","3000","1","","","images/earth.jpg","images/rocket1","images/rocket2","null","images/rocket1","","1","real","null","2","","",""
"d3-animate-choice","190","471601","0.0-76.0-1.18","1225","1302","19","Female","false","false","false","true","""event"",""trial"",""time""
""focus"",""0"",""0""
""fullscreenenter"",""5"",""13095""
","
","""event"",""trial"",""time""
""focus"",""0"",""0""
","""event"",""trial"",""time""
""fullscreenenter"",""5"",""13095""
","
","399.10000002384186","","49","","","3000","1","","","images/redplanet1.jpg","images/alien2","images/alien1","images/rocket1","images/alien1","images/t.png","2","real","false","1","rare","1","2022-04-01 02:10:01.361"
"two-step-fixation","191","472606","0.0-76.0-2.18","1225","1302","19","Female","false","false","false","true","""event"",""trial"",""time""
""focus"",""0"",""0""
""fullscreenenter"",""5"",""13095""
","
","""event"",""trial"",""time""
""focus"",""0"",""0""
","""event"",""trial"",""time""
""fullscreenenter"",""5"",""13095""
","
","","images/earth.jpg","","","","","","","","","","","","","","fixation","","","","","",""
"d3-animate-choice","192","474888","0.0-76.0-0.19","1225","1302","19","Female","false","false","false","true","""event"",""trial"",""time""
""focus"",""0"",""0""
""fullscreenenter"",""5"",""13095""
","
","""event"",""trial"",""time""
""focus"",""0"",""0""
","""event"",""trial"",""time""
""fullscreenenter"",""5"",""13095""
","
","275.4000000357628","","48","","","3000","1","","","images/earth.jpg","images/rocket1","images/rocket2","null","images/rocket1","","1","real","null","2","","",""
"d3-animate-choice","193","477107","0.0-76.0-1.19","1225","1302","19","Female","false","false","false","true","""event"",""trial"",""time""
""focus"",""0"",""0""
""fullscreenenter"",""5"",""13095""
","
","""event"",""trial"",""time""
""focus"",""0"",""0""
","""event"",""trial"",""time""
""fullscreenenter"",""5"",""13095""
","
","213.89999997615814","","49","","","3000","1","","","images/purpleplanet.jpg","images/alien4","images/alien3","images/rocket1","images/alien3","images/nothing.png","2","real","true","1","common","0","2022-04-01 02:10:06.868"
"two-step-fixation","194","478111","0.0-76.0-2.19","1225","1302","19","Female","false","false","false","true","""event"",""trial"",""time""
""focus"",""0"",""0""
""fullscreenenter"",""5"",""13095""
","
","""event"",""trial"",""time""
""focus"",""0"",""0""
","""event"",""trial"",""time""
""fullscreenenter"",""5"",""13095""
","
","","images/earth.jpg","","","","","","","","","","","","","","fixation","","","","","",""
"d3-animate-choice","195","480387","0.0-76.0-0.20","1225","1302","19","Female","false","false","false","true","""event"",""trial"",""time""
""focus"",""0"",""0""
""fullscreenenter"",""5"",""13095""
","
","""event"",""trial"",""time""
""focus"",""0"",""0""
","""event"",""trial"",""time""
""fullscreenenter"",""5"",""13095""
","
","270.39999997615814","","48","","","3000","1","","","images/earth.jpg","images/rocket1","images/rocket2","null","images/rocket1","","1","real","null","2","","",""
"d3-animate-choice","196","482429","0.0-76.0-1.20","1225","1302","19","Female","false","false","false","true","""event"",""trial"",""time""
""focus"",""0"",""0""
""fullscreenenter"",""5"",""13095""
","
","""event"",""trial"",""time""
""focus"",""0"",""0""
","""event"",""trial"",""time""
""fullscreenenter"",""5"",""13095""
","
","37.30000001192093","","48","","","3000","1","365.4000000357628","48","images/redplanet1.jpg","images/alien2","images/alien1","images/rocket1","images/alien2","images/t.png","2","real","false","2","rare","1","2022-04-01 02:10:12.189"
"two-step-fixation","197","483433","0.0-76.0-2.20","1225","1302","19","Female","false","false","false","true","""event"",""trial"",""time""
""focus"",""0"",""0""
""fullscreenenter"",""5"",""13095""
","
","""event"",""trial"",""time""
""focus"",""0"",""0""
","""event"",""trial"",""time""
""fullscreenenter"",""5"",""13095""
","
","","images/earth.jpg","","","","","","","","","","","","","","fixation","","","","","",""
"d3-animate-choice","198","485557","0.0-76.0-0.21","1225","1302","19","Female","false","false","false","true","""event"",""trial"",""time""
""focus"",""0"",""0""
""fullscreenenter"",""5"",""13095""
","
","""event"",""trial"",""time""
""focus"",""0"",""0""
","""event"",""trial"",""time""
""fullscreenenter"",""5"",""13095""
","
","119.10000002384186","","49","","","3000","1","","","images/earth.jpg","images/rocket1","images/rocket2","null","images/rocket2","","1","real","null","1","","",""
"d3-animate-choice","199","487977","0.0-76.0-1.21","1225","1302","19","Female","false","false","false","true","""event"",""trial"",""time""
""focus"",""0"",""0""
""fullscreenenter"",""5"",""13095""
","
","""event"",""trial"",""time""
""focus"",""0"",""0""
","""event"",""trial"",""time""
""fullscreenenter"",""5"",""13095""
","
","415.30000001192093","","49","","","3000","1","","","images/redplanet1.jpg","images/alien2","images/alien1","images/rocket2","images/alien1","images/t.png","2","real","true","1","common","1","2022-04-01 02:10:17.737"
"two-step-fixation","200","488983","0.0-76.0-2.21","1225","1302","19","Female","false","false","false","true","""event"",""trial"",""time""
""focus"",""0"",""0""
""fullscreenenter"",""5"",""13095""
","
","""event"",""trial"",""time""
""focus"",""0"",""0""
","""event"",""trial"",""time""
""fullscreenenter"",""5"",""13095""
","
","","images/earth.jpg","","","","","","","","","","","","","","fixation","","","","","",""
"d3-animate-choice","201","491217","0.0-76.0-0.22","1225","1302","19","Female","false","false","false","true","""event"",""trial"",""time""
""focus"",""0"",""0""
""fullscreenenter"",""5"",""13095""
","
","""event"",""trial"",""time""
""focus"",""0"",""0""
","""event"",""trial"",""time""
""fullscreenenter"",""5"",""13095""
","
","228.5","","49","","","3000","1","2212.800000011921","49","images/earth.jpg","images/rocket1","images/rocket2","null","images/rocket2","","1","real","null","1","","",""
"d3-animate-choice","202","493517","0.0-76.0-1.22","1225","1302","19","Female","false","false","false","true","""event"",""trial"",""time""
""focus"",""0"",""0""
""fullscreenenter"",""5"",""13095""
","
","""event"",""trial"",""time""
""focus"",""0"",""0""
","""event"",""trial"",""time""
""fullscreenenter"",""5"",""13095""
","
","295.19999998807907","","49","","","3000","1","564.6000000238419","49","images/redplanet1.jpg","images/alien2","images/alien1","images/rocket2","images/alien1","images/t.png","2","real","true","1","common","1","2022-04-01 02:10:23.277"
"two-step-fixation","203","494522","0.0-76.0-2.22","1225","1302","19","Female","false","false","false","true","""event"",""trial"",""time""
""focus"",""0"",""0""
""fullscreenenter"",""5"",""13095""
","
","""event"",""trial"",""time""
""focus"",""0"",""0""
","""event"",""trial"",""time""
""fullscreenenter"",""5"",""13095""
","
","","images/earth.jpg","","","","","","","","","","","","","","fixation","","","","","",""
"d3-animate-choice","204","496680","0.0-76.0-0.23","1225","1302","19","Female","false","false","false","true","""event"",""trial"",""time""
""focus"",""0"",""0""
""fullscreenenter"",""5"",""13095""
","
","""event"",""trial"",""time""
""focus"",""0"",""0""
","""event"",""trial"",""time""
""fullscreenenter"",""5"",""13095""
","
","152","","49","","","3000","1","","","images/earth.jpg","images/rocket1","images/rocket2","null","images/rocket2","","1","real","null","1","","",""
"d3-animate-choice","205","498787","0.0-76.0-1.23","1225","1302","19","Female","false","false","false","true","""event"",""trial"",""time""
""focus"",""0"",""0""
""fullscreenenter"",""5"",""13095""
","
","""event"",""trial"",""time""
""focus"",""0"",""0""
","""event"",""trial"",""time""
""fullscreenenter"",""5"",""13095""
","
","101.5","","49","","","3000","1","","","images/redplanet1.jpg","images/alien2","images/alien1","images/rocket2","images/alien1","images/t.png","2","real","true","1","common","1","2022-04-01 02:10:28.547"
"two-step-fixation","206","499792","0.0-76.0-2.23","1225","1302","19","Female","false","false","false","true","""event"",""trial"",""time""
""focus"",""0"",""0""
""fullscreenenter"",""5"",""13095""
","
","""event"",""trial"",""time""
