"trial_type","trial_index","time_elapsed","internal_node_id","participant_id","subject_id","age","gender","rocket_sides","red_planet_first_rocket","red_display_order","purple_display_order","interactions","blur_events","focus_events","fullscreenenter_events","fullscreenexit_events","rt","stimulus","key_press","button_pressed","success","duration","valid_pressed","rts","keys","planet_text","right_text","left_text","center_text","chosen_text","reward_text","trial_stage","practice_trial","transition_type","choice","transition","reward","timestamp"
"pavlovia","0","3","0.0-0.0","2406","5015","18","Male","false","true","true","true","
","
","
","
","
","","","","","","","","","","","","","","","","","","","","","",""
"html-keyboard-response","1","1222","0.0-1.0","2406","5015","18","Male","false","true","true","true","
","
","
","
","
","1218.1000003814697","Welcome! Press the space bar to begin.","32","","","","","","","","","","","","","","","","","","",""
"audio-keyboard-response","2","10516","0.0-2.0","2406","5015","18","Male","false","true","true","true","
","
","
","
","
","9079","audio/beep_loop.wav","32","","","","","","","","","","","","","","","","","","",""
"audio-button-response","3","13408","0.0-3.0","2406","5015","18","Male","false","true","true","true","
","
","
","
","
","NaN","audio/fish.mp3","","1","","","","","","","","","","","","","","","","","",""
"audio-button-response","4","17007","0.0-4.0","2406","5015","18","Male","false","true","true","true","""event"",""trial"",""time""
""fullscreenenter"",""5"",""19421""
","
","
","""event"",""trial"",""time""
""fullscreenenter"",""5"",""19421""
","
","NaN","audio/tiger.mp3","","4","","","","","","","","","","","","","","","","","",""
"fullscreen","5","20428","0.0-5.0","2406","5015","18","Male","false","true","true","true","""event"",""trial"",""time""
""fullscreenenter"",""5"",""19421""
","
","
","""event"",""trial"",""time""
""fullscreenenter"",""5"",""19421""
","
","","","","","true","","","","","","","","","","","","","","","","",""
"d3-instructions","6","28454","0.0-6.0","2406","5015","18","Male","false","true","true","true","""event"",""trial"",""time""
""fullscreenenter"",""5"",""19421""
","
","
","""event"",""trial"",""time""
""fullscreenenter"",""5"",""19421""
","
","","","","","","","","","","","","","","","","","","","","","",""
"d3-instructions","7","34342","0.0-7.0","2406","5015","18","Male","false","true","true","true","""event"",""trial"",""time""
""fullscreenenter"",""5"",""19421""
","
","
","""event"",""trial"",""time""
""fullscreenenter"",""5"",""19421""
","
","","","","","","","","","","","","","","","","","","","","","",""
"d3-instructions","8","38710","0.0-8.0","2406","5015","18","Male","false","true","true","true","""event"",""trial"",""time""
""fullscreenenter"",""5"",""19421""
","
","
","""event"",""trial"",""time""
""fullscreenenter"",""5"",""19421""
","
","","","","","","","","","","","","","","","","","","","","","",""
"d3-instructions","9","45066","0.0-9.0","2406","5015","18","Male","false","true","true","true","""event"",""trial"",""time""
""fullscreenenter"",""5"",""19421""
","
","
","""event"",""trial"",""time""
""fullscreenenter"",""5"",""19421""
","
","","","","","","","","","","","","","","","","","","","","","",""
"d3-instructions","10","52477","0.0-10.0","2406","5015","18","Male","false","true","true","true","""event"",""trial"",""time""
""fullscreenenter"",""5"",""19421""
","
","
","""event"",""trial"",""time""
""fullscreenenter"",""5"",""19421""
","
","","","","","","","","","","","","","","","","","","","","","",""
"d3-animate-choice","11","55414","0.0-11.0","2406","5015","18","Male","false","true","true","true","""event"",""trial"",""time""
""fullscreenenter"",""5"",""19421""
","
","
","""event"",""trial"",""time""
""fullscreenenter"",""5"",""19421""
","
","916.5999999046326","","49","","","3000","1","","","images/tutgreenplanet.jpg","images/tutalien1","images/tutalien2","null","images/tutalien2","","NA","practice","null","","","",""
"d3-animate-choice","12","60388","0.0-12.0","2406","5015","18","Male","false","true","true","true","""event"",""trial"",""time""
""fullscreenenter"",""5"",""19421""
","
","
","""event"",""trial"",""time""
""fullscreenenter"",""5"",""19421""
","
","1100.6000003814697","","50","","","3000","1","2962.800000190735","48","images/tutgreenplanet.jpg","images/tutalien1","images/tutalien2","null","images/tutalien1","","NA","practice","null","","","",""
"d3-animate-choice","13","63147","0.0-13.0","2406","5015","18","Male","false","true","true","true","""event"",""trial"",""time""
""fullscreenenter"",""5"",""19421""
","
","
","""event"",""trial"",""time""
""fullscreenenter"",""5"",""19421""
","
","748.6000003814697","","49","","","3000","1","","","images/tutgreenplanet.jpg","images/tutalien1","images/tutalien2","null","images/tutalien2","","NA","practice","null","","","",""
"d3-animate-choice","14","65644","0.0-14.0","2406","5015","18","Male","false","true","true","true","""event"",""trial"",""time""
""fullscreenenter"",""5"",""19421""
","
","
","""event"",""trial"",""time""
""fullscreenenter"",""5"",""19421""
","
","484.59999990463257","","48","","","3000","1","","","images/tutgreenplanet.jpg","images/tutalien1","images/tutalien2","null","images/tutalien1","","NA","practice","null","","","",""
"d3-instructions","15","70310","0.0-15.0","2406","5015","18","Male","false","true","true","true","""event"",""trial"",""time""
""fullscreenenter"",""5"",""19421""
","
","
","""event"",""trial"",""time""
""fullscreenenter"",""5"",""19421""
","
","","","","","","","","","","","","","","","","","","","","","",""
"d3-instructions","16","72341","0.0-16.0","2406","5015","18","Male","false","true","true","true","""event"",""trial"",""time""
""fullscreenenter"",""5"",""19421""
","
","
","""event"",""trial"",""time""
""fullscreenenter"",""5"",""19421""
","
","","","","","","","","","","","","","","","","","","","","","",""
"d3-instructions","17","76881","0.0-17.0","2406","5015","18","Male","false","true","true","true","""event"",""trial"",""time""
""fullscreenenter"",""5"",""19421""
","
","
","""event"",""trial"",""time""
""fullscreenenter"",""5"",""19421""
","
","","","","","","","","","","","","","","","","","","","","","",""
"d3-instructions","18","81312","0.0-18.0","2406","5015","18","Male","false","true","true","true","""event"",""trial"",""time""
""fullscreenenter"",""5"",""19421""
","
","
","""event"",""trial"",""time""
""fullscreenenter"",""5"",""19421""
","
","","","","","","","","","","","","","","","","","","","","","",""
"d3-instructions","19","88145","0.0-19.0","2406","5015","18","Male","false","true","true","true","""event"",""trial"",""time""
""fullscreenenter"",""5"",""19421""
","
","
","""event"",""trial"",""time""
""fullscreenenter"",""5"",""19421""
","
","","","","","","","","","","","","","","","","","","","","","",""
"d3-animate-choice","20","90545","0.0-20.0","2406","5015","18","Male","false","true","true","true","""event"",""trial"",""time""
""fullscreenenter"",""5"",""19421""
","
","
","""event"",""trial"",""time""
""fullscreenenter"",""5"",""19421""
","
","394.40000009536743","","49","","","3000","1","","","images/tutyellowplanet.jpg","null","images/tutalien3","null","images/tutalien3","images/t.png","NA","practice","null","","","",""
"d3-animate-choice","21","92898","0.0-21.0","2406","5015","18","Male","false","true","true","true","""event"",""trial"",""time""
""fullscreenenter"",""5"",""19421""
","
","
","""event"",""trial"",""time""
""fullscreenenter"",""5"",""19421""
","
","345","","49","","","3000","1","","","images/tutyellowplanet.jpg","null","images/tutalien3","null","images/tutalien3","images/t.png","NA","practice","null","","","",""
"d3-animate-choice","22","95155","0.0-22.0","2406","5015","18","Male","false","true","true","true","""event"",""trial"",""time""
""fullscreenenter"",""5"",""19421""
","
","
","""event"",""trial"",""time""
""fullscreenenter"",""5"",""19421""
","
","244.2000002861023","","49","","","3000","1","","","images/tutyellowplanet.jpg","null","images/tutalien3","null","images/tutalien3","images/t.png","NA","practice","null","","","",""
"d3-animate-choice","23","97425","0.0-23.0","2406","5015","18","Male","false","true","true","true","""event"",""trial"",""time""
""fullscreenenter"",""5"",""19421""
","
","
","""event"",""trial"",""time""
""fullscreenenter"",""5"",""19421""
","
","261.90000009536743","","49","","","3000","1","2034.0999999046326","49","images/tutyellowplanet.jpg","null","images/tutalien3","null","images/tutalien3","images/t.png","NA","practice","null","","","",""
"d3-animate-choice","24","99441","0.0-24.0","2406","5015","18","Male","false","true","true","true","""event"",""trial"",""time""
""fullscreenenter"",""5"",""19421""
","
","
","""event"",""trial"",""time""
""fullscreenenter"",""5"",""19421""
","
","1.9000000953674316","","49","","","3000","1","263.5","49","images/tutyellowplanet.jpg","null","images/tutalien3","null","images/tutalien3","images/t.png","NA","practice","null","","","",""
"d3-animate-choice","25","101708","0.0-25.0","2406","5015","18","Male","false","true","true","true","""event"",""trial"",""time""
""fullscreenenter"",""5"",""19421""
","
","
","""event"",""trial"",""time""
""fullscreenenter"",""5"",""19421""
","
","250.59999990463257","","49","","","3000","1","","","images/tutyellowplanet.jpg","null","images/tutalien3","null","images/tutalien3","images/t.png","NA","practice","null","","","",""
"d3-animate-choice","26","104003","0.0-26.0","2406","5015","18","Male","false","true","true","true","""event"",""trial"",""time""
""fullscreenenter"",""5"",""19421""
","
","
","""event"",""trial"",""time""
""fullscreenenter"",""5"",""19421""
","
","281.09999990463257","","49","","","3000","1","","","images/tutyellowplanet.jpg","null","images/tutalien3","null","images/tutalien3","images/t.png","NA","practice","null","","","",""
"d3-animate-choice","27","106325","0.0-27.0","2406","5015","18","Male","false","true","true","true","""event"",""trial"",""time""
""fullscreenenter"",""5"",""19421""
","
","
","""event"",""trial"",""time""
""fullscreenenter"",""5"",""19421""
","
","305.7000002861023","","49","","","3000","1","","","images/tutyellowplanet.jpg","null","images/tutalien3","null","images/tutalien3","images/nothing.png","NA","practice","null","","","",""
"d3-animate-choice","28","108576","0.0-28.0","2406","5015","18","Male","false","true","true","true","""event"",""trial"",""time""
""fullscreenenter"",""5"",""19421""
","
","
","""event"",""trial"",""time""
""fullscreenenter"",""5"",""19421""
","
","239.19999980926514","","49","","","3000","1","","","images/tutyellowplanet.jpg","null","images/tutalien3","null","images/tutalien3","images/t.png","NA","practice","null","","","",""
"d3-animate-choice","29","110840","0.0-29.0","2406","5015","18","Male","false","true","true","true","""event"",""trial"",""time""
""fullscreenenter"",""5"",""19421""
","
","
","""event"",""trial"",""time""
""fullscreenenter"",""5"",""19421""
","
","256.90000009536743","","49","","","3000","1","","","images/tutyellowplanet.jpg","null","images/tutalien3","null","images/tutalien3","images/t.png","NA","practice","null","","","",""
"d3-instructions","30","113312","0.0-30.0","2406","5015","18","Male","false","true","true","true","""event"",""trial"",""time""
""fullscreenenter"",""5"",""19421""
","
","
","""event"",""trial"",""time""
""fullscreenenter"",""5"",""19421""
","
","","","","","","","","","","","","","","","","","","","","","",""
"d3-instructions","31","123131","0.0-31.0","2406","5015","18","Male","false","true","true","true","""event"",""trial"",""time""
""fullscreenenter"",""5"",""19421""
","
","
","""event"",""trial"",""time""
""fullscreenenter"",""5"",""19421""
","
","","","","","","","","","","","","","","","","","","","","","",""
"d3-instructions","32","126502","0.0-32.0","2406","5015","18","Male","false","true","true","true","""event"",""trial"",""time""
""fullscreenenter"",""5"",""19421""
","
","
","""event"",""trial"",""time""
""fullscreenenter"",""5"",""19421""
","
","","","","","","","","","","","","","","","","","","","","","",""
"d3-instructions","33","129026","0.0-33.0","2406","5015","18","Male","false","true","true","true","""event"",""trial"",""time""
""fullscreenenter"",""5"",""19421""
","
","
","""event"",""trial"",""time""
""fullscreenenter"",""5"",""19421""
","
","","","","","","","","","","","","","","","","","","","","","",""
"d3-animate-choice","34","131419","0.0-34.0","2406","5015","18","Male","false","true","true","true","""event"",""trial"",""time""
""fullscreenenter"",""5"",""19421""
","
","
","""event"",""trial"",""time""
""fullscreenenter"",""5"",""19421""
","
","387.09999990463257","","49","","","3000","1","","","images/tutgreenplanet.jpg","images/tutalien1","images/tutalien2","null","images/tutalien2","images/t.png","NA","practice","null","","","",""
"d3-animate-choice","35","133749","0.0-35.0","2406","5015","18","Male","false","true","true","true","""event"",""trial"",""time""
""fullscreenenter"",""5"",""19421""
","
","
","""event"",""trial"",""time""
""fullscreenenter"",""5"",""19421""
","
","314.5","","49","","","3000","1","","","images/tutgreenplanet.jpg","images/tutalien1","images/tutalien2","null","images/tutalien2","images/t.png","NA","practice","null","","","",""
"d3-animate-choice","36","135890","0.0-36.0","2406","5015","18","Male","false","true","true","true","""event"",""trial"",""time""
""fullscreenenter"",""5"",""19421""
","
","
","""event"",""trial"",""time""
""fullscreenenter"",""5"",""19421""
","
","128.7999997138977","","49","","","3000","1","2109.699999809265","49","images/tutgreenplanet.jpg","images/tutalien1","images/tutalien2","null","images/tutalien2","images/t.png","NA","practice","null","","","",""
"d3-animate-choice","37","138256","0.0-37.0","2406","5015","18","Male","false","true","true","true","""event"",""trial"",""time""
""fullscreenenter"",""5"",""19421""
","
","
","""event"",""trial"",""time""
""fullscreenenter"",""5"",""19421""
","
","358.69999980926514","","49","","","3000","1","","","images/tutgreenplanet.jpg","images/tutalien1","images/tutalien2","null","images/tutalien2","images/t.png","NA","practice","null","","","",""
"d3-animate-choice","38","140492","0.0-38.0","2406","5015","18","Male","false","true","true","true","""event"",""trial"",""time""
""fullscreenenter"",""5"",""19421""
","
","
","""event"",""trial"",""time""
""fullscreenenter"",""5"",""19421""
","
","227.40000009536743","","49","","","3000","1","","","images/tutgreenplanet.jpg","images/tutalien1","images/tutalien2","null","images/tutalien2","images/t.png","NA","practice","null","","","",""
"d3-animate-choice","39","142716","0.0-39.0","2406","5015","18","Male","false","true","true","true","""event"",""trial"",""time""
""fullscreenenter"",""5"",""19421""
","
","
","""event"",""trial"",""time""
""fullscreenenter"",""5"",""19421""
","
","211.7999997138977","","49","","","3000","1","","","images/tutgreenplanet.jpg","images/tutalien1","images/tutalien2","null","images/tutalien2","images/t.png","NA","practice","null","","","",""
"d3-animate-choice","40","144916","0.0-40.0","2406","5015","18","Male","false","true","true","true","""event"",""trial"",""time""
""fullscreenenter"",""5"",""19421""
","
","
","""event"",""trial"",""time""
""fullscreenenter"",""5"",""19421""
","
","183.2000002861023","","49","","","3000","1","2157","49","images/tutgreenplanet.jpg","images/tutalien1","images/tutalien2","null","images/tutalien2","images/t.png","NA","practice","null","","","",""
"d3-animate-choice","41","147244","0.0-41.0","2406","5015","18","Male","false","true","true","true","""event"",""trial"",""time""
""fullscreenenter"",""5"",""19421""
","
","
","""event"",""trial"",""time""
""fullscreenenter"",""5"",""19421""
","
","316.7999997138977","","49","","","3000","1","","","images/tutgreenplanet.jpg","images/tutalien1","images/tutalien2","null","images/tutalien2","images/t.png","NA","practice","null","","","",""
"d3-animate-choice","42","149508","0.0-42.0","2406","5015","18","Male","false","true","true","true","""event"",""trial"",""time""
""fullscreenenter"",""5"",""19421""
","
","
","""event"",""trial"",""time""
""fullscreenenter"",""5"",""19421""
","
","247.09999990463257","","49","","","3000","1","","","images/tutgreenplanet.jpg","images/tutalien1","images/tutalien2","null","images/tutalien2","images/t.png","NA","practice","null","","","",""
"d3-animate-choice","43","151899","0.0-43.0","2406","5015","18","Male","false","true","true","true","""event"",""trial"",""time""
""fullscreenenter"",""5"",""19421""
","
","
","""event"",""trial"",""time""
""fullscreenenter"",""5"",""19421""
","
","381.8999996185303","","49","","","3000","1","","","images/tutgreenplanet.jpg","images/tutalien1","images/tutalien2","null","images/tutalien2","images/nothing.png","NA","practice","null","","","",""
"d3-instructions","44","155735","0.0-44.0","2406","5015","18","Male","false","true","true","true","""event"",""trial"",""time""
""fullscreenenter"",""5"",""19421""
","
","
","""event"",""trial"",""time""
""fullscreenenter"",""5"",""19421""
","
","","","","","","","","","","","","","","","","","","","","","",""
"d3-instructions","45","157457","0.0-45.0","2406","5015","18","Male","false","true","true","true","""event"",""trial"",""time""
""fullscreenenter"",""5"",""19421""
","
","
","""event"",""trial"",""time""
""fullscreenenter"",""5"",""19421""
","
","","","","","","","","","","","","","","","","","","","","","",""
"d3-instructions","46","158777","0.0-46.0","2406","5015","18","Male","false","true","true","true","""event"",""trial"",""time""
""fullscreenenter"",""5"",""19421""
","
","
","""event"",""trial"",""time""
""fullscreenenter"",""5"",""19421""
","
","","","","","","","","","","","","","","","","","","","","","",""
"d3-instructions","47","170747","0.0-47.0","2406","5015","18","Male","false","true","true","true","""event"",""trial"",""time""
""fullscreenenter"",""5"",""19421""
","
","
","""event"",""trial"",""time""
""fullscreenenter"",""5"",""19421""
","
","","","","","","","","","","","","","","","","","","","","","",""
"d3-instructions","48","174068","0.0-48.0","2406","5015","18","Male","false","true","true","true","""event"",""trial"",""time""
""fullscreenenter"",""5"",""19421""
","
","
","""event"",""trial"",""time""
""fullscreenenter"",""5"",""19421""
","
","","","","","","","","","","","","","","","","","","","","","",""
"d3-instructions","49","177258","0.0-49.0","2406","5015","18","Male","false","true","true","true","""event"",""trial"",""time""
""fullscreenenter"",""5"",""19421""
","
","
","""event"",""trial"",""time""
""fullscreenenter"",""5"",""19421""
","
","","","","","","","","","","","","","","","","","","","","","",""
"d3-instructions","50","179831","0.0-50.0","2406","5015","18","Male","false","true","true","true","""event"",""trial"",""time""
""fullscreenenter"",""5"",""19421""
","
","
","""event"",""trial"",""time""
""fullscreenenter"",""5"",""19421""
","
","","","","","","","","","","","","","","","","","","","","","",""
"d3-instructions","51","183236","0.0-51.0","2406","5015","18","Male","false","true","true","true","""event"",""trial"",""time""
""fullscreenenter"",""5"",""19421""
","
","
","""event"",""trial"",""time""
""fullscreenenter"",""5"",""19421""
","
","","","","","","","","","","","","","","","","","","","","","",""
"d3-instructions","52","185590","0.0-52.0","2406","5015","18","Male","false","true","true","true","""event"",""trial"",""time""
""fullscreenenter"",""5"",""19421""
","
","
","""event"",""trial"",""time""
""fullscreenenter"",""5"",""19421""
","
","","","","","","","","","","","","","","","","","","","","","",""
"d3-instructions","53","191714","0.0-53.0","2406","5015","18","Male","false","true","true","true","""event"",""trial"",""time""
""fullscreenenter"",""5"",""19421""
","
","
","""event"",""trial"",""time""
""fullscreenenter"",""5"",""19421""
","
","","","","","","","","","","","","","","","","","","","","","",""
"d3-instructions","54","200477","0.0-54.0","2406","5015","18","Male","false","true","true","true","""event"",""trial"",""time""
""fullscreenenter"",""5"",""19421""
","
","
","""event"",""trial"",""time""
""fullscreenenter"",""5"",""19421""
","
","","","","","","","","","","","","","","","","","","","","","",""
"d3-instructions","55","204404","0.0-55.0","2406","5015","18","Male","false","true","true","true","""event"",""trial"",""time""
""fullscreenenter"",""5"",""19421""
","
","
","""event"",""trial"",""time""
""fullscreenenter"",""5"",""19421""
","
","","","","","","","","","","","","","","","","","","","","","",""
"d3-instructions","56","209125","0.0-56.0","2406","5015","18","Male","false","true","true","true","""event"",""trial"",""time""
""fullscreenenter"",""5"",""19421""
","
","
","""event"",""trial"",""time""
""fullscreenenter"",""5"",""19421""
","
","","","","","","","","","","","","","","","","","","","","","",""
"d3-instructions","57","212738","0.0-57.0","2406","5015","18","Male","false","true","true","true","""event"",""trial"",""time""
""fullscreenenter"",""5"",""19421""
","
","
","""event"",""trial"",""time""
""fullscreenenter"",""5"",""19421""
","
","","","","","","","","","","","","","","","","","","","","","",""
"d3-instructions","58","216234","0.0-58.0","2406","5015","18","Male","false","true","true","true","""event"",""trial"",""time""
""fullscreenenter"",""5"",""19421""
","
","
","""event"",""trial"",""time""
""fullscreenenter"",""5"",""19421""
","
","","","","","","","","","","","","","","","","","","","","","",""
"d3-instructions","59","217636","0.0-59.0","2406","5015","18","Male","false","true","true","true","""event"",""trial"",""time""
""fullscreenenter"",""5"",""19421""
","
","
","""event"",""trial"",""time""
""fullscreenenter"",""5"",""19421""
","
","","","","","","","","","","","","","","","","","","","","","",""
"d3-instructions","60","218574","0.0-60.0","2406","5015","18","Male","false","true","true","true","""event"",""trial"",""time""
""fullscreenenter"",""5"",""19421""
","
","
","""event"",""trial"",""time""
""fullscreenenter"",""5"",""19421""
","
","","","","","","","","","","","","","","","","","","","","","",""
"d3-animate-choice","61","221147","0.0-61.0-0.0","2406","5015","18","Male","false","true","true","true","""event"",""trial"",""time""
""fullscreenenter"",""5"",""19421""
","
","
","""event"",""trial"",""time""
""fullscreenenter"",""5"",""19421""
","
","559.6999998092651","","49","","","3000","1","","","images/earth.jpg","images/tutrocket2","images/tutrocket1","null","images/tutrocket1","","1","practice","null","1","","",""
"d3-animate-choice","62","223980","0.0-61.0-1.0","2406","5015","18","Male","false","true","true","true","""event"",""trial"",""time""
""fullscreenenter"",""5"",""19421""
","
","
","""event"",""trial"",""time""
""fullscreenenter"",""5"",""19421""
","
","818.4000000953674","","49","","","3000","1","","","images/tutyellowplanet.jpg","images/tutalien4","images/tutalien3","images/tutrocket1","images/tutalien3","images/nothing.png","2","practice","false","1","rare","0","2022-12-16 03:09:53.156"
"two-step-fixation","63","224996","0.0-61.0-2.0","2406","5015","18","Male","false","true","true","true","""event"",""trial"",""time""
""fullscreenenter"",""5"",""19421""
","
","
","""event"",""trial"",""time""
""fullscreenenter"",""5"",""19421""
","
","","images/earth.jpg","","","","","","","","","","","","","","fixation","","","","","",""
"d3-animate-choice","64","227543","0.0-61.0-0.1","2406","5015","18","Male","false","true","true","true","""event"",""trial"",""time""
""fullscreenenter"",""5"",""19421""
","
","
","""event"",""trial"",""time""
""fullscreenenter"",""5"",""19421""
","
","541.3000001907349","","49","","","3000","1","","","images/earth.jpg","images/tutrocket2","images/tutrocket1","null","images/tutrocket1","","1","practice","null","1","","",""
"d3-animate-choice","65","231096","0.0-61.0-1.1","2406","5015","18","Male","false","true","true","true","""event"",""trial"",""time""
""fullscreenenter"",""5"",""19421""
","
","
","""event"",""trial"",""time""
""fullscreenenter"",""5"",""19421""
","
","1550.8000001907349","","48","","","3000","1","","","images/tutgreenplanet.jpg","images/tutalien2","images/tutalien1","images/tutrocket1","images/tutalien2","images/nothing.png","2","practice","true","2","common","0","2022-12-16 03:10:00.272"
"two-step-fixation","66","232105","0.0-61.0-2.1","2406","5015","18","Male","false","true","true","true","""event"",""trial"",""time""
""fullscreenenter"",""5"",""19421""
","
","
","""event"",""trial"",""time""
""fullscreenenter"",""5"",""19421""
","
","","images/earth.jpg","","","","","","","","","","","","","","fixation","","","","","",""
"d3-animate-choice","67","234516","0.0-61.0-0.2","2406","5015","18","Male","false","true","true","true","""event"",""trial"",""time""
""fullscreenenter"",""5"",""19421""
","
","
","""event"",""trial"",""time""
""fullscreenenter"",""5"",""19421""
","
","399.8999996185303","","49","","","3000","1","","","images/earth.jpg","images/tutrocket2","images/tutrocket1","null","images/tutrocket1","","1","practice","null","1","","",""
"d3-animate-choice","68","237873","0.0-61.0-1.2","2406","5015","18","Male","false","true","true","true","""event"",""trial"",""time""
""fullscreenenter"",""5"",""19421""
","
","
","""event"",""trial"",""time""
""fullscreenenter"",""5"",""19421""
","
","1342.3000001907349","","49","","","3000","1","","","images/tutgreenplanet.jpg","images/tutalien2","images/tutalien1","images/tutrocket1","images/tutalien1","images/nothing.png","2","practice","true","1","common","0","2022-12-16 03:10:07.049"
"two-step-fixation","69","238889","0.0-61.0-2.2","2406","5015","18","Male","false","true","true","true","""event"",""trial"",""time""
""fullscreenenter"",""5"",""19421""
","
","
","""event"",""trial"",""time""
""fullscreenenter"",""5"",""19421""
","
","","images/earth.jpg","","","","","","","","","","","","","","fixation","","","","","",""
"d3-animate-choice","70","241320","0.0-61.0-0.3","2406","5015","18","Male","false","true","true","true","""event"",""trial"",""time""
""fullscreenenter"",""5"",""19421""
","
","
","""event"",""trial"",""time""
""fullscreenenter"",""5"",""19421""
","
","420.90000009536743","","49","","","3000","1","","","images/earth.jpg","images/tutrocket2","images/tutrocket1","null","images/tutrocket1","","1","practice","null","1","","",""
"d3-animate-choice","71","244210","0.0-61.0-1.3","2406","5015","18","Male","false","true","true","true","""event"",""trial"",""time""
""fullscreenenter"",""5"",""19421""
","
","
","""event"",""trial"",""time""
""fullscreenenter"",""5"",""19421""
","
","874.9000000953674","","49","","","3000","1","","","images/tutgreenplanet.jpg","images/tutalien2","images/tutalien1","images/tutrocket1","images/tutalien1","images/t.png","2","practice","true","1","common","1","2022-12-16 03:10:13.385"
"two-step-fixation","72","245220","0.0-61.0-2.3","2406","5015","18","Male","false","true","true","true","""event"",""trial"",""time""
""fullscreenenter"",""5"",""19421""
","
","
","""event"",""trial"",""time""
""fullscreenenter"",""5"",""19421""
","
","","images/earth.jpg","","","","","","","","","","","","","","fixation","","","","","",""
"d3-animate-choice","73","247577","0.0-61.0-0.4","2406","5015","18","Male","false","true","true","true","""event"",""trial"",""time""
""fullscreenenter"",""5"",""19421""
","
","
","""event"",""trial"",""time""
""fullscreenenter"",""5"",""19421""
","
","344.1000003814697","","49","","","3000","1","","","images/earth.jpg","images/tutrocket2","images/tutrocket1","null","images/tutrocket1","","1","practice","null","1","","",""
"d3-animate-choice","74","250455","0.0-61.0-1.4","2406","5015","18","Male","false","true","true","true","""event"",""trial"",""time""
""fullscreenenter"",""5"",""19421""
","
","
","""event"",""trial"",""time""
""fullscreenenter"",""5"",""19421""
","
","868.0999999046326","","49","","","3000","1","","","images/tutgreenplanet.jpg","images/tutalien2","images/tutalien1","images/tutrocket1","images/tutalien1","images/nothing.png","2","practice","true","1","common","0","2022-12-16 03:10:19.630"
"two-step-fixation","75","251463","0.0-61.0-2.4","2406","5015","18","Male","false","true","true","true","""event"",""trial"",""time""
""fullscreenenter"",""5"",""19421""
","
","
","""event"",""trial"",""time""
""fullscreenenter"",""5"",""19421""
","
","","images/earth.jpg","","","","","","","","","","","","","","fixation","","","","","",""
"d3-animate-choice","76","253736","0.0-61.0-0.5","2406","5015","18","Male","false","true","true","true","""event"",""trial"",""time""
""fullscreenenter"",""5"",""19421""
","
","
","""event"",""trial"",""time""
""fullscreenenter"",""5"",""19421""
","
","266.5","","49","","","3000","1","","","images/earth.jpg","images/tutrocket2","images/tutrocket1","null","images/tutrocket1","","1","practice","null","1","","",""
"d3-animate-choice","77","256290","0.0-61.0-1.5","2406","5015","18","Male","false","true","true","true","""event"",""trial"",""time""
""fullscreenenter"",""5"",""19421""
","
","
","""event"",""trial"",""time""
""fullscreenenter"",""5"",""19421""
","
","543.5999999046326","","48","","","3000","1","","","images/tutgreenplanet.jpg","images/tutalien2","images/tutalien1","images/tutrocket1","images/tutalien2","images/nothing.png","2","practice","true","2","common","0","2022-12-16 03:10:25.465"
"two-step-fixation","78","257307","0.0-61.0-2.5","2406","5015","18","Male","false","true","true","true","""event"",""trial"",""time""
""fullscreenenter"",""5"",""19421""
","
","
","""event"",""trial"",""time""
""fullscreenenter"",""5"",""19421""
","
","","images/earth.jpg","","","","","","","","","","","","","","fixation","","","","","",""
"d3-animate-choice","79","259608","0.0-61.0-0.6","2406","5015","18","Male","false","true","true","true","""event"",""trial"",""time""
""fullscreenenter"",""5"",""19421""
","
","
","""event"",""trial"",""time""
""fullscreenenter"",""5"",""19421""
","
","290.5","","49","","","3000","1","","","images/earth.jpg","images/tutrocket2","images/tutrocket1","null","images/tutrocket1","","1","practice","null","1","","",""
"d3-animate-choice","80","262402","0.0-61.0-1.6","2406","5015","18","Male","false","true","true","true","""event"",""trial"",""time""
""fullscreenenter"",""5"",""19421""
","
","
","""event"",""trial"",""time""
""fullscreenenter"",""5"",""19421""
","
","780.3000001907349","","48","","","3000","1","","","images/tutgreenplanet.jpg","images/tutalien2","images/tutalien1","images/tutrocket1","images/tutalien2","images/nothing.png","2","practice","true","2","common","0","2022-12-16 03:10:31.577"
"two-step-fixation","81","263413","0.0-61.0-2.6","2406","5015","18","Male","false","true","true","true","""event"",""trial"",""time""
""fullscreenenter"",""5"",""19421""
","
","
","""event"",""trial"",""time""
""fullscreenenter"",""5"",""19421""
","
","","images/earth.jpg","","","","","","","","","","","","","","fixation","","","","","",""
"d3-animate-choice","82","265868","0.0-61.0-0.7","2406","5015","18","Male","false","true","true","true","""event"",""trial"",""time""
""fullscreenenter"",""5"",""19421""
","
","
","""event"",""trial"",""time""
""fullscreenenter"",""5"",""19421""
","
","442.69999980926514","","48","","","3000","1","","","images/earth.jpg","images/tutrocket2","images/tutrocket1","null","images/tutrocket2","","1","practice","null","2","","",""
"d3-animate-choice","83","268424","0.0-61.0-1.7","2406","5015","18","Male","false","true","true","true","""event"",""trial"",""time""
""fullscreenenter"",""5"",""19421""
","
","
","""event"",""trial"",""time""
""fullscreenenter"",""5"",""19421""
","
","547","","49","","","3000","1","","","images/tutyellowplanet.jpg","images/tutalien4","images/tutalien3","images/tutrocket2","images/tutalien3","images/nothing.png","2","practice","true","1","common","0","2022-12-16 03:10:37.599"
"two-step-fixation","84","269432","0.0-61.0-2.7","2406","5015","18","Male","false","true","true","true","""event"",""trial"",""time""
""fullscreenenter"",""5"",""19421""
","
","
","""event"",""trial"",""time""
""fullscreenenter"",""5"",""19421""
","
","","images/earth.jpg","","","","","","","","","","","","","","fixation","","","","","",""
"d3-animate-choice","85","272027","0.0-61.0-0.8","2406","5015","18","Male","false","true","true","true","""event"",""trial"",""time""
""fullscreenenter"",""5"",""19421""
","
","
","""event"",""trial"",""time""
""fullscreenenter"",""5"",""19421""
","
","578.4000000953674","","48","","","3000","1","","","images/earth.jpg","images/tutrocket2","images/tutrocket1","null","images/tutrocket2","","1","practice","null","2","","",""
"d3-animate-choice","86","274688","0.0-61.0-1.8","2406","5015","18","Male","false","true","true","true","""event"",""trial"",""time""
""fullscreenenter"",""5"",""19421""
","
","
","""event"",""trial"",""time""
""fullscreenenter"",""5"",""19421""
","
","653.2999997138977","","49","","","3000","1","","","images/tutgreenplanet.jpg","images/tutalien2","images/tutalien1","images/tutrocket2","images/tutalien1","images/nothing.png","2","practice","false","1","rare","0","2022-12-16 03:10:43.863"
"two-step-fixation","87","275696","0.0-61.0-2.8","2406","5015","18","Male","false","true","true","true","""event"",""trial"",""time""
""fullscreenenter"",""5"",""19421""
","
","
","""event"",""trial"",""time""
""fullscreenenter"",""5"",""19421""
","
","","images/earth.jpg","","","","","","","","","","","","","","fixation","","","","","",""
"d3-animate-choice","88","277960","0.0-61.0-0.9","2406","5015","18","Male","false","true","true","true","""event"",""trial"",""time""
""fullscreenenter"",""5"",""19421""
","
","
","""event"",""trial"",""time""
""fullscreenenter"",""5"",""19421""
","
","257.5","","48","","","3000","1","","","images/earth.jpg","images/tutrocket2","images/tutrocket1","null","images/tutrocket2","","1","practice","null","2","","",""
"d3-animate-choice","89","280535","0.0-61.0-1.9","2406","5015","18","Male","false","true","true","true","""event"",""trial"",""time""
""fullscreenenter"",""5"",""19421""
","
","
","""event"",""trial"",""time""
""fullscreenenter"",""5"",""19421""
","
","563","","49","","","3000","1","","","images/tutyellowplanet.jpg","images/tutalien4","images/tutalien3","images/tutrocket2","images/tutalien3","images/t.png","2","practice","true","1","common","1","2022-12-16 03:10:49.710"
"two-step-fixation","90","281544","0.0-61.0-2.9","2406","5015","18","Male","false","true","true","true","""event"",""trial"",""time""
""fullscreenenter"",""5"",""19421""
","
","
","""event"",""trial"",""time""
""fullscreenenter"",""5"",""19421""
","
","","images/earth.jpg","","","","","","","","","","","","","","fixation","","","","","",""
"d3-animate-choice","91","284135","0.0-61.0-0.10","2406","5015","18","Male","false","true","true","true","""event"",""trial"",""time""
""fullscreenenter"",""5"",""19421""
","
","
","""event"",""trial"",""time""
""fullscreenenter"",""5"",""19421""
","
","581.3000001907349","","48","","","3000","1","","","images/earth.jpg","images/tutrocket2","images/tutrocket1","null","images/tutrocket2","","1","practice","null","2","","",""
"d3-animate-choice","92","287596","0.0-61.0-1.10","2406","5015","18","Male","false","true","true","true","""event"",""trial"",""time""
""fullscreenenter"",""5"",""19421""
","
","
","""event"",""trial"",""time""
""fullscreenenter"",""5"",""19421""
","
","1453.3000001907349","","48","","","3000","1","","","images/tutgreenplanet.jpg","images/tutalien2","images/tutalien1","images/tutrocket2","images/tutalien2","images/t.png","2","practice","false","2","rare","1","2022-12-16 03:10:56.771"
"two-step-fixation","93","288603","0.0-61.0-2.10","2406","5015","18","Male","false","true","true","true","""event"",""trial"",""time""
""fullscreenenter"",""5"",""19421""
","
","
","""event"",""trial"",""time""
""fullscreenenter"",""5"",""19421""
","
","","images/earth.jpg","","","","","","","","","","","","","","fixation","","","","","",""
"d3-animate-choice","94","290795","0.0-61.0-0.11","2406","5015","18","Male","false","true","true","true","""event"",""trial"",""time""
""fullscreenenter"",""5"",""19421""
","
","
","""event"",""trial"",""time""
""fullscreenenter"",""5"",""19421""
","
","181.09999990463257","","48","","","3000","1","","","images/earth.jpg","images/tutrocket2","images/tutrocket1","null","images/tutrocket2","","1","practice","null","2","","",""
"d3-animate-choice","95","293248","0.0-61.0-1.11","2406","5015","18","Male","false","true","true","true","""event"",""trial"",""time""
""fullscreenenter"",""5"",""19421""
","
","
","""event"",""trial"",""time""
""fullscreenenter"",""5"",""19421""
","
","446.59999990463257","","48","","","3000","1","","","images/tutyellowplanet.jpg","images/tutalien4","images/tutalien3","images/tutrocket2","images/tutalien4","images/nothing.png","2","practice","true","2","common","0","2022-12-16 03:11:02.423"
"two-step-fixation","96","294255","0.0-61.0-2.11","2406","5015","18","Male","false","true","true","true","""event"",""trial"",""time""
""fullscreenenter"",""5"",""19421""
","
","
","""event"",""trial"",""time""
""fullscreenenter"",""5"",""19421""
","
","","images/earth.jpg","","","","","","","","","","","","","","fixation","","","","","",""
"d3-animate-choice","97","296688","0.0-61.0-0.12","2406","5015","18","Male","false","true","true","true","""event"",""trial"",""time""
""fullscreenenter"",""5"",""19421""
","
","
","""event"",""trial"",""time""
""fullscreenenter"",""5"",""19421""
","
","421.80000019073486","","49","","","3000","1","","","images/earth.jpg","images/tutrocket2","images/tutrocket1","null","images/tutrocket1","","1","practice","null","1","","",""
"d3-animate-choice","98","299056","0.0-61.0-1.12","2406","5015","18","Male","false","true","true","true","""event"",""trial"",""time""
""fullscreenenter"",""5"",""19421""
","
","
","""event"",""trial"",""time""
""fullscreenenter"",""5"",""19421""
","
","355.90000009536743","","48","","","3000","1","","","images/tutgreenplanet.jpg","images/tutalien2","images/tutalien1","images/tutrocket1","images/tutalien2","images/nothing.png","2","practice","true","2","common","0","2022-12-16 03:11:08.231"
"two-step-fixation","99","300067","0.0-61.0-2.12","2406","5015","18","Male","false","true","true","true","""event"",""trial"",""time""
""fullscreenenter"",""5"",""19421""
","
","
","""event"",""trial"",""time""
""fullscreenenter"",""5"",""19421""
","
","","images/earth.jpg","","","","","","","","","","","","","","fixation","","","","","",""
"d3-animate-choice","100","302352","0.0-61.0-0.13","2406","5015","18","Male","false","true","true","true","""event"",""trial"",""time""
""fullscreenenter"",""5"",""19421""
","
","
","""event"",""trial"",""time""
""fullscreenenter"",""5"",""19421""
","
","276.2999997138977","","48","","","3000","1","","","images/earth.jpg","images/tutrocket2","images/tutrocket1","null","images/tutrocket2","","1","practice","null","2","","",""
"d3-animate-choice","101","304715","0.0-61.0-1.13","2406","5015","18","Male","false","true","true","true","""event"",""trial"",""time""
""fullscreenenter"",""5"",""19421""
","
","
","""event"",""trial"",""time""
""fullscreenenter"",""5"",""19421""
","
","353.09999990463257","","49","","","3000","1","","","images/tutyellowplanet.jpg","images/tutalien4","images/tutalien3","images/tutrocket2","images/tutalien3","images/t.png","2","practice","true","1","common","1","2022-12-16 03:11:13.890"
"two-step-fixation","102","305731","0.0-61.0-2.13","2406","5015","18","Male","false","true","true","true","""event"",""trial"",""time""
""fullscreenenter"",""5"",""19421""
","
","
","""event"",""trial"",""time""
""fullscreenenter"",""5"",""19421""
","
","","images/earth.jpg","","","","","","","","","","","","","","fixation","","","","","",""
"d3-animate-choice","103","308040","0.0-61.0-0.14","2406","5015","18","Male","false","true","true","true","""event"",""trial"",""time""
""fullscreenenter"",""5"",""19421""
","
","
","""event"",""trial"",""time""
""fullscreenenter"",""5"",""19421""
","
","304.80000019073486","","48","","","3000","1","","","images/earth.jpg","images/tutrocket2","images/tutrocket1","null","images/tutrocket2","","1","practice","null","2","","",""
"d3-animate-choice","104","310960","0.0-61.0-1.14","2406","5015","18","Male","false","true","true","true","""event"",""trial"",""time""
""fullscreenenter"",""5"",""19421""
","
","
","""event"",""trial"",""time""
""fullscreenenter"",""5"",""19421""
","
","909.5","","48","","","3000","1","","","images/tutgreenplanet.jpg","images/tutalien2","images/tutalien1","images/tutrocket2","images/tutalien2","images/nothing.png","2","practice","false","2","rare","0","2022-12-16 03:11:20.135"
"two-step-fixation","105","311971","0.0-61.0-2.14","2406","5015","18","Male","false","true","true","true","""event"",""trial"",""time""
""fullscreenenter"",""5"",""19421""
","
","
","""event"",""trial"",""time""
""fullscreenenter"",""5"",""19421""
","
","","images/earth.jpg","","","","","","","","","","","","","","fixation","","","","","",""
"d3-animate-choice","106","314218","0.0-61.0-0.15","2406","5015","18","Male","false","true","true","true","""event"",""trial"",""time""
""fullscreenenter"",""5"",""19421""
","
","
","""event"",""trial"",""time""
""fullscreenenter"",""5"",""19421""
","
","234","","48","","","3000","1","","","images/earth.jpg","images/tutrocket2","images/tutrocket1","null","images/tutrocket2","","1","practice","null","2","","",""
"d3-animate-choice","107","316670","0.0-61.0-1.15","2406","5015","18","Male","false","true","true","true","""event"",""trial"",""time""
""fullscreenenter"",""5"",""19421""
","
","
","""event"",""trial"",""time""
""fullscreenenter"",""5"",""19421""
","
","442.5","","49","","","3000","1","","","images/tutyellowplanet.jpg","images/tutalien4","images/tutalien3","images/tutrocket2","images/tutalien3","images/nothing.png","2","practice","true","1","common","0","2022-12-16 03:11:25.845"
"two-step-fixation","108","317678","0.0-61.0-2.15","2406","5015","18","Male","false","true","true","true","""event"",""trial"",""time""
""fullscreenenter"",""5"",""19421""
","
","
","""event"",""trial"",""time""
""fullscreenenter"",""5"",""19421""
","
","","images/earth.jpg","","","","","","","","","","","","","","fixation","","","","","",""
"d3-animate-choice","109","320080","0.0-61.0-0.16","2406","5015","18","Male","false","true","true","true","""event"",""trial"",""time""
""fullscreenenter"",""5"",""19421""
","
","
","""event"",""trial"",""time""
""fullscreenenter"",""5"",""19421""
","
","393.90000009536743","","48","","","3000","1","","","images/earth.jpg","images/tutrocket2","images/tutrocket1","null","images/tutrocket2","","1","practice","null","2","","",""
"d3-animate-choice","110","322537","0.0-61.0-1.16","2406","5015","18","Male","false","true","true","true","""event"",""trial"",""time""
""fullscreenenter"",""5"",""19421""
","
","
","""event"",""trial"",""time""
""fullscreenenter"",""5"",""19421""
","
","450.5","","48","","","3000","1","","","images/tutyellowplanet.jpg","images/tutalien4","images/tutalien3","images/tutrocket2","images/tutalien4","images/nothing.png","2","practice","true","2","common","0","2022-12-16 03:11:31.712"
"two-step-fixation","111","323543","0.0-61.0-2.16","2406","5015","18","Male","false","true","true","true","""event"",""trial"",""time""
""fullscreenenter"",""5"",""19421""
","
","
","""event"",""trial"",""time""
""fullscreenenter"",""5"",""19421""
","
","","images/earth.jpg","","","","","","","","","","","","","","fixation","","","","","",""
"d3-animate-choice","112","326008","0.0-61.0-0.17","2406","5015","18","Male","false","true","true","true","""event"",""trial"",""time""
""fullscreenenter"",""5"",""19421""
","
","
","""event"",""trial"",""time""
""fullscreenenter"",""5"",""19421""
","
","456.40000009536743","","48","","","3000","1","","","images/earth.jpg","images/tutrocket2","images/tutrocket1","null","images/tutrocket2","","1","practice","null","2","","",""
"d3-animate-choice","113","328416","0.0-61.0-1.17","2406","5015","18","Male","false","true","true","true","""event"",""trial"",""time""
""fullscreenenter"",""5"",""19421""
","
","
","""event"",""trial"",""time""
""fullscreenenter"",""5"",""19421""
","
","399.59999990463257","","49","","","3000","1","","","images/tutyellowplanet.jpg","images/tutalien4","images/tutalien3","images/tutrocket2","images/tutalien3","images/nothing.png","2","practice","true","1","common","0","2022-12-16 03:11:37.591"
"two-step-fixation","114","329424","0.0-61.0-2.17","2406","5015","18","Male","false","true","true","true","""event"",""trial"",""time""
""fullscreenenter"",""5"",""19421""
","
","
","""event"",""trial"",""time""
""fullscreenenter"",""5"",""19421""
","
","","images/earth.jpg","","","","","","","","","","","","","","fixation","","","","","",""
"d3-animate-choice","115","332226","0.0-61.0-0.18","2406","5015","18","Male","false","true","true","true","""event"",""trial"",""time""
""fullscreenenter"",""5"",""19421""
","
","
","""event"",""trial"",""time""
""fullscreenenter"",""5"",""19421""
","
","795.5999999046326","","49","","","3000","1","","","images/earth.jpg","images/tutrocket2","images/tutrocket1","null","images/tutrocket1","","1","practice","null","1","","",""
"d3-animate-choice","116","334660","0.0-61.0-1.18","2406","5015","18","Male","false","true","true","true","""event"",""trial"",""time""
""fullscreenenter"",""5"",""19421""
","
","
","""event"",""trial"",""time""
""fullscreenenter"",""5"",""19421""
","
","424.40000009536743","","48","","","3000","1","","","images/tutgreenplanet.jpg","images/tutalien2","images/tutalien1","images/tutrocket1","images/tutalien2","images/nothing.png","2","practice","true","2","common","0","2022-12-16 03:11:43.836"
"two-step-fixation","117","335668","0.0-61.0-2.18","2406","5015","18","Male","false","true","true","true","""event"",""trial"",""time""
""fullscreenenter"",""5"",""19421""
","
","
","""event"",""trial"",""time""
""fullscreenenter"",""5"",""19421""
","
","","images/earth.jpg","","","","","","","","","","","","","","fixation","","","","","",""
"d3-animate-choice","118","338043","0.0-61.0-0.19","2406","5015","18","Male","false","true","true","true","""event"",""trial"",""time""
""fullscreenenter"",""5"",""19421""
","
","
","""event"",""trial"",""time""
""fullscreenenter"",""5"",""19421""
","
","370.90000009536743","","49","","","3000","1","","","images/earth.jpg","images/tutrocket2","images/tutrocket1","null","images/tutrocket1","","1","practice","null","1","","",""
"d3-animate-choice","119","340411","0.0-61.0-1.19","2406","5015","18","Male","false","true","true","true","""event"",""trial"",""time""
""fullscreenenter"",""5"",""19421""
","
","
","""event"",""trial"",""time""
""fullscreenenter"",""5"",""19421""
","
","355.09999990463257","","49","","","3000","1","","","images/tutgreenplanet.jpg","images/tutalien2","images/tutalien1","images/tutrocket1","images/tutalien1","images/nothing.png","2","practice","true","1","common","0","2022-12-16 03:11:49.586"
"two-step-fixation","120","341424","0.0-61.0-2.19","2406","5015","18","Male","false","true","true","true","""event"",""trial"",""time""
""fullscreenenter"",""5"",""19421""
","
","
","""event"",""trial"",""time""
""fullscreenenter"",""5"",""19421""
","
","","images/earth.jpg","","","","","","","","","","","","","","fixation","","","","","",""
"d3-instructions","121","346303","0.0-62.0","2406","5015","18","Male","false","true","true","true","""event"",""trial"",""time""
""fullscreenenter"",""5"",""19421""
","
","
","""event"",""trial"",""time""
""fullscreenenter"",""5"",""19421""
","
","","","","","","","","","","","","","","","","","","","","","",""
"audio-keyboard-response","122","349255","0.0-63.0","2406","5015","18","Male","false","true","true","true","""event"",""trial"",""time""
""fullscreenenter"",""5"",""19421""
","
","
","""event"",""trial"",""time""
""fullscreenenter"",""5"",""19421""
","
","2955","audio/instructions/treasure_feedback.wav","32","","","","","","","","","","","","","","","","","","",""
"d3-instructions","123","356393","0.0-64.0","2406","5015","18","Male","false","true","true","true","""event"",""trial"",""time""
""fullscreenenter"",""5"",""19421""
","
","
","""event"",""trial"",""time""
""fullscreenenter"",""5"",""19421""
","
","","","","","","","","","","","","","","","","","","","","","",""
"d3-instructions","124","362515","0.0-65.0","2406","5015","18","Male","false","true","true","true","""event"",""trial"",""time""
""fullscreenenter"",""5"",""19421""
","
","
","""event"",""trial"",""time""
""fullscreenenter"",""5"",""19421""
","
","","","","","","","","","","","","","","","","","","","","","",""
"d3-instructions","125","389744","0.0-66.0","2406","5015","18","Male","false","true","true","true","""event"",""trial"",""time""
""fullscreenenter"",""5"",""19421""
","
","
","""event"",""trial"",""time""
""fullscreenenter"",""5"",""19421""
","
","","","","","","","","","","","","","","","","","","","","","",""
"d3-instructions","126","431092","0.0-67.0","2406","5015","18","Male","false","true","true","true","""event"",""trial"",""time""
""fullscreenenter"",""5"",""19421""
","
","
","""event"",""trial"",""time""
""fullscreenenter"",""5"",""19421""
","
","","","","","","","","","","","","","","","","","","","","","",""
"d3-instructions","127","433035","0.0-68.0","2406","5015","18","Male","false","true","true","true","""event"",""trial"",""time""
""fullscreenenter"",""5"",""19421""
","
","
","""event"",""trial"",""time""
""fullscreenenter"",""5"",""19421""
","
","","","","","","","","","","","","","","","","","","","","","",""
"instructions-quiz","128","435321","0.0-69.0","2406","5015","18","Male","false","true","true","true","""event"",""trial"",""time""
""fullscreenenter"",""5"",""19421""
","
","
","""event"",""trial"",""time""
""fullscreenenter"",""5"",""19421""
","
","2283.5","audio/quiz/Q1_Prompt.wav","","1","","","","","","","","","","","","","","","","","",""
"audio-keyboard-response","129","444493","0.0-70.0","2406","5015","18","Male","false","true","true","true","""event"",""trial"",""time""
""fullscreenenter"",""5"",""19421""
","
","
","""event"",""trial"",""time""
""fullscreenenter"",""5"",""19421""
","
","null","audio/quiz/Q1_Correct.wav","null","","","","","","","","","","","","","","","","","","",""
"instructions-quiz","130","448582","0.0-71.0","2406","5015","18","Male","false","true","true","true","""event"",""trial"",""time""
""fullscreenenter"",""5"",""19421""
","
","
","""event"",""trial"",""time""
""fullscreenenter"",""5"",""19421""
","
","4083.699999809265","audio/quiz/Q2_Prompt.wav","","0","","","","","","","","","","","","","","","","","",""
"audio-keyboard-response","131","449633","0.0-72.0","2406","5015","18","Male","false","true","true","true","""event"",""trial"",""time""
""fullscreenenter"",""5"",""19421""
","
","
","""event"",""trial"",""time""
""fullscreenenter"",""5"",""19421""
","
","1051","audio/quiz/Q2_Correct.wav","32","","","","","","","","","","","","","","","","","","",""
"instructions-quiz","132","451380","0.0-73.0","2406","5015","18","Male","false","true","true","true","""event"",""trial"",""time""
""fullscreenenter"",""5"",""19421""
","
","
","""event"",""trial"",""time""
""fullscreenenter"",""5"",""19421""
","
","1744.5999999046326","audio/quiz/Q3_Prompt.wav","","1","","","","","","","","","","","","","","","","","",""
"audio-keyboard-response","133","451709","0.0-74.0","2406","5015","18","Male","false","true","true","true","""event"",""trial"",""time""
""fullscreenenter"",""5"",""19421""
","
","
","""event"",""trial"",""time""
""fullscreenenter"",""5"",""19421""
","
","325","audio/quiz/Q3_Correct.wav","32","","","","","","","","","","","","","","","","","","",""
"d3-instructions","134","456788","0.0-75.0","2406","5015","18","Male","false","true","true","true","""event"",""trial"",""time""
""fullscreenenter"",""5"",""19421""
","
","
","""event"",""trial"",""time""
""fullscreenenter"",""5"",""19421""
","
","","","","","","","","","","","","","","","","","","","","","",""
"d3-animate-choice","135","459678","0.0-76.0-0.0","2406","5015","18","Male","false","true","true","true","""event"",""trial"",""time""
""fullscreenenter"",""5"",""19421""
","
","
","""event"",""trial"",""time""
""fullscreenenter"",""5"",""19421""
","
","881.5","","49","","","3000","1","","","images/earth.jpg","images/rocket1","images/rocket2","null","images/rocket2","","1","real","null","1","","",""
"d3-animate-choice","136","462678","0.0-76.0-1.0","2406","5015","18","Male","false","true","true","true","""event"",""trial"",""time""
""fullscreenenter"",""5"",""19421""
","
","
","""event"",""trial"",""time""
""fullscreenenter"",""5"",""19421""
","
","991.1999998092651","","49","","","3000","1","","","images/purpleplanet.jpg","images/alien4","images/alien3","images/rocket2","images/alien3","images/t.png","2","real","true","1","common","1","2022-12-16 03:13:51.853"
"two-step-fixation","137","463691","0.0-76.0-2.0","2406","5015","18","Male","false","true","true","true","""event"",""trial"",""time""
""fullscreenenter"",""5"",""19421""
","
","
","""event"",""trial"",""time""
""fullscreenenter"",""5"",""19421""
","
","","images/earth.jpg","","","","","","","","","","","","","","fixation","","","","","",""
"d3-animate-choice","138","466344","0.0-76.0-0.1","2406","5015","18","Male","false","true","true","true","""event"",""trial"",""time""
""fullscreenenter"",""5"",""19421""
","
","
","""event"",""trial"",""time""
""fullscreenenter"",""5"",""19421""
","
","638.5","","49","","","3000","1","","","images/earth.jpg","images/rocket1","images/rocket2","null","images/rocket2","","1","real","null","1","","",""
"d3-animate-choice","139","470361","0.0-76.0-1.1","2406","5015","18","Male","false","true","true","true","""event"",""trial"",""time""
""fullscreenenter"",""5"",""19421""
","
","
","""event"",""trial"",""time""
""fullscreenenter"",""5"",""19421""
","
","1860.8000001907349","","50","","","3000","1","2198.699999809265,2556,2809.0999999046326","50,49,49","images/redplanet1.jpg","images/alien2","images/alien1","images/rocket2","images/alien1","images/t.png","2","real","false","","rare","1","2022-12-16 03:13:59.536"
"two-step-fixation","140","471369","0.0-76.0-2.1","2406","5015","18","Male","false","true","true","true","""event"",""trial"",""time""
""fullscreenenter"",""5"",""19421""
","
","
","""event"",""trial"",""time""
""fullscreenenter"",""5"",""19421""
","
","","images/earth.jpg","","","","","","","","","","","","","","fixation","","","","","",""
"d3-animate-choice","141","474049","0.0-76.0-0.2","2406","5015","18","Male","false","true","true","true","""event"",""trial"",""time""
""fullscreenenter"",""5"",""19421""
","
","
","""event"",""trial"",""time""
""fullscreenenter"",""5"",""19421""
","
","672.1999998092651","","49","","","3000","1","","","images/earth.jpg","images/rocket1","images/rocket2","null","images/rocket2","","1","real","null","1","","",""
"d3-animate-choice","142","477070","0.0-76.0-1.2","2406","5015","18","Male","false","true","true","true","""event"",""trial"",""time""
""fullscreenenter"",""5"",""19421""
","
","
","""event"",""trial"",""time""
""fullscreenenter"",""5"",""19421""
","
","1011","","49","","","3000","1","","","images/purpleplanet.jpg","images/alien4","images/alien3","images/rocket2","images/alien3","images/nothing.png","2","real","true","1","common","0","2022-12-16 03:14:06.246"
"two-step-fixation","143","478082","0.0-76.0-2.2","2406","5015","18","Male","false","true","true","true","""event"",""trial"",""time""
""fullscreenenter"",""5"",""19421""
","
","
","""event"",""trial"",""time""
""fullscreenenter"",""5"",""19421""
","
","","images/earth.jpg","","","","","","","","","","","","","","fixation","","","","","",""
"d3-animate-choice","144","480741","0.0-76.0-0.3","2406","5015","18","Male","false","true","true","true","""event"",""trial"",""time""
""fullscreenenter"",""5"",""19421""
","
","
","""event"",""trial"",""time""
""fullscreenenter"",""5"",""19421""
","
","641.5999999046326","","49","","","3000","1","","","images/earth.jpg","images/rocket1","images/rocket2","null","images/rocket2","","1","real","null","1","","",""
"d3-animate-choice","145","483225","0.0-76.0-1.3","2406","5015","18","Male","false","true","true","true","""event"",""trial"",""time""
""fullscreenenter"",""5"",""19421""
","
","
","""event"",""trial"",""time""
""fullscreenenter"",""5"",""19421""
","
","472.80000019073486","","49","","","3000","1","","","images/purpleplanet.jpg","images/alien4","images/alien3","images/rocket2","images/alien3","images/nothing.png","2","real","true","1","common","0","2022-12-16 03:14:12.400"
"two-step-fixation","146","484236","0.0-76.0-2.3","2406","5015","18","Male","false","true","true","true","""event"",""trial"",""time""
""fullscreenenter"",""5"",""19421""
","
","
","""event"",""trial"",""time""
""fullscreenenter"",""5"",""19421""
","
","","images/earth.jpg","","","","","","","","","","","","","","fixation","","","","","",""
"d3-animate-choice","147","486875","0.0-76.0-0.4","2406","5015","18","Male","false","true","true","true","""event"",""trial"",""time""
""fullscreenenter"",""5"",""19421""
","
","
","""event"",""trial"",""time""
""fullscreenenter"",""5"",""19421""
","
","627.0999999046326","","49","","","3000","1","","","images/earth.jpg","images/rocket1","images/rocket2","null","images/rocket2","","1","real","null","1","","",""
"d3-animate-choice","148","489425","0.0-76.0-1.4","2406","5015","18","Male","false","true","true","true","""event"",""trial"",""time""
""fullscreenenter"",""5"",""19421""
","
","
","""event"",""trial"",""time""
""fullscreenenter"",""5"",""19421""
","
","541.7999997138977","","48","","","3000","1","","","images/purpleplanet.jpg","images/alien4","images/alien3","images/rocket2","images/alien4","images/nothing.png","2","real","true","2","common","0","2022-12-16 03:14:18.600"
"two-step-fixation","149","490441","0.0-76.0-2.4","2406","5015","18","Male","false","true","true","true","""event"",""trial"",""time""
""fullscreenenter"",""5"",""19421""
","
","
","""event"",""trial"",""time""
""fullscreenenter"",""5"",""19421""
","
","","images/earth.jpg","","","","","","","","","","","","","","fixation","","","","","",""
"d3-animate-choice","150","492977","0.0-76.0-0.5","2406","5015","18","Male","false","true","true","true","""event"",""trial"",""time""
""fullscreenenter"",""5"",""19421""
","
","
","""event"",""trial"",""time""
""fullscreenenter"",""5"",""19421""
","
","524.0999999046326","","49","","","3000","1","","","images/earth.jpg","images/rocket1","images/rocket2","null","images/rocket2","","1","real","null","1","","",""
"d3-animate-choice","151","495413","0.0-76.0-1.5","2406","5015","18","Male","false","true","true","true","""event"",""trial"",""time""
""fullscreenenter"",""5"",""19421""
","
","
","""event"",""trial"",""time""
""fullscreenenter"",""5"",""19421""
","
","419.90000009536743","","48","","","3000","1","","","images/purpleplanet.jpg","images/alien4","images/alien3","images/rocket2","images/alien4","images/t.png","2","real","true","2","common","1","2022-12-16 03:14:24.588"
"two-step-fixation","152","496423","0.0-76.0-2.5","2406","5015","18","Male","false","true","true","true","""event"",""trial"",""time""
""fullscreenenter"",""5"",""19421""
","
","
","""event"",""trial"",""time""
""fullscreenenter"",""5"",""19421""
","
","","images/earth.jpg","","","","","","","","","","","","","","fixation","","","","","",""
"d3-animate-choice","153","498718","0.0-76.0-0.6","2406","5015","18","Male","false","true","true","true","""event"",""trial"",""time""
""fullscreenenter"",""5"",""19421""
","
","
","""event"",""trial"",""time""
""fullscreenenter"",""5"",""19421""
","
","285.5","","49","","","3000","1","","","images/earth.jpg","images/rocket1","images/rocket2","null","images/rocket2","","1","real","null","1","","",""
"d3-animate-choice","154","501120","0.0-76.0-1.6","2406","5015","18","Male","false","true","true","true","""event"",""trial"",""time""
""fullscreenenter"",""5"",""19421""
","
","
","""event"",""trial"",""time""
""fullscreenenter"",""5"",""19421""
","
","393.30000019073486","","48","","","3000","1","","","images/redplanet1.jpg","images/alien2","images/alien1","images/rocket2","images/alien2","images/t.png","2","real","false","2","rare","1","2022-12-16 03:14:30.296"
"two-step-fixation","155","502129","0.0-76.0-2.6","2406","5015","18","Male","false","true","true","true","""event"",""trial"",""time""
""fullscreenenter"",""5"",""19421""
","
","
","""event"",""trial"",""time""
""fullscreenenter"",""5"",""19421""
","
","","images/earth.jpg","","","","","","","","","","","","","","fixation","","","","","",""
"d3-animate-choice","156","505496","0.0-76.0-0.7","2406","5015","18","Male","false","true","true","true","""event"",""trial"",""time""
""fullscreenenter"",""5"",""19421""
","
","
","""event"",""trial"",""time""
""fullscreenenter"",""5"",""19421""
","
","1354.6000003814697","","48","","","3000","1","","","images/earth.jpg","images/rocket1","images/rocket2","null","images/rocket1","","1","real","null","2","","",""
"d3-animate-choice","157","507918","0.0-76.0-1.7","2406","5015","18","Male","false","true","true","true","""event"",""trial"",""time""
""fullscreenenter"",""5"",""19421""
","
","
","""event"",""trial"",""time""
""fullscreenenter"",""5"",""19421""
","
","415.90000009536743","","49","","","3000","1","","","images/redplanet1.jpg","images/alien2","images/alien1","images/rocket1","images/alien1","images/nothing.png","2","real","true","1","common","0","2022-12-16 03:14:37.093"
"two-step-fixation","158","508929","0.0-76.0-2.7","2406","5015","18","Male","false","true","true","true","""event"",""trial"",""time""
""fullscreenenter"",""5"",""19421""
","
","
","""event"",""trial"",""time""
""fullscreenenter"",""5"",""19421""
","
","","images/earth.jpg","","","","","","","","","","","","","","fixation","","","","","",""
"d3-animate-choice","159","511742","0.0-76.0-0.8","2406","5015","18","Male","false","true","true","true","""event"",""trial"",""time""
""fullscreenenter"",""5"",""19421""
","
","
","""event"",""trial"",""time""
""fullscreenenter"",""5"",""19421""
","
","807.3000001907349","","48","","","3000","1","","","images/earth.jpg","images/rocket1","images/rocket2","null","images/rocket1","","1","real","null","2","","",""
"d3-animate-choice","160","514230","0.0-76.0-1.8","2406","5015","18","Male","false","true","true","true","""event"",""trial"",""time""
""fullscreenenter"",""5"",""19421""
","
","
","""event"",""trial"",""time""
""fullscreenenter"",""5"",""19421""
","
","476.59999990463257","","49","","","3000","1","","","images/redplanet1.jpg","images/alien2","images/alien1","images/rocket1","images/alien1","images/t.png","2","real","true","1","common","1","2022-12-16 03:14:43.405"
"two-step-fixation","161","515237","0.0-76.0-2.8","2406","5015","18","Male","false","true","true","true","""event"",""trial"",""time""
""fullscreenenter"",""5"",""19421""
","
","
","""event"",""trial"",""time""
""fullscreenenter"",""5"",""19421""
","
","","images/earth.jpg","","","","","","","","","","","","","","fixation","","","","","",""
"d3-animate-choice","162","517649","0.0-76.0-0.9","2406","5015","18","Male","false","true","true","true","""event"",""trial"",""time""
""fullscreenenter"",""5"",""19421""
","
","
","""event"",""trial"",""time""
""fullscreenenter"",""5"",""19421""
","
","397.59999990463257","","48","","","3000","1","","","images/earth.jpg","images/rocket1","images/rocket2","null","images/rocket1","","1","real","null","2","","",""
"d3-animate-choice","163","519950","0.0-76.0-1.9","2406","5015","18","Male","false","true","true","true","""event"",""trial"",""time""
""fullscreenenter"",""5"",""19421""
","
","
","""event"",""trial"",""time""
""fullscreenenter"",""5"",""19421""
","
","293.7000002861023","","48","","","3000","1","","","images/redplanet1.jpg","images/alien2","images/alien1","images/rocket1","images/alien2","images/t.png","2","real","true","2","common","1","2022-12-16 03:14:49.125"
"two-step-fixation","164","520958","0.0-76.0-2.9","2406","5015","18","Male","false","true","true","true","""event"",""trial"",""time""
""fullscreenenter"",""5"",""19421""
","
","
","""event"",""trial"",""time""
""fullscreenenter"",""5"",""19421""
","
","","images/earth.jpg","","","","","","","","","","","","","","fixation","","","","","",""
"d3-animate-choice","165","523261","0.0-76.0-0.10","2406","5015","18","Male","false","true","true","true","""event"",""trial"",""time""
""fullscreenenter"",""5"",""19421""
","
","
","""event"",""trial"",""time""
""fullscreenenter"",""5"",""19421""
","
","297.2999997138977","","48","","","3000","1","","","images/earth.jpg","images/rocket1","images/rocket2","null","images/rocket1","","1","real","null","2","","",""
"d3-animate-choice","166","526098","0.0-76.0-1.10","2406","5015","18","Male","false","true","true","true","""event"",""trial"",""time""
""fullscreenenter"",""5"",""19421""
","
","
","""event"",""trial"",""time""
""fullscreenenter"",""5"",""19421""
","
","831.4000000953674","","48","","","3000","1","","","images/redplanet1.jpg","images/alien2","images/alien1","images/rocket1","images/alien2","images/t.png","2","real","true","2","common","1","2022-12-16 03:14:55.273"
"two-step-fixation","167","527110","0.0-76.0-2.10","2406","5015","18","Male","false","true","true","true","""event"",""trial"",""time""
""fullscreenenter"",""5"",""19421""
","
","
","""event"",""trial"",""time""
""fullscreenenter"",""5"",""19421""
","
","","images/earth.jpg","","","","","","","","","","","","","","fixation","","","","","",""
"d3-animate-choice","168","529378","0.0-76.0-0.11","2406","5015","18","Male","false","true","true","true","""event"",""trial"",""time""
""fullscreenenter"",""5"",""19421""
","
","
","""event"",""trial"",""time""
""fullscreenenter"",""5"",""19421""
","
","254.19999980926514","","48","","","3000","1","","","images/earth.jpg","images/rocket1","images/rocket2","null","images/rocket1","","1","real","null","2","","",""
"d3-animate-choice","169","531862","0.0-76.0-1.11","2406","5015","18","Male","false","true","true","true","""event"",""trial"",""time""
""fullscreenenter"",""5"",""19421""
","
","
","""event"",""trial"",""time""
""fullscreenenter"",""5"",""19421""
","
","474.59999990463257","","48","","","3000","1","","","images/purpleplanet.jpg","images/alien4","images/alien3","images/rocket1","images/alien4","images/nothing.png","2","real","false","2","rare","0","2022-12-16 03:15:01.037"
"two-step-fixation","170","532873","0.0-76.0-2.11","2406","5015","18","Male","false","true","true","true","""event"",""trial"",""time""
""fullscreenenter"",""5"",""19421""
","
","
","""event"",""trial"",""time""
""fullscreenenter"",""5"",""19421""
","
","","images/earth.jpg","","","","","","","","","","","","","","fixation","","","","","",""
"d3-animate-choice","171","535432","0.0-76.0-0.12","2406","5015","18","Male","false","true","true","true","""event"",""trial"",""time""
""fullscreenenter"",""5"",""19421""
","
","
","""event"",""trial"",""time""
""fullscreenenter"",""5"",""19421""
","
","543.3000001907349","","48","","","3000","1","","","images/earth.jpg","images/rocket1","images/rocket2","null","images/rocket1","","1","real","null","2","","",""
"d3-animate-choice","172","538014","0.0-76.0-1.12","2406","5015","18","Male","false","true","true","true","""event"",""trial"",""time""
""fullscreenenter"",""5"",""19421""
","
","
","""event"",""trial"",""time""
""fullscreenenter"",""5"",""19421""
","
","574","","48","","","3000","1","","","images/redplanet1.jpg","images/alien2","images/alien1","images/rocket1","images/alien2","images/t.png","2","real","true","2","common","1","2022-12-16 03:15:07.189"
"two-step-fixation","173","539022","0.0-76.0-2.12","2406","5015","18","Male","false","true","true","true","""event"",""trial"",""time""
""fullscreenenter"",""5"",""19421""
","
","
","""event"",""trial"",""time""
""fullscreenenter"",""5"",""19421""
","
","","images/earth.jpg","","","","","","","","","","","","","","fixation","","","","","",""
"d3-animate-choice","174","541226","0.0-76.0-0.13","2406","5015","18","Male","false","true","true","true","""event"",""trial"",""time""
""fullscreenenter"",""5"",""19421""
","
","
","""event"",""trial"",""time""
""fullscreenenter"",""5"",""19421""
","
","189.59999990463257","","48","","","3000","1","","","images/earth.jpg","images/rocket1","images/rocket2","null","images/rocket1","","1","real","null","2","","",""
"d3-animate-choice","175","543675","0.0-76.0-1.13","2406","5015","18","Male","false","true","true","true","""event"",""trial"",""time""
""fullscreenenter"",""5"",""19421""
","
","
","""event"",""trial"",""time""
""fullscreenenter"",""5"",""19421""
","
","439.69999980926514","","48","","","3000","1","","","images/redplanet1.jpg","images/alien2","images/alien1","images/rocket1","images/alien2","images/t.png","2","real","true","2","common","1","2022-12-16 03:15:12.850"
"two-step-fixation","176","544685","0.0-76.0-2.13","2406","5015","18","Male","false","true","true","true","""event"",""trial"",""time""
""fullscreenenter"",""5"",""19421""
","
","
","""event"",""trial"",""time""
""fullscreenenter"",""5"",""19421""
","
","","images/earth.jpg","","","","","","","","","","","","","","fixation","","","","","",""
"d3-animate-choice","177","546694","0.0-76.0-0.14","2406","5015","18","Male","false","true","true","true","""event"",""trial"",""time""
""fullscreenenter"",""5"",""19421""
","
","
","""event"",""trial"",""time""
""fullscreenenter"",""5"",""19421""
","
","0.6999998092651367","","48","","","3000","1","","","images/earth.jpg","images/rocket1","images/rocket2","null","images/rocket1","","1","real","null","2","","",""
"d3-animate-choice","178","549800","0.0-76.0-1.14","2406","5015","18","Male","false","true","true","true","""event"",""trial"",""time""
""fullscreenenter"",""5"",""19421""
","
","
","""event"",""trial"",""time""
""fullscreenenter"",""5"",""19421""
","
","1099.2999997138977","","49","","","3000","1","","","images/purpleplanet.jpg","images/alien4","images/alien3","images/rocket1","images/alien3","images/nothing.png","2","real","false","1","rare","0","2022-12-16 03:15:18.975"
"two-step-fixation","179","550807","0.0-76.0-2.14","2406","5015","18","Male","false","true","true","true","""event"",""trial"",""time""
""fullscreenenter"",""5"",""19421""
","
","
","""event"",""trial"",""time""
""fullscreenenter"",""5"",""19421""
","
","","images/earth.jpg","","","","","","","","","","","","","","fixation","","","","","",""
"d3-animate-choice","180","553143","0.0-76.0-0.15","2406","5015","18","Male","false","true","true","true","""event"",""trial"",""time""
""fullscreenenter"",""5"",""19421""
","
","
","""event"",""trial"",""time""
""fullscreenenter"",""5"",""19421""
","
","321.2999997138977","","48","","","3000","1","","","images/earth.jpg","images/rocket1","images/rocket2","null","images/rocket1","","1","real","null","2","","",""
"d3-animate-choice","181","556275","0.0-76.0-1.15","2406","5015","18","Male","false","true","true","true","""event"",""trial"",""time""
""fullscreenenter"",""5"",""19421""
","
","
","""event"",""trial"",""time""
""fullscreenenter"",""5"",""19421""
","
","1122.6999998092651","","48","","","3000","1","","","images/purpleplanet.jpg","images/alien4","images/alien3","images/rocket1","images/alien4","images/t.png","2","real","false","2","rare","1","2022-12-16 03:15:25.450"
"two-step-fixation","182","557286","0.0-76.0-2.15","2406","5015","18","Male","false","true","true","true","""event"",""trial"",""time""
""fullscreenenter"",""5"",""19421""
","
","
","""event"",""trial"",""time""
""fullscreenenter"",""5"",""19421""
","
","","images/earth.jpg","","","","","","","","","","","","","","fixation","","","","","",""
"d3-animate-choice","183","559621","0.0-76.0-0.16","2406","5015","18","Male","false","true","true","true","""event"",""trial"",""time""
""fullscreenenter"",""5"",""19421""
","
","
","""event"",""trial"",""time""
""fullscreenenter"",""5"",""19421""
","
","324.1000003814697","","48","","","3000","1","","","images/earth.jpg","images/rocket1","images/rocket2","null","images/rocket1","","1","real","null","2","","",""
"d3-animate-choice","184","562071","0.0-76.0-1.16","2406","5015","18","Male","false","true","true","true","""event"",""trial"",""time""
""fullscreenenter"",""5"",""19421""
","
","
","""event"",""trial"",""time""
""fullscreenenter"",""5"",""19421""
","
","440.8999996185303","","48","","","3000","1","","","images/redplanet1.jpg","images/alien2","images/alien1","images/rocket1","images/alien2","images/t.png","2","real","true","2","common","1","2022-12-16 03:15:31.247"
"two-step-fixation","185","563081","0.0-76.0-2.16","2406","5015","18","Male","false","true","true","true","""event"",""trial"",""time""
""fullscreenenter"",""5"",""19421""
","
","
","""event"",""trial"",""time""
""fullscreenenter"",""5"",""19421""
","
","","images/earth.jpg","","","","","","","","","","","","","","fixation","","","","","",""
"d3-animate-choice","186","565505","0.0-76.0-0.17","2406","5015","18","Male","false","true","true","true","""event"",""trial"",""time""
""fullscreenenter"",""5"",""19421""
","
","
","""event"",""trial"",""time""
""fullscreenenter"",""5"",""19421""
","
","411.1000003814697","","48","","","3000","1","","","images/earth.jpg","images/rocket1","images/rocket2","null","images/rocket1","","1","real","null","2","","",""
"d3-animate-choice","187","567855","0.0-76.0-1.17","2406","5015","18","Male","false","true","true","true","""event"",""trial"",""time""
""fullscreenenter"",""5"",""19421""
","
","
","""event"",""trial"",""time""
""fullscreenenter"",""5"",""19421""
","
","339.7000002861023","","48","","","3000","1","","","images/purpleplanet.jpg","images/alien4","images/alien3","images/rocket1","images/alien4","images/nothing.png","2","real","false","2","rare","0","2022-12-16 03:15:37.030"
"two-step-fixation","188","568862","0.0-76.0-2.17","2406","5015","18","Male","false","true","true","true","""event"",""trial"",""time""
""fullscreenenter"",""5"",""19421""
","
","
","""event"",""trial"",""time""
""fullscreenenter"",""5"",""19421""
","
","","images/earth.jpg","","","","","","","","","","","","","","fixation","","","","","",""
"d3-animate-choice","189","571902","0.0-76.0-0.18","2406","5015","18","Male","false","true","true","true","""event"",""trial"",""time""
""fullscreenenter"",""5"",""19421""
","
","
","""event"",""trial"",""time""
""fullscreenenter"",""5"",""19421""
","
","1032.1999998092651","","48","","","3000","1","","","images/earth.jpg","images/rocket1","images/rocket2","null","images/rocket1","","1","real","null","2","","",""
"d3-animate-choice","190","574493","0.0-76.0-1.18","2406","5015","18","Male","false","true","true","true","""event"",""trial"",""time""
""fullscreenenter"",""5"",""19421""
","
","
","""event"",""trial"",""time""
""fullscreenenter"",""5"",""19421""
","
","578.3000001907349","","49","","","3000","1","","","images/purpleplanet.jpg","images/alien4","images/alien3","images/rocket1","images/alien3","images/t.png","2","real","false","1","rare","1","2022-12-16 03:15:43.668"
"two-step-fixation","191","575504","0.0-76.0-2.18","2406","5015","18","Male","false","true","true","true","""event"",""trial"",""time""
""fullscreenenter"",""5"",""19421""
","
","
","""event"",""trial"",""time""
""fullscreenenter"",""5"",""19421""
","
","","images/earth.jpg","","","","","","","","","","","","","","fixation","","","","","",""
"d3-animate-choice","192","578025","0.0-76.0-0.19","2406","5015","18","Male","false","true","true","true","""event"",""trial"",""time""
""fullscreenenter"",""5"",""19421""
","
","
","""event"",""trial"",""time""
""fullscreenenter"",""5"",""19421""
","
","511.80000019073486","","48","","","3000","1","","","images/earth.jpg","images/rocket1","images/rocket2","null","images/rocket1","","1","real","null","2","","",""
"d3-animate-choice","193","580581","0.0-76.0-1.19","2406","5015","18","Male","false","true","true","true","""event"",""trial"",""time""
""fullscreenenter"",""5"",""19421""
","
","
","""event"",""trial"",""time""
""fullscreenenter"",""5"",""19421""
","
","548.7999997138977","","48","","","3000","1","","","images/redplanet1.jpg","images/alien2","images/alien1","images/rocket1","images/alien2","images/nothing.png","2","real","true","2","common","0","2022-12-16 03:15:49.756"
"two-step-fixation","194","581590","0.0-76.0-2.19","2406","5015","18","Male","false","true","true","true","""event"",""trial"",""time""
""fullscreenenter"",""5"",""19421""
","
","
","""event"",""trial"",""time""
""fullscreenenter"",""5"",""19421""
","
","","images/earth.jpg","","","","","","","","","","","","","","fixation","","","","","",""
"d3-animate-choice","195","584310","0.0-76.0-0.20","2406","5015","18","Male","false","true","true","true","""event"",""trial"",""time""
""fullscreenenter"",""5"",""19421""
","
","
","""event"",""trial"",""time""
""fullscreenenter"",""5"",""19421""
","
","711.1999998092651","","48","","","3000","1","","","images/earth.jpg","images/rocket1","images/rocket2","null","images/rocket1","","1","real","null","2","","",""
"d3-animate-choice","196","586713","0.0-76.0-1.20","2406","5015","18","Male","false","true","true","true","""event"",""trial"",""time""
""fullscreenenter"",""5"",""19421""
","
","
","""event"",""trial"",""time""
""fullscreenenter"",""5"",""19421""
","
","393.3999996185303","","48","","","3000","1","","","images/redplanet1.jpg","images/alien2","images/alien1","images/rocket1","images/alien2","images/t.png","2","real","true","2","common","1","2022-12-16 03:15:55.889"
"two-step-fixation","197","587730","0.0-76.0-2.20","2406","5015","18","Male","false","true","true","true","""event"",""trial"",""time""
""fullscreenenter"",""5"",""19421""
","
","
","""event"",""trial"",""time""
""fullscreenenter"",""5"",""19421""
","
","","images/earth.jpg","","","","","","","","","","","","","","fixation","","","","","",""
"d3-animate-choice","198","590216","0.0-76.0-0.21","2406","5015","18","Male","false","true","true","true","""event"",""trial"",""time""
""fullscreenenter"",""5"",""19421""
","
","
","""event"",""trial"",""time""
""fullscreenenter"",""5"",""19421""
","
","478.69999980926514","","48","","","3000","1","","","images/earth.jpg","images/rocket1","images/rocket2","null","images/rocket1","","1","real","null","2","","",""
"d3-animate-choice","199","593726","0.0-76.0-1.21","2406","5015","18","Male","false","true","true","true","""event"",""trial"",""time""
""fullscreenenter"",""5"",""19421""
","
","
","""event"",""trial"",""time""
""fullscreenenter"",""5"",""19421""
","
","1502.9000000953674","","49","","","3000","1","","","images/purpleplanet.jpg","images/alien4","images/alien3","images/rocket1","images/alien3","images/nothing.png","2","real","false","1","rare","0","2022-12-16 03:16:02.902"
"two-step-fixation","200","594736","0.0-76.0-2.21","2406","5015","18","Male","false","true","true","true","""event"",""trial"",""time""
""fullscreenenter"",""5"",""19421""
","
","
","""event"",""trial"",""time""
""fullscreenenter"",""5"",""19421""
","
","","images/earth.jpg","","","","","","","","","","","","","","fixation","","","","","",""
"d3-animate-choice","201","597782","0.0-76.0-0.22","2406","5015","18","Male","false","true","true","true","""event"",""trial"",""time""
""fullscreenenter"",""5"",""19421""
","
","
","""event"",""trial"",""time""
""fullscreenenter"",""5"",""19421""
","
","1034.8000001907349","","48","","","3000","1","","","images/earth.jpg","images/rocket1","images/rocket2","null","images/rocket1","","1","real","null","2","","",""
"d3-animate-choice","202","600142","0.0-76.0-1.22","2406","5015","18","Male","false","true","true","true","""event"",""trial"",""time""
""fullscreenenter"",""5"",""19421""
","
","
","""event"",""trial"",""time""
""fullscreenenter"",""5"",""19421""
","
","350.5","","48","","","3000","1","","","images/redplanet1.jpg","images/alien2","images/alien1","images/rocket1","images/alien2","images/t.png","2","real","true","2","common","1","2022-12-16 03:16:09.317"
"two-step-fixation","203","601150","0.0-76.0-2.22","2406","5015","18","Male","false","true","true","true","""event"",""trial"",""time""
""fullscreenenter"",""5"",""19421""
","
","
","""event"",""trial"",""time""
""fullscreenenter"",""5"",""19421""
","
","","images/earth.jpg","","","","","","","","","","","","","","fixation","","","","","",""
"d3-animate-choice","204","603491","0.0-76.0-0.23","2406","5015","18","Male","false","true","true","true","""event"",""trial"",""time""
""fullscreenenter"",""5"",""19421""
","
","
","""event"",""trial"",""time""
""fullscreenenter"",""5"",""19421""
","
","335.5","","48","","","3000","1","","","images/earth.jpg","images/rocket1","images/rocket2","null","images/rocket1","","1","real","null","2","","",""
"d3-animate-choice","205","606249","0.0-76.0-1.23","2406","5015","18","Male","false","true","true","true","""event"",""trial"",""time""
""fullscreenenter"",""5"",""19421""
","
","
","""event"",""trial"",""time""
""fullscreenenter"",""5"",""19421""
","
","750.4000000953674","","48","","","3000","1","","","images/redplanet1.jpg","images/alien2","images/alien1","images/rocket1","images/alien2","images/t.png","2","real","true","2","common","1","2022-12-16 03:16:15.424"
"two-step-fixation","206","607258","0.0-76.0-2.23","2406","5015","18","Male","false","true","true","true","""event"",""trial"",""time""
""fullscreenenter"",""5"",""19421""
","
","
","""event"",""trial"",""time""
""fullscreenenter"",""5"",""19421""
","
","","images/earth.jpg","","","","","","","","","","","","","","fixation","","","","","",""
"d3-animate-choice","207","609696","0.0-76.0-0.24","2406","5015","18","Male","false","true","true","true","""event"",""trial"",""time""
""fullscreenenter"",""5"",""19421""
","
","
","""event"",""trial"",""time""
""fullscreenenter"",""5"",""19421""
","
","423.3999996185303","","48","","","3000","1","","","images/earth.jpg","images/rocket1","images/rocket2","null","images/rocket1","","1","real","null","2","","",""
"d3-animate-choice","208","612082","0.0-76.0-1.24","2406","5015","18","Male","false","true","true","true","""event"",""trial"",""time""
""fullscreenenter"",""5"",""19421""
","
","
","""event"",""trial"",""time""
""fullscreenenter"",""5"",""19421""
","
","381.3999996185303","","48","","","3000","1","","","images/redplanet1.jpg","images/alien2","images/alien1","images/rocket1","images/alien2","images/t.png","2","real","true","2","common","1","2022-12-16 03:16:21.258"
"two-step-fixation","209","613090","0.0-76.0-2.24","2406","5015","18","Male","false","true","true","true","""event"",""trial"",""time""
""fullscreenenter"",""5"",""19421""
","
","
","""event"",""trial"",""time""
""fullscreenenter"",""5"",""19421""
","
","","images/earth.jpg","","","","","","","","","","","","","","fixation","","","","","",""
"d3-animate-choice","210","615199","0.0-76.0-0.25","2406","5015","18","Male","false","true","true","true","""event"",""trial"",""time""
""fullscreenenter"",""5"",""19421""
","
","
","""event"",""trial"",""time""
""fullscreenenter"",""5"",""19421""
","
","99.19999980926514","","48","","","3000","1","","","images/earth.jpg","images/rocket1","images/rocket2","null","images/rocket1","","1","real","null","2","","",""
"d3-animate-choice","211","618142","0.0-76.0-1.25","2406","5015","18","Male","false","true","true","true","""event"",""trial"",""time""
""fullscreenenter"",""5"",""19421""
","
","
","""event"",""trial"",""time""
""fullscreenenter"",""5"",""19421""
","
","933.9000000953674","","48","","","3000","1","","","images/purpleplanet.jpg","images/alien4","images/alien3","images/rocket1","images/alien4","images/t.png","2","real","false","2","rare","1","2022-12-16 03:16:27.317"
"two-step-fixation","212","619152","0.0-76.0-2.25","2406","5015","18","Male","false","true","true","true","""event"",""trial"",""time""
""fullscreenenter"",""5"",""19421""
","
","
","""event"",""trial"",""time""
""fullscreenenter"",""5"",""19421""
","
","","images/earth.jpg","","","","","","","","","","","","","","fixation","","","","","",""
"d3-animate-choice","213","621598","0.0-76.0-0.26","2406","5015","18","Male","false","true","true","true","""event"",""trial"",""time""
""fullscreenenter"",""5"",""19421""
","
","
","""event"",""trial"",""time""
""fullscreenenter"",""5"",""19421""
","
","435.5","","48","","","3000","1","","","images/earth.jpg","images/rocket1","images/rocket2","null","images/rocket1","","1","real","null","2","","",""
"d3-animate-choice","214","623993","0.0-76.0-1.26","2406","5015","18","Male","false","true","true","true","""event"",""trial"",""time""
""fullscreenenter"",""5"",""19421""
","
","
","""event"",""trial"",""time""
""fullscreenenter"",""5"",""19421""
","
","389.2999997138977","","48","","","3000","1","","","images/redplanet1.jpg","images/alien2","images/alien1","images/rocket1","images/alien2","images/t.png","2","real","true","2","common","1","2022-12-16 03:16:33.169"
"two-step-fixation","215","624999","0.0-76.0-2.26","2406","5015","18","Male","false","true","true","true","""event"",""trial"",""time""
""fullscreenenter"",""5"",""19421""
","
","
","""event"",""trial"",""time""
""fullscreenenter"",""5"",""19421""
","
","","images/earth.jpg","","","","","","","","","","","","","","fixation","","","","","",""
"d3-animate-choice","216","627557","0.0-76.0-0.27","2406","5015","18","Male","false","true","true","true","""event"",""trial"",""time""
""fullscreenenter"",""5"",""19421""
","
","
","""event"",""trial"",""time""
""fullscreenenter"",""5"",""19421""
","
","547.7999997138977","","48","","","3000","1","1890.5","48","images/earth.jpg","images/rocket1","images/rocket2","null","images/rocket1","","1","real","null","2","","",""
"d3-animate-choice","217","629997","0.0-76.0-1.27","2406","5015","18","Male","false","true","true","true","""event"",""trial"",""time""
""fullscreenenter"",""5"",""19421""
","
","
","""event"",""trial"",""time""
""fullscreenenter"",""5"",""19421""
","
","428.90000009536743","","48","","","3000","1","","","images/purpleplanet.jpg","images/alien4","images/alien3","images/rocket1","images/alien4","images/t.png","2","real","false","2","rare","1","2022-12-16 03:16:39.172"
"two-step-fixation","218","631004","0.0-76.0-2.27","2406","5015","18","Male","false","true","true","true","""event"",""trial"",""time""
""fullscreenenter"",""5"",""19421""
","
","
","""event"",""trial"",""time""
""fullscreenenter"",""5"",""19421""
","
","","images/earth.jpg","","","","","","","","","","","","","","fixation","","","","","",""
"d3-animate-choice","219","633278","0.0-76.0-0.28","2406","5015","18","Male","false","true","true","true","""event"",""trial"",""time""
""fullscreenenter"",""5"",""19421""
","
","
","""event"",""trial"",""time""
""fullscreenenter"",""5"",""19421""
","
","263.80000019073486","","48","","","3000","1","","","images/earth.jpg","images/rocket1","images/rocket2","null","images/rocket1","","1","real","null","2","","",""
"d3-animate-choice","220","635753","0.0-76.0-1.28","2406","5015","18","Male","false","true","true","true","""event"",""trial"",""time""
""fullscreenenter"",""5"",""19421""
","
","
","""event"",""trial"",""time""
""fullscreenenter"",""5"",""19421""
","
","468.90000009536743","","48","","","3000","1","","","images/redplanet1.jpg","images/alien2","images/alien1","images/rocket1","images/alien2","images/nothing.png","2","real","true","2","common","0","2022-12-16 03:16:44.929"
"two-step-fixation","221","636761","0.0-76.0-2.28","2406","5015","18","Male","false","true","true","true","""event"",""trial"",""time""
""fullscreenenter"",""5"",""19421""
","
","
","""event"",""trial"",""time""
""fullscreenenter"",""5"",""19421""
","
","","images/earth.jpg","","","","","","","","","","","","","","fixation","","","","","",""
"d3-animate-choice","222","639420","0.0-76.0-0.29","2406","5015","18","Male","false","true","true","true","""event"",""trial"",""time""
""fullscreenenter"",""5"",""19421""
","
","
","""event"",""trial"",""time""
""fullscreenenter"",""5"",""19421""
","
","655.6999998092651","","48","","","3000","1","","","images/earth.jpg","images/rocket1","images/rocket2","null","images/rocket1","","1","real","null","2","","",""
"d3-animate-choice","223","642107","0.0-76.0-1.29","2406","5015","18","Male","false","true","true","true","""event"",""trial"",""time""
""fullscreenenter"",""5"",""19421""
","
","
","""event"",""trial"",""time""
""fullscreenenter"",""5"",""19421""
","
","681.0999999046326","","48","","","3000","1","","","images/redplanet1.jpg","images/alien2","images/alien1","images/rocket1","images/alien2","images/t.png","2","real","true","2","common","1","2022-12-16 03:16:51.283"
"two-step-fixation","224","643118","0.0-76.0-2.29","2406","5015","18","Male","false","true","true","true","""event"",""trial"",""time""
""fullscreenenter"",""5"",""19421""
","
","
","""event"",""trial"",""time""
""fullscreenenter"",""5"",""19421""
","
","","images/earth.jpg","","","","","","","","","","","","","","fixation","","","","","",""
"d3-animate-choice","225","645449","0.0-76.0-0.30","2406","5015","18","Male","false","true","true","true","""event"",""trial"",""time""
""fullscreenenter"",""5"",""19421""
","
","
","""event"",""trial"",""time""
""fullscreenenter"",""5"",""19421""
","
","320.90000009536743","","48","","","3000","1","","","images/earth.jpg","images/rocket1","images/rocket2","null","images/rocket1","","1","real","null","2","","",""
"d3-animate-choice","226","647910","0.0-76.0-1.30","2406","5015","18","Male","false","true","true","true","""event"",""trial"",""time""
""fullscreenenter"",""5"",""19421""
","
","
","""event"",""trial"",""time""
""fullscreenenter"",""5"",""19421""
","
","446.90000009536743","","48","","","3000","1","","","images/redplanet1.jpg","images/alien2","images/alien1","images/rocket1","images/alien2","images/t.png","2","real","true","2","common","1","2022-12-16 03:16:57.085"
"two-step-fixation","227","648919","0.0-76.0-2.30","2406","5015","18","Male","false","true","true","true","""event"",""trial"",""time""
""fullscreenenter"",""5"",""19421""
","
","
","""event"",""trial"",""time""
""fullscreenenter"",""5"",""19421""
","
","","images/earth.jpg","","","","","","","","","","","","","","fixation","","","","","",""
"d3-animate-choice","228","651423","0.0-76.0-0.31","2406","5015","18","Male","false","true","true","true","""event"",""trial"",""time""
""fullscreenenter"",""5"",""19421""
","
","
","""event"",""trial"",""time""
""fullscreenenter"",""5"",""19421""
","
","500","","48","","","3000","1","","","images/earth.jpg","images/rocket1","images/rocket2","null","images/rocket1","","1","real","null","2","","",""
"d3-animate-choice","229","653888","0.0-76.0-1.31","2406","5015","18","Male","false","true","true","true","""event"",""trial"",""time""
""fullscreenenter"",""5"",""19421""
","
","
","""event"",""trial"",""time""
""fullscreenenter"",""5"",""19421""
","
","459.09999990463257","","48","","","3000","1","","","images/redplanet1.jpg","images/alien2","images/alien1","images/rocket1","images/alien2","images/nothing.png","2","real","true","2","common","0","2022-12-16 03:17:03.064"
"two-step-fixation","230","654901","0.0-76.0-2.31","2406","5015","18","Male","false","true","true","true","""event"",""trial"",""time""
""fullscreenenter"",""5"",""19421""
","
","
","""event"",""trial"",""time""
""fullscreenenter"",""5"",""19421""
","
","","images/earth.jpg","","","","","","","","","","","","","","fixation","","","","","",""
"d3-animate-choice","231","657515","0.0-76.0-0.32","2406","5015","18","Male","false","true","true","true","""event"",""trial"",""time""
""fullscreenenter"",""5"",""19421""
","
","
","""event"",""trial"",""time""
""fullscreenenter"",""5"",""19421""
","
","608.5","","48","","","3000","1","","","images/earth.jpg","images/rocket1","images/rocket2","null","images/rocket1","","1","real","null","2","","",""
"d3-animate-choice","232","659983","0.0-76.0-1.32","2406","5015","18","Male","false","true","true","true","""event"",""trial"",""time""
""fullscreenenter"",""5"",""19421""
","
","
","""event"",""trial"",""time""
""fullscreenenter"",""5"",""19421""
","
","455","","48","","","3000","1","","","images/redplanet1.jpg","images/alien2","images/alien1","images/rocket1","images/alien2","images/t.png","2","real","true","2","common","1","2022-12-16 03:17:09.159"
"two-step-fixation","233","660989","0.0-76.0-2.32","2406","5015","18","Male","false","true","true","true","""event"",""trial"",""time""
""fullscreenenter"",""5"",""19421""
","
","
","""event"",""trial"",""time""
""fullscreenenter"",""5"",""19421""
","
","","images/earth.jpg","","","","","","","","","","","","","","fixation","","","","","",""
"d3-animate-choice","234","663687","0.0-76.0-0.33","2406","5015","18","Male","false","true","true","true","""event"",""trial"",""time""
""fullscreenenter"",""5"",""19421""
","
","
","""event"",""trial"",""time""
""fullscreenenter"",""5"",""19421""
","
","685.6999998092651","","48","","","3000","1","","","images/earth.jpg","images/rocket1","images/rocket2","null","images/rocket1","","1","real","null","2","","",""
"d3-animate-choice","235","666072","0.0-76.0-1.33","2406","5015","18","Male","false","true","true","true","""event"",""trial"",""time""
""fullscreenenter"",""5"",""19421""
","
","
","""event"",""trial"",""time""
""fullscreenenter"",""5"",""19421""
","
","379.59999990463257","","48","","","3000","1","","","images/purpleplanet.jpg","images/alien4","images/alien3","images/rocket1","images/alien4","images/t.png","2","real","false","2","rare","1","2022-12-16 03:17:15.248"
"two-step-fixation","236","667077","0.0-76.0-2.33","2406","5015","18","Male","false","true","true","true","""event"",""trial"",""time""
""fullscreenenter"",""5"",""19421""
","
","
","""event"",""trial"",""time""
""fullscreenenter"",""5"",""19421""
","
","","images/earth.jpg","","","","","","","","","","","","","","fixation","","","","","",""
"d3-animate-choice","237","669399","0.0-76.0-0.34","2406","5015","18","Male","false","true","true","true","""event"",""trial"",""time""
""fullscreenenter"",""5"",""19421""
","
","
","""event"",""trial"",""time""
""fullscreenenter"",""5"",""19421""
","
","308.2000002861023","","49","","","3000","1","","","images/earth.jpg","images/rocket1","images/rocket2","null","images/rocket2","","1","real","null","1","","",""
"d3-animate-choice","238","671770","0.0-76.0-1.34","2406","5015","18","Male","false","true","true","true","""event"",""trial"",""time""
""fullscreenenter"",""5"",""19421""
","
","
","""event"",""trial"",""time""
""fullscreenenter"",""5"",""19421""
","
","360.59999990463257","","48","","","3000","1","","","images/purpleplanet.jpg","images/alien4","images/alien3","images/rocket2","images/alien4","images/t.png","2","real","true","2","common","1","2022-12-16 03:17:20.945"
"two-step-fixation","239","672778","0.0-76.0-2.34","2406","5015","18","Male","false","true","true","true","""event"",""trial"",""time""
""fullscreenenter"",""5"",""19421""
","
","
","""event"",""trial"",""time""
""fullscreenenter"",""5"",""19421""
","
","","images/earth.jpg","","","","","","","","","","","","","","fixation","","","","","",""
"d3-animate-choice","240","675485","0.0-76.0-0.35","2406","5015","18","Male","false","true","true","true","""event"",""trial"",""time""
""fullscreenenter"",""5"",""19421""
","
","
","""event"",""trial"",""time""
""fullscreenenter"",""5"",""19421""
","
","701.7999997138977","","49","","","3000","1","","","images/earth.jpg","images/rocket1","images/rocket2","null","images/rocket2","","1","real","null","1","","",""
"d3-animate-choice","241","677869","0.0-76.0-1.35","2406","5015","18","Male","false","true","true","true","""event"",""trial"",""time""
""fullscreenenter"",""5"",""19421""
","
","
","""event"",""trial"",""time""
""fullscreenenter"",""5"",""19421""
","
","371.59999990463257","","48","","","3000","1","","","images/purpleplanet.jpg","images/alien4","images/alien3","images/rocket2","images/alien4","images/nothing.png","2","real","true","2","common","0","2022-12-16 03:17:27.044"
"two-step-fixation","242","678879","0.0-76.0-2.35","2406","5015","18","Male","false","true","true","true","""event"",""trial"",""time""
""fullscreenenter"",""5"",""19421""
","
","
","""event"",""trial"",""time""
""fullscreenenter"",""5"",""19421""
","
","","images/earth.jpg","","","","","","","","","","","","","","fixation","","","","","",""
"d3-animate-choice","243","681069","0.0-76.0-0.36","2406","5015","18","Male","false","true","true","true","""event"",""trial"",""time""
""fullscreenenter"",""5"",""19421""
","
","
","""event"",""trial"",""time""
""fullscreenenter"",""5"",""19421""
","
","175.90000009536743","","48","","","3000","1","","","images/earth.jpg","images/rocket1","images/rocket2","null","images/rocket1","","1","real","null","2","","",""
"d3-animate-choice","244","683461","0.0-76.0-1.36","2406","5015","18","Male","false","true","true","true","""event"",""trial"",""time""
""fullscreenenter"",""5"",""19421""
","
","
","""event"",""trial"",""time""
""fullscreenenter"",""5"",""19421""
","
","385.7000002861023","","48","","","3000","1","","","images/redplanet1.jpg","images/alien2","images/alien1","images/rocket1","images/alien2","images/t.png","2","real","true","2","common","1","2022-12-16 03:17:32.636"
"two-step-fixation","245","684469","0.0-76.0-2.36","2406","5015","18","Male","false","true","true","true","""event"",""trial"",""time""
""fullscreenenter"",""5"",""19421""
","
","
","""event"",""trial"",""time""
""fullscreenenter"",""5"",""19421""
","
","","images/earth.jpg","","","","","","","","","","","","","","fixation","","","","","",""
"d3-animate-choice","246","686886","0.0-76.0-0.37","2406","5015","18","Male","false","true","true","true","""event"",""trial"",""time""
""fullscreenenter"",""5"",""19421""
","
","
","""event"",""trial"",""time""
""fullscreenenter"",""5"",""19421""
","
","409.80000019073486","","48","","","3000","1","","","images/earth.jpg","images/rocket1","images/rocket2","null","images/rocket1","","1","real","null","2","","",""
