"trial_type","trial_index","time_elapsed","internal_node_id","participant_id","subject_id","age","gender","rocket_sides","red_planet_first_rocket","red_display_order","purple_display_order","interactions","blur_events","focus_events","fullscreenenter_events","fullscreenexit_events","rt","stimulus","key_press","button_pressed","success","duration","valid_pressed","rts","keys","planet_text","right_text","left_text","center_text","chosen_text","reward_text","trial_stage","practice_trial","transition_type","choice","transition","reward","timestamp"
"pavlovia","0","10","0.0-0.0","1850","5748","13","Female","true","false","true","false","
","
","
","
","
","","","","","","","","","","","","","","","","","","","","","",""
"html-keyboard-response","1","29061","0.0-1.0","1850","5748","13","Female","true","false","true","false","
","
","
","
","
","29046.900000000373","Welcome! Press the space bar to begin.","13","","","","","","","","","","","","","","","","","","",""
"audio-keyboard-response","2","29089","0.0-2.0","1850","5748","13","Female","true","false","true","false","""event"",""trial"",""time""
""blur"",""3"",""56510""
""focus"",""3"",""56807""
","""event"",""trial"",""time""
""blur"",""3"",""56510""
","""event"",""trial"",""time""
""focus"",""3"",""56807""
","
","
","0","audio/beep_loop.wav","16","","","","","","","","","","","","","","","","","","",""
"audio-button-response","3","84022","0.0-3.0","1850","5748","13","Female","true","false","true","false","""event"",""trial"",""time""
""blur"",""3"",""56510""
""focus"",""3"",""56807""
","""event"",""trial"",""time""
""blur"",""3"",""56510""
","""event"",""trial"",""time""
""focus"",""3"",""56807""
","
","
","NaN","audio/fish.mp3","","1","","","","","","","","","","","","","","","","","",""
"audio-button-response","4","89377","0.0-4.0","1850","5748","13","Female","true","false","true","false","""event"",""trial"",""time""
""blur"",""3"",""56510""
""focus"",""3"",""56807""
""fullscreenenter"",""5"",""92168""
","""event"",""trial"",""time""
""blur"",""3"",""56510""
","""event"",""trial"",""time""
""focus"",""3"",""56807""
","""event"",""trial"",""time""
""fullscreenenter"",""5"",""92168""
","
","NaN","audio/tiger.mp3","","4","","","","","","","","","","","","","","","","","",""
"fullscreen","5","93101","0.0-5.0","1850","5748","13","Female","true","false","true","false","""event"",""trial"",""time""
""blur"",""3"",""56510""
""focus"",""3"",""56807""
""fullscreenenter"",""5"",""92168""
","""event"",""trial"",""time""
""blur"",""3"",""56510""
","""event"",""trial"",""time""
""focus"",""3"",""56807""
","""event"",""trial"",""time""
""fullscreenenter"",""5"",""92168""
","
","","","","","true","","","","","","","","","","","","","","","","",""
"d3-instructions","6","164122","0.0-6.0","1850","5748","13","Female","true","false","true","false","""event"",""trial"",""time""
""blur"",""3"",""56510""
""focus"",""3"",""56807""
""fullscreenenter"",""5"",""92168""
","""event"",""trial"",""time""
""blur"",""3"",""56510""
","""event"",""trial"",""time""
""focus"",""3"",""56807""
","""event"",""trial"",""time""
""fullscreenenter"",""5"",""92168""
","
","","","","","","","","","","","","","","","","","","","","","",""
"d3-instructions","7","175370","0.0-7.0","1850","5748","13","Female","true","false","true","false","""event"",""trial"",""time""
""blur"",""3"",""56510""
""focus"",""3"",""56807""
""fullscreenenter"",""5"",""92168""
","""event"",""trial"",""time""
""blur"",""3"",""56510""
","""event"",""trial"",""time""
""focus"",""3"",""56807""
","""event"",""trial"",""time""
""fullscreenenter"",""5"",""92168""
","
","","","","","","","","","","","","","","","","","","","","","",""
"d3-instructions","8","192025","0.0-8.0","1850","5748","13","Female","true","false","true","false","""event"",""trial"",""time""
""blur"",""3"",""56510""
""focus"",""3"",""56807""
""fullscreenenter"",""5"",""92168""
","""event"",""trial"",""time""
""blur"",""3"",""56510""
","""event"",""trial"",""time""
""focus"",""3"",""56807""
","""event"",""trial"",""time""
""fullscreenenter"",""5"",""92168""
","
","","","","","","","","","","","","","","","","","","","","","",""
"d3-instructions","9","203378","0.0-9.0","1850","5748","13","Female","true","false","true","false","""event"",""trial"",""time""
""blur"",""3"",""56510""
""focus"",""3"",""56807""
""fullscreenenter"",""5"",""92168""
","""event"",""trial"",""time""
""blur"",""3"",""56510""
","""event"",""trial"",""time""
""focus"",""3"",""56807""
","""event"",""trial"",""time""
""fullscreenenter"",""5"",""92168""
","
","","","","","","","","","","","","","","","","","","","","","",""
"d3-instructions","10","218797","0.0-10.0","1850","5748","13","Female","true","false","true","false","""event"",""trial"",""time""
""blur"",""3"",""56510""
""focus"",""3"",""56807""
""fullscreenenter"",""5"",""92168""
","""event"",""trial"",""time""
""blur"",""3"",""56510""
","""event"",""trial"",""time""
""focus"",""3"",""56807""
","""event"",""trial"",""time""
""fullscreenenter"",""5"",""92168""
","
","","","","","","","","","","","","","","","","","","","","","",""
"d3-animate-choice","11","223635","0.0-11.0","1850","5748","13","Female","true","false","true","false","""event"",""trial"",""time""
""blur"",""3"",""56510""
""focus"",""3"",""56807""
""fullscreenenter"",""5"",""92168""
","""event"",""trial"",""time""
""blur"",""3"",""56510""
","""event"",""trial"",""time""
""focus"",""3"",""56807""
","""event"",""trial"",""time""
""fullscreenenter"",""5"",""92168""
","
","2815.699999999255","","49","","","3000","1","","","images/tutgreenplanet.jpg","images/tutalien1","images/tutalien2","null","images/tutalien2","","NA","practice","null","","","",""
"d3-animate-choice","12","227438","0.0-12.0","1850","5748","13","Female","true","false","true","false","""event"",""trial"",""time""
""blur"",""3"",""56510""
""focus"",""3"",""56807""
""fullscreenenter"",""5"",""92168""
","""event"",""trial"",""time""
""blur"",""3"",""56510""
","""event"",""trial"",""time""
""focus"",""3"",""56807""
","""event"",""trial"",""time""
""fullscreenenter"",""5"",""92168""
","
","1792.699999999255","","48","","","3000","1","","","images/tutgreenplanet.jpg","images/tutalien1","images/tutalien2","null","images/tutalien1","","NA","practice","null","","","",""
"d3-animate-choice","13","230566","0.0-13.0","1850","5748","13","Female","true","false","true","false","""event"",""trial"",""time""
""blur"",""3"",""56510""
""focus"",""3"",""56807""
""fullscreenenter"",""5"",""92168""
","""event"",""trial"",""time""
""blur"",""3"",""56510""
","""event"",""trial"",""time""
""focus"",""3"",""56807""
","""event"",""trial"",""time""
""fullscreenenter"",""5"",""92168""
","
","1112.2999999988824","","48","","","3000","1","","","images/tutgreenplanet.jpg","images/tutalien1","images/tutalien2","null","images/tutalien1","","NA","practice","null","","","",""
"d3-animate-choice","14","233574","0.0-14.0","1850","5748","13","Female","true","false","true","false","""event"",""trial"",""time""
""blur"",""3"",""56510""
""focus"",""3"",""56807""
""fullscreenenter"",""5"",""92168""
","""event"",""trial"",""time""
""blur"",""3"",""56510""
","""event"",""trial"",""time""
""focus"",""3"",""56807""
","""event"",""trial"",""time""
""fullscreenenter"",""5"",""92168""
","
","992.5","","49","","","3000","1","","","images/tutgreenplanet.jpg","images/tutalien1","images/tutalien2","null","images/tutalien2","","NA","practice","null","","","",""
"d3-instructions","15","239501","0.0-15.0","1850","5748","13","Female","true","false","true","false","""event"",""trial"",""time""
""blur"",""3"",""56510""
""focus"",""3"",""56807""
""fullscreenenter"",""5"",""92168""
","""event"",""trial"",""time""
""blur"",""3"",""56510""
","""event"",""trial"",""time""
""focus"",""3"",""56807""
","""event"",""trial"",""time""
""fullscreenenter"",""5"",""92168""
","
","","","","","","","","","","","","","","","","","","","","","",""
"d3-instructions","16","245733","0.0-16.0","1850","5748","13","Female","true","false","true","false","""event"",""trial"",""time""
""blur"",""3"",""56510""
""focus"",""3"",""56807""
""fullscreenenter"",""5"",""92168""
","""event"",""trial"",""time""
""blur"",""3"",""56510""
","""event"",""trial"",""time""
""focus"",""3"",""56807""
","""event"",""trial"",""time""
""fullscreenenter"",""5"",""92168""
","
","","","","","","","","","","","","","","","","","","","","","",""
"d3-instructions","17","253289","0.0-17.0","1850","5748","13","Female","true","false","true","false","""event"",""trial"",""time""
""blur"",""3"",""56510""
""focus"",""3"",""56807""
""fullscreenenter"",""5"",""92168""
","""event"",""trial"",""time""
""blur"",""3"",""56510""
","""event"",""trial"",""time""
""focus"",""3"",""56807""
","""event"",""trial"",""time""
""fullscreenenter"",""5"",""92168""
","
","","","","","","","","","","","","","","","","","","","","","",""
"d3-instructions","18","271576","0.0-18.0","1850","5748","13","Female","true","false","true","false","""event"",""trial"",""time""
""blur"",""3"",""56510""
""focus"",""3"",""56807""
""fullscreenenter"",""5"",""92168""
","""event"",""trial"",""time""
""blur"",""3"",""56510""
","""event"",""trial"",""time""
""focus"",""3"",""56807""
","""event"",""trial"",""time""
""fullscreenenter"",""5"",""92168""
","
","","","","","","","","","","","","","","","","","","","","","",""
"d3-instructions","19","285272","0.0-19.0","1850","5748","13","Female","true","false","true","false","""event"",""trial"",""time""
""blur"",""3"",""56510""
""focus"",""3"",""56807""
""fullscreenenter"",""5"",""92168""
","""event"",""trial"",""time""
""blur"",""3"",""56510""
","""event"",""trial"",""time""
""focus"",""3"",""56807""
","""event"",""trial"",""time""
""fullscreenenter"",""5"",""92168""
","
","","","","","","","","","","","","","","","","","","","","","",""
"d3-animate-choice","20","288646","0.0-20.0","1850","5748","13","Female","true","false","true","false","""event"",""trial"",""time""
""blur"",""3"",""56510""
""focus"",""3"",""56807""
""fullscreenenter"",""5"",""92168""
","""event"",""trial"",""time""
""blur"",""3"",""56510""
","""event"",""trial"",""time""
""focus"",""3"",""56807""
","""event"",""trial"",""time""
""fullscreenenter"",""5"",""92168""
","
","1358.7000000011176","","49","","","3000","1","","","images/tutyellowplanet.jpg","null","images/tutalien3","null","images/tutalien3","images/nothing.png","NA","practice","null","","","",""
"d3-animate-choice","21","291302","0.0-21.0","1850","5748","13","Female","true","false","true","false","""event"",""trial"",""time""
""blur"",""3"",""56510""
""focus"",""3"",""56807""
""fullscreenenter"",""5"",""92168""
","""event"",""trial"",""time""
""blur"",""3"",""56510""
","""event"",""trial"",""time""
""focus"",""3"",""56807""
","""event"",""trial"",""time""
""fullscreenenter"",""5"",""92168""
","
","643.3000000007451","","49","","","3000","1","","","images/tutyellowplanet.jpg","null","images/tutalien3","null","images/tutalien3","images/nothing.png","NA","practice","null","","","",""
"d3-animate-choice","22","293927","0.0-22.0","1850","5748","13","Female","true","false","true","false","""event"",""trial"",""time""
""blur"",""3"",""56510""
""focus"",""3"",""56807""
""fullscreenenter"",""5"",""92168""
","""event"",""trial"",""time""
""blur"",""3"",""56510""
","""event"",""trial"",""time""
""focus"",""3"",""56807""
","""event"",""trial"",""time""
""fullscreenenter"",""5"",""92168""
","
","608","","49","","","3000","1","","","images/tutyellowplanet.jpg","null","images/tutalien3","null","images/tutalien3","images/t.png","NA","practice","null","","","",""
"d3-animate-choice","23","296654","0.0-23.0","1850","5748","13","Female","true","false","true","false","""event"",""trial"",""time""
""blur"",""3"",""56510""
""focus"",""3"",""56807""
""fullscreenenter"",""5"",""92168""
","""event"",""trial"",""time""
""blur"",""3"",""56510""
","""event"",""trial"",""time""
""focus"",""3"",""56807""
","""event"",""trial"",""time""
""fullscreenenter"",""5"",""92168""
","
","713","","49","","","3000","1","","","images/tutyellowplanet.jpg","null","images/tutalien3","null","images/tutalien3","images/t.png","NA","practice","null","","","",""
"d3-animate-choice","24","299798","0.0-24.0","1850","5748","13","Female","true","false","true","false","""event"",""trial"",""time""
""blur"",""3"",""56510""
""focus"",""3"",""56807""
""fullscreenenter"",""5"",""92168""
","""event"",""trial"",""time""
""blur"",""3"",""56510""
","""event"",""trial"",""time""
""focus"",""3"",""56807""
","""event"",""trial"",""time""
""fullscreenenter"",""5"",""92168""
","
","1128.5","","49","","","3000","1","","","images/tutyellowplanet.jpg","null","images/tutalien3","null","images/tutalien3","images/t.png","NA","practice","null","","","",""
"d3-animate-choice","25","303494","0.0-25.0","1850","5748","13","Female","true","false","true","false","""event"",""trial"",""time""
""blur"",""3"",""56510""
""focus"",""3"",""56807""
""fullscreenenter"",""5"",""92168""
","""event"",""trial"",""time""
""blur"",""3"",""56510""
","""event"",""trial"",""time""
""focus"",""3"",""56807""
","""event"",""trial"",""time""
""fullscreenenter"",""5"",""92168""
","
","1679.2999999988824","","49","","","3000","1","","","images/tutyellowplanet.jpg","null","images/tutalien3","null","images/tutalien3","images/nothing.png","NA","practice","null","","","",""
"d3-animate-choice","26","306206","0.0-26.0","1850","5748","13","Female","true","false","true","false","""event"",""trial"",""time""
""blur"",""3"",""56510""
""focus"",""3"",""56807""
""fullscreenenter"",""5"",""92168""
","""event"",""trial"",""time""
""blur"",""3"",""56510""
","""event"",""trial"",""time""
""focus"",""3"",""56807""
","""event"",""trial"",""time""
""fullscreenenter"",""5"",""92168""
","
","700.7999999988824","","49","","","3000","1","2365.199999999255","49","images/tutyellowplanet.jpg","null","images/tutalien3","null","images/tutalien3","images/t.png","NA","practice","null","","","",""
"d3-animate-choice","27","308246","0.0-27.0","1850","5748","13","Female","true","false","true","false","""event"",""trial"",""time""
""blur"",""3"",""56510""
""focus"",""3"",""56807""
""fullscreenenter"",""5"",""92168""
","""event"",""trial"",""time""
""blur"",""3"",""56510""
","""event"",""trial"",""time""
""focus"",""3"",""56807""
","""event"",""trial"",""time""
""fullscreenenter"",""5"",""92168""
","
","26","","49","","","3000","1","1605.9000000003725","49","images/tutyellowplanet.jpg","null","images/tutalien3","null","images/tutalien3","images/t.png","NA","practice","null","","","",""
"d3-animate-choice","28","310758","0.0-28.0","1850","5748","13","Female","true","false","true","false","""event"",""trial"",""time""
""blur"",""3"",""56510""
""focus"",""3"",""56807""
""fullscreenenter"",""5"",""92168""
","""event"",""trial"",""time""
""blur"",""3"",""56510""
","""event"",""trial"",""time""
""focus"",""3"",""56807""
","""event"",""trial"",""time""
""fullscreenenter"",""5"",""92168""
","
","502.40000000037253","","49","","","3000","1","","","images/tutyellowplanet.jpg","null","images/tutalien3","null","images/tutalien3","images/t.png","NA","practice","null","","","",""
"d3-animate-choice","29","313318","0.0-29.0","1850","5748","13","Female","true","false","true","false","""event"",""trial"",""time""
""blur"",""3"",""56510""
""focus"",""3"",""56807""
""fullscreenenter"",""5"",""92168""
","""event"",""trial"",""time""
""blur"",""3"",""56510""
","""event"",""trial"",""time""
""focus"",""3"",""56807""
","""event"",""trial"",""time""
""fullscreenenter"",""5"",""92168""
","
","545.7000000011176","","49","","","3000","1","","","images/tutyellowplanet.jpg","null","images/tutalien3","null","images/tutalien3","images/nothing.png","NA","practice","null","","","",""
"d3-instructions","30","369212","0.0-30.0","1850","5748","13","Female","true","false","true","false","""event"",""trial"",""time""
""blur"",""3"",""56510""
""focus"",""3"",""56807""
""fullscreenenter"",""5"",""92168""
","""event"",""trial"",""time""
""blur"",""3"",""56510""
","""event"",""trial"",""time""
""focus"",""3"",""56807""
","""event"",""trial"",""time""
""fullscreenenter"",""5"",""92168""
","
","","","","","","","","","","","","","","","","","","","","","",""
"d3-instructions","31","389203","0.0-31.0","1850","5748","13","Female","true","false","true","false","""event"",""trial"",""time""
""blur"",""3"",""56510""
""focus"",""3"",""56807""
""fullscreenenter"",""5"",""92168""
","""event"",""trial"",""time""
""blur"",""3"",""56510""
","""event"",""trial"",""time""
""focus"",""3"",""56807""
","""event"",""trial"",""time""
""fullscreenenter"",""5"",""92168""
","
","","","","","","","","","","","","","","","","","","","","","",""
"d3-instructions","32","407269","0.0-32.0","1850","5748","13","Female","true","false","true","false","""event"",""trial"",""time""
""blur"",""3"",""56510""
""focus"",""3"",""56807""
""fullscreenenter"",""5"",""92168""
","""event"",""trial"",""time""
""blur"",""3"",""56510""
","""event"",""trial"",""time""
""focus"",""3"",""56807""
","""event"",""trial"",""time""
""fullscreenenter"",""5"",""92168""
","
","","","","","","","","","","","","","","","","","","","","","",""
"d3-instructions","33","532370","0.0-33.0","1850","5748","13","Female","true","false","true","false","""event"",""trial"",""time""
""blur"",""3"",""56510""
""focus"",""3"",""56807""
""fullscreenenter"",""5"",""92168""
","""event"",""trial"",""time""
""blur"",""3"",""56510""
","""event"",""trial"",""time""
""focus"",""3"",""56807""
","""event"",""trial"",""time""
""fullscreenenter"",""5"",""92168""
","
","","","","","","","","","","","","","","","","","","","","","",""
"d3-animate-choice","34","537399","0.0-34.0","1850","5748","13","Female","true","false","true","false","""event"",""trial"",""time""
""blur"",""3"",""56510""
""focus"",""3"",""56807""
""fullscreenenter"",""5"",""92168""
","""event"",""trial"",""time""
""blur"",""3"",""56510""
","""event"",""trial"",""time""
""focus"",""3"",""56807""
","""event"",""trial"",""time""
""fullscreenenter"",""5"",""92168""
","
","3017.5999999996275","","49","","","3000","1","","","images/tutgreenplanet.jpg","images/tutalien1","images/tutalien2","null","images/tutalien2","images/t.png","NA","practice","null","","","",""
"d3-animate-choice","35","539942","0.0-35.0","1850","5748","13","Female","true","false","true","false","""event"",""trial"",""time""
""blur"",""3"",""56510""
""focus"",""3"",""56807""
""fullscreenenter"",""5"",""92168""
","""event"",""trial"",""time""
""blur"",""3"",""56510""
","""event"",""trial"",""time""
""focus"",""3"",""56807""
","""event"",""trial"",""time""
""fullscreenenter"",""5"",""92168""
","
","531.1999999992549","","48","","","3000","1","","","images/tutgreenplanet.jpg","images/tutalien1","images/tutalien2","null","images/tutalien1","images/nothing.png","NA","practice","null","","","",""
"d3-animate-choice","36","542511","0.0-36.0","1850","5748","13","Female","true","false","true","false","""event"",""trial"",""time""
""blur"",""3"",""56510""
""focus"",""3"",""56807""
""fullscreenenter"",""5"",""92168""
","""event"",""trial"",""time""
""blur"",""3"",""56510""
","""event"",""trial"",""time""
""focus"",""3"",""56807""
","""event"",""trial"",""time""
""fullscreenenter"",""5"",""92168""
","
","555","","49","","","3000","1","","","images/tutgreenplanet.jpg","images/tutalien1","images/tutalien2","null","images/tutalien2","images/t.png","NA","practice","null","","","",""
"d3-animate-choice","37","545071","0.0-37.0","1850","5748","13","Female","true","false","true","false","""event"",""trial"",""time""
""blur"",""3"",""56510""
""focus"",""3"",""56807""
""fullscreenenter"",""5"",""92168""
","""event"",""trial"",""time""
""blur"",""3"",""56510""
","""event"",""trial"",""time""
""focus"",""3"",""56807""
","""event"",""trial"",""time""
""fullscreenenter"",""5"",""92168""
","
","545.8000000007451","","49","","","3000","1","","","images/tutgreenplanet.jpg","images/tutalien1","images/tutalien2","null","images/tutalien2","images/t.png","NA","practice","null","","","",""
"d3-animate-choice","38","547615","0.0-38.0","1850","5748","13","Female","true","false","true","false","""event"",""trial"",""time""
""blur"",""3"",""56510""
""focus"",""3"",""56807""
""fullscreenenter"",""5"",""92168""
","""event"",""trial"",""time""
""blur"",""3"",""56510""
","""event"",""trial"",""time""
""focus"",""3"",""56807""
","""event"",""trial"",""time""
""fullscreenenter"",""5"",""92168""
","
","532.2999999988824","","49","","","3000","1","","","images/tutgreenplanet.jpg","images/tutalien1","images/tutalien2","null","images/tutalien2","images/t.png","NA","practice","null","","","",""
"d3-animate-choice","39","550350","0.0-39.0","1850","5748","13","Female","true","false","true","false","""event"",""trial"",""time""
""blur"",""3"",""56510""
""focus"",""3"",""56807""
""fullscreenenter"",""5"",""92168""
","""event"",""trial"",""time""
""blur"",""3"",""56510""
","""event"",""trial"",""time""
""focus"",""3"",""56807""
","""event"",""trial"",""time""
""fullscreenenter"",""5"",""92168""
","
","721.7000000011176","","49","","","3000","1","","","images/tutgreenplanet.jpg","images/tutalien1","images/tutalien2","null","images/tutalien2","images/t.png","NA","practice","null","","","",""
"d3-animate-choice","40","554254","0.0-40.0","1850","5748","13","Female","true","false","true","false","""event"",""trial"",""time""
""blur"",""3"",""56510""
""focus"",""3"",""56807""
""fullscreenenter"",""5"",""92168""
","""event"",""trial"",""time""
""blur"",""3"",""56510""
","""event"",""trial"",""time""
""focus"",""3"",""56807""
","""event"",""trial"",""time""
""fullscreenenter"",""5"",""92168""
","
","1891.3999999985099","","49","","","3000","1","","","images/tutgreenplanet.jpg","images/tutalien1","images/tutalien2","null","images/tutalien2","images/t.png","NA","practice","null","","","",""
"d3-animate-choice","41","559062","0.0-41.0","1850","5748","13","Female","true","false","true","false","""event"",""trial"",""time""
""blur"",""3"",""56510""
""focus"",""3"",""56807""
""fullscreenenter"",""5"",""92168""
","""event"",""trial"",""time""
""blur"",""3"",""56510""
","""event"",""trial"",""time""
""focus"",""3"",""56807""
","""event"",""trial"",""time""
""fullscreenenter"",""5"",""92168""
","
","2796.7000000011176","","49","","","3000","1","","","images/tutgreenplanet.jpg","images/tutalien1","images/tutalien2","null","images/tutalien2","images/nothing.png","NA","practice","null","","","",""
"d3-animate-choice","42","562214","0.0-42.0","1850","5748","13","Female","true","false","true","false","""event"",""trial"",""time""
""blur"",""3"",""56510""
""focus"",""3"",""56807""
""fullscreenenter"",""5"",""92168""
","""event"",""trial"",""time""
""blur"",""3"",""56510""
","""event"",""trial"",""time""
""focus"",""3"",""56807""
","""event"",""trial"",""time""
""fullscreenenter"",""5"",""92168""
","
","1137","","49","","","3000","1","","","images/tutgreenplanet.jpg","images/tutalien1","images/tutalien2","null","images/tutalien2","images/t.png","NA","practice","null","","","",""
"d3-animate-choice","43","566462","0.0-43.0","1850","5748","13","Female","true","false","true","false","""event"",""trial"",""time""
""blur"",""3"",""56510""
""focus"",""3"",""56807""
""fullscreenenter"",""5"",""92168""
","""event"",""trial"",""time""
""blur"",""3"",""56510""
","""event"",""trial"",""time""
""focus"",""3"",""56807""
","""event"",""trial"",""time""
""fullscreenenter"",""5"",""92168""
","
","2233.4000000003725","","49","","","3000","1","3955.0999999996275","49","images/tutgreenplanet.jpg","images/tutalien1","images/tutalien2","null","images/tutalien2","images/t.png","NA","practice","null","","","",""
"d3-instructions","44","625161","0.0-44.0","1850","5748","13","Female","true","false","true","false","""event"",""trial"",""time""
""blur"",""3"",""56510""
""focus"",""3"",""56807""
""fullscreenenter"",""5"",""92168""
","""event"",""trial"",""time""
""blur"",""3"",""56510""
","""event"",""trial"",""time""
""focus"",""3"",""56807""
","""event"",""trial"",""time""
""fullscreenenter"",""5"",""92168""
","
","","","","","","","","","","","","","","","","","","","","","",""
"d3-instructions","45","634964","0.0-45.0","1850","5748","13","Female","true","false","true","false","""event"",""trial"",""time""
""blur"",""3"",""56510""
""focus"",""3"",""56807""
""fullscreenenter"",""5"",""92168""
","""event"",""trial"",""time""
""blur"",""3"",""56510""
","""event"",""trial"",""time""
""focus"",""3"",""56807""
","""event"",""trial"",""time""
""fullscreenenter"",""5"",""92168""
","
","","","","","","","","","","","","","","","","","","","","","",""
"d3-instructions","46","638587","0.0-46.0","1850","5748","13","Female","true","false","true","false","""event"",""trial"",""time""
""blur"",""3"",""56510""
""focus"",""3"",""56807""
""fullscreenenter"",""5"",""92168""
","""event"",""trial"",""time""
""blur"",""3"",""56510""
","""event"",""trial"",""time""
""focus"",""3"",""56807""
","""event"",""trial"",""time""
""fullscreenenter"",""5"",""92168""
","
","","","","","","","","","","","","","","","","","","","","","",""
"d3-instructions","47","655146","0.0-47.0","1850","5748","13","Female","true","false","true","false","""event"",""trial"",""time""
""blur"",""3"",""56510""
""focus"",""3"",""56807""
""fullscreenenter"",""5"",""92168""
","""event"",""trial"",""time""
""blur"",""3"",""56510""
","""event"",""trial"",""time""
""focus"",""3"",""56807""
","""event"",""trial"",""time""
""fullscreenenter"",""5"",""92168""
","
","","","","","","","","","","","","","","","","","","","","","",""
"d3-instructions","48","661713","0.0-48.0","1850","5748","13","Female","true","false","true","false","""event"",""trial"",""time""
""blur"",""3"",""56510""
""focus"",""3"",""56807""
""fullscreenenter"",""5"",""92168""
","""event"",""trial"",""time""
""blur"",""3"",""56510""
","""event"",""trial"",""time""
""focus"",""3"",""56807""
","""event"",""trial"",""time""
""fullscreenenter"",""5"",""92168""
","
","","","","","","","","","","","","","","","","","","","","","",""
"d3-instructions","49","697873","0.0-49.0","1850","5748","13","Female","true","false","true","false","""event"",""trial"",""time""
""blur"",""3"",""56510""
""focus"",""3"",""56807""
""fullscreenenter"",""5"",""92168""
","""event"",""trial"",""time""
""blur"",""3"",""56510""
","""event"",""trial"",""time""
""focus"",""3"",""56807""
","""event"",""trial"",""time""
""fullscreenenter"",""5"",""92168""
","
","","","","","","","","","","","","","","","","","","","","","",""
"d3-instructions","50","706916","0.0-50.0","1850","5748","13","Female","true","false","true","false","""event"",""trial"",""time""
""blur"",""3"",""56510""
""focus"",""3"",""56807""
""fullscreenenter"",""5"",""92168""
","""event"",""trial"",""time""
""blur"",""3"",""56510""
","""event"",""trial"",""time""
""focus"",""3"",""56807""
","""event"",""trial"",""time""
""fullscreenenter"",""5"",""92168""
","
","","","","","","","","","","","","","","","","","","","","","",""
"d3-instructions","51","711003","0.0-51.0","1850","5748","13","Female","true","false","true","false","""event"",""trial"",""time""
""blur"",""3"",""56510""
""focus"",""3"",""56807""
""fullscreenenter"",""5"",""92168""
","""event"",""trial"",""time""
""blur"",""3"",""56510""
","""event"",""trial"",""time""
""focus"",""3"",""56807""
","""event"",""trial"",""time""
""fullscreenenter"",""5"",""92168""
","
","","","","","","","","","","","","","","","","","","","","","",""
"d3-instructions","52","713323","0.0-52.0","1850","5748","13","Female","true","false","true","false","""event"",""trial"",""time""
""blur"",""3"",""56510""
""focus"",""3"",""56807""
""fullscreenenter"",""5"",""92168""
","""event"",""trial"",""time""
""blur"",""3"",""56510""
","""event"",""trial"",""time""
""focus"",""3"",""56807""
","""event"",""trial"",""time""
""fullscreenenter"",""5"",""92168""
","
","","","","","","","","","","","","","","","","","","","","","",""
"d3-instructions","53","724505","0.0-53.0","1850","5748","13","Female","true","false","true","false","""event"",""trial"",""time""
""blur"",""3"",""56510""
""focus"",""3"",""56807""
""fullscreenenter"",""5"",""92168""
","""event"",""trial"",""time""
""blur"",""3"",""56510""
","""event"",""trial"",""time""
""focus"",""3"",""56807""
","""event"",""trial"",""time""
""fullscreenenter"",""5"",""92168""
","
","","","","","","","","","","","","","","","","","","","","","",""
"d3-instructions","54","740472","0.0-54.0","1850","5748","13","Female","true","false","true","false","""event"",""trial"",""time""
""blur"",""3"",""56510""
""focus"",""3"",""56807""
""fullscreenenter"",""5"",""92168""
","""event"",""trial"",""time""
""blur"",""3"",""56510""
","""event"",""trial"",""time""
""focus"",""3"",""56807""
","""event"",""trial"",""time""
""fullscreenenter"",""5"",""92168""
","
","","","","","","","","","","","","","","","","","","","","","",""
"d3-instructions","55","749778","0.0-55.0","1850","5748","13","Female","true","false","true","false","""event"",""trial"",""time""
""blur"",""3"",""56510""
""focus"",""3"",""56807""
""fullscreenenter"",""5"",""92168""
","""event"",""trial"",""time""
""blur"",""3"",""56510""
","""event"",""trial"",""time""
""focus"",""3"",""56807""
","""event"",""trial"",""time""
""fullscreenenter"",""5"",""92168""
","
","","","","","","","","","","","","","","","","","","","","","",""
"d3-instructions","56","752939","0.0-56.0","1850","5748","13","Female","true","false","true","false","""event"",""trial"",""time""
""blur"",""3"",""56510""
""focus"",""3"",""56807""
""fullscreenenter"",""5"",""92168""
","""event"",""trial"",""time""
""blur"",""3"",""56510""
","""event"",""trial"",""time""
""focus"",""3"",""56807""
","""event"",""trial"",""time""
""fullscreenenter"",""5"",""92168""
","
","","","","","","","","","","","","","","","","","","","","","",""
"d3-instructions","57","796060","0.0-57.0","1850","5748","13","Female","true","false","true","false","""event"",""trial"",""time""
""blur"",""3"",""56510""
""focus"",""3"",""56807""
""fullscreenenter"",""5"",""92168""
","""event"",""trial"",""time""
""blur"",""3"",""56510""
","""event"",""trial"",""time""
""focus"",""3"",""56807""
","""event"",""trial"",""time""
""fullscreenenter"",""5"",""92168""
","
","","","","","","","","","","","","","","","","","","","","","",""
"d3-instructions","58","807731","0.0-58.0","1850","5748","13","Female","true","false","true","false","""event"",""trial"",""time""
""blur"",""3"",""56510""
""focus"",""3"",""56807""
""fullscreenenter"",""5"",""92168""
","""event"",""trial"",""time""
""blur"",""3"",""56510""
","""event"",""trial"",""time""
""focus"",""3"",""56807""
","""event"",""trial"",""time""
""fullscreenenter"",""5"",""92168""
","
","","","","","","","","","","","","","","","","","","","","","",""
"d3-instructions","59","811529","0.0-59.0","1850","5748","13","Female","true","false","true","false","""event"",""trial"",""time""
""blur"",""3"",""56510""
""focus"",""3"",""56807""
""fullscreenenter"",""5"",""92168""
","""event"",""trial"",""time""
""blur"",""3"",""56510""
","""event"",""trial"",""time""
""focus"",""3"",""56807""
","""event"",""trial"",""time""
""fullscreenenter"",""5"",""92168""
","
","","","","","","","","","","","","","","","","","","","","","",""
"d3-instructions","60","817948","0.0-60.0","1850","5748","13","Female","true","false","true","false","""event"",""trial"",""time""
""blur"",""3"",""56510""
""focus"",""3"",""56807""
""fullscreenenter"",""5"",""92168""
","""event"",""trial"",""time""
""blur"",""3"",""56510""
","""event"",""trial"",""time""
""focus"",""3"",""56807""
","""event"",""trial"",""time""
""fullscreenenter"",""5"",""92168""
","
","","","","","","","","","","","","","","","","","","","","","",""
"d3-animate-choice","61","821423","0.0-61.0-0.0","1850","5748","13","Female","true","false","true","false","""event"",""trial"",""time""
""blur"",""3"",""56510""
""focus"",""3"",""56807""
""fullscreenenter"",""5"",""92168""
","""event"",""trial"",""time""
""blur"",""3"",""56510""
","""event"",""trial"",""time""
""focus"",""3"",""56807""
","""event"",""trial"",""time""
""fullscreenenter"",""5"",""92168""
","
","1459.7999999988824","","49","","","3000","1","","","images/earth.jpg","images/tutrocket1","images/tutrocket2","null","images/tutrocket2","","1","practice","null","1","","",""
"d3-animate-choice","62","824303","0.0-61.0-1.0","1850","5748","13","Female","true","false","true","false","""event"",""trial"",""time""
""blur"",""3"",""56510""
""focus"",""3"",""56807""
""fullscreenenter"",""5"",""92168""
","""event"",""trial"",""time""
""blur"",""3"",""56510""
","""event"",""trial"",""time""
""focus"",""3"",""56807""
","""event"",""trial"",""time""
""fullscreenenter"",""5"",""92168""
","
","861.4000000003725","","49","","","3000","1","","","images/tutgreenplanet.jpg","images/tutalien2","images/tutalien1","images/tutrocket2","images/tutalien1","images/nothing.png","2","practice","true","1","common","0","2023-01-21 02:21:12.818"
"two-step-fixation","63","825327","0.0-61.0-2.0","1850","5748","13","Female","true","false","true","false","""event"",""trial"",""time""
""blur"",""3"",""56510""
""focus"",""3"",""56807""
""fullscreenenter"",""5"",""92168""
","""event"",""trial"",""time""
""blur"",""3"",""56510""
","""event"",""trial"",""time""
""focus"",""3"",""56807""
","""event"",""trial"",""time""
""fullscreenenter"",""5"",""92168""
","
","","images/earth.jpg","","","","","","","","","","","","","","fixation","","","","","",""
"d3-animate-choice","64","827873","0.0-61.0-0.1","1850","5748","13","Female","true","false","true","false","""event"",""trial"",""time""
""blur"",""3"",""56510""
""focus"",""3"",""56807""
""fullscreenenter"",""5"",""92168""
","""event"",""trial"",""time""
""blur"",""3"",""56510""
","""event"",""trial"",""time""
""focus"",""3"",""56807""
","""event"",""trial"",""time""
""fullscreenenter"",""5"",""92168""
","
","534.6000000014901","","49","","","3000","1","","","images/earth.jpg","images/tutrocket1","images/tutrocket2","null","images/tutrocket2","","1","practice","null","1","","",""
"d3-animate-choice","65","830543","0.0-61.0-1.1","1850","5748","13","Female","true","false","true","false","""event"",""trial"",""time""
""blur"",""3"",""56510""
""focus"",""3"",""56807""
""fullscreenenter"",""5"",""92168""
","""event"",""trial"",""time""
""blur"",""3"",""56510""
","""event"",""trial"",""time""
""focus"",""3"",""56807""
","""event"",""trial"",""time""
""fullscreenenter"",""5"",""92168""
","
","654.5","","48","","","3000","1","","","images/tutgreenplanet.jpg","images/tutalien2","images/tutalien1","images/tutrocket2","images/tutalien2","images/nothing.png","2","practice","true","2","common","0","2023-01-21 02:21:19.057"
"two-step-fixation","66","831559","0.0-61.0-2.1","1850","5748","13","Female","true","false","true","false","""event"",""trial"",""time""
""blur"",""3"",""56510""
""focus"",""3"",""56807""
""fullscreenenter"",""5"",""92168""
","""event"",""trial"",""time""
""blur"",""3"",""56510""
","""event"",""trial"",""time""
""focus"",""3"",""56807""
","""event"",""trial"",""time""
""fullscreenenter"",""5"",""92168""
","
","","images/earth.jpg","","","","","","","","","","","","","","fixation","","","","","",""
"d3-animate-choice","67","833927","0.0-61.0-0.2","1850","5748","13","Female","true","false","true","false","""event"",""trial"",""time""
""blur"",""3"",""56510""
""focus"",""3"",""56807""
""fullscreenenter"",""5"",""92168""
","""event"",""trial"",""time""
""blur"",""3"",""56510""
","""event"",""trial"",""time""
""focus"",""3"",""56807""
","""event"",""trial"",""time""
""fullscreenenter"",""5"",""92168""
","
","351","","48","","","3000","1","","","images/earth.jpg","images/tutrocket1","images/tutrocket2","null","images/tutrocket1","","1","practice","null","2","","",""
"d3-animate-choice","68","837063","0.0-61.0-1.2","1850","5748","13","Female","true","false","true","false","""event"",""trial"",""time""
""blur"",""3"",""56510""
""focus"",""3"",""56807""
""fullscreenenter"",""5"",""92168""
","""event"",""trial"",""time""
""blur"",""3"",""56510""
","""event"",""trial"",""time""
""focus"",""3"",""56807""
","""event"",""trial"",""time""
""fullscreenenter"",""5"",""92168""
","
","1119.7999999988824","","49","","","3000","1","","","images/tutgreenplanet.jpg","images/tutalien2","images/tutalien1","images/tutrocket1","images/tutalien1","images/nothing.png","2","practice","false","1","rare","0","2023-01-21 02:21:25.577"
"two-step-fixation","69","838079","0.0-61.0-2.2","1850","5748","13","Female","true","false","true","false","""event"",""trial"",""time""
""blur"",""3"",""56510""
""focus"",""3"",""56807""
""fullscreenenter"",""5"",""92168""
","""event"",""trial"",""time""
""blur"",""3"",""56510""
","""event"",""trial"",""time""
""focus"",""3"",""56807""
","""event"",""trial"",""time""
""fullscreenenter"",""5"",""92168""
","
","","images/earth.jpg","","","","","","","","","","","","","","fixation","","","","","",""
"d3-animate-choice","70","840735","0.0-61.0-0.3","1850","5748","13","Female","true","false","true","false","""event"",""trial"",""time""
""blur"",""3"",""56510""
""focus"",""3"",""56807""
""fullscreenenter"",""5"",""92168""
","""event"",""trial"",""time""
""blur"",""3"",""56510""
","""event"",""trial"",""time""
""focus"",""3"",""56807""
","""event"",""trial"",""time""
""fullscreenenter"",""5"",""92168""
","
","641.6999999992549","","49","","","3000","1","","","images/earth.jpg","images/tutrocket1","images/tutrocket2","null","images/tutrocket2","","1","practice","null","1","","",""
"d3-animate-choice","71","844279","0.0-61.0-1.3","1850","5748","13","Female","true","false","true","false","""event"",""trial"",""time""
""blur"",""3"",""56510""
""focus"",""3"",""56807""
""fullscreenenter"",""5"",""92168""
","""event"",""trial"",""time""
""blur"",""3"",""56510""
","""event"",""trial"",""time""
""focus"",""3"",""56807""
","""event"",""trial"",""time""
""fullscreenenter"",""5"",""92168""
","
","1526.800000000745","","48","","","3000","1","","","images/tutgreenplanet.jpg","images/tutalien2","images/tutalien1","images/tutrocket2","images/tutalien2","images/nothing.png","2","practice","true","2","common","0","2023-01-21 02:21:32.793"
"two-step-fixation","72","845295","0.0-61.0-2.3","1850","5748","13","Female","true","false","true","false","""event"",""trial"",""time""
""blur"",""3"",""56510""
""focus"",""3"",""56807""
""fullscreenenter"",""5"",""92168""
","""event"",""trial"",""time""
""blur"",""3"",""56510""
","""event"",""trial"",""time""
""focus"",""3"",""56807""
","""event"",""trial"",""time""
""fullscreenenter"",""5"",""92168""
","
","","images/earth.jpg","","","","","","","","","","","","","","fixation","","","","","",""
"d3-animate-choice","73","847791","0.0-61.0-0.4","1850","5748","13","Female","true","false","true","false","""event"",""trial"",""time""
""blur"",""3"",""56510""
""focus"",""3"",""56807""
""fullscreenenter"",""5"",""92168""
","""event"",""trial"",""time""
""blur"",""3"",""56510""
","""event"",""trial"",""time""
""focus"",""3"",""56807""
","""event"",""trial"",""time""
""fullscreenenter"",""5"",""92168""
","
","483.19999999925494","","48","","","3000","1","","","images/earth.jpg","images/tutrocket1","images/tutrocket2","null","images/tutrocket1","","1","practice","null","2","","",""
"d3-animate-choice","74","850391","0.0-61.0-1.4","1850","5748","13","Female","true","false","true","false","""event"",""trial"",""time""
""blur"",""3"",""56510""
""focus"",""3"",""56807""
""fullscreenenter"",""5"",""92168""
","""event"",""trial"",""time""
""blur"",""3"",""56510""
","""event"",""trial"",""time""
""focus"",""3"",""56807""
","""event"",""trial"",""time""
""fullscreenenter"",""5"",""92168""
","
","587.5999999996275","","48","","","3000","1","","","images/tutgreenplanet.jpg","images/tutalien2","images/tutalien1","images/tutrocket1","images/tutalien2","images/nothing.png","2","practice","false","2","rare","0","2023-01-21 02:21:38.905"
"two-step-fixation","75","851407","0.0-61.0-2.4","1850","5748","13","Female","true","false","true","false","""event"",""trial"",""time""
""blur"",""3"",""56510""
""focus"",""3"",""56807""
""fullscreenenter"",""5"",""92168""
","""event"",""trial"",""time""
""blur"",""3"",""56510""
","""event"",""trial"",""time""
""focus"",""3"",""56807""
","""event"",""trial"",""time""
""fullscreenenter"",""5"",""92168""
","
","","images/earth.jpg","","","","","","","","","","","","","","fixation","","","","","",""
"d3-animate-choice","76","854967","0.0-61.0-0.5","1850","5748","13","Female","true","false","true","false","""event"",""trial"",""time""
""blur"",""3"",""56510""
""focus"",""3"",""56807""
""fullscreenenter"",""5"",""92168""
","""event"",""trial"",""time""
""blur"",""3"",""56510""
","""event"",""trial"",""time""
""focus"",""3"",""56807""
","""event"",""trial"",""time""
""fullscreenenter"",""5"",""92168""
","
","1542.5999999996275","","49","","","3000","1","","","images/earth.jpg","images/tutrocket1","images/tutrocket2","null","images/tutrocket2","","1","practice","null","1","","",""
"d3-animate-choice","77","858055","0.0-61.0-1.5","1850","5748","13","Female","true","false","true","false","""event"",""trial"",""time""
""blur"",""3"",""56510""
""focus"",""3"",""56807""
""fullscreenenter"",""5"",""92168""
","""event"",""trial"",""time""
""blur"",""3"",""56510""
","""event"",""trial"",""time""
""focus"",""3"",""56807""
","""event"",""trial"",""time""
""fullscreenenter"",""5"",""92168""
","
","1068.9000000003725","","49","","","3000","1","","","images/tutgreenplanet.jpg","images/tutalien2","images/tutalien1","images/tutrocket2","images/tutalien1","images/t.png","2","practice","true","1","common","1","2023-01-21 02:21:46.569"
"two-step-fixation","78","859071","0.0-61.0-2.5","1850","5748","13","Female","true","false","true","false","""event"",""trial"",""time""
""blur"",""3"",""56510""
""focus"",""3"",""56807""
""fullscreenenter"",""5"",""92168""
","""event"",""trial"",""time""
""blur"",""3"",""56510""
","""event"",""trial"",""time""
""focus"",""3"",""56807""
","""event"",""trial"",""time""
""fullscreenenter"",""5"",""92168""
","
","","images/earth.jpg","","","","","","","","","","","","","","fixation","","","","","",""
"d3-animate-choice","79","863095","0.0-61.0-0.6","1850","5748","13","Female","true","false","true","false","""event"",""trial"",""time""
""blur"",""3"",""56510""
""focus"",""3"",""56807""
""fullscreenenter"",""5"",""92168""
","""event"",""trial"",""time""
""blur"",""3"",""56510""
","""event"",""trial"",""time""
""focus"",""3"",""56807""
","""event"",""trial"",""time""
""fullscreenenter"",""5"",""92168""
","
","2846.300000000745","","49","","","3000","1","","","images/earth.jpg","images/tutrocket1","images/tutrocket2","null","images/tutrocket2","","1","practice","null","1","","",""
"d3-animate-choice","80","866239","0.0-61.0-1.6","1850","5748","13","Female","true","false","true","false","""event"",""trial"",""time""
""blur"",""3"",""56510""
""focus"",""3"",""56807""
""fullscreenenter"",""5"",""92168""
","""event"",""trial"",""time""
""blur"",""3"",""56510""
","""event"",""trial"",""time""
""focus"",""3"",""56807""
","""event"",""trial"",""time""
""fullscreenenter"",""5"",""92168""
","
","1107.300000000745","","49","","","3000","1","","","images/tutgreenplanet.jpg","images/tutalien2","images/tutalien1","images/tutrocket2","images/tutalien1","images/nothing.png","2","practice","true","1","common","0","2023-01-21 02:21:54.753"
"two-step-fixation","81","867255","0.0-61.0-2.6","1850","5748","13","Female","true","false","true","false","""event"",""trial"",""time""
""blur"",""3"",""56510""
""focus"",""3"",""56807""
""fullscreenenter"",""5"",""92168""
","""event"",""trial"",""time""
""blur"",""3"",""56510""
","""event"",""trial"",""time""
""focus"",""3"",""56807""
","""event"",""trial"",""time""
""fullscreenenter"",""5"",""92168""
","
","","images/earth.jpg","","","","","","","","","","","","","","fixation","","","","","",""
"d3-animate-choice","82","871282","0.0-61.0-0.7","1850","5748","13","Female","true","false","true","false","""event"",""trial"",""time""
""blur"",""3"",""56510""
""focus"",""3"",""56807""
""fullscreenenter"",""5"",""92168""
","""event"",""trial"",""time""
""blur"",""3"",""56510""
","""event"",""trial"",""time""
""focus"",""3"",""56807""
","""event"",""trial"",""time""
""fullscreenenter"",""5"",""92168""
","
","3684.699999999255","","48","","","3000","0","","","images/earth.jpg","images/tutrocket1","images/tutrocket2","null","","","1","practice","null","2","","",""
"d3-animate-choice","83","872303","0.0-61.0-1.7","1850","5748","13","Female","true","false","true","false","""event"",""trial"",""time""
""blur"",""3"",""56510""
""focus"",""3"",""56807""
""fullscreenenter"",""5"",""92168""
","""event"",""trial"",""time""
""blur"",""3"",""56510""
","""event"",""trial"",""time""
""focus"",""3"",""56807""
","""event"",""trial"",""time""
""fullscreenenter"",""5"",""92168""
","
","null","","null","","","0","0","","","images/earth.jpg","images/tutrocket1","images/tutrocket2","null","","","2","practice","null","","","0","2023-01-21 02:22:00.817"
"two-step-fixation","84","873311","0.0-61.0-2.7","1850","5748","13","Female","true","false","true","false","""event"",""trial"",""time""
""blur"",""3"",""56510""
""focus"",""3"",""56807""
""fullscreenenter"",""5"",""92168""
","""event"",""trial"",""time""
""blur"",""3"",""56510""
","""event"",""trial"",""time""
""focus"",""3"",""56807""
","""event"",""trial"",""time""
""fullscreenenter"",""5"",""92168""
","
","","images/earth.jpg","","","","","","","","","","","","","","fixation","","","","","",""
"d3-animate-choice","85","875855","0.0-61.0-0.8","1850","5748","13","Female","true","false","true","false","""event"",""trial"",""time""
""blur"",""3"",""56510""
""focus"",""3"",""56807""
""fullscreenenter"",""5"",""92168""
","""event"",""trial"",""time""
""blur"",""3"",""56510""
","""event"",""trial"",""time""
""focus"",""3"",""56807""
","""event"",""trial"",""time""
""fullscreenenter"",""5"",""92168""
","
","525.6999999992549","","49","","","3000","1","","","images/earth.jpg","images/tutrocket1","images/tutrocket2","null","images/tutrocket2","","1","practice","null","1","","",""
"d3-animate-choice","86","879878","0.0-61.0-1.8","1850","5748","13","Female","true","false","true","false","""event"",""trial"",""time""
""blur"",""3"",""56510""
""focus"",""3"",""56807""
""fullscreenenter"",""5"",""92168""
","""event"",""trial"",""time""
""blur"",""3"",""56510""
","""event"",""trial"",""time""
""focus"",""3"",""56807""
","""event"",""trial"",""time""
""fullscreenenter"",""5"",""92168""
","
","3824.2000000011176","","48","","","3000","0","","","images/tutgreenplanet.jpg","images/tutalien2","images/tutalien1","images/tutrocket2","","","2","practice","true","2","common","0","2023-01-21 02:22:08.392"
"two-step-fixation","87","880887","0.0-61.0-2.8","1850","5748","13","Female","true","false","true","false","""event"",""trial"",""time""
""blur"",""3"",""56510""
""focus"",""3"",""56807""
""fullscreenenter"",""5"",""92168""
","""event"",""trial"",""time""
""blur"",""3"",""56510""
","""event"",""trial"",""time""
""focus"",""3"",""56807""
","""event"",""trial"",""time""
""fullscreenenter"",""5"",""92168""
","
","","images/earth.jpg","","","","","","","","","","","","","","fixation","","","","","",""
"d3-animate-choice","88","883999","0.0-61.0-0.9","1850","5748","13","Female","true","false","true","false","""event"",""trial"",""time""
""blur"",""3"",""56510""
""focus"",""3"",""56807""
""fullscreenenter"",""5"",""92168""
","""event"",""trial"",""time""
""blur"",""3"",""56510""
","""event"",""trial"",""time""
""focus"",""3"",""56807""
","""event"",""trial"",""time""
""fullscreenenter"",""5"",""92168""
","
","1093.5999999996275","","48","","","3000","1","","","images/earth.jpg","images/tutrocket1","images/tutrocket2","null","images/tutrocket1","","1","practice","null","2","","",""
"d3-animate-choice","89","887070","0.0-61.0-1.9","1850","5748","13","Female","true","false","true","false","""event"",""trial"",""time""
""blur"",""3"",""56510""
""focus"",""3"",""56807""
""fullscreenenter"",""5"",""92168""
","""event"",""trial"",""time""
""blur"",""3"",""56510""
","""event"",""trial"",""time""
""focus"",""3"",""56807""
","""event"",""trial"",""time""
""fullscreenenter"",""5"",""92168""
","
","1059.7000000011176","","48","","","3000","1","","","images/tutyellowplanet.jpg","images/tutalien4","images/tutalien3","images/tutrocket1","images/tutalien4","images/t.png","2","practice","true","2","common","1","2023-01-21 02:22:15.584"
"two-step-fixation","90","888079","0.0-61.0-2.9","1850","5748","13","Female","true","false","true","false","""event"",""trial"",""time""
""blur"",""3"",""56510""
""focus"",""3"",""56807""
""fullscreenenter"",""5"",""92168""
","""event"",""trial"",""time""
""blur"",""3"",""56510""
","""event"",""trial"",""time""
""focus"",""3"",""56807""
","""event"",""trial"",""time""
""fullscreenenter"",""5"",""92168""
","
","","images/earth.jpg","","","","","","","","","","","","","","fixation","","","","","",""
"d3-animate-choice","91","890631","0.0-61.0-0.10","1850","5748","13","Female","true","false","true","false","""event"",""trial"",""time""
""blur"",""3"",""56510""
""focus"",""3"",""56807""
""fullscreenenter"",""5"",""92168""
","""event"",""trial"",""time""
""blur"",""3"",""56510""
","""event"",""trial"",""time""
""focus"",""3"",""56807""
","""event"",""trial"",""time""
""fullscreenenter"",""5"",""92168""
","
","540","","48","","","3000","1","","","images/earth.jpg","images/tutrocket1","images/tutrocket2","null","images/tutrocket1","","1","practice","null","2","","",""
"d3-animate-choice","92","893718","0.0-61.0-1.10","1850","5748","13","Female","true","false","true","false","""event"",""trial"",""time""
""blur"",""3"",""56510""
""focus"",""3"",""56807""
""fullscreenenter"",""5"",""92168""
","""event"",""trial"",""time""
""blur"",""3"",""56510""
","""event"",""trial"",""time""
""focus"",""3"",""56807""
","""event"",""trial"",""time""
""fullscreenenter"",""5"",""92168""
","
","1075","","49","","","3000","1","","","images/tutyellowplanet.jpg","images/tutalien4","images/tutalien3","images/tutrocket1","images/tutalien3","images/t.png","2","practice","true","1","common","1","2023-01-21 02:22:22.233"
"two-step-fixation","93","894727","0.0-61.0-2.10","1850","5748","13","Female","true","false","true","false","""event"",""trial"",""time""
""blur"",""3"",""56510""
""focus"",""3"",""56807""
""fullscreenenter"",""5"",""92168""
","""event"",""trial"",""time""
""blur"",""3"",""56510""
","""event"",""trial"",""time""
""focus"",""3"",""56807""
","""event"",""trial"",""time""
""fullscreenenter"",""5"",""92168""
","
","","images/earth.jpg","","","","","","","","","","","","","","fixation","","","","","",""
"d3-animate-choice","94","897399","0.0-61.0-0.11","1850","5748","13","Female","true","false","true","false","""event"",""trial"",""time""
""blur"",""3"",""56510""
""focus"",""3"",""56807""
""fullscreenenter"",""5"",""92168""
","""event"",""trial"",""time""
""blur"",""3"",""56510""
","""event"",""trial"",""time""
""focus"",""3"",""56807""
","""event"",""trial"",""time""
""fullscreenenter"",""5"",""92168""
","
","657.2000000011176","","48","","","3000","1","","","images/earth.jpg","images/tutrocket1","images/tutrocket2","null","images/tutrocket1","","1","practice","null","2","","",""
"d3-animate-choice","95","900351","0.0-61.0-1.11","1850","5748","13","Female","true","false","true","false","""event"",""trial"",""time""
""blur"",""3"",""56510""
""focus"",""3"",""56807""
""fullscreenenter"",""5"",""92168""
","""event"",""trial"",""time""
""blur"",""3"",""56510""
","""event"",""trial"",""time""
""focus"",""3"",""56807""
","""event"",""trial"",""time""
""fullscreenenter"",""5"",""92168""
","
","932.9000000003725","","49","","","3000","1","","","images/tutgreenplanet.jpg","images/tutalien2","images/tutalien1","images/tutrocket1","images/tutalien1","images/nothing.png","2","practice","false","1","rare","0","2023-01-21 02:22:28.865"
"two-step-fixation","96","901367","0.0-61.0-2.11","1850","5748","13","Female","true","false","true","false","""event"",""trial"",""time""
""blur"",""3"",""56510""
""focus"",""3"",""56807""
""fullscreenenter"",""5"",""92168""
","""event"",""trial"",""time""
""blur"",""3"",""56510""
","""event"",""trial"",""time""
""focus"",""3"",""56807""
","""event"",""trial"",""time""
""fullscreenenter"",""5"",""92168""
","
","","images/earth.jpg","","","","","","","","","","","","","","fixation","","","","","",""
"d3-animate-choice","97","903871","0.0-61.0-0.12","1850","5748","13","Female","true","false","true","false","""event"",""trial"",""time""
""blur"",""3"",""56510""
""focus"",""3"",""56807""
""fullscreenenter"",""5"",""92168""
","""event"",""trial"",""time""
""blur"",""3"",""56510""
","""event"",""trial"",""time""
""focus"",""3"",""56807""
","""event"",""trial"",""time""
""fullscreenenter"",""5"",""92168""
","
","488.40000000037253","","48","","","3000","1","","","images/earth.jpg","images/tutrocket1","images/tutrocket2","null","images/tutrocket1","","1","practice","null","2","","",""
"d3-animate-choice","98","906439","0.0-61.0-1.12","1850","5748","13","Female","true","false","true","false","""event"",""trial"",""time""
""blur"",""3"",""56510""
""focus"",""3"",""56807""
""fullscreenenter"",""5"",""92168""
","""event"",""trial"",""time""
""blur"",""3"",""56510""
","""event"",""trial"",""time""
""focus"",""3"",""56807""
","""event"",""trial"",""time""
""fullscreenenter"",""5"",""92168""
","
","556.1999999992549","","48","","","3000","1","","","images/tutyellowplanet.jpg","images/tutalien4","images/tutalien3","images/tutrocket1","images/tutalien4","images/nothing.png","2","practice","true","2","common","0","2023-01-21 02:22:34.953"
"two-step-fixation","99","907454","0.0-61.0-2.12","1850","5748","13","Female","true","false","true","false","""event"",""trial"",""time""
""blur"",""3"",""56510""
""focus"",""3"",""56807""
""fullscreenenter"",""5"",""92168""
","""event"",""trial"",""time""
""blur"",""3"",""56510""
","""event"",""trial"",""time""
""focus"",""3"",""56807""
","""event"",""trial"",""time""
""fullscreenenter"",""5"",""92168""
","
","","images/earth.jpg","","","","","","","","","","","","","","fixation","","","","","",""
"d3-animate-choice","100","910191","0.0-61.0-0.13","1850","5748","13","Female","true","false","true","false","""event"",""trial"",""time""
""blur"",""3"",""56510""
""focus"",""3"",""56807""
""fullscreenenter"",""5"",""92168""
","""event"",""trial"",""time""
""blur"",""3"",""56510""
","""event"",""trial"",""time""
""focus"",""3"",""56807""
","""event"",""trial"",""time""
""fullscreenenter"",""5"",""92168""
","
","718.5999999996275","","48","","","3000","1","","","images/earth.jpg","images/tutrocket1","images/tutrocket2","null","images/tutrocket1","","1","practice","null","2","","",""
"d3-animate-choice","101","912787","0.0-61.0-1.13","1850","5748","13","Female","true","false","true","false","""event"",""trial"",""time""
""blur"",""3"",""56510""
""focus"",""3"",""56807""
""fullscreenenter"",""5"",""92168""
","""event"",""trial"",""time""
""blur"",""3"",""56510""
","""event"",""trial"",""time""
""focus"",""3"",""56807""
","""event"",""trial"",""time""
""fullscreenenter"",""5"",""92168""
","
","581.8000000007451","","49","","","3000","1","","","images/tutgreenplanet.jpg","images/tutalien2","images/tutalien1","images/tutrocket1","images/tutalien1","images/nothing.png","2","practice","false","1","rare","0","2023-01-21 02:22:41.301"
"two-step-fixation","102","913799","0.0-61.0-2.13","1850","5748","13","Female","true","false","true","false","""event"",""trial"",""time""
""blur"",""3"",""56510""
""focus"",""3"",""56807""
""fullscreenenter"",""5"",""92168""
","""event"",""trial"",""time""
""blur"",""3"",""56510""
","""event"",""trial"",""time""
""focus"",""3"",""56807""
","""event"",""trial"",""time""
""fullscreenenter"",""5"",""92168""
","
","","images/earth.jpg","","","","","","","","","","","","","","fixation","","","","","",""
"d3-animate-choice","103","916422","0.0-61.0-0.14","1850","5748","13","Female","true","false","true","false","""event"",""trial"",""time""
""blur"",""3"",""56510""
""focus"",""3"",""56807""
""fullscreenenter"",""5"",""92168""
","""event"",""trial"",""time""
""blur"",""3"",""56510""
","""event"",""trial"",""time""
""focus"",""3"",""56807""
","""event"",""trial"",""time""
""fullscreenenter"",""5"",""92168""
","
","609.8000000007451","","48","","","3000","1","","","images/earth.jpg","images/tutrocket1","images/tutrocket2","null","images/tutrocket1","","1","practice","null","2","","",""
"d3-animate-choice","104","919255","0.0-61.0-1.14","1850","5748","13","Female","true","false","true","false","""event"",""trial"",""time""
""blur"",""3"",""56510""
""focus"",""3"",""56807""
""fullscreenenter"",""5"",""92168""
","""event"",""trial"",""time""
""blur"",""3"",""56510""
","""event"",""trial"",""time""
""focus"",""3"",""56807""
","""event"",""trial"",""time""
""fullscreenenter"",""5"",""92168""
","
","815.5999999996275","","49","","","3000","1","","","images/tutyellowplanet.jpg","images/tutalien4","images/tutalien3","images/tutrocket1","images/tutalien3","images/nothing.png","2","practice","true","1","common","0","2023-01-21 02:22:47.769"
"two-step-fixation","105","920272","0.0-61.0-2.14","1850","5748","13","Female","true","false","true","false","""event"",""trial"",""time""
""blur"",""3"",""56510""
""focus"",""3"",""56807""
""fullscreenenter"",""5"",""92168""
","""event"",""trial"",""time""
""blur"",""3"",""56510""
","""event"",""trial"",""time""
""focus"",""3"",""56807""
","""event"",""trial"",""time""
""fullscreenenter"",""5"",""92168""
","
","","images/earth.jpg","","","","","","","","","","","","","","fixation","","","","","",""
"d3-animate-choice","106","922576","0.0-61.0-0.15","1850","5748","13","Female","true","false","true","false","""event"",""trial"",""time""
""blur"",""3"",""56510""
""focus"",""3"",""56807""
""fullscreenenter"",""5"",""92168""
","""event"",""trial"",""time""
""blur"",""3"",""56510""
","""event"",""trial"",""time""
""focus"",""3"",""56807""
","""event"",""trial"",""time""
""fullscreenenter"",""5"",""92168""
","
","287.5","","49","","","3000","1","","","images/earth.jpg","images/tutrocket1","images/tutrocket2","null","images/tutrocket2","","1","practice","null","1","","",""
"d3-animate-choice","107","925151","0.0-61.0-1.15","1850","5748","13","Female","true","false","true","false","""event"",""trial"",""time""
""blur"",""3"",""56510""
""focus"",""3"",""56807""
""fullscreenenter"",""5"",""92168""
","""event"",""trial"",""time""
""blur"",""3"",""56510""
","""event"",""trial"",""time""
""focus"",""3"",""56807""
","""event"",""trial"",""time""
""fullscreenenter"",""5"",""92168""
","
","554.4000000003725","","49","","","3000","1","","","images/tutgreenplanet.jpg","images/tutalien2","images/tutalien1","images/tutrocket2","images/tutalien1","images/nothing.png","2","practice","true","1","common","0","2023-01-21 02:22:53.665"
"two-step-fixation","108","926167","0.0-61.0-2.15","1850","5748","13","Female","true","false","true","false","""event"",""trial"",""time""
""blur"",""3"",""56510""
""focus"",""3"",""56807""
""fullscreenenter"",""5"",""92168""
","""event"",""trial"",""time""
""blur"",""3"",""56510""
","""event"",""trial"",""time""
""focus"",""3"",""56807""
","""event"",""trial"",""time""
""fullscreenenter"",""5"",""92168""
","
","","images/earth.jpg","","","","","","","","","","","","","","fixation","","","","","",""
"d3-animate-choice","109","928519","0.0-61.0-0.16","1850","5748","13","Female","true","false","true","false","""event"",""trial"",""time""
""blur"",""3"",""56510""
""focus"",""3"",""56807""
""fullscreenenter"",""5"",""92168""
","""event"",""trial"",""time""
""blur"",""3"",""56510""
","""event"",""trial"",""time""
""focus"",""3"",""56807""
","""event"",""trial"",""time""
""fullscreenenter"",""5"",""92168""
","
","340.5","","49","","","3000","1","","","images/earth.jpg","images/tutrocket1","images/tutrocket2","null","images/tutrocket2","","1","practice","null","1","","",""
"d3-animate-choice","110","931103","0.0-61.0-1.16","1850","5748","13","Female","true","false","true","false","""event"",""trial"",""time""
""blur"",""3"",""56510""
""focus"",""3"",""56807""
""fullscreenenter"",""5"",""92168""
","""event"",""trial"",""time""
""blur"",""3"",""56510""
","""event"",""trial"",""time""
""focus"",""3"",""56807""
","""event"",""trial"",""time""
""fullscreenenter"",""5"",""92168""
","
","568","","48","","","3000","1","","","images/tutgreenplanet.jpg","images/tutalien2","images/tutalien1","images/tutrocket2","images/tutalien2","images/nothing.png","2","practice","true","2","common","0","2023-01-21 02:22:59.617"
"two-step-fixation","111","932119","0.0-61.0-2.16","1850","5748","13","Female","true","false","true","false","""event"",""trial"",""time""
""blur"",""3"",""56510""
""focus"",""3"",""56807""
""fullscreenenter"",""5"",""92168""
","""event"",""trial"",""time""
""blur"",""3"",""56510""
","""event"",""trial"",""time""
""focus"",""3"",""56807""
","""event"",""trial"",""time""
""fullscreenenter"",""5"",""92168""
","
","","images/earth.jpg","","","","","","","","","","","","","","fixation","","","","","",""
"d3-animate-choice","112","934806","0.0-61.0-0.17","1850","5748","13","Female","true","false","true","false","""event"",""trial"",""time""
""blur"",""3"",""56510""
""focus"",""3"",""56807""
""fullscreenenter"",""5"",""92168""
","""event"",""trial"",""time""
""blur"",""3"",""56510""
","""event"",""trial"",""time""
""focus"",""3"",""56807""
","""event"",""trial"",""time""
""fullscreenenter"",""5"",""92168""
","
","671.2000000011176","","48","","","3000","1","","","images/earth.jpg","images/tutrocket1","images/tutrocket2","null","images/tutrocket1","","1","practice","null","2","","",""
"d3-animate-choice","113","937655","0.0-61.0-1.17","1850","5748","13","Female","true","false","true","false","""event"",""trial"",""time""
""blur"",""3"",""56510""
""focus"",""3"",""56807""
""fullscreenenter"",""5"",""92168""
","""event"",""trial"",""time""
""blur"",""3"",""56510""
","""event"",""trial"",""time""
""focus"",""3"",""56807""
","""event"",""trial"",""time""
""fullscreenenter"",""5"",""92168""
","
","830.2999999988824","","48","","","3000","1","","","images/tutyellowplanet.jpg","images/tutalien4","images/tutalien3","images/tutrocket1","images/tutalien4","images/nothing.png","2","practice","true","2","common","0","2023-01-21 02:23:06.169"
"two-step-fixation","114","938671","0.0-61.0-2.17","1850","5748","13","Female","true","false","true","false","""event"",""trial"",""time""
""blur"",""3"",""56510""
""focus"",""3"",""56807""
""fullscreenenter"",""5"",""92168""
","""event"",""trial"",""time""
""blur"",""3"",""56510""
","""event"",""trial"",""time""
""focus"",""3"",""56807""
","""event"",""trial"",""time""
""fullscreenenter"",""5"",""92168""
","
","","images/earth.jpg","","","","","","","","","","","","","","fixation","","","","","",""
"d3-animate-choice","115","942691","0.0-61.0-0.18","1850","5748","13","Female","true","false","true","false","""event"",""trial"",""time""
""blur"",""3"",""56510""
""focus"",""3"",""56807""
""fullscreenenter"",""5"",""92168""
","""event"",""trial"",""time""
""blur"",""3"",""56510""
","""event"",""trial"",""time""
""focus"",""3"",""56807""
","""event"",""trial"",""time""
""fullscreenenter"",""5"",""92168""
","
","3056.4000000003725","","189","","","3000","0","3635.10000000149","48","images/earth.jpg","images/tutrocket1","images/tutrocket2","null","","","1","practice","null","","","",""
"d3-animate-choice","116","943707","0.0-61.0-1.18","1850","5748","13","Female","true","false","true","false","""event"",""trial"",""time""
""blur"",""3"",""56510""
""focus"",""3"",""56807""
""fullscreenenter"",""5"",""92168""
","""event"",""trial"",""time""
""blur"",""3"",""56510""
","""event"",""trial"",""time""
""focus"",""3"",""56807""
","""event"",""trial"",""time""
""fullscreenenter"",""5"",""92168""
","
","null","","null","","","0","0","","","images/earth.jpg","images/tutrocket1","images/tutrocket2","null","","","2","practice","null","","","0","2023-01-21 02:23:12.221"
"two-step-fixation","117","944718","0.0-61.0-2.18","1850","5748","13","Female","true","false","true","false","""event"",""trial"",""time""
""blur"",""3"",""56510""
""focus"",""3"",""56807""
""fullscreenenter"",""5"",""92168""
","""event"",""trial"",""time""
""blur"",""3"",""56510""
","""event"",""trial"",""time""
""focus"",""3"",""56807""
","""event"",""trial"",""time""
""fullscreenenter"",""5"",""92168""
","
","","images/earth.jpg","","","","","","","","","","","","","","fixation","","","","","",""
"d3-animate-choice","118","947270","0.0-61.0-0.19","1850","5748","13","Female","true","false","true","false","""event"",""trial"",""time""
""blur"",""3"",""56510""
""focus"",""3"",""56807""
""fullscreenenter"",""5"",""92168""
","""event"",""trial"",""time""
""blur"",""3"",""56510""
","""event"",""trial"",""time""
""focus"",""3"",""56807""
","""event"",""trial"",""time""
""fullscreenenter"",""5"",""92168""
","
","537.2999999988824","","48","","","3000","1","","","images/earth.jpg","images/tutrocket1","images/tutrocket2","null","images/tutrocket1","","1","practice","null","2","","",""
"d3-animate-choice","119","950146","0.0-61.0-1.19","1850","5748","13","Female","true","false","true","false","""event"",""trial"",""time""
""blur"",""3"",""56510""
""focus"",""3"",""56807""
""fullscreenenter"",""5"",""92168""
","""event"",""trial"",""time""
""blur"",""3"",""56510""
","""event"",""trial"",""time""
""focus"",""3"",""56807""
","""event"",""trial"",""time""
""fullscreenenter"",""5"",""92168""
","
","861.5999999996275","","48","","","3000","1","","","images/tutgreenplanet.jpg","images/tutalien2","images/tutalien1","images/tutrocket1","images/tutalien2","images/t.png","2","practice","false","2","rare","1","2023-01-21 02:23:18.660"
"two-step-fixation","120","951159","0.0-61.0-2.19","1850","5748","13","Female","true","false","true","false","""event"",""trial"",""time""
""blur"",""3"",""56510""
""focus"",""3"",""56807""
""fullscreenenter"",""5"",""92168""
","""event"",""trial"",""time""
""blur"",""3"",""56510""
","""event"",""trial"",""time""
""focus"",""3"",""56807""
","""event"",""trial"",""time""
""fullscreenenter"",""5"",""92168""
","
","","images/earth.jpg","","","","","","","","","","","","","","fixation","","","","","",""
"d3-instructions","121","957514","0.0-62.0","1850","5748","13","Female","true","false","true","false","""event"",""trial"",""time""
""blur"",""3"",""56510""
""focus"",""3"",""56807""
""fullscreenenter"",""5"",""92168""
","""event"",""trial"",""time""
""blur"",""3"",""56510""
","""event"",""trial"",""time""
""focus"",""3"",""56807""
","""event"",""trial"",""time""
""fullscreenenter"",""5"",""92168""
","
","","","","","","","","","","","","","","","","","","","","","",""
"audio-keyboard-response","122","962364","0.0-63.0","1850","5748","13","Female","true","false","true","false","""event"",""trial"",""time""
""blur"",""3"",""56510""
""focus"",""3"",""56807""
""fullscreenenter"",""5"",""92168""
","""event"",""trial"",""time""
""blur"",""3"",""56510""
","""event"",""trial"",""time""
""focus"",""3"",""56807""
","""event"",""trial"",""time""
""fullscreenenter"",""5"",""92168""
","
","4843","audio/instructions/treasure_feedback.wav","32","","","","","","","","","","","","","","","","","","",""
"d3-instructions","123","1057007","0.0-64.0","1850","5748","13","Female","true","false","true","false","""event"",""trial"",""time""
""blur"",""3"",""56510""
""focus"",""3"",""56807""
""fullscreenenter"",""5"",""92168""
","""event"",""trial"",""time""
""blur"",""3"",""56510""
","""event"",""trial"",""time""
""focus"",""3"",""56807""
","""event"",""trial"",""time""
""fullscreenenter"",""5"",""92168""
","
","","","","","","","","","","","","","","","","","","","","","",""
"d3-instructions","124","1070076","0.0-65.0","1850","5748","13","Female","true","false","true","false","""event"",""trial"",""time""
""blur"",""3"",""56510""
""focus"",""3"",""56807""
""fullscreenenter"",""5"",""92168""
","""event"",""trial"",""time""
""blur"",""3"",""56510""
","""event"",""trial"",""time""
""focus"",""3"",""56807""
","""event"",""trial"",""time""
""fullscreenenter"",""5"",""92168""
","
","","","","","","","","","","","","","","","","","","","","","",""
"d3-instructions","125","1135955","0.0-66.0","1850","5748","13","Female","true","false","true","false","""event"",""trial"",""time""
""blur"",""3"",""56510""
""focus"",""3"",""56807""
""fullscreenenter"",""5"",""92168""
","""event"",""trial"",""time""
""blur"",""3"",""56510""
","""event"",""trial"",""time""
""focus"",""3"",""56807""
","""event"",""trial"",""time""
""fullscreenenter"",""5"",""92168""
","
","","","","","","","","","","","","","","","","","","","","","",""
"d3-instructions","126","1241310","0.0-67.0","1850","5748","13","Female","true","false","true","false","""event"",""trial"",""time""
""blur"",""3"",""56510""
""focus"",""3"",""56807""
""fullscreenenter"",""5"",""92168""
","""event"",""trial"",""time""
""blur"",""3"",""56510""
","""event"",""trial"",""time""
""focus"",""3"",""56807""
","""event"",""trial"",""time""
""fullscreenenter"",""5"",""92168""
","
","","","","","","","","","","","","","","","","","","","","","",""
"d3-instructions","127","1249399","0.0-68.0","1850","5748","13","Female","true","false","true","false","""event"",""trial"",""time""
""blur"",""3"",""56510""
""focus"",""3"",""56807""
""fullscreenenter"",""5"",""92168""
","""event"",""trial"",""time""
""blur"",""3"",""56510""
","""event"",""trial"",""time""
""focus"",""3"",""56807""
","""event"",""trial"",""time""
""fullscreenenter"",""5"",""92168""
","
","","","","","","","","","","","","","","","","","","","","","",""
"instructions-quiz","128","1253081","0.0-69.0","1850","5748","13","Female","true","false","true","false","""event"",""trial"",""time""
""blur"",""3"",""56510""
""focus"",""3"",""56807""
""fullscreenenter"",""5"",""92168""
","""event"",""trial"",""time""
""blur"",""3"",""56510""
","""event"",""trial"",""time""
""focus"",""3"",""56807""
","""event"",""trial"",""time""
""fullscreenenter"",""5"",""92168""
","
","3670.2999999988824","audio/quiz/Q1_Prompt.wav","","1","","","","","","","","","","","","","","","","","",""
"audio-keyboard-response","129","1262263","0.0-70.0","1850","5748","13","Female","true","false","true","false","""event"",""trial"",""time""
""blur"",""3"",""56510""
""focus"",""3"",""56807""
""fullscreenenter"",""5"",""92168""
","""event"",""trial"",""time""
""blur"",""3"",""56510""
","""event"",""trial"",""time""
""focus"",""3"",""56807""
","""event"",""trial"",""time""
""fullscreenenter"",""5"",""92168""
","
","null","audio/quiz/Q1_Correct.wav","null","","","","","","","","","","","","","","","","","","",""
"instructions-quiz","130","1269748","0.0-71.0","1850","5748","13","Female","true","false","true","false","""event"",""trial"",""time""
""blur"",""3"",""56510""
""focus"",""3"",""56807""
""fullscreenenter"",""5"",""92168""
","""event"",""trial"",""time""
""blur"",""3"",""56510""
","""event"",""trial"",""time""
""focus"",""3"",""56807""
","""event"",""trial"",""time""
""fullscreenenter"",""5"",""92168""
","
","7470.800000000745","audio/quiz/Q2_Prompt.wav","","0","","","","","","","","","","","","","","","","","",""
"audio-keyboard-response","131","1282625","0.0-72.0","1850","5748","13","Female","true","false","true","false","""event"",""trial"",""time""
""blur"",""3"",""56510""
""focus"",""3"",""56807""
""fullscreenenter"",""5"",""92168""
","""event"",""trial"",""time""
""blur"",""3"",""56510""
","""event"",""trial"",""time""
""focus"",""3"",""56807""
","""event"",""trial"",""time""
""fullscreenenter"",""5"",""92168""
","
","null","audio/quiz/Q2_Correct.wav","null","","","","","","","","","","","","","","","","","","",""
"instructions-quiz","132","1319330","0.0-73.0","1850","5748","13","Female","true","false","true","false","""event"",""trial"",""time""
""blur"",""3"",""56510""
""focus"",""3"",""56807""
""fullscreenenter"",""5"",""92168""
","""event"",""trial"",""time""
""blur"",""3"",""56510""
","""event"",""trial"",""time""
""focus"",""3"",""56807""
","""event"",""trial"",""time""
""fullscreenenter"",""5"",""92168""
","
","36687.59999999963","audio/quiz/Q3_Prompt.wav","","1","","","","","","","","","","","","","","","","","",""
"audio-keyboard-response","133","1325129","0.0-74.0","1850","5748","13","Female","true","false","true","false","""event"",""trial"",""time""
""blur"",""3"",""56510""
""focus"",""3"",""56807""
""fullscreenenter"",""5"",""92168""
","""event"",""trial"",""time""
""blur"",""3"",""56510""
","""event"",""trial"",""time""
""focus"",""3"",""56807""
","""event"",""trial"",""time""
""fullscreenenter"",""5"",""92168""
","
","null","audio/quiz/Q3_Correct.wav","null","","","","","","","","","","","","","","","","","","",""
"d3-instructions","134","1418668","0.0-75.0","1850","5748","13","Female","true","false","true","false","""event"",""trial"",""time""
""blur"",""3"",""56510""
""focus"",""3"",""56807""
""fullscreenenter"",""5"",""92168""
","""event"",""trial"",""time""
""blur"",""3"",""56510""
","""event"",""trial"",""time""
""focus"",""3"",""56807""
","""event"",""trial"",""time""
""fullscreenenter"",""5"",""92168""
","
","","","","","","","","","","","","","","","","","","","","","",""
"pavlovia","135","1418675","0.0-76.0","1850","5748","13","Female","true","false","true","false","""event"",""trial"",""time""
""blur"",""3"",""56510""
""focus"",""3"",""56807""
""fullscreenenter"",""5"",""92168""
","""event"",""trial"",""time""
""blur"",""3"",""56510""
","""event"",""trial"",""time""
""focus"",""3"",""56807""
","""event"",""trial"",""time""
""fullscreenenter"",""5"",""92168""
","
","","","","","","","","","","","","","","","","","","","","","",""
"d3-animate-choice","136","1422331","0.0-77.0-0.0","1850","5748","13","Female","true","false","true","false","""event"",""trial"",""time""
""blur"",""3"",""56510""
""focus"",""3"",""56807""
""fullscreenenter"",""5"",""92168""
","""event"",""trial"",""time""
""blur"",""3"",""56510""
","""event"",""trial"",""time""
""focus"",""3"",""56807""
","""event"",""trial"",""time""
""fullscreenenter"",""5"",""92168""
","
","1635.2000000011176","","49","","","3000","1","","","images/earth.jpg","images/rocket2","images/rocket1","null","images/rocket1","","1","real","null","1","","",""
"d3-animate-choice","137","1425512","0.0-77.0-1.0","1850","5748","13","Female","true","false","true","false","""event"",""trial"",""time""
""blur"",""3"",""56510""
""focus"",""3"",""56807""
""fullscreenenter"",""5"",""92168""
","""event"",""trial"",""time""
""blur"",""3"",""56510""
","""event"",""trial"",""time""
""focus"",""3"",""56807""
","""event"",""trial"",""time""
""fullscreenenter"",""5"",""92168""
","
","1159.300000000745","","49","","","3000","1","","","images/purpleplanet.jpg","images/alien4","images/alien3","images/rocket1","images/alien3","images/nothing.png","2","real","true","1","common","0","2023-01-21 02:31:14.027"
"two-step-fixation","138","1426528","0.0-77.0-2.0","1850","5748","13","Female","true","false","true","false","""event"",""trial"",""time""
""blur"",""3"",""56510""
""focus"",""3"",""56807""
""fullscreenenter"",""5"",""92168""
","""event"",""trial"",""time""
""blur"",""3"",""56510""
","""event"",""trial"",""time""
""focus"",""3"",""56807""
","""event"",""trial"",""time""
""fullscreenenter"",""5"",""92168""
","
","","images/earth.jpg","","","","","","","","","","","","","","fixation","","","","","",""
"d3-animate-choice","139","1429259","0.0-77.0-0.1","1850","5748","13","Female","true","false","true","false","""event"",""trial"",""time""
""blur"",""3"",""56510""
""focus"",""3"",""56807""
""fullscreenenter"",""5"",""92168""
","""event"",""trial"",""time""
""blur"",""3"",""56510""
","""event"",""trial"",""time""
""focus"",""3"",""56807""
","""event"",""trial"",""time""
""fullscreenenter"",""5"",""92168""
","
","706.0999999996275","","48","","","3000","1","","","images/earth.jpg","images/rocket2","images/rocket1","null","images/rocket2","","1","real","null","2","","",""
"d3-animate-choice","140","1431888","0.0-77.0-1.1","1850","5748","13","Female","true","false","true","false","""event"",""trial"",""time""
""blur"",""3"",""56510""
""focus"",""3"",""56807""
""fullscreenenter"",""5"",""92168""
","""event"",""trial"",""time""
""blur"",""3"",""56510""
","""event"",""trial"",""time""
""focus"",""3"",""56807""
","""event"",""trial"",""time""
""fullscreenenter"",""5"",""92168""
","
","608","","48","","","3000","1","","","images/purpleplanet.jpg","images/alien4","images/alien3","images/rocket2","images/alien4","images/t.png","2","real","false","2","rare","1","2023-01-21 02:31:20.402"
"two-step-fixation","141","1432905","0.0-77.0-2.1","1850","5748","13","Female","true","false","true","false","""event"",""trial"",""time""
""blur"",""3"",""56510""
""focus"",""3"",""56807""
""fullscreenenter"",""5"",""92168""
","""event"",""trial"",""time""
""blur"",""3"",""56510""
","""event"",""trial"",""time""
""focus"",""3"",""56807""
","""event"",""trial"",""time""
""fullscreenenter"",""5"",""92168""
","
","","images/earth.jpg","","","","","","","","","","","","","","fixation","","","","","",""
"d3-animate-choice","142","1436075","0.0-77.0-0.2","1850","5748","13","Female","true","false","true","false","""event"",""trial"",""time""
""blur"",""3"",""56510""
""focus"",""3"",""56807""
""fullscreenenter"",""5"",""92168""
","""event"",""trial"",""time""
""blur"",""3"",""56510""
","""event"",""trial"",""time""
""focus"",""3"",""56807""
","""event"",""trial"",""time""
""fullscreenenter"",""5"",""92168""
","
","1149.0999999996275","","48","","","3000","1","","","images/earth.jpg","images/rocket2","images/rocket1","null","images/rocket2","","1","real","null","2","","",""
"d3-animate-choice","143","1438809","0.0-77.0-1.2","1850","5748","13","Female","true","false","true","false","""event"",""trial"",""time""
""blur"",""3"",""56510""
""focus"",""3"",""56807""
""fullscreenenter"",""5"",""92168""
","""event"",""trial"",""time""
""blur"",""3"",""56510""
","""event"",""trial"",""time""
""focus"",""3"",""56807""
","""event"",""trial"",""time""
""fullscreenenter"",""5"",""92168""
","
","709.0999999996275","","49","","","3000","1","","","images/redplanet1.jpg","images/alien2","images/alien1","images/rocket2","images/alien1","images/t.png","2","real","true","1","common","1","2023-01-21 02:31:27.324"
"two-step-fixation","144","1439825","0.0-77.0-2.2","1850","5748","13","Female","true","false","true","false","""event"",""trial"",""time""
""blur"",""3"",""56510""
""focus"",""3"",""56807""
""fullscreenenter"",""5"",""92168""
","""event"",""trial"",""time""
""blur"",""3"",""56510""
","""event"",""trial"",""time""
""focus"",""3"",""56807""
","""event"",""trial"",""time""
""fullscreenenter"",""5"",""92168""
","
","","images/earth.jpg","","","","","","","","","","","","","","fixation","","","","","",""
"d3-animate-choice","145","1442153","0.0-77.0-0.3","1850","5748","13","Female","true","false","true","false","""event"",""trial"",""time""
""blur"",""3"",""56510""
""focus"",""3"",""56807""
""fullscreenenter"",""5"",""92168""
","""event"",""trial"",""time""
""blur"",""3"",""56510""
","""event"",""trial"",""time""
""focus"",""3"",""56807""
","""event"",""trial"",""time""
""fullscreenenter"",""5"",""92168""
","
","310.6000000014901","","48","","","3000","1","1996.300000000745","49","images/earth.jpg","images/rocket2","images/rocket1","null","images/rocket2","","1","real","null","2","","",""
"d3-animate-choice","146","1444650","0.0-77.0-1.3","1850","5748","13","Female","true","false","true","false","""event"",""trial"",""time""
""blur"",""3"",""56510""
""focus"",""3"",""56807""
""fullscreenenter"",""5"",""92168""
","""event"",""trial"",""time""
""blur"",""3"",""56510""
","""event"",""trial"",""time""
""focus"",""3"",""56807""
","""event"",""trial"",""time""
""fullscreenenter"",""5"",""92168""
","
","476.2999999988824","","49","","","3000","1","","","images/redplanet1.jpg","images/alien2","images/alien1","images/rocket2","images/alien1","images/t.png","2","real","true","1","common","1","2023-01-21 02:31:33.164"
"two-step-fixation","147","1445667","0.0-77.0-2.3","1850","5748","13","Female","true","false","true","false","""event"",""trial"",""time""
""blur"",""3"",""56510""
""focus"",""3"",""56807""
""fullscreenenter"",""5"",""92168""
","""event"",""trial"",""time""
""blur"",""3"",""56510""
","""event"",""trial"",""time""
""focus"",""3"",""56807""
","""event"",""trial"",""time""
""fullscreenenter"",""5"",""92168""
","
","","images/earth.jpg","","","","","","","","","","","","","","fixation","","","","","",""
"d3-animate-choice","148","1449693","0.0-77.0-0.4","1850","5748","13","Female","true","false","true","false","""event"",""trial"",""time""
""blur"",""3"",""56510""
""focus"",""3"",""56807""
""fullscreenenter"",""5"",""92168""
","""event"",""trial"",""time""
""blur"",""3"",""56510""
","""event"",""trial"",""time""
""focus"",""3"",""56807""
","""event"",""trial"",""time""
""fullscreenenter"",""5"",""92168""
","
","3336.699999999255","","48","","","3000","0","","","images/earth.jpg","images/rocket2","images/rocket1","null","","","1","real","null","2","","",""
"d3-animate-choice","149","1450725","0.0-77.0-1.4","1850","5748","13","Female","true","false","true","false","""event"",""trial"",""time""
""blur"",""3"",""56510""
""focus"",""3"",""56807""
""fullscreenenter"",""5"",""92168""
","""event"",""trial"",""time""
""blur"",""3"",""56510""
","""event"",""trial"",""time""
""focus"",""3"",""56807""
","""event"",""trial"",""time""
""fullscreenenter"",""5"",""92168""
","
","null","","null","","","0","0","","","images/earth.jpg","images/rocket2","images/rocket1","null","","","2","real","null","","","0","2023-01-21 02:31:39.239"
"two-step-fixation","150","1451745","0.0-77.0-2.4","1850","5748","13","Female","true","false","true","false","""event"",""trial"",""time""
""blur"",""3"",""56510""
""focus"",""3"",""56807""
""fullscreenenter"",""5"",""92168""
","""event"",""trial"",""time""
""blur"",""3"",""56510""
","""event"",""trial"",""time""
""focus"",""3"",""56807""
","""event"",""trial"",""time""
""fullscreenenter"",""5"",""92168""
","
","","images/earth.jpg","","","","","","","","","","","","","","fixation","","","","","",""
"d3-animate-choice","151","1454378","0.0-77.0-0.5","1850","5748","13","Female","true","false","true","false","""event"",""trial"",""time""
""blur"",""3"",""56510""
""focus"",""3"",""56807""
""fullscreenenter"",""5"",""92168""
","""event"",""trial"",""time""
""blur"",""3"",""56510""
","""event"",""trial"",""time""
""focus"",""3"",""56807""
","""event"",""trial"",""time""
""fullscreenenter"",""5"",""92168""
","
","610.1999999992549","","48","","","3000","1","","","images/earth.jpg","images/rocket2","images/rocket1","null","images/rocket2","","1","real","null","2","","",""
"d3-animate-choice","152","1457073","0.0-77.0-1.5","1850","5748","13","Female","true","false","true","false","""event"",""trial"",""time""
""blur"",""3"",""56510""
""focus"",""3"",""56807""
""fullscreenenter"",""5"",""92168""
","""event"",""trial"",""time""
""blur"",""3"",""56510""
","""event"",""trial"",""time""
""focus"",""3"",""56807""
","""event"",""trial"",""time""
""fullscreenenter"",""5"",""92168""
","
","674.9000000003725","","49","","","3000","1","","","images/redplanet1.jpg","images/alien2","images/alien1","images/rocket2","images/alien1","images/nothing.png","2","real","true","1","common","0","2023-01-21 02:31:45.587"
"two-step-fixation","153","1458090","0.0-77.0-2.5","1850","5748","13","Female","true","false","true","false","""event"",""trial"",""time""
""blur"",""3"",""56510""
""focus"",""3"",""56807""
""fullscreenenter"",""5"",""92168""
","""event"",""trial"",""time""
""blur"",""3"",""56510""
","""event"",""trial"",""time""
""focus"",""3"",""56807""
","""event"",""trial"",""time""
""fullscreenenter"",""5"",""92168""
","
","","images/earth.jpg","","","","","","","","","","","","","","fixation","","","","","",""
"d3-animate-choice","154","1461250","0.0-77.0-0.6","1850","5748","13","Female","true","false","true","false","""event"",""trial"",""time""
""blur"",""3"",""56510""
""focus"",""3"",""56807""
""fullscreenenter"",""5"",""92168""
","""event"",""trial"",""time""
""blur"",""3"",""56510""
","""event"",""trial"",""time""
""focus"",""3"",""56807""
","""event"",""trial"",""time""
""fullscreenenter"",""5"",""92168""
","
","1139.4000000003725","","48","","","3000","1","","","images/earth.jpg","images/rocket2","images/rocket1","null","images/rocket2","","1","real","null","2","","",""
"d3-animate-choice","155","1463953","0.0-77.0-1.6","1850","5748","13","Female","true","false","true","false","""event"",""trial"",""time""
""blur"",""3"",""56510""
""focus"",""3"",""56807""
""fullscreenenter"",""5"",""92168""
","""event"",""trial"",""time""
""blur"",""3"",""56510""
","""event"",""trial"",""time""
""focus"",""3"",""56807""
","""event"",""trial"",""time""
""fullscreenenter"",""5"",""92168""
","
","666.7000000011176","","48","","","3000","1","","","images/redplanet1.jpg","images/alien2","images/alien1","images/rocket2","images/alien2","images/t.png","2","real","true","2","common","1","2023-01-21 02:31:52.468"
"two-step-fixation","156","1464966","0.0-77.0-2.6","1850","5748","13","Female","true","false","true","false","""event"",""trial"",""time""
""blur"",""3"",""56510""
""focus"",""3"",""56807""
""fullscreenenter"",""5"",""92168""
","""event"",""trial"",""time""
""blur"",""3"",""56510""
","""event"",""trial"",""time""
""focus"",""3"",""56807""
","""event"",""trial"",""time""
""fullscreenenter"",""5"",""92168""
","
","","images/earth.jpg","","","","","","","","","","","","","","fixation","","","","","",""
"d3-animate-choice","157","1467830","0.0-77.0-0.7","1850","5748","13","Female","true","false","true","false","""event"",""trial"",""time""
""blur"",""3"",""56510""
""focus"",""3"",""56807""
""fullscreenenter"",""5"",""92168""
","""event"",""trial"",""time""
""blur"",""3"",""56510""
","""event"",""trial"",""time""
""focus"",""3"",""56807""
","""event"",""trial"",""time""
""fullscreenenter"",""5"",""92168""
","
","851.8999999985099","","49","","","3000","1","","","images/earth.jpg","images/rocket2","images/rocket1","null","images/rocket1","","1","real","null","1","","",""
"d3-animate-choice","158","1470790","0.0-77.0-1.7","1850","5748","13","Female","true","false","true","false","""event"",""trial"",""time""
""blur"",""3"",""56510""
""focus"",""3"",""56807""
""fullscreenenter"",""5"",""92168""
","""event"",""trial"",""time""
""blur"",""3"",""56510""
","""event"",""trial"",""time""
""focus"",""3"",""56807""
","""event"",""trial"",""time""
""fullscreenenter"",""5"",""92168""
","
","942.0999999996275","","48","","","3000","1","","","images/purpleplanet.jpg","images/alien4","images/alien3","images/rocket1","images/alien4","images/t.png","2","real","true","2","common","1","2023-01-21 02:31:59.304"
"two-step-fixation","159","1471806","0.0-77.0-2.7","1850","5748","13","Female","true","false","true","false","""event"",""trial"",""time""
""blur"",""3"",""56510""
""focus"",""3"",""56807""
""fullscreenenter"",""5"",""92168""
","""event"",""trial"",""time""
""blur"",""3"",""56510""
","""event"",""trial"",""time""
""focus"",""3"",""56807""
","""event"",""trial"",""time""
""fullscreenenter"",""5"",""92168""
","
","","images/earth.jpg","","","","","","","","","","","","","","fixation","","","","","",""
"d3-animate-choice","160","1474293","0.0-77.0-0.8","1850","5748","13","Female","true","false","true","false","""event"",""trial"",""time""
""blur"",""3"",""56510""
""focus"",""3"",""56807""
""fullscreenenter"",""5"",""92168""
","""event"",""trial"",""time""
""blur"",""3"",""56510""
","""event"",""trial"",""time""
""focus"",""3"",""56807""
","""event"",""trial"",""time""
""fullscreenenter"",""5"",""92168""
","
","476","","48","","","3000","1","","","images/earth.jpg","images/rocket2","images/rocket1","null","images/rocket2","","1","real","null","2","","",""
"d3-animate-choice","161","1476646","0.0-77.0-1.8","1850","5748","13","Female","true","false","true","false","""event"",""trial"",""time""
""blur"",""3"",""56510""
""focus"",""3"",""56807""
""fullscreenenter"",""5"",""92168""
","""event"",""trial"",""time""
""blur"",""3"",""56510""
","""event"",""trial"",""time""
""focus"",""3"",""56807""
","""event"",""trial"",""time""
""fullscreenenter"",""5"",""92168""
","
","341.30000000074506","","48","","","3000","1","","","images/redplanet1.jpg","images/alien2","images/alien1","images/rocket2","images/alien2","images/t.png","2","real","true","2","common","1","2023-01-21 02:32:05.160"
"two-step-fixation","162","1477653","0.0-77.0-2.8","1850","5748","13","Female","true","false","true","false","""event"",""trial"",""time""
""blur"",""3"",""56510""
""focus"",""3"",""56807""
""fullscreenenter"",""5"",""92168""
","""event"",""trial"",""time""
""blur"",""3"",""56510""
","""event"",""trial"",""time""
""focus"",""3"",""56807""
","""event"",""trial"",""time""
""fullscreenenter"",""5"",""92168""
","
","","images/earth.jpg","","","","","","","","","","","","","","fixation","","","","","",""
"d3-animate-choice","163","1479982","0.0-77.0-0.9","1850","5748","13","Female","true","false","true","false","""event"",""trial"",""time""
""blur"",""3"",""56510""
""focus"",""3"",""56807""
""fullscreenenter"",""5"",""92168""
","""event"",""trial"",""time""
""blur"",""3"",""56510""
","""event"",""trial"",""time""
""focus"",""3"",""56807""
","""event"",""trial"",""time""
""fullscreenenter"",""5"",""92168""
","
","311.7999999988824","","49","","","3000","1","","","images/earth.jpg","images/rocket2","images/rocket1","null","images/rocket1","","1","real","null","1","","",""
"d3-animate-choice","164","1482526","0.0-77.0-1.9","1850","5748","13","Female","true","false","true","false","""event"",""trial"",""time""
""blur"",""3"",""56510""
""focus"",""3"",""56807""
""fullscreenenter"",""5"",""92168""
","""event"",""trial"",""time""
""blur"",""3"",""56510""
","""event"",""trial"",""time""
""focus"",""3"",""56807""
","""event"",""trial"",""time""
""fullscreenenter"",""5"",""92168""
","
","532.6999999992549","","48","","","3000","1","","","images/purpleplanet.jpg","images/alien4","images/alien3","images/rocket1","images/alien4","images/t.png","2","real","true","2","common","1","2023-01-21 02:32:11.041"
"two-step-fixation","165","1483546","0.0-77.0-2.9","1850","5748","13","Female","true","false","true","false","""event"",""trial"",""time""
""blur"",""3"",""56510""
""focus"",""3"",""56807""
""fullscreenenter"",""5"",""92168""
","""event"",""trial"",""time""
""blur"",""3"",""56510""
","""event"",""trial"",""time""
""focus"",""3"",""56807""
","""event"",""trial"",""time""
""fullscreenenter"",""5"",""92168""
","
","","images/earth.jpg","","","","","","","","","","","","","","fixation","","","","","",""
"d3-animate-choice","166","1487566","0.0-77.0-0.10","1850","5748","13","Female","true","false","true","false","""event"",""trial"",""time""
""blur"",""3"",""56510""
""focus"",""3"",""56807""
""fullscreenenter"",""5"",""92168""
","""event"",""trial"",""time""
""blur"",""3"",""56510""
","""event"",""trial"",""time""
""focus"",""3"",""56807""
","""event"",""trial"",""time""
""fullscreenenter"",""5"",""92168""
","
","2584.5999999996275","","48","","","3000","1","","","images/earth.jpg","images/rocket2","images/rocket1","null","images/rocket2","","1","real","null","2","","",""
"d3-animate-choice","167","1490492","0.0-77.0-1.10","1850","5748","13","Female","true","false","true","false","""event"",""trial"",""time""
""blur"",""3"",""56510""
""focus"",""3"",""56807""
""fullscreenenter"",""5"",""92168""
","""event"",""trial"",""time""
""blur"",""3"",""56510""
","""event"",""trial"",""time""
""focus"",""3"",""56807""
","""event"",""trial"",""time""
""fullscreenenter"",""5"",""92168""
","
","914.0999999996275","","48","","","3000","1","","","images/redplanet1.jpg","images/alien2","images/alien1","images/rocket2","images/alien2","images/nothing.png","2","real","true","2","common","0","2023-01-21 02:32:19.006"
"two-step-fixation","168","1491502","0.0-77.0-2.10","1850","5748","13","Female","true","false","true","false","""event"",""trial"",""time""
""blur"",""3"",""56510""
""focus"",""3"",""56807""
""fullscreenenter"",""5"",""92168""
","""event"",""trial"",""time""
""blur"",""3"",""56510""
","""event"",""trial"",""time""
""focus"",""3"",""56807""
","""event"",""trial"",""time""
""fullscreenenter"",""5"",""92168""
","
","","images/earth.jpg","","","","","","","","","","","","","","fixation","","","","","",""
"d3-animate-choice","169","1494734","0.0-77.0-0.11","1850","5748","13","Female","true","false","true","false","""event"",""trial"",""time""
""blur"",""3"",""56510""
""focus"",""3"",""56807""
""fullscreenenter"",""5"",""92168""
","""event"",""trial"",""time""
""blur"",""3"",""56510""
","""event"",""trial"",""time""
""focus"",""3"",""56807""
","""event"",""trial"",""time""
""fullscreenenter"",""5"",""92168""
","
","1215.0999999996275","","49","","","3000","1","","","images/earth.jpg","images/rocket2","images/rocket1","null","images/rocket1","","1","real","null","1","","",""
"d3-animate-choice","170","1496838","0.0-77.0-1.11","1850","5748","13","Female","true","false","true","false","""event"",""trial"",""time""
""blur"",""3"",""56510""
""focus"",""3"",""56807""
""fullscreenenter"",""5"",""92168""
","""event"",""trial"",""time""
""blur"",""3"",""56510""
","""event"",""trial"",""time""
""focus"",""3"",""56807""
","""event"",""trial"",""time""
""fullscreenenter"",""5"",""92168""
","
","92.79999999888241","","48","","","3000","1","","","images/redplanet1.jpg","images/alien2","images/alien1","images/rocket1","images/alien2","images/t.png","2","real","false","2","rare","1","2023-01-21 02:32:25.352"
"two-step-fixation","171","1497854","0.0-77.0-2.11","1850","5748","13","Female","true","false","true","false","""event"",""trial"",""time""
""blur"",""3"",""56510""
""focus"",""3"",""56807""
""fullscreenenter"",""5"",""92168""
","""event"",""trial"",""time""
""blur"",""3"",""56510""
","""event"",""trial"",""time""
""focus"",""3"",""56807""
","""event"",""trial"",""time""
""fullscreenenter"",""5"",""92168""
","
","","images/earth.jpg","","","","","","","","","","","","","","fixation","","","","","",""
"d3-animate-choice","172","1500710","0.0-77.0-0.12","1850","5748","13","Female","true","false","true","false","""event"",""trial"",""time""
""blur"",""3"",""56510""
""focus"",""3"",""56807""
""fullscreenenter"",""5"",""92168""
","""event"",""trial"",""time""
""blur"",""3"",""56510""
","""event"",""trial"",""time""
""focus"",""3"",""56807""
","""event"",""trial"",""time""
""fullscreenenter"",""5"",""92168""
","
","840.9000000003725","","48","","","3000","1","","","images/earth.jpg","images/rocket2","images/rocket1","null","images/rocket2","","1","real","null","2","","",""
"d3-animate-choice","173","1504541","0.0-77.0-1.12","1850","5748","13","Female","true","false","true","false","""event"",""trial"",""time""
""blur"",""3"",""56510""
""focus"",""3"",""56807""
""fullscreenenter"",""5"",""92168""
","""event"",""trial"",""time""
""blur"",""3"",""56510""
","""event"",""trial"",""time""
""focus"",""3"",""56807""
","""event"",""trial"",""time""
""fullscreenenter"",""5"",""92168""
","
","1817.199999999255","","48","","","3000","1","","","images/redplanet1.jpg","images/alien2","images/alien1","images/rocket2","images/alien2","images/nothing.png","2","real","true","2","common","0","2023-01-21 02:32:33.056"
"two-step-fixation","174","1505551","0.0-77.0-2.12","1850","5748","13","Female","true","false","true","false","""event"",""trial"",""time""
""blur"",""3"",""56510""
""focus"",""3"",""56807""
""fullscreenenter"",""5"",""92168""
","""event"",""trial"",""time""
""blur"",""3"",""56510""
","""event"",""trial"",""time""
""focus"",""3"",""56807""
","""event"",""trial"",""time""
""fullscreenenter"",""5"",""92168""
","
","","images/earth.jpg","","","","","","","","","","","","","","fixation","","","","","",""
"d3-animate-choice","175","1508430","0.0-77.0-0.13","1850","5748","13","Female","true","false","true","false","""event"",""trial"",""time""
""blur"",""3"",""56510""
""focus"",""3"",""56807""
""fullscreenenter"",""5"",""92168""
","""event"",""trial"",""time""
""blur"",""3"",""56510""
","""event"",""trial"",""time""
""focus"",""3"",""56807""
","""event"",""trial"",""time""
""fullscreenenter"",""5"",""92168""
","
","866.2000000011176","","48","","","3000","1","","","images/earth.jpg","images/rocket2","images/rocket1","null","images/rocket2","","1","real","null","2","","",""
"d3-animate-choice","176","1511636","0.0-77.0-1.13","1850","5748","13","Female","true","false","true","false","""event"",""trial"",""time""
""blur"",""3"",""56510""
""focus"",""3"",""56807""
""fullscreenenter"",""5"",""92168""
","""event"",""trial"",""time""
""blur"",""3"",""56510""
","""event"",""trial"",""time""
""focus"",""3"",""56807""
","""event"",""trial"",""time""
""fullscreenenter"",""5"",""92168""
","
","1193.199999999255","","49","","","3000","1","","","images/redplanet1.jpg","images/alien2","images/alien1","images/rocket2","images/alien1","images/nothing.png","2","real","true","1","common","0","2023-01-21 02:32:40.151"
"two-step-fixation","177","1512646","0.0-77.0-2.13","1850","5748","13","Female","true","false","true","false","""event"",""trial"",""time""
""blur"",""3"",""56510""
""focus"",""3"",""56807""
""fullscreenenter"",""5"",""92168""
","""event"",""trial"",""time""
""blur"",""3"",""56510""
","""event"",""trial"",""time""
""focus"",""3"",""56807""
","""event"",""trial"",""time""
""fullscreenenter"",""5"",""92168""
","
","","images/earth.jpg","","","","","","","","","","","","","","fixation","","","","","",""
"d3-animate-choice","178","1516530","0.0-77.0-0.14","1850","5748","13","Female","true","false","true","false","""event"",""trial"",""time""
