"trial_type","trial_index","time_elapsed","internal_node_id","participant_id","subject_id","age","gender","rocket_sides","red_planet_first_rocket","red_display_order","purple_display_order","interactions","blur_events","focus_events","fullscreenenter_events","fullscreenexit_events","rt","stimulus","key_press","button_pressed","success","duration","valid_pressed","rts","keys","planet_text","right_text","left_text","center_text","chosen_text","reward_text","trial_stage","practice_trial","transition_type","choice","transition","reward","timestamp"
"pavlovia","0","4","0.0-0.0","3171","4981","20","Female","true","false","false","true","
","
","
","
","
","","","","","","","","","","","","","","","","","","","","","",""
"html-keyboard-response","1","5954","0.0-1.0","3171","4981","20","Female","true","false","false","true","
","
","
","
","
","5949","Welcome! Press the space bar to begin.","32","","","","","","","","","","","","","","","","","","",""
"audio-keyboard-response","2","8105","0.0-2.0","3171","4981","20","Female","true","false","false","true","
","
","
","
","
","1541","audio/beep_loop.wav","32","","","","","","","","","","","","","","","","","","",""
"audio-button-response","3","11144","0.0-3.0","3171","4981","20","Female","true","false","false","true","
","
","
","
","
","NaN","audio/fish.mp3","","1","","","","","","","","","","","","","","","","","",""
"audio-button-response","4","14360","0.0-4.0","3171","4981","20","Female","true","false","false","true","""event"",""trial"",""time""
""fullscreenenter"",""5"",""19022""
","
","
","""event"",""trial"",""time""
""fullscreenenter"",""5"",""19022""
","
","NaN","audio/tiger.mp3","","4","","","","","","","","","","","","","","","","","",""
"fullscreen","5","20023","0.0-5.0","3171","4981","20","Female","true","false","false","true","""event"",""trial"",""time""
""fullscreenenter"",""5"",""19022""
","
","
","""event"",""trial"",""time""
""fullscreenenter"",""5"",""19022""
","
","","","","","true","","","","","","","","","","","","","","","","",""
"d3-instructions","6","33937","0.0-6.0","3171","4981","20","Female","true","false","false","true","""event"",""trial"",""time""
""fullscreenenter"",""5"",""19022""
","
","
","""event"",""trial"",""time""
""fullscreenenter"",""5"",""19022""
","
","","","","","","","","","","","","","","","","","","","","","",""
"d3-instructions","7","43519","0.0-7.0","3171","4981","20","Female","true","false","false","true","""event"",""trial"",""time""
""fullscreenenter"",""5"",""19022""
","
","
","""event"",""trial"",""time""
""fullscreenenter"",""5"",""19022""
","
","","","","","","","","","","","","","","","","","","","","","",""
"d3-instructions","8","50917","0.0-8.0","3171","4981","20","Female","true","false","false","true","""event"",""trial"",""time""
""fullscreenenter"",""5"",""19022""
","
","
","""event"",""trial"",""time""
""fullscreenenter"",""5"",""19022""
","
","","","","","","","","","","","","","","","","","","","","","",""
"d3-instructions","9","63600","0.0-9.0","3171","4981","20","Female","true","false","false","true","""event"",""trial"",""time""
""fullscreenenter"",""5"",""19022""
","
","
","""event"",""trial"",""time""
""fullscreenenter"",""5"",""19022""
","
","","","","","","","","","","","","","","","","","","","","","",""
"d3-instructions","10","84077","0.0-10.0","3171","4981","20","Female","true","false","false","true","""event"",""trial"",""time""
""fullscreenenter"",""5"",""19022""
","
","
","""event"",""trial"",""time""
""fullscreenenter"",""5"",""19022""
","
","","","","","","","","","","","","","","","","","","","","","",""
"d3-animate-choice","11","88056","0.0-11.0","3171","4981","20","Female","true","false","false","true","""event"",""trial"",""time""
""fullscreenenter"",""5"",""19022""
","
","
","""event"",""trial"",""time""
""fullscreenenter"",""5"",""19022""
","
","1950.5999999998603","","49","","","3000","1","","","images/tutgreenplanet.jpg","images/tutalien1","images/tutalien2","null","images/tutalien2","","NA","practice","null","","","",""
"d3-animate-choice","12","90888","0.0-12.0","3171","4981","20","Female","true","false","false","true","""event"",""trial"",""time""
""fullscreenenter"",""5"",""19022""
","
","
","""event"",""trial"",""time""
""fullscreenenter"",""5"",""19022""
","
","814.7000000001863","","48","","","3000","1","","","images/tutgreenplanet.jpg","images/tutalien1","images/tutalien2","null","images/tutalien1","","NA","practice","null","","","",""
"d3-animate-choice","13","94206","0.0-13.0","3171","4981","20","Female","true","false","false","true","""event"",""trial"",""time""
""fullscreenenter"",""5"",""19022""
","
","
","""event"",""trial"",""time""
""fullscreenenter"",""5"",""19022""
","
","1304.4000000001397","","48","","","3000","1","","","images/tutgreenplanet.jpg","images/tutalien1","images/tutalien2","null","images/tutalien1","","NA","practice","null","","","",""
"d3-animate-choice","14","96745","0.0-14.0","3171","4981","20","Female","true","false","false","true","""event"",""trial"",""time""
""fullscreenenter"",""5"",""19022""
","
","
","""event"",""trial"",""time""
""fullscreenenter"",""5"",""19022""
","
","530.2000000001863","","49","","","3000","1","","","images/tutgreenplanet.jpg","images/tutalien1","images/tutalien2","null","images/tutalien2","","NA","practice","null","","","",""
"d3-instructions","15","104550","0.0-15.0","3171","4981","20","Female","true","false","false","true","""event"",""trial"",""time""
""fullscreenenter"",""5"",""19022""
","
","
","""event"",""trial"",""time""
""fullscreenenter"",""5"",""19022""
","
","","","","","","","","","","","","","","","","","","","","","",""
"d3-instructions","16","111968","0.0-16.0","3171","4981","20","Female","true","false","false","true","""event"",""trial"",""time""
""fullscreenenter"",""5"",""19022""
","
","
","""event"",""trial"",""time""
""fullscreenenter"",""5"",""19022""
","
","","","","","","","","","","","","","","","","","","","","","",""
"d3-instructions","17","121394","0.0-17.0","3171","4981","20","Female","true","false","false","true","""event"",""trial"",""time""
""fullscreenenter"",""5"",""19022""
","
","
","""event"",""trial"",""time""
""fullscreenenter"",""5"",""19022""
","
","","","","","","","","","","","","","","","","","","","","","",""
"d3-instructions","18","135942","0.0-18.0","3171","4981","20","Female","true","false","false","true","""event"",""trial"",""time""
""fullscreenenter"",""5"",""19022""
","
","
","""event"",""trial"",""time""
""fullscreenenter"",""5"",""19022""
","
","","","","","","","","","","","","","","","","","","","","","",""
"d3-instructions","19","151660","0.0-19.0","3171","4981","20","Female","true","false","false","true","""event"",""trial"",""time""
""fullscreenenter"",""5"",""19022""
","
","
","""event"",""trial"",""time""
""fullscreenenter"",""5"",""19022""
","
","","","","","","","","","","","","","","","","","","","","","",""
"d3-animate-choice","20","154736","0.0-20.0","3171","4981","20","Female","true","false","false","true","""event"",""trial"",""time""
""fullscreenenter"",""5"",""19022""
","
","
","""event"",""trial"",""time""
""fullscreenenter"",""5"",""19022""
","
","1064.6999999999534","","49","","","3000","1","","","images/tutyellowplanet.jpg","null","images/tutalien3","null","images/tutalien3","images/nothing.png","NA","practice","null","","","",""
"d3-animate-choice","21","157946","0.0-21.0","3171","4981","20","Female","true","false","false","true","""event"",""trial"",""time""
""fullscreenenter"",""5"",""19022""
","
","
","""event"",""trial"",""time""
""fullscreenenter"",""5"",""19022""
","
","1187","","49","","","3000","1","","","images/tutyellowplanet.jpg","null","images/tutalien3","null","images/tutalien3","images/nothing.png","NA","practice","null","","","",""
"d3-animate-choice","22","160856","0.0-22.0","3171","4981","20","Female","true","false","false","true","""event"",""trial"",""time""
""fullscreenenter"",""5"",""19022""
","
","
","""event"",""trial"",""time""
""fullscreenenter"",""5"",""19022""
","
","895.8999999999069","","49","","","3000","1","","","images/tutyellowplanet.jpg","null","images/tutalien3","null","images/tutalien3","images/nothing.png","NA","practice","null","","","",""
"d3-animate-choice","23","163335","0.0-23.0","3171","4981","20","Female","true","false","false","true","""event"",""trial"",""time""
""fullscreenenter"",""5"",""19022""
","
","
","""event"",""trial"",""time""
""fullscreenenter"",""5"",""19022""
","
","462.30000000004657","","49","","","3000","1","","","images/tutyellowplanet.jpg","null","images/tutalien3","null","images/tutalien3","images/t.png","NA","practice","null","","","",""
"d3-animate-choice","24","166086","0.0-24.0","3171","4981","20","Female","true","false","false","true","""event"",""trial"",""time""
""fullscreenenter"",""5"",""19022""
","
","
","""event"",""trial"",""time""
""fullscreenenter"",""5"",""19022""
","
","730.0999999998603","","49","","","3000","1","","","images/tutyellowplanet.jpg","null","images/tutalien3","null","images/tutalien3","images/t.png","NA","practice","null","","","",""
"d3-animate-choice","25","168545","0.0-25.0","3171","4981","20","Female","true","false","false","true","""event"",""trial"",""time""
""fullscreenenter"",""5"",""19022""
","
","
","""event"",""trial"",""time""
""fullscreenenter"",""5"",""19022""
","
","447.29999999981374","","49","","","3000","1","","","images/tutyellowplanet.jpg","null","images/tutalien3","null","images/tutalien3","images/t.png","NA","practice","null","","","",""
"d3-animate-choice","26","171166","0.0-26.0","3171","4981","20","Female","true","false","false","true","""event"",""trial"",""time""
""fullscreenenter"",""5"",""19022""
","
","
","""event"",""trial"",""time""
""fullscreenenter"",""5"",""19022""
","
","608.6000000000931","","49","","","3000","1","","","images/tutyellowplanet.jpg","null","images/tutalien3","null","images/tutalien3","images/t.png","NA","practice","null","","","",""
"d3-animate-choice","27","173954","0.0-27.0","3171","4981","20","Female","true","false","false","true","""event"",""trial"",""time""
""fullscreenenter"",""5"",""19022""
","
","
","""event"",""trial"",""time""
""fullscreenenter"",""5"",""19022""
","
","767.1000000000931","","49","","","3000","1","","","images/tutyellowplanet.jpg","null","images/tutalien3","null","images/tutalien3","images/t.png","NA","practice","null","","","",""
"d3-animate-choice","28","176381","0.0-28.0","3171","4981","20","Female","true","false","false","true","""event"",""trial"",""time""
""fullscreenenter"",""5"",""19022""
","
","
","""event"",""trial"",""time""
""fullscreenenter"",""5"",""19022""
","
","404.69999999995343","","49","","","3000","1","","","images/tutyellowplanet.jpg","null","images/tutalien3","null","images/tutalien3","images/t.png","NA","practice","null","","","",""
"d3-animate-choice","29","178887","0.0-29.0","3171","4981","20","Female","true","false","false","true","""event"",""trial"",""time""
""fullscreenenter"",""5"",""19022""
","
","
","""event"",""trial"",""time""
""fullscreenenter"",""5"",""19022""
","
","489","","49","","","3000","1","","","images/tutyellowplanet.jpg","null","images/tutalien3","null","images/tutalien3","images/t.png","NA","practice","null","","","",""
"d3-instructions","30","187182","0.0-30.0","3171","4981","20","Female","true","false","false","true","""event"",""trial"",""time""
""fullscreenenter"",""5"",""19022""
","
","
","""event"",""trial"",""time""
""fullscreenenter"",""5"",""19022""
","
","","","","","","","","","","","","","","","","","","","","","",""
"d3-instructions","31","198053","0.0-31.0","3171","4981","20","Female","true","false","false","true","""event"",""trial"",""time""
""fullscreenenter"",""5"",""19022""
","
","
","""event"",""trial"",""time""
""fullscreenenter"",""5"",""19022""
","
","","","","","","","","","","","","","","","","","","","","","",""
"d3-instructions","32","207297","0.0-32.0","3171","4981","20","Female","true","false","false","true","""event"",""trial"",""time""
""fullscreenenter"",""5"",""19022""
","
","
","""event"",""trial"",""time""
""fullscreenenter"",""5"",""19022""
","
","","","","","","","","","","","","","","","","","","","","","",""
"d3-instructions","33","217958","0.0-33.0","3171","4981","20","Female","true","false","false","true","""event"",""trial"",""time""
""fullscreenenter"",""5"",""19022""
","
","
","""event"",""trial"",""time""
""fullscreenenter"",""5"",""19022""
","
","","","","","","","","","","","","","","","","","","","","","",""
"d3-animate-choice","34","221046","0.0-34.0","3171","4981","20","Female","true","false","false","true","""event"",""trial"",""time""
""fullscreenenter"",""5"",""19022""
","
","
","""event"",""trial"",""time""
""fullscreenenter"",""5"",""19022""
","
","1078","","49","","","3000","1","","","images/tutgreenplanet.jpg","images/tutalien1","images/tutalien2","null","images/tutalien2","images/t.png","NA","practice","null","","","",""
"d3-animate-choice","35","223373","0.0-35.0","3171","4981","20","Female","true","false","false","true","""event"",""trial"",""time""
""fullscreenenter"",""5"",""19022""
","
","
","""event"",""trial"",""time""
""fullscreenenter"",""5"",""19022""
","
","313.80000000004657","","49","","","3000","1","","","images/tutgreenplanet.jpg","images/tutalien1","images/tutalien2","null","images/tutalien2","images/t.png","NA","practice","null","","","",""
"d3-animate-choice","36","225747","0.0-36.0","3171","4981","20","Female","true","false","false","true","""event"",""trial"",""time""
""fullscreenenter"",""5"",""19022""
","
","
","""event"",""trial"",""time""
""fullscreenenter"",""5"",""19022""
","
","352.80000000004657","","49","","","3000","1","","","images/tutgreenplanet.jpg","images/tutalien1","images/tutalien2","null","images/tutalien2","images/t.png","NA","practice","null","","","",""
"d3-animate-choice","37","228075","0.0-37.0","3171","4981","20","Female","true","false","false","true","""event"",""trial"",""time""
""fullscreenenter"",""5"",""19022""
","
","
","""event"",""trial"",""time""
""fullscreenenter"",""5"",""19022""
","
","319.4000000001397","","48","","","3000","1","","","images/tutgreenplanet.jpg","images/tutalien1","images/tutalien2","null","images/tutalien1","images/t.png","NA","practice","null","","","",""
"d3-animate-choice","38","230427","0.0-38.0","3171","4981","20","Female","true","false","false","true","""event"",""trial"",""time""
""fullscreenenter"",""5"",""19022""
","
","
","""event"",""trial"",""time""
""fullscreenenter"",""5"",""19022""
","
","320.29999999981374","","48","","","3000","1","","","images/tutgreenplanet.jpg","images/tutalien1","images/tutalien2","null","images/tutalien1","images/nothing.png","NA","practice","null","","","",""
"d3-animate-choice","39","232778","0.0-39.0","3171","4981","20","Female","true","false","false","true","""event"",""trial"",""time""
""fullscreenenter"",""5"",""19022""
","
","
","""event"",""trial"",""time""
""fullscreenenter"",""5"",""19022""
","
","340.70000000018626","","48","","","3000","1","","","images/tutgreenplanet.jpg","images/tutalien1","images/tutalien2","null","images/tutalien1","images/nothing.png","NA","practice","null","","","",""
"d3-animate-choice","40","235120","0.0-40.0","3171","4981","20","Female","true","false","false","true","""event"",""trial"",""time""
""fullscreenenter"",""5"",""19022""
","
","
","""event"",""trial"",""time""
""fullscreenenter"",""5"",""19022""
","
","329.9000000001397","","49","","","3000","1","","","images/tutgreenplanet.jpg","images/tutalien1","images/tutalien2","null","images/tutalien2","images/t.png","NA","practice","null","","","",""
"d3-animate-choice","41","237456","0.0-41.0","3171","4981","20","Female","true","false","false","true","""event"",""trial"",""time""
""fullscreenenter"",""5"",""19022""
","
","
","""event"",""trial"",""time""
""fullscreenenter"",""5"",""19022""
","
","328.30000000004657","","49","","","3000","1","","","images/tutgreenplanet.jpg","images/tutalien1","images/tutalien2","null","images/tutalien2","images/t.png","NA","practice","null","","","",""
"d3-animate-choice","42","239817","0.0-42.0","3171","4981","20","Female","true","false","false","true","""event"",""trial"",""time""
""fullscreenenter"",""5"",""19022""
","
","
","""event"",""trial"",""time""
""fullscreenenter"",""5"",""19022""
","
","353.9000000001397","","49","","","3000","1","","","images/tutgreenplanet.jpg","images/tutalien1","images/tutalien2","null","images/tutalien2","images/t.png","NA","practice","null","","","",""
"d3-animate-choice","43","242174","0.0-43.0","3171","4981","20","Female","true","false","false","true","""event"",""trial"",""time""
""fullscreenenter"",""5"",""19022""
","
","
","""event"",""trial"",""time""
""fullscreenenter"",""5"",""19022""
","
","353.89999999990687","","49","","","3000","1","","","images/tutgreenplanet.jpg","images/tutalien1","images/tutalien2","null","images/tutalien2","images/t.png","NA","practice","null","","","",""
"d3-instructions","44","256331","0.0-44.0","3171","4981","20","Female","true","false","false","true","""event"",""trial"",""time""
""fullscreenenter"",""5"",""19022""
","
","
","""event"",""trial"",""time""
""fullscreenenter"",""5"",""19022""
","
","","","","","","","","","","","","","","","","","","","","","",""
"d3-instructions","45","263486","0.0-45.0","3171","4981","20","Female","true","false","false","true","""event"",""trial"",""time""
""fullscreenenter"",""5"",""19022""
","
","
","""event"",""trial"",""time""
""fullscreenenter"",""5"",""19022""
","
","","","","","","","","","","","","","","","","","","","","","",""
"d3-instructions","46","269838","0.0-46.0","3171","4981","20","Female","true","false","false","true","""event"",""trial"",""time""
""fullscreenenter"",""5"",""19022""
","
","
","""event"",""trial"",""time""
""fullscreenenter"",""5"",""19022""
","
","","","","","","","","","","","","","","","","","","","","","",""
"d3-instructions","47","304487","0.0-47.0","3171","4981","20","Female","true","false","false","true","""event"",""trial"",""time""
""fullscreenenter"",""5"",""19022""
","
","
","""event"",""trial"",""time""
""fullscreenenter"",""5"",""19022""
","
","","","","","","","","","","","","","","","","","","","","","",""
"d3-instructions","48","311691","0.0-48.0","3171","4981","20","Female","true","false","false","true","""event"",""trial"",""time""
""fullscreenenter"",""5"",""19022""
","
","
","""event"",""trial"",""time""
""fullscreenenter"",""5"",""19022""
","
","","","","","","","","","","","","","","","","","","","","","",""
"d3-instructions","49","324057","0.0-49.0","3171","4981","20","Female","true","false","false","true","""event"",""trial"",""time""
""fullscreenenter"",""5"",""19022""
","
","
","""event"",""trial"",""time""
""fullscreenenter"",""5"",""19022""
","
","","","","","","","","","","","","","","","","","","","","","",""
"d3-instructions","50","333927","0.0-50.0","3171","4981","20","Female","true","false","false","true","""event"",""trial"",""time""
""fullscreenenter"",""5"",""19022""
","
","
","""event"",""trial"",""time""
""fullscreenenter"",""5"",""19022""
","
","","","","","","","","","","","","","","","","","","","","","",""
"d3-instructions","51","337057","0.0-51.0","3171","4981","20","Female","true","false","false","true","""event"",""trial"",""time""
""fullscreenenter"",""5"",""19022""
","
","
","""event"",""trial"",""time""
""fullscreenenter"",""5"",""19022""
","
","","","","","","","","","","","","","","","","","","","","","",""
"d3-instructions","52","340260","0.0-52.0","3171","4981","20","Female","true","false","false","true","""event"",""trial"",""time""
""fullscreenenter"",""5"",""19022""
","
","
","""event"",""trial"",""time""
""fullscreenenter"",""5"",""19022""
","
","","","","","","","","","","","","","","","","","","","","","",""
"d3-instructions","53","352556","0.0-53.0","3171","4981","20","Female","true","false","false","true","""event"",""trial"",""time""
""fullscreenenter"",""5"",""19022""
","
","
","""event"",""trial"",""time""
""fullscreenenter"",""5"",""19022""
","
","","","","","","","","","","","","","","","","","","","","","",""
"d3-instructions","54","365336","0.0-54.0","3171","4981","20","Female","true","false","false","true","""event"",""trial"",""time""
""fullscreenenter"",""5"",""19022""
","
","
","""event"",""trial"",""time""
""fullscreenenter"",""5"",""19022""
","
","","","","","","","","","","","","","","","","","","","","","",""
"d3-instructions","55","376080","0.0-55.0","3171","4981","20","Female","true","false","false","true","""event"",""trial"",""time""
""fullscreenenter"",""5"",""19022""
","
","
","""event"",""trial"",""time""
""fullscreenenter"",""5"",""19022""
","
","","","","","","","","","","","","","","","","","","","","","",""
"d3-instructions","56","385490","0.0-56.0","3171","4981","20","Female","true","false","false","true","""event"",""trial"",""time""
""fullscreenenter"",""5"",""19022""
","
","
","""event"",""trial"",""time""
""fullscreenenter"",""5"",""19022""
","
","","","","","","","","","","","","","","","","","","","","","",""
"d3-instructions","57","396281","0.0-57.0","3171","4981","20","Female","true","false","false","true","""event"",""trial"",""time""
""fullscreenenter"",""5"",""19022""
","
","
","""event"",""trial"",""time""
""fullscreenenter"",""5"",""19022""
","
","","","","","","","","","","","","","","","","","","","","","",""
"d3-instructions","58","407005","0.0-58.0","3171","4981","20","Female","true","false","false","true","""event"",""trial"",""time""
""fullscreenenter"",""5"",""19022""
","
","
","""event"",""trial"",""time""
""fullscreenenter"",""5"",""19022""
","
","","","","","","","","","","","","","","","","","","","","","",""
"d3-instructions","59","425891","0.0-59.0","3171","4981","20","Female","true","false","false","true","""event"",""trial"",""time""
""fullscreenenter"",""5"",""19022""
","
","
","""event"",""trial"",""time""
""fullscreenenter"",""5"",""19022""
","
","","","","","","","","","","","","","","","","","","","","","",""
"d3-instructions","60","432420","0.0-60.0","3171","4981","20","Female","true","false","false","true","""event"",""trial"",""time""
""fullscreenenter"",""5"",""19022""
","
","
","""event"",""trial"",""time""
""fullscreenenter"",""5"",""19022""
","
","","","","","","","","","","","","","","","","","","","","","",""
"d3-animate-choice","61","436441","0.0-61.0-0.0","3171","4981","20","Female","true","false","false","true","""event"",""trial"",""time""
""fullscreenenter"",""5"",""19022""
","
","
","""event"",""trial"",""time""
""fullscreenenter"",""5"",""19022""
","
","2117.5","","49","","","3000","1","","","images/earth.jpg","images/tutrocket2","images/tutrocket1","null","images/tutrocket1","","1","practice","null","1","","",""
"d3-animate-choice","62","439346","0.0-61.0-1.0","3171","4981","20","Female","true","false","false","true","""event"",""trial"",""time""
""fullscreenenter"",""5"",""19022""
","
","
","""event"",""trial"",""time""
""fullscreenenter"",""5"",""19022""
","
","882.4000000001397","","49","","","3000","1","","","images/tutgreenplanet.jpg","images/tutalien2","images/tutalien1","images/tutrocket1","images/tutalien1","images/nothing.png","2","practice","false","1","rare","0","2022-12-07 16:36:47.978"
"two-step-fixation","63","440363","0.0-61.0-2.0","3171","4981","20","Female","true","false","false","true","""event"",""trial"",""time""
""fullscreenenter"",""5"",""19022""
","
","
","""event"",""trial"",""time""
""fullscreenenter"",""5"",""19022""
","
","","images/earth.jpg","","","","","","","","","","","","","","fixation","","","","","",""
"d3-animate-choice","64","442957","0.0-61.0-0.1","3171","4981","20","Female","true","false","false","true","""event"",""trial"",""time""
""fullscreenenter"",""5"",""19022""
","
","
","""event"",""trial"",""time""
""fullscreenenter"",""5"",""19022""
","
","575.3000000000466","","49","","","3000","1","","","images/earth.jpg","images/tutrocket2","images/tutrocket1","null","images/tutrocket1","","1","practice","null","1","","",""
"d3-animate-choice","65","445946","0.0-61.0-1.1","3171","4981","20","Female","true","false","false","true","""event"",""trial"",""time""
""fullscreenenter"",""5"",""19022""
","
","
","""event"",""trial"",""time""
""fullscreenenter"",""5"",""19022""
","
","976.3999999999069","","48","","","3000","1","","","images/tutyellowplanet.jpg","images/tutalien4","images/tutalien3","images/tutrocket1","images/tutalien4","images/t.png","2","practice","true","2","common","1","2022-12-07 16:36:54.578"
"two-step-fixation","66","446966","0.0-61.0-2.1","3171","4981","20","Female","true","false","false","true","""event"",""trial"",""time""
""fullscreenenter"",""5"",""19022""
","
","
","""event"",""trial"",""time""
""fullscreenenter"",""5"",""19022""
","
","","images/earth.jpg","","","","","","","","","","","","","","fixation","","","","","",""
"d3-animate-choice","67","449536","0.0-61.0-0.2","3171","4981","20","Female","true","false","false","true","""event"",""trial"",""time""
""fullscreenenter"",""5"",""19022""
","
","
","""event"",""trial"",""time""
""fullscreenenter"",""5"",""19022""
","
","549","","49","","","3000","1","","","images/earth.jpg","images/tutrocket2","images/tutrocket1","null","images/tutrocket1","","1","practice","null","1","","",""
"d3-animate-choice","68","452455","0.0-61.0-1.2","3171","4981","20","Female","true","false","false","true","""event"",""trial"",""time""
""fullscreenenter"",""5"",""19022""
","
","
","""event"",""trial"",""time""
""fullscreenenter"",""5"",""19022""
","
","914.0999999998603","","49","","","3000","1","","","images/tutyellowplanet.jpg","images/tutalien4","images/tutalien3","images/tutrocket1","images/tutalien3","images/t.png","2","practice","true","1","common","1","2022-12-07 16:37:01.088"
"two-step-fixation","69","453465","0.0-61.0-2.2","3171","4981","20","Female","true","false","false","true","""event"",""trial"",""time""
""fullscreenenter"",""5"",""19022""
","
","
","""event"",""trial"",""time""
""fullscreenenter"",""5"",""19022""
","
","","images/earth.jpg","","","","","","","","","","","","","","fixation","","","","","",""
"d3-animate-choice","70","455766","0.0-61.0-0.3","3171","4981","20","Female","true","false","false","true","""event"",""trial"",""time""
""fullscreenenter"",""5"",""19022""
","
","
","""event"",""trial"",""time""
""fullscreenenter"",""5"",""19022""
","
","286.69999999995343","","48","","","3000","1","","","images/earth.jpg","images/tutrocket2","images/tutrocket1","null","images/tutrocket2","","1","practice","null","2","","",""
"d3-animate-choice","71","458366","0.0-61.0-1.3","3171","4981","20","Female","true","false","false","true","""event"",""trial"",""time""
""fullscreenenter"",""5"",""19022""
","
","
","""event"",""trial"",""time""
""fullscreenenter"",""5"",""19022""
","
","580.6999999999534","","48","","","3000","1","","","images/tutyellowplanet.jpg","images/tutalien4","images/tutalien3","images/tutrocket2","images/tutalien4","images/t.png","2","practice","false","2","rare","1","2022-12-07 16:37:06.998"
"two-step-fixation","72","459385","0.0-61.0-2.3","3171","4981","20","Female","true","false","false","true","""event"",""trial"",""time""
""fullscreenenter"",""5"",""19022""
","
","
","""event"",""trial"",""time""
""fullscreenenter"",""5"",""19022""
","
","","images/earth.jpg","","","","","","","","","","","","","","fixation","","","","","",""
"d3-animate-choice","73","461736","0.0-61.0-0.4","3171","4981","20","Female","true","false","false","true","""event"",""trial"",""time""
""fullscreenenter"",""5"",""19022""
","
","
","""event"",""trial"",""time""
""fullscreenenter"",""5"",""19022""
","
","339.10000000009313","","48","","","3000","1","","","images/earth.jpg","images/tutrocket2","images/tutrocket1","null","images/tutrocket2","","1","practice","null","2","","",""
"d3-animate-choice","74","464709","0.0-61.0-1.4","3171","4981","20","Female","true","false","false","true","""event"",""trial"",""time""
""fullscreenenter"",""5"",""19022""
","
","
","""event"",""trial"",""time""
""fullscreenenter"",""5"",""19022""
","
","955","","49","","","3000","1","","","images/tutgreenplanet.jpg","images/tutalien2","images/tutalien1","images/tutrocket2","images/tutalien1","images/nothing.png","2","practice","true","1","common","0","2022-12-07 16:37:13.341"
"two-step-fixation","75","465726","0.0-61.0-2.4","3171","4981","20","Female","true","false","false","true","""event"",""trial"",""time""
""fullscreenenter"",""5"",""19022""
","
","
","""event"",""trial"",""time""
""fullscreenenter"",""5"",""19022""
","
","","images/earth.jpg","","","","","","","","","","","","","","fixation","","","","","",""
"d3-animate-choice","76","468109","0.0-61.0-0.5","3171","4981","20","Female","true","false","false","true","""event"",""trial"",""time""
""fullscreenenter"",""5"",""19022""
","
","
","""event"",""trial"",""time""
""fullscreenenter"",""5"",""19022""
","
","357.39999999990687","","48","","","3000","1","","","images/earth.jpg","images/tutrocket2","images/tutrocket1","null","images/tutrocket2","","1","practice","null","2","","",""
"d3-animate-choice","77","470619","0.0-61.0-1.5","3171","4981","20","Female","true","false","false","true","""event"",""trial"",""time""
""fullscreenenter"",""5"",""19022""
","
","
","""event"",""trial"",""time""
""fullscreenenter"",""5"",""19022""
","
","493.89999999990687","","49","","","3000","1","","","images/tutgreenplanet.jpg","images/tutalien2","images/tutalien1","images/tutrocket2","images/tutalien1","images/nothing.png","2","practice","true","1","common","0","2022-12-07 16:37:19.251"
"two-step-fixation","78","471645","0.0-61.0-2.5","3171","4981","20","Female","true","false","false","true","""event"",""trial"",""time""
""fullscreenenter"",""5"",""19022""
","
","
","""event"",""trial"",""time""
""fullscreenenter"",""5"",""19022""
","
","","images/earth.jpg","","","","","","","","","","","","","","fixation","","","","","",""
"d3-animate-choice","79","474382","0.0-61.0-0.6","3171","4981","20","Female","true","false","false","true","""event"",""trial"",""time""
""fullscreenenter"",""5"",""19022""
","
","
","""event"",""trial"",""time""
""fullscreenenter"",""5"",""19022""
","
","728.2999999998137","","49","","","3000","1","","","images/earth.jpg","images/tutrocket2","images/tutrocket1","null","images/tutrocket1","","1","practice","null","1","","",""
"d3-animate-choice","80","476875","0.0-61.0-1.6","3171","4981","20","Female","true","false","false","true","""event"",""trial"",""time""
""fullscreenenter"",""5"",""19022""
","
","
","""event"",""trial"",""time""
""fullscreenenter"",""5"",""19022""
","
","477.79999999981374","","49","","","3000","1","","","images/tutgreenplanet.jpg","images/tutalien2","images/tutalien1","images/tutrocket1","images/tutalien1","images/nothing.png","2","practice","false","1","rare","0","2022-12-07 16:37:25.507"
"two-step-fixation","81","477892","0.0-61.0-2.6","3171","4981","20","Female","true","false","false","true","""event"",""trial"",""time""
""fullscreenenter"",""5"",""19022""
","
","
","""event"",""trial"",""time""
""fullscreenenter"",""5"",""19022""
","
","","images/earth.jpg","","","","","","","","","","","","","","fixation","","","","","",""
"d3-animate-choice","82","480215","0.0-61.0-0.7","3171","4981","20","Female","true","false","false","true","""event"",""trial"",""time""
""fullscreenenter"",""5"",""19022""
","
","
","""event"",""trial"",""time""
""fullscreenenter"",""5"",""19022""
","
","314.80000000004657","","49","","","3000","1","","","images/earth.jpg","images/tutrocket2","images/tutrocket1","null","images/tutrocket1","","1","practice","null","1","","",""
"d3-animate-choice","83","482810","0.0-61.0-1.7","3171","4981","20","Female","true","false","false","true","""event"",""trial"",""time""
""fullscreenenter"",""5"",""19022""
","
","
","""event"",""trial"",""time""
""fullscreenenter"",""5"",""19022""
","
","585.6000000000931","","48","","","3000","1","","","images/tutgreenplanet.jpg","images/tutalien2","images/tutalien1","images/tutrocket1","images/tutalien2","images/nothing.png","2","practice","false","2","rare","0","2022-12-07 16:37:31.442"
"two-step-fixation","84","483833","0.0-61.0-2.7","3171","4981","20","Female","true","false","false","true","""event"",""trial"",""time""
""fullscreenenter"",""5"",""19022""
","
","
","""event"",""trial"",""time""
""fullscreenenter"",""5"",""19022""
","
","","images/earth.jpg","","","","","","","","","","","","","","fixation","","","","","",""
"d3-animate-choice","85","486125","0.0-61.0-0.8","3171","4981","20","Female","true","false","false","true","""event"",""trial"",""time""
""fullscreenenter"",""5"",""19022""
","
","
","""event"",""trial"",""time""
""fullscreenenter"",""5"",""19022""
","
","276.29999999981374","","49","","","3000","1","","","images/earth.jpg","images/tutrocket2","images/tutrocket1","null","images/tutrocket1","","1","practice","null","1","","",""
"d3-animate-choice","86","488875","0.0-61.0-1.8","3171","4981","20","Female","true","false","false","true","""event"",""trial"",""time""
""fullscreenenter"",""5"",""19022""
","
","
","""event"",""trial"",""time""
""fullscreenenter"",""5"",""19022""
","
","730.5","","49","","","3000","1","","","images/tutgreenplanet.jpg","images/tutalien2","images/tutalien1","images/tutrocket1","images/tutalien1","images/t.png","2","practice","false","1","rare","1","2022-12-07 16:37:37.507"
"two-step-fixation","87","489893","0.0-61.0-2.8","3171","4981","20","Female","true","false","false","true","""event"",""trial"",""time""
""fullscreenenter"",""5"",""19022""
","
","
","""event"",""trial"",""time""
""fullscreenenter"",""5"",""19022""
","
","","images/earth.jpg","","","","","","","","","","","","","","fixation","","","","","",""
"d3-animate-choice","88","492210","0.0-61.0-0.9","3171","4981","20","Female","true","false","false","true","""event"",""trial"",""time""
""fullscreenenter"",""5"",""19022""
","
","
","""event"",""trial"",""time""
""fullscreenenter"",""5"",""19022""
","
","307.70000000018626","","49","","","3000","1","","","images/earth.jpg","images/tutrocket2","images/tutrocket1","null","images/tutrocket1","","1","practice","null","1","","",""
"d3-animate-choice","89","494866","0.0-61.0-1.9","3171","4981","20","Female","true","false","false","true","""event"",""trial"",""time""
""fullscreenenter"",""5"",""19022""
","
","
","""event"",""trial"",""time""
""fullscreenenter"",""5"",""19022""
","
","647.5","","48","","","3000","1","","","images/tutgreenplanet.jpg","images/tutalien2","images/tutalien1","images/tutrocket1","images/tutalien2","images/nothing.png","2","practice","false","2","rare","0","2022-12-07 16:37:43.498"
"two-step-fixation","90","495882","0.0-61.0-2.9","3171","4981","20","Female","true","false","false","true","""event"",""trial"",""time""
""fullscreenenter"",""5"",""19022""
","
","
","""event"",""trial"",""time""
""fullscreenenter"",""5"",""19022""
","
","","images/earth.jpg","","","","","","","","","","","","","","fixation","","","","","",""
"d3-animate-choice","91","498176","0.0-61.0-0.10","3171","4981","20","Female","true","false","false","true","""event"",""trial"",""time""
""fullscreenenter"",""5"",""19022""
","
","
","""event"",""trial"",""time""
""fullscreenenter"",""5"",""19022""
","
","284.69999999995343","","49","","","3000","1","","","images/earth.jpg","images/tutrocket2","images/tutrocket1","null","images/tutrocket1","","1","practice","null","1","","",""
"d3-animate-choice","92","501565","0.0-61.0-1.10","3171","4981","20","Female","true","false","false","true","""event"",""trial"",""time""
""fullscreenenter"",""5"",""19022""
","
","
","""event"",""trial"",""time""
""fullscreenenter"",""5"",""19022""
","
","1375.8000000000466","","49","","","3000","1","","","images/tutyellowplanet.jpg","images/tutalien4","images/tutalien3","images/tutrocket1","images/tutalien3","images/nothing.png","2","practice","true","1","common","0","2022-12-07 16:37:50.197"
"two-step-fixation","93","502575","0.0-61.0-2.10","3171","4981","20","Female","true","false","false","true","""event"",""trial"",""time""
""fullscreenenter"",""5"",""19022""
","
","
","""event"",""trial"",""time""
""fullscreenenter"",""5"",""19022""
","
","","images/earth.jpg","","","","","","","","","","","","","","fixation","","","","","",""
"d3-animate-choice","94","504957","0.0-61.0-0.11","3171","4981","20","Female","true","false","false","true","""event"",""trial"",""time""
""fullscreenenter"",""5"",""19022""
","
","
","""event"",""trial"",""time""
""fullscreenenter"",""5"",""19022""
","
","365.20000000018626","","48","","","3000","1","","","images/earth.jpg","images/tutrocket2","images/tutrocket1","null","images/tutrocket2","","1","practice","null","2","","",""
"d3-animate-choice","95","508575","0.0-61.0-1.11","3171","4981","20","Female","true","false","false","true","""event"",""trial"",""time""
""fullscreenenter"",""5"",""19022""
","
","
","""event"",""trial"",""time""
""fullscreenenter"",""5"",""19022""
","
","1607.1999999999534","","48","","","3000","1","","","images/tutgreenplanet.jpg","images/tutalien2","images/tutalien1","images/tutrocket2","images/tutalien2","images/nothing.png","2","practice","true","2","common","0","2022-12-07 16:37:57.207"
"two-step-fixation","96","509585","0.0-61.0-2.11","3171","4981","20","Female","true","false","false","true","""event"",""trial"",""time""
""fullscreenenter"",""5"",""19022""
","
","
","""event"",""trial"",""time""
""fullscreenenter"",""5"",""19022""
","
","","images/earth.jpg","","","","","","","","","","","","","","fixation","","","","","",""
"d3-animate-choice","97","511929","0.0-61.0-0.12","3171","4981","20","Female","true","false","false","true","""event"",""trial"",""time""
""fullscreenenter"",""5"",""19022""
","
","
","""event"",""trial"",""time""
""fullscreenenter"",""5"",""19022""
","
","329.5","","48","","","3000","1","","","images/earth.jpg","images/tutrocket2","images/tutrocket1","null","images/tutrocket2","","1","practice","null","2","","",""
"d3-animate-choice","98","514516","0.0-61.0-1.12","3171","4981","20","Female","true","false","false","true","""event"",""trial"",""time""
""fullscreenenter"",""5"",""19022""
","
","
","""event"",""trial"",""time""
""fullscreenenter"",""5"",""19022""
","
","574.6999999999534","","49","","","3000","1","","","images/tutgreenplanet.jpg","images/tutalien2","images/tutalien1","images/tutrocket2","images/tutalien1","images/t.png","2","practice","true","1","common","1","2022-12-07 16:38:03.148"
"two-step-fixation","99","515536","0.0-61.0-2.12","3171","4981","20","Female","true","false","false","true","""event"",""trial"",""time""
""fullscreenenter"",""5"",""19022""
","
","
","""event"",""trial"",""time""
""fullscreenenter"",""5"",""19022""
","
","","images/earth.jpg","","","","","","","","","","","","","","fixation","","","","","",""
"d3-animate-choice","100","517835","0.0-61.0-0.13","3171","4981","20","Female","true","false","false","true","""event"",""trial"",""time""
""fullscreenenter"",""5"",""19022""
","
","
","""event"",""trial"",""time""
""fullscreenenter"",""5"",""19022""
","
","287.10000000009313","","48","","","3000","1","","","images/earth.jpg","images/tutrocket2","images/tutrocket1","null","images/tutrocket2","","1","practice","null","2","","",""
"d3-animate-choice","101","520758","0.0-61.0-1.13","3171","4981","20","Female","true","false","false","true","""event"",""trial"",""time""
""fullscreenenter"",""5"",""19022""
","
","
","""event"",""trial"",""time""
""fullscreenenter"",""5"",""19022""
","
","909","","49","","","3000","1","","","images/tutgreenplanet.jpg","images/tutalien2","images/tutalien1","images/tutrocket2","images/tutalien1","images/nothing.png","2","practice","true","1","common","0","2022-12-07 16:38:09.390"
"two-step-fixation","102","521774","0.0-61.0-2.13","3171","4981","20","Female","true","false","false","true","""event"",""trial"",""time""
""fullscreenenter"",""5"",""19022""
","
","
","""event"",""trial"",""time""
""fullscreenenter"",""5"",""19022""
","
","","images/earth.jpg","","","","","","","","","","","","","","fixation","","","","","",""
"d3-animate-choice","103","524247","0.0-61.0-0.14","3171","4981","20","Female","true","false","false","true","""event"",""trial"",""time""
""fullscreenenter"",""5"",""19022""
","
","
","""event"",""trial"",""time""
""fullscreenenter"",""5"",""19022""
","
","468","","48","","","3000","1","","","images/earth.jpg","images/tutrocket2","images/tutrocket1","null","images/tutrocket2","","1","practice","null","2","","",""
"d3-animate-choice","104","526991","0.0-61.0-1.14","3171","4981","20","Female","true","false","false","true","""event"",""trial"",""time""
""fullscreenenter"",""5"",""19022""
","
","
","""event"",""trial"",""time""
""fullscreenenter"",""5"",""19022""
","
","735.8000000000466","","49","","","3000","1","","","images/tutgreenplanet.jpg","images/tutalien2","images/tutalien1","images/tutrocket2","images/tutalien1","images/t.png","2","practice","true","1","common","1","2022-12-07 16:38:15.623"
"two-step-fixation","105","527997","0.0-61.0-2.14","3171","4981","20","Female","true","false","false","true","""event"",""trial"",""time""
""fullscreenenter"",""5"",""19022""
","
","
","""event"",""trial"",""time""
""fullscreenenter"",""5"",""19022""
","
","","images/earth.jpg","","","","","","","","","","","","","","fixation","","","","","",""
"d3-animate-choice","106","530331","0.0-61.0-0.15","3171","4981","20","Female","true","false","false","true","""event"",""trial"",""time""
""fullscreenenter"",""5"",""19022""
","
","
","""event"",""trial"",""time""
""fullscreenenter"",""5"",""19022""
","
","317.60000000009313","","48","","","3000","1","","","images/earth.jpg","images/tutrocket2","images/tutrocket1","null","images/tutrocket2","","1","practice","null","2","","",""
"d3-animate-choice","107","532930","0.0-61.0-1.15","3171","4981","20","Female","true","false","false","true","""event"",""trial"",""time""
""fullscreenenter"",""5"",""19022""
","
","
","""event"",""trial"",""time""
""fullscreenenter"",""5"",""19022""
","
","591.6999999999534","","48","","","3000","1","","","images/tutgreenplanet.jpg","images/tutalien2","images/tutalien1","images/tutrocket2","images/tutalien2","images/t.png","2","practice","true","2","common","1","2022-12-07 16:38:21.562"
"two-step-fixation","108","533939","0.0-61.0-2.15","3171","4981","20","Female","true","false","false","true","""event"",""trial"",""time""
""fullscreenenter"",""5"",""19022""
","
","
","""event"",""trial"",""time""
""fullscreenenter"",""5"",""19022""
","
","","images/earth.jpg","","","","","","","","","","","","","","fixation","","","","","",""
"d3-animate-choice","109","536340","0.0-61.0-0.16","3171","4981","20","Female","true","false","false","true","""event"",""trial"",""time""
""fullscreenenter"",""5"",""19022""
","
","
","""event"",""trial"",""time""
""fullscreenenter"",""5"",""19022""
","
","388","","48","","","3000","1","","","images/earth.jpg","images/tutrocket2","images/tutrocket1","null","images/tutrocket2","","1","practice","null","2","","",""
"d3-animate-choice","110","539197","0.0-61.0-1.16","3171","4981","20","Female","true","false","false","true","""event"",""trial"",""time""
""fullscreenenter"",""5"",""19022""
","
","
","""event"",""trial"",""time""
""fullscreenenter"",""5"",""19022""
","
","841.5","","48","","","3000","1","","","images/tutgreenplanet.jpg","images/tutalien2","images/tutalien1","images/tutrocket2","images/tutalien2","images/nothing.png","2","practice","true","2","common","0","2022-12-07 16:38:27.829"
"two-step-fixation","111","540209","0.0-61.0-2.16","3171","4981","20","Female","true","false","false","true","""event"",""trial"",""time""
""fullscreenenter"",""5"",""19022""
","
","
","""event"",""trial"",""time""
""fullscreenenter"",""5"",""19022""
","
","","images/earth.jpg","","","","","","","","","","","","","","fixation","","","","","",""
"d3-animate-choice","112","542550","0.0-61.0-0.17","3171","4981","20","Female","true","false","false","true","""event"",""trial"",""time""
""fullscreenenter"",""5"",""19022""
","
","
","""event"",""trial"",""time""
""fullscreenenter"",""5"",""19022""
","
","326.4000000001397","","48","","","3000","1","","","images/earth.jpg","images/tutrocket2","images/tutrocket1","null","images/tutrocket2","","1","practice","null","2","","",""
"d3-animate-choice","113","545063","0.0-61.0-1.17","3171","4981","20","Female","true","false","false","true","""event"",""trial"",""time""
""fullscreenenter"",""5"",""19022""
","
","
","""event"",""trial"",""time""
""fullscreenenter"",""5"",""19022""
","
","502","","49","","","3000","1","","","images/tutgreenplanet.jpg","images/tutalien2","images/tutalien1","images/tutrocket2","images/tutalien1","images/nothing.png","2","practice","true","1","common","0","2022-12-07 16:38:33.695"
"two-step-fixation","114","546072","0.0-61.0-2.17","3171","4981","20","Female","true","false","false","true","""event"",""trial"",""time""
""fullscreenenter"",""5"",""19022""
","
","
","""event"",""trial"",""time""
""fullscreenenter"",""5"",""19022""
","
","","images/earth.jpg","","","","","","","","","","","","","","fixation","","","","","",""
"d3-animate-choice","115","548363","0.0-61.0-0.18","3171","4981","20","Female","true","false","false","true","""event"",""trial"",""time""
""fullscreenenter"",""5"",""19022""
","
","
","""event"",""trial"",""time""
""fullscreenenter"",""5"",""19022""
","
","275.0999999998603","","49","","","3000","1","","","images/earth.jpg","images/tutrocket2","images/tutrocket1","null","images/tutrocket1","","1","practice","null","1","","",""
"d3-animate-choice","116","551480","0.0-61.0-1.18","3171","4981","20","Female","true","false","false","true","""event"",""trial"",""time""
""fullscreenenter"",""5"",""19022""
","
","
","""event"",""trial"",""time""
""fullscreenenter"",""5"",""19022""
","
","1105.1000000000931","","49","","","3000","1","","","images/tutyellowplanet.jpg","images/tutalien4","images/tutalien3","images/tutrocket1","images/tutalien3","images/t.png","2","practice","true","1","common","1","2022-12-07 16:38:40.112"
"two-step-fixation","117","552491","0.0-61.0-2.18","3171","4981","20","Female","true","false","false","true","""event"",""trial"",""time""
""fullscreenenter"",""5"",""19022""
","
","
","""event"",""trial"",""time""
""fullscreenenter"",""5"",""19022""
","
","","images/earth.jpg","","","","","","","","","","","","","","fixation","","","","","",""
"d3-animate-choice","118","554800","0.0-61.0-0.19","3171","4981","20","Female","true","false","false","true","""event"",""trial"",""time""
""fullscreenenter"",""5"",""19022""
","
","
","""event"",""trial"",""time""
""fullscreenenter"",""5"",""19022""
","
","299.80000000004657","","49","","","3000","1","","","images/earth.jpg","images/tutrocket2","images/tutrocket1","null","images/tutrocket1","","1","practice","null","1","","",""
"d3-animate-choice","119","558114","0.0-61.0-1.19","3171","4981","20","Female","true","false","false","true","""event"",""trial"",""time""
""fullscreenenter"",""5"",""19022""
","
","
","""event"",""trial"",""time""
""fullscreenenter"",""5"",""19022""
","
","1305.8000000000466","","49","","","3000","1","","","images/tutyellowplanet.jpg","images/tutalien4","images/tutalien3","images/tutrocket1","images/tutalien3","images/nothing.png","2","practice","true","1","common","0","2022-12-07 16:38:46.746"
"two-step-fixation","120","559134","0.0-61.0-2.19","3171","4981","20","Female","true","false","false","true","""event"",""trial"",""time""
""fullscreenenter"",""5"",""19022""
","
","
","""event"",""trial"",""time""
""fullscreenenter"",""5"",""19022""
","
","","images/earth.jpg","","","","","","","","","","","","","","fixation","","","","","",""
"d3-instructions","121","564301","0.0-62.0","3171","4981","20","Female","true","false","false","true","""event"",""trial"",""time""
""fullscreenenter"",""5"",""19022""
","
","
","""event"",""trial"",""time""
""fullscreenenter"",""5"",""19022""
","
","","","","","","","","","","","","","","","","","","","","","",""
"audio-keyboard-response","122","569489","0.0-63.0","3171","4981","20","Female","true","false","false","true","""event"",""trial"",""time""
""fullscreenenter"",""5"",""19022""
","
","
","""event"",""trial"",""time""
""fullscreenenter"",""5"",""19022""
","
","5189","audio/instructions/treasure_feedback.wav","32","","","","","","","","","","","","","","","","","","",""
"d3-instructions","123","589528","0.0-64.0","3171","4981","20","Female","true","false","false","true","""event"",""trial"",""time""
""fullscreenenter"",""5"",""19022""
","
","
","""event"",""trial"",""time""
""fullscreenenter"",""5"",""19022""
","
","","","","","","","","","","","","","","","","","","","","","",""
"d3-instructions","124","605735","0.0-65.0","3171","4981","20","Female","true","false","false","true","""event"",""trial"",""time""
""fullscreenenter"",""5"",""19022""
","
","
","""event"",""trial"",""time""
""fullscreenenter"",""5"",""19022""
","
","","","","","","","","","","","","","","","","","","","","","",""
"d3-instructions","125","634827","0.0-66.0","3171","4981","20","Female","true","false","false","true","""event"",""trial"",""time""
""fullscreenenter"",""5"",""19022""
","
","
","""event"",""trial"",""time""
""fullscreenenter"",""5"",""19022""
","
","","","","","","","","","","","","","","","","","","","","","",""
"d3-instructions","126","651900","0.0-67.0","3171","4981","20","Female","true","false","false","true","""event"",""trial"",""time""
""fullscreenenter"",""5"",""19022""
","
","
","""event"",""trial"",""time""
""fullscreenenter"",""5"",""19022""
","
","","","","","","","","","","","","","","","","","","","","","",""
"d3-instructions","127","661789","0.0-68.0","3171","4981","20","Female","true","false","false","true","""event"",""trial"",""time""
""fullscreenenter"",""5"",""19022""
","
","
","""event"",""trial"",""time""
""fullscreenenter"",""5"",""19022""
","
","","","","","","","","","","","","","","","","","","","","","",""
"instructions-quiz","128","665235","0.0-69.0","3171","4981","20","Female","true","false","false","true","""event"",""trial"",""time""
""fullscreenenter"",""5"",""19022""
","
","
","""event"",""trial"",""time""
""fullscreenenter"",""5"",""19022""
","
","3440.3000000000466","audio/quiz/Q1_Prompt.wav","","1","","","","","","","","","","","","","","","","","",""
"audio-keyboard-response","129","674407","0.0-70.0","3171","4981","20","Female","true","false","false","true","""event"",""trial"",""time""
""fullscreenenter"",""5"",""19022""
","
","
","""event"",""trial"",""time""
""fullscreenenter"",""5"",""19022""
","
","null","audio/quiz/Q1_Correct.wav","null","","","","","","","","","","","","","","","","","","",""
"instructions-quiz","130","683761","0.0-71.0","3171","4981","20","Female","true","false","false","true","""event"",""trial"",""time""
""fullscreenenter"",""5"",""19022""
","
","
","""event"",""trial"",""time""
""fullscreenenter"",""5"",""19022""
","
","9349.100000000093","audio/quiz/Q2_Prompt.wav","","0","","","","","","","","","","","","","","","","","",""
"audio-keyboard-response","131","695276","0.0-72.0","3171","4981","20","Female","true","false","false","true","""event"",""trial"",""time""
""fullscreenenter"",""5"",""19022""
","
","
","""event"",""trial"",""time""
""fullscreenenter"",""5"",""19022""
","
","11509","audio/quiz/Q2_Correct.wav","32","","","","","","","","","","","","","","","","","","",""
"instructions-quiz","132","698028","0.0-73.0","3171","4981","20","Female","true","false","false","true","""event"",""trial"",""time""
""fullscreenenter"",""5"",""19022""
","
","
","""event"",""trial"",""time""
""fullscreenenter"",""5"",""19022""
","
","2746.2000000001863","audio/quiz/Q3_Prompt.wav","","1","","","","","","","","","","","","","","","","","",""
"audio-keyboard-response","133","702465","0.0-74.0","3171","4981","20","Female","true","false","false","true","""event"",""trial"",""time""
""fullscreenenter"",""5"",""19022""
","
","
","""event"",""trial"",""time""
""fullscreenenter"",""5"",""19022""
","
","4429","audio/quiz/Q3_Correct.wav","32","","","","","","","","","","","","","","","","","","",""
"d3-instructions","134","716775","0.0-75.0","3171","4981","20","Female","true","false","false","true","""event"",""trial"",""time""
""fullscreenenter"",""5"",""19022""
","
","
","""event"",""trial"",""time""
""fullscreenenter"",""5"",""19022""
","
","","","","","","","","","","","","","","","","","","","","","",""
"d3-animate-choice","135","720015","0.0-76.0-0.0","3171","4981","20","Female","true","false","false","true","""event"",""trial"",""time""
""fullscreenenter"",""5"",""19022""
","
","
","""event"",""trial"",""time""
""fullscreenenter"",""5"",""19022""
","
","1230.1000000000931","","48","","","3000","1","","","images/earth.jpg","images/rocket2","images/rocket1","null","images/rocket2","","1","real","null","2","","",""
"d3-animate-choice","136","722964","0.0-76.0-1.0","3171","4981","20","Female","true","false","false","true","""event"",""trial"",""time""
""fullscreenenter"",""5"",""19022""
","
","
","""event"",""trial"",""time""
""fullscreenenter"",""5"",""19022""
","
","937.3999999999069","","49","","","3000","1","","","images/purpleplanet.jpg","images/alien4","images/alien3","images/rocket2","images/alien3","images/nothing.png","2","real","false","1","rare","0","2022-12-07 16:41:31.596"
"two-step-fixation","137","723973","0.0-76.0-2.0","3171","4981","20","Female","true","false","false","true","""event"",""trial"",""time""
""fullscreenenter"",""5"",""19022""
","
","
","""event"",""trial"",""time""
""fullscreenenter"",""5"",""19022""
","
","","images/earth.jpg","","","","","","","","","","","","","","fixation","","","","","",""
"d3-animate-choice","138","726335","0.0-76.0-0.1","3171","4981","20","Female","true","false","false","true","""event"",""trial"",""time""
""fullscreenenter"",""5"",""19022""
","
","
","""event"",""trial"",""time""
""fullscreenenter"",""5"",""19022""
","
","349.10000000009313","","48","","","3000","1","","","images/earth.jpg","images/rocket2","images/rocket1","null","images/rocket2","","1","real","null","2","","",""
"d3-animate-choice","139","729255","0.0-76.0-1.1","3171","4981","20","Female","true","false","false","true","""event"",""trial"",""time""
""fullscreenenter"",""5"",""19022""
","
","
","""event"",""trial"",""time""
""fullscreenenter"",""5"",""19022""
","
","903.6000000000931","","49","","","3000","1","","","images/redplanet1.jpg","images/alien2","images/alien1","images/rocket2","images/alien1","images/t.png","2","real","true","1","common","1","2022-12-07 16:41:37.887"
"two-step-fixation","140","730265","0.0-76.0-2.1","3171","4981","20","Female","true","false","false","true","""event"",""trial"",""time""
""fullscreenenter"",""5"",""19022""
","
","
","""event"",""trial"",""time""
""fullscreenenter"",""5"",""19022""
","
","","images/earth.jpg","","","","","","","","","","","","","","fixation","","","","","",""
"d3-animate-choice","141","732678","0.0-76.0-0.2","3171","4981","20","Female","true","false","false","true","""event"",""trial"",""time""
""fullscreenenter"",""5"",""19022""
","
","
","""event"",""trial"",""time""
""fullscreenenter"",""5"",""19022""
","
","384.60000000009313","","48","","","3000","1","","","images/earth.jpg","images/rocket2","images/rocket1","null","images/rocket2","","1","real","null","2","","",""
"d3-animate-choice","142","735266","0.0-76.0-1.2","3171","4981","20","Female","true","false","false","true","""event"",""trial"",""time""
""fullscreenenter"",""5"",""19022""
","
","
","""event"",""trial"",""time""
""fullscreenenter"",""5"",""19022""
","
","572.8999999999069","","48","","","3000","1","","","images/purpleplanet.jpg","images/alien4","images/alien3","images/rocket2","images/alien4","images/nothing.png","2","real","false","2","rare","0","2022-12-07 16:41:43.898"
"two-step-fixation","143","736295","0.0-76.0-2.2","3171","4981","20","Female","true","false","false","true","""event"",""trial"",""time""
""fullscreenenter"",""5"",""19022""
","
","
","""event"",""trial"",""time""
""fullscreenenter"",""5"",""19022""
","
","","images/earth.jpg","","","","","","","","","","","","","","fixation","","","","","",""
"d3-animate-choice","144","738616","0.0-76.0-0.3","3171","4981","20","Female","true","false","false","true","""event"",""trial"",""time""
""fullscreenenter"",""5"",""19022""
","
","
","""event"",""trial"",""time""
""fullscreenenter"",""5"",""19022""
","
","311.5999999998603","","48","","","3000","1","","","images/earth.jpg","images/rocket2","images/rocket1","null","images/rocket2","","1","real","null","2","","",""
"d3-animate-choice","145","741816","0.0-76.0-1.3","3171","4981","20","Female","true","false","false","true","""event"",""trial"",""time""
""fullscreenenter"",""5"",""19022""
","
","
","""event"",""trial"",""time""
""fullscreenenter"",""5"",""19022""
","
","1180.3000000000466","","48","","","3000","1","","","images/redplanet1.jpg","images/alien2","images/alien1","images/rocket2","images/alien2","images/t.png","2","real","true","2","common","1","2022-12-07 16:41:50.448"
"two-step-fixation","146","742826","0.0-76.0-2.3","3171","4981","20","Female","true","false","false","true","""event"",""trial"",""time""
""fullscreenenter"",""5"",""19022""
","
","
","""event"",""trial"",""time""
""fullscreenenter"",""5"",""19022""
","
","","images/earth.jpg","","","","","","","","","","","","","","fixation","","","","","",""
"d3-animate-choice","147","745185","0.0-76.0-0.4","3171","4981","20","Female","true","false","false","true","""event"",""trial"",""time""
""fullscreenenter"",""5"",""19022""
","
","
","""event"",""trial"",""time""
""fullscreenenter"",""5"",""19022""
","
","341.60000000009313","","48","","","3000","1","","","images/earth.jpg","images/rocket2","images/rocket1","null","images/rocket2","","1","real","null","2","","",""
"d3-animate-choice","148","747972","0.0-76.0-1.4","3171","4981","20","Female","true","false","false","true","""event"",""trial"",""time""
""fullscreenenter"",""5"",""19022""
","
","
","""event"",""trial"",""time""
""fullscreenenter"",""5"",""19022""
","
","778.8999999999069","","48","","","3000","1","","","images/redplanet1.jpg","images/alien2","images/alien1","images/rocket2","images/alien2","images/t.png","2","real","true","2","common","1","2022-12-07 16:41:56.604"
"two-step-fixation","149","748988","0.0-76.0-2.4","3171","4981","20","Female","true","false","false","true","""event"",""trial"",""time""
""fullscreenenter"",""5"",""19022""
","
","
","""event"",""trial"",""time""
""fullscreenenter"",""5"",""19022""
","
","","images/earth.jpg","","","","","","","","","","","","","","fixation","","","","","",""
"d3-animate-choice","150","751699","0.0-76.0-0.5","3171","4981","20","Female","true","false","false","true","""event"",""trial"",""time""
""fullscreenenter"",""5"",""19022""
","
","
","""event"",""trial"",""time""
""fullscreenenter"",""5"",""19022""
","
","695.3999999999069","","48","","","3000","1","","","images/earth.jpg","images/rocket2","images/rocket1","null","images/rocket2","","1","real","null","2","","",""
"d3-animate-choice","151","755098","0.0-76.0-1.5","3171","4981","20","Female","true","false","false","true","""event"",""trial"",""time""
""fullscreenenter"",""5"",""19022""
","
","
","""event"",""trial"",""time""
""fullscreenenter"",""5"",""19022""
","
","1384.6999999999534","","49","","","3000","1","","","images/purpleplanet.jpg","images/alien4","images/alien3","images/rocket2","images/alien3","images/t.png","2","real","false","1","rare","1","2022-12-07 16:42:03.730"
"two-step-fixation","152","756114","0.0-76.0-2.5","3171","4981","20","Female","true","false","false","true","""event"",""trial"",""time""
""fullscreenenter"",""5"",""19022""
","
","
","""event"",""trial"",""time""
""fullscreenenter"",""5"",""19022""
","
","","images/earth.jpg","","","","","","","","","","","","","","fixation","","","","","",""
"d3-animate-choice","153","758435","0.0-76.0-0.6","3171","4981","20","Female","true","false","false","true","""event"",""trial"",""time""
""fullscreenenter"",""5"",""19022""
","
","
","""event"",""trial"",""time""
""fullscreenenter"",""5"",""19022""
","
","316.5","","48","","","3000","1","","","images/earth.jpg","images/rocket2","images/rocket1","null","images/rocket2","","1","real","null","2","","",""
"d3-animate-choice","154","761199","0.0-76.0-1.6","3171","4981","20","Female","true","false","false","true","""event"",""trial"",""time""
""fullscreenenter"",""5"",""19022""
","
","
","""event"",""trial"",""time""
""fullscreenenter"",""5"",""19022""
","
","750.8000000000466","","49","","","3000","1","","","images/purpleplanet.jpg","images/alien4","images/alien3","images/rocket2","images/alien3","images/nothing.png","2","real","false","1","rare","0","2022-12-07 16:42:09.831"
"two-step-fixation","155","762205","0.0-76.0-2.6","3171","4981","20","Female","true","false","false","true","""event"",""trial"",""time""
""fullscreenenter"",""5"",""19022""
","
","
","""event"",""trial"",""time""
""fullscreenenter"",""5"",""19022""
","
","","images/earth.jpg","","","","","","","","","","","","","","fixation","","","","","",""
"d3-animate-choice","156","764504","0.0-76.0-0.7","3171","4981","20","Female","true","false","false","true","""event"",""trial"",""time""
""fullscreenenter"",""5"",""19022""
","
","
","""event"",""trial"",""time""
""fullscreenenter"",""5"",""19022""
","
","284.9000000001397","","48","","","3000","1","","","images/earth.jpg","images/rocket2","images/rocket1","null","images/rocket2","","1","real","null","2","","",""
"d3-animate-choice","157","767165","0.0-76.0-1.7","3171","4981","20","Female","true","false","false","true","""event"",""trial"",""time""
""fullscreenenter"",""5"",""19022""
","
","
","""event"",""trial"",""time""
""fullscreenenter"",""5"",""19022""
","
","647.8000000000466","","49","","","3000","1","","","images/redplanet1.jpg","images/alien2","images/alien1","images/rocket2","images/alien1","images/nothing.png","2","real","true","1","common","0","2022-12-07 16:42:15.798"
"two-step-fixation","158","768171","0.0-76.0-2.7","3171","4981","20","Female","true","false","false","true","""event"",""trial"",""time""
""fullscreenenter"",""5"",""19022""
","
","
","""event"",""trial"",""time""
""fullscreenenter"",""5"",""19022""
","
","","images/earth.jpg","","","","","","","","","","","","","","fixation","","","","","",""
"d3-animate-choice","159","770521","0.0-76.0-0.8","3171","4981","20","Female","true","false","false","true","""event"",""trial"",""time""
""fullscreenenter"",""5"",""19022""
","
","
","""event"",""trial"",""time""
""fullscreenenter"",""5"",""19022""
","
","340.19999999995343","","48","","","3000","1","","","images/earth.jpg","images/rocket2","images/rocket1","null","images/rocket2","","1","real","null","2","","",""
"d3-animate-choice","160","773064","0.0-76.0-1.8","3171","4981","20","Female","true","false","false","true","""event"",""trial"",""time""
""fullscreenenter"",""5"",""19022""
","
","
","""event"",""trial"",""time""
""fullscreenenter"",""5"",""19022""
","
","530.8000000000466","","48","","","3000","1","","","images/redplanet1.jpg","images/alien2","images/alien1","images/rocket2","images/alien2","images/nothing.png","2","real","true","2","common","0","2022-12-07 16:42:21.697"
"two-step-fixation","161","774071","0.0-76.0-2.8","3171","4981","20","Female","true","false","false","true","""event"",""trial"",""time""
""fullscreenenter"",""5"",""19022""
","
","
","""event"",""trial"",""time""
""fullscreenenter"",""5"",""19022""
","
","","images/earth.jpg","","","","","","","","","","","","","","fixation","","","","","",""
"d3-animate-choice","162","776434","0.0-76.0-0.9","3171","4981","20","Female","true","false","false","true","""event"",""trial"",""time""
""fullscreenenter"",""5"",""19022""
","
","
","""event"",""trial"",""time""
""fullscreenenter"",""5"",""19022""
","
","353.80000000004657","","49","","","3000","1","","","images/earth.jpg","images/rocket2","images/rocket1","null","images/rocket1","","1","real","null","1","","",""
"d3-animate-choice","163","779288","0.0-76.0-1.9","3171","4981","20","Female","true","false","false","true","""event"",""trial"",""time""
""fullscreenenter"",""5"",""19022""
","
","
","""event"",""trial"",""time""
""fullscreenenter"",""5"",""19022""
","
","848.1000000000931","","48","","","3000","1","","","images/redplanet1.jpg","images/alien2","images/alien1","images/rocket1","images/alien2","images/t.png","2","real","false","2","rare","1","2022-12-07 16:42:27.920"
"two-step-fixation","164","780297","0.0-76.0-2.9","3171","4981","20","Female","true","false","false","true","""event"",""trial"",""time""
""fullscreenenter"",""5"",""19022""
","
","
","""event"",""trial"",""time""
""fullscreenenter"",""5"",""19022""
","
","","images/earth.jpg","","","","","","","","","","","","","","fixation","","","","","",""
"d3-animate-choice","165","782589","0.0-76.0-0.10","3171","4981","20","Female","true","false","false","true","""event"",""trial"",""time""
""fullscreenenter"",""5"",""19022""
","
","
","""event"",""trial"",""time""
""fullscreenenter"",""5"",""19022""
","
","279","","49","","","3000","1","","","images/earth.jpg","images/rocket2","images/rocket1","null","images/rocket1","","1","real","null","1","","",""
"d3-animate-choice","166","785031","0.0-76.0-1.10","3171","4981","20","Female","true","false","false","true","""event"",""trial"",""time""
""fullscreenenter"",""5"",""19022""
","
","
","""event"",""trial"",""time""
""fullscreenenter"",""5"",""19022""
","
","437.10000000009313","","48","","","3000","1","","","images/redplanet1.jpg","images/alien2","images/alien1","images/rocket1","images/alien2","images/nothing.png","2","real","false","2","rare","0","2022-12-07 16:42:33.663"
"two-step-fixation","167","786041","0.0-76.0-2.10","3171","4981","20","Female","true","false","false","true","""event"",""trial"",""time""
""fullscreenenter"",""5"",""19022""
","
","
","""event"",""trial"",""time""
""fullscreenenter"",""5"",""19022""
","
","","images/earth.jpg","","","","","","","","","","","","","","fixation","","","","","",""
"d3-animate-choice","168","788354","0.0-76.0-0.11","3171","4981","20","Female","true","false","false","true","""event"",""trial"",""time""
""fullscreenenter"",""5"",""19022""
","
","
","""event"",""trial"",""time""
""fullscreenenter"",""5"",""19022""
","
","299.19999999995343","","49","","","3000","1","","","images/earth.jpg","images/rocket2","images/rocket1","null","images/rocket1","","1","real","null","1","","",""
"d3-animate-choice","169","791753","0.0-76.0-1.11","3171","4981","20","Female","true","false","false","true","""event"",""trial"",""time""
""fullscreenenter"",""5"",""19022""
","
","
","""event"",""trial"",""time""
""fullscreenenter"",""5"",""19022""
","
","1386.1000000000931","","49","","","3000","1","","","images/purpleplanet.jpg","images/alien4","images/alien3","images/rocket1","images/alien3","images/nothing.png","2","real","true","1","common","0","2022-12-07 16:42:40.385"
"two-step-fixation","170","792761","0.0-76.0-2.11","3171","4981","20","Female","true","false","false","true","""event"",""trial"",""time""
""fullscreenenter"",""5"",""19022""
","
","
","""event"",""trial"",""time""
""fullscreenenter"",""5"",""19022""
","
","","images/earth.jpg","","","","","","","","","","","","","","fixation","","","","","",""
"d3-animate-choice","171","795054","0.0-76.0-0.12","3171","4981","20","Female","true","false","false","true","""event"",""trial"",""time""
""fullscreenenter"",""5"",""19022""
","
","
","""event"",""trial"",""time""
""fullscreenenter"",""5"",""19022""
","
","282","","48","","","3000","1","","","images/earth.jpg","images/rocket2","images/rocket1","null","images/rocket2","","1","real","null","2","","",""
"d3-animate-choice","172","798096","0.0-76.0-1.12","3171","4981","20","Female","true","false","false","true","""event"",""trial"",""time""
""fullscreenenter"",""5"",""19022""
","
","
","""event"",""trial"",""time""
""fullscreenenter"",""5"",""19022""
","
","1031.3000000000466","","49","","","3000","1","","","images/redplanet1.jpg","images/alien2","images/alien1","images/rocket2","images/alien1","images/t.png","2","real","true","1","common","1","2022-12-07 16:42:46.729"
"two-step-fixation","173","799103","0.0-76.0-2.12","3171","4981","20","Female","true","false","false","true","""event"",""trial"",""time""
""fullscreenenter"",""5"",""19022""
","
","
","""event"",""trial"",""time""
""fullscreenenter"",""5"",""19022""
","
","","images/earth.jpg","","","","","","","","","","","","","","fixation","","","","","",""
"d3-animate-choice","174","801406","0.0-76.0-0.13","3171","4981","20","Female","true","false","false","true","""event"",""trial"",""time""
""fullscreenenter"",""5"",""19022""
","
","
","""event"",""trial"",""time""
""fullscreenenter"",""5"",""19022""
","
","282.60000000009313","","48","","","3000","1","","","images/earth.jpg","images/rocket2","images/rocket1","null","images/rocket2","","1","real","null","2","","",""
"d3-animate-choice","175","804088","0.0-76.0-1.13","3171","4981","20","Female","true","false","false","true","""event"",""trial"",""time""
""fullscreenenter"",""5"",""19022""
","
","
","""event"",""trial"",""time""
""fullscreenenter"",""5"",""19022""
","
","669.1999999999534","","49","","","3000","1","","","images/redplanet1.jpg","images/alien2","images/alien1","images/rocket2","images/alien1","images/t.png","2","real","true","1","common","1","2022-12-07 16:42:52.720"
"two-step-fixation","176","805095","0.0-76.0-2.13","3171","4981","20","Female","true","false","false","true","""event"",""trial"",""time""
""fullscreenenter"",""5"",""19022""
","
","
","""event"",""trial"",""time""
""fullscreenenter"",""5"",""19022""
","
","","images/earth.jpg","","","","","","","","","","","","","","fixation","","","","","",""
"d3-animate-choice","177","807417","0.0-76.0-0.14","3171","4981","20","Female","true","false","false","true","""event"",""trial"",""time""
""fullscreenenter"",""5"",""19022""
","
","
","""event"",""trial"",""time""
""fullscreenenter"",""5"",""19022""
","
","312.19999999995343","","48","","","3000","1","","","images/earth.jpg","images/rocket2","images/rocket1","null","images/rocket2","","1","real","null","2","","",""
"d3-animate-choice","178","810847","0.0-76.0-1.14","3171","4981","20","Female","true","false","false","true","""event"",""trial"",""time""
""fullscreenenter"",""5"",""19022""
","
","
","""event"",""trial"",""time""
""fullscreenenter"",""5"",""19022""
","
","1420.8999999999069","","48","","","3000","1","","","images/purpleplanet.jpg","images/alien4","images/alien3","images/rocket2","images/alien4","images/t.png","2","real","false","2","rare","1","2022-12-07 16:42:59.479"
"two-step-fixation","179","811855","0.0-76.0-2.14","3171","4981","20","Female","true","false","false","true","""event"",""trial"",""time""
""fullscreenenter"",""5"",""19022""
","
","
","""event"",""trial"",""time""
""fullscreenenter"",""5"",""19022""
","
","","images/earth.jpg","","","","","","","","","","","","","","fixation","","","","","",""
"d3-animate-choice","180","814263","0.0-76.0-0.15","3171","4981","20","Female","true","false","false","true","""event"",""trial"",""time""
""fullscreenenter"",""5"",""19022""
","
","
","""event"",""trial"",""time""
""fullscreenenter"",""5"",""19022""
","
","389.10000000009313","","48","","","3000","1","","","images/earth.jpg","images/rocket2","images/rocket1","null","images/rocket2","","1","real","null","2","","",""
"d3-animate-choice","181","816779","0.0-76.0-1.15","3171","4981","20","Female","true","false","false","true","""event"",""trial"",""time""
""fullscreenenter"",""5"",""19022""
","
","
","""event"",""trial"",""time""
""fullscreenenter"",""5"",""19022""
","
","504.69999999995343","","48","","","3000","1","","","images/purpleplanet.jpg","images/alien4","images/alien3","images/rocket2","images/alien4","images/t.png","2","real","false","2","rare","1","2022-12-07 16:43:05.411"
"two-step-fixation","182","817796","0.0-76.0-2.15","3171","4981","20","Female","true","false","false","true","""event"",""trial"",""time""
""fullscreenenter"",""5"",""19022""
","
","
","""event"",""trial"",""time""
""fullscreenenter"",""5"",""19022""
","
","","images/earth.jpg","","","","","","","","","","","","","","fixation","","","","","",""
"d3-animate-choice","183","820196","0.0-76.0-0.16","3171","4981","20","Female","true","false","false","true","""event"",""trial"",""time""
""fullscreenenter"",""5"",""19022""
","
","
","""event"",""trial"",""time""
""fullscreenenter"",""5"",""19022""
","
","386.5","","48","","","3000","1","","","images/earth.jpg","images/rocket2","images/rocket1","null","images/rocket2","","1","real","null","2","","",""
"d3-animate-choice","184","823418","0.0-76.0-1.16","3171","4981","20","Female","true","false","false","true","""event"",""trial"",""time""
""fullscreenenter"",""5"",""19022""
","
","
","""event"",""trial"",""time""
""fullscreenenter"",""5"",""19022""
","
","1204.0999999998603","","49","","","3000","1","","","images/redplanet1.jpg","images/alien2","images/alien1","images/rocket2","images/alien1","images/nothing.png","2","real","true","1","common","0","2022-12-07 16:43:12.050"
"two-step-fixation","185","824436","0.0-76.0-2.16","3171","4981","20","Female","true","false","false","true","""event"",""trial"",""time""
""fullscreenenter"",""5"",""19022""
","
","
","""event"",""trial"",""time""
""fullscreenenter"",""5"",""19022""
","
","","images/earth.jpg","","","","","","","","","","","","","","fixation","","","","","",""
"d3-animate-choice","186","826754","0.0-76.0-0.17","3171","4981","20","Female","true","false","false","true","""event"",""trial"",""time""
""fullscreenenter"",""5"",""19022""
","
","
","""event"",""trial"",""time""
""fullscreenenter"",""5"",""19022""
","
","309.19999999995343","","48","","","3000","1","","","images/earth.jpg","images/rocket2","images/rocket1","null","images/rocket2","","1","real","null","2","","",""
"d3-animate-choice","187","830034","0.0-76.0-1.17","3171","4981","20","Female","true","false","false","true","""event"",""trial"",""time""
""fullscreenenter"",""5"",""19022""
","
","
","""event"",""trial"",""time""
""fullscreenenter"",""5"",""19022""
","
","1270.6999999999534","","49","","","3000","1","","","images/redplanet1.jpg","images/alien2","images/alien1","images/rocket2","images/alien1","images/t.png","2","real","true","1","common","1","2022-12-07 16:43:18.666"
"two-step-fixation","188","831045","0.0-76.0-2.17","3171","4981","20","Female","true","false","false","true","""event"",""trial"",""time""
""fullscreenenter"",""5"",""19022""
","
","
","""event"",""trial"",""time""
""fullscreenenter"",""5"",""19022""
","
","","images/earth.jpg","","","","","","","","","","","","","","fixation","","","","","",""
"d3-animate-choice","189","833451","0.0-76.0-0.18","3171","4981","20","Female","true","false","false","true","""event"",""trial"",""time""
""fullscreenenter"",""5"",""19022""
","
","
","""event"",""trial"",""time""
""fullscreenenter"",""5"",""19022""
","
","389.5","","48","","","3000","1","","","images/earth.jpg","images/rocket2","images/rocket1","null","images/rocket2","","1","real","null","2","","",""
"d3-animate-choice","190","836135","0.0-76.0-1.18","3171","4981","20","Female","true","false","false","true","""event"",""trial"",""time""
""fullscreenenter"",""5"",""19022""
","
","
","""event"",""trial"",""time""
""fullscreenenter"",""5"",""19022""
","
","678.8000000000466","","48","","","3000","1","","","images/purpleplanet.jpg","images/alien4","images/alien3","images/rocket2","images/alien4","images/t.png","2","real","false","2","rare","1","2022-12-07 16:43:24.767"
"two-step-fixation","191","837144","0.0-76.0-2.18","3171","4981","20","Female","true","false","false","true","""event"",""trial"",""time""
""fullscreenenter"",""5"",""19022""
","
","
","""event"",""trial"",""time""
""fullscreenenter"",""5"",""19022""
","
","","images/earth.jpg","","","","","","","","","","","","","","fixation","","","","","",""
"d3-animate-choice","192","839234","0.0-76.0-0.19","3171","4981","20","Female","true","false","false","true","""event"",""trial"",""time""
""fullscreenenter"",""5"",""19022""
","
","
","""event"",""trial"",""time""
""fullscreenenter"",""5"",""19022""
","
","75.0999999998603","","48","","","3000","1","","","images/earth.jpg","images/rocket2","images/rocket1","null","images/rocket2","","1","real","null","2","","",""
"d3-animate-choice","193","842078","0.0-76.0-1.19","3171","4981","20","Female","true","false","false","true","""event"",""trial"",""time""
""fullscreenenter"",""5"",""19022""
","
","
","""event"",""trial"",""time""
""fullscreenenter"",""5"",""19022""
","
","829.6999999999534","","48","","","3000","1","","","images/redplanet1.jpg","images/alien2","images/alien1","images/rocket2","images/alien2","images/nothing.png","2","real","true","2","common","0","2022-12-07 16:43:30.710"
"two-step-fixation","194","843089","0.0-76.0-2.19","3171","4981","20","Female","true","false","false","true","""event"",""trial"",""time""
""fullscreenenter"",""5"",""19022""
","
","
","""event"",""trial"",""time""
""fullscreenenter"",""5"",""19022""
","
","","images/earth.jpg","","","","","","","","","","","","","","fixation","","","","","",""
"d3-animate-choice","195","845518","0.0-76.0-0.20","3171","4981","20","Female","true","false","false","true","""event"",""trial"",""time""
""fullscreenenter"",""5"",""19022""
","
","
","""event"",""trial"",""time""
""fullscreenenter"",""5"",""19022""
","
","417.80000000004657","","48","","","3000","1","","","images/earth.jpg","images/rocket2","images/rocket1","null","images/rocket2","","1","real","null","2","","",""
"d3-animate-choice","196","848829","0.0-76.0-1.20","3171","4981","20","Female","true","false","false","true","""event"",""trial"",""time""
""fullscreenenter"",""5"",""19022""
","
","
","""event"",""trial"",""time""
""fullscreenenter"",""5"",""19022""
","
","1293.3999999999069","","48","","","3000","1","","","images/redplanet1.jpg","images/alien2","images/alien1","images/rocket2","images/alien2","images/t.png","2","real","true","2","common","1","2022-12-07 16:43:37.461"
"two-step-fixation","197","849836","0.0-76.0-2.20","3171","4981","20","Female","true","false","false","true","""event"",""trial"",""time""
""fullscreenenter"",""5"",""19022""
","
","
","""event"",""trial"",""time""
""fullscreenenter"",""5"",""19022""
","
","","images/earth.jpg","","","","","","","","","","","","","","fixation","","","","","",""
"d3-animate-choice","198","852134","0.0-76.0-0.21","3171","4981","20","Female","true","false","false","true","""event"",""trial"",""time""
""fullscreenenter"",""5"",""19022""
","
","
","""event"",""trial"",""time""
""fullscreenenter"",""5"",""19022""
","
","289.39999999990687","","48","","","3000","1","","","images/earth.jpg","images/rocket2","images/rocket1","null","images/rocket2","","1","real","null","2","","",""
"d3-animate-choice","199","854789","0.0-76.0-1.21","3171","4981","20","Female","true","false","false","true","""event"",""trial"",""time""
""fullscreenenter"",""5"",""19022""
","
","
","""event"",""trial"",""time""
""fullscreenenter"",""5"",""19022""
","
","641.6999999999534","","48","","","3000","1","","","images/redplanet1.jpg","images/alien2","images/alien1","images/rocket2","images/alien2","images/t.png","2","real","true","2","common","1","2022-12-07 16:43:43.422"
"two-step-fixation","200","855796","0.0-76.0-2.21","3171","4981","20","Female","true","false","false","true","""event"",""trial"",""time""
""fullscreenenter"",""5"",""19022""
","
","
","""event"",""trial"",""time""
""fullscreenenter"",""5"",""19022""
","
","","images/earth.jpg","","","","","","","","","","","","","","fixation","","","","","",""
"d3-animate-choice","201","858113","0.0-76.0-0.22","3171","4981","20","Female","true","false","false","true","""event"",""trial"",""time""
""fullscreenenter"",""5"",""19022""
","
","
","""event"",""trial"",""time""
""fullscreenenter"",""5"",""19022""
","
","304","","48","","","3000","1","","","images/earth.jpg","images/rocket2","images/rocket1","null","images/rocket2","","1","real","null","2","","",""
"d3-animate-choice","202","860594","0.0-76.0-1.22","3171","4981","20","Female","true","false","false","true","""event"",""trial"",""time""
""fullscreenenter"",""5"",""19022""
","
","
","""event"",""trial"",""time""
""fullscreenenter"",""5"",""19022""
","
","466.4000000001397","","48","","","3000","1","","","images/redplanet1.jpg","images/alien2","images/alien1","images/rocket2","images/alien2","images/t.png","2","real","true","2","common","1","2022-12-07 16:43:49.227"
"two-step-fixation","203","861611","0.0-76.0-2.22","3171","4981","20","Female","true","false","false","true","""event"",""trial"",""time""
""fullscreenenter"",""5"",""19022""
","
","
","""event"",""trial"",""time""
""fullscreenenter"",""5"",""19022""
","
","","images/earth.jpg","","","","","","","","","","","","","","fixation","","","","","",""
"d3-animate-choice","204","863918","0.0-76.0-0.23","3171","4981","20","Female","true","false","false","true","""event"",""trial"",""time""
""fullscreenenter"",""5"",""19022""
","
","
","""event"",""trial"",""time""
""fullscreenenter"",""5"",""19022""
","
","298.69999999995343","","48","","","3000","1","","","images/earth.jpg","images/rocket2","images/rocket1","null","images/rocket2","","1","real","null","2","","",""
"d3-animate-choice","205","866594","0.0-76.0-1.23","3171","4981","20","Female","true","false","false","true","""event"",""trial"",""time""
""fullscreenenter"",""5"",""19022""
","
","
","""event"",""trial"",""time""
""fullscreenenter"",""5"",""19022""
","
","661.6999999999534","","48","","","3000","1","","","images/redplanet1.jpg","images/alien2","images/alien1","images/rocket2","images/alien2","images/t.png","2","real","true","2","common","1","2022-12-07 16:43:55.226"
"two-step-fixation","206","867612","0.0-76.0-2.23","3171","4981","20","Female","true","false","false","true","""event"",""trial"",""time""
""fullscreenenter"",""5"",""19022""
","
","
","""event"",""trial"",""time""
""fullscreenenter"",""5"",""19022""
","
","","images/earth.jpg","","","","","","","","","","","","","","fixation","","","","","",""
"d3-animate-choice","207","869752","0.0-76.0-0.24","3171","4981","20","Female","true","false","false","true","""event"",""trial"",""time""
""fullscreenenter"",""5"",""19022""
","
","
","""event"",""trial"",""time""
""fullscreenenter"",""5"",""19022""
","
","132","","48","","","3000","1","","","images/earth.jpg","images/rocket2","images/rocket1","null","images/rocket2","","1","real","null","2","","",""
"d3-animate-choice","208","872277","0.0-76.0-1.24","3171","4981","20","Female","true","false","false","true","""event"",""trial"",""time""
""fullscreenenter"",""5"",""19022""
","
","
","""event"",""trial"",""time""
""fullscreenenter"",""5"",""19022""
","
","512.8000000000466","","48","","","3000","1","","","images/redplanet1.jpg","images/alien2","images/alien1","images/rocket2","images/alien2","images/nothing.png","2","real","true","2","common","0","2022-12-07 16:44:00.909"
"two-step-fixation","209","873286","0.0-76.0-2.24","3171","4981","20","Female","true","false","false","true","""event"",""trial"",""time""
""fullscreenenter"",""5"",""19022""
","
","
","""event"",""trial"",""time""
""fullscreenenter"",""5"",""19022""
","
","","images/earth.jpg","","","","","","","","","","","","","","fixation","","","","","",""
"d3-animate-choice","210","875911","0.0-76.0-0.25","3171","4981","20","Female","true","false","false","true","""event"",""trial"",""time""
""fullscreenenter"",""5"",""19022""
","
","
","""event"",""trial"",""time""
""fullscreenenter"",""5"",""19022""
","
","612.8999999999069","","48","","","3000","1","","","images/earth.jpg","images/rocket2","images/rocket1","null","images/rocket2","","1","real","null","2","","",""
"d3-animate-choice","211","878483","0.0-76.0-1.25","3171","4981","20","Female","true","false","false","true","""event"",""trial"",""time""
""fullscreenenter"",""5"",""19022""
","
","
","""event"",""trial"",""time""
""fullscreenenter"",""5"",""19022""
","
","554.8000000000466","","48","","","3000","1","","","images/redplanet1.jpg","images/alien2","images/alien1","images/rocket2","images/alien2","images/nothing.png","2","real","true","2","common","0","2022-12-07 16:44:07.115"
"two-step-fixation","212","879500","0.0-76.0-2.25","3171","4981","20","Female","true","false","false","true","""event"",""trial"",""time""
""fullscreenenter"",""5"",""19022""
","
","
","""event"",""trial"",""time""
""fullscreenenter"",""5"",""19022""
","
","","images/earth.jpg","","","","","","","","","","","","","","fixation","","","","","",""
"d3-animate-choice","213","881827","0.0-76.0-0.26","3171","4981","20","Female","true","false","false","true","""event"",""trial"",""time""
""fullscreenenter"",""5"",""19022""
","
","
","""event"",""trial"",""time""
""fullscreenenter"",""5"",""19022""
","
","308.79999999981374","","48","","","3000","1","","","images/earth.jpg","images/rocket2","images/rocket1","null","images/rocket2","","1","real","null","2","","",""
"d3-animate-choice","214","884244","0.0-76.0-1.26","3171","4981","20","Female","true","false","false","true","""event"",""trial"",""time""
""fullscreenenter"",""5"",""19022""
","
","
","""event"",""trial"",""time""
""fullscreenenter"",""5"",""19022""
","
","404.5","","49","","","3000","1","","","images/redplanet1.jpg","images/alien2","images/alien1","images/rocket2","images/alien1","images/t.png","2","real","true","1","common","1","2022-12-07 16:44:12.876"
"two-step-fixation","215","885260","0.0-76.0-2.26","3171","4981","20","Female","true","false","false","true","""event"",""trial"",""time""
""fullscreenenter"",""5"",""19022""
","
","
","""event"",""trial"",""time""
""fullscreenenter"",""5"",""19022""
","
","","images/earth.jpg","","","","","","","","","","","","","","fixation","","","","","",""
"d3-animate-choice","216","887567","0.0-76.0-0.27","3171","4981","20","Female","true","false","false","true","""event"",""trial"",""time""
""fullscreenenter"",""5"",""19022""
","
","
","""event"",""trial"",""time""
""fullscreenenter"",""5"",""19022""
","
","301.39999999990687","","48","","","3000","1","","","images/earth.jpg","images/rocket2","images/rocket1","null","images/rocket2","","1","real","null","2","","",""
"d3-animate-choice","217","890023","0.0-76.0-1.27","3171","4981","20","Female","true","false","false","true","""event"",""trial"",""time""
""fullscreenenter"",""5"",""19022""
","
","
","""event"",""trial"",""time""
""fullscreenenter"",""5"",""19022""
","
","446.80000000004657","","49","","","3000","1","","","images/redplanet1.jpg","images/alien2","images/alien1","images/rocket2","images/alien1","images/nothing.png","2","real","true","1","common","0","2022-12-07 16:44:18.655"
"two-step-fixation","218","891034","0.0-76.0-2.27","3171","4981","20","Female","true","false","false","true","""event"",""trial"",""time""
""fullscreenenter"",""5"",""19022""
","
","
","""event"",""trial"",""time""
""fullscreenenter"",""5"",""19022""
","
","","images/earth.jpg","","","","","","","","","","","","","","fixation","","","","","",""
"d3-animate-choice","219","893358","0.0-76.0-0.28","3171","4981","20","Female","true","false","false","true","""event"",""trial"",""time""
""fullscreenenter"",""5"",""19022""
","
","
","""event"",""trial"",""time""
""fullscreenenter"",""5"",""19022""
","
","317.69999999995343","","48","","","3000","1","","","images/earth.jpg","images/rocket2","images/rocket1","null","images/rocket2","","1","real","null","2","","",""
"d3-animate-choice","220","895786","0.0-76.0-1.28","3171","4981","20","Female","true","false","false","true","""event"",""trial"",""time""
""fullscreenenter"",""5"",""19022""
","
","
","""event"",""trial"",""time""
""fullscreenenter"",""5"",""19022""
","
","413.69999999995343","","49","","","3000","1","","","images/redplanet1.jpg","images/alien2","images/alien1","images/rocket2","images/alien1","images/nothing.png","2","real","true","1","common","0","2022-12-07 16:44:24.418"
"two-step-fixation","221","896795","0.0-76.0-2.28","3171","4981","20","Female","true","false","false","true","""event"",""trial"",""time""
""fullscreenenter"",""5"",""19022""
","
","
","""event"",""trial"",""time""
""fullscreenenter"",""5"",""19022""
","
","","images/earth.jpg","","","","","","","","","","","","","","fixation","","","","","",""
"d3-animate-choice","222","899044","0.0-76.0-0.29","3171","4981","20","Female","true","false","false","true","""event"",""trial"",""time""
""fullscreenenter"",""5"",""19022""
","
","
","""event"",""trial"",""time""
""fullscreenenter"",""5"",""19022""
","
","233.89999999990687","","48","","","3000","1","","","images/earth.jpg","images/rocket2","images/rocket1","null","images/rocket2","","1","real","null","2","","",""
"d3-animate-choice","223","901516","0.0-76.0-1.29","3171","4981","20","Female","true","false","false","true","""event"",""trial"",""time""
""fullscreenenter"",""5"",""19022""
","
","
","""event"",""trial"",""time""
""fullscreenenter"",""5"",""19022""
","
","456.80000000004657","","49","","","3000","1","","","images/redplanet1.jpg","images/alien2","images/alien1","images/rocket2","images/alien1","images/nothing.png","2","real","true","1","common","0","2022-12-07 16:44:30.148"
"two-step-fixation","224","902526","0.0-76.0-2.29","3171","4981","20","Female","true","false","false","true","""event"",""trial"",""time""
""fullscreenenter"",""5"",""19022""
","
","
","""event"",""trial"",""time""
""fullscreenenter"",""5"",""19022""
","
","","images/earth.jpg","","","","","","","","","","","","","","fixation","","","","","",""
"d3-animate-choice","225","904850","0.0-76.0-0.30","3171","4981","20","Female","true","false","false","true","""event"",""trial"",""time""
""fullscreenenter"",""5"",""19022""
","
","
","""event"",""trial"",""time""
""fullscreenenter"",""5"",""19022""
","
","310.5","","48","","","3000","1","","","images/earth.jpg","images/rocket2","images/rocket1","null","images/rocket2","","1","real","null","2","","",""
"d3-animate-choice","226","907449","0.0-76.0-1.30","3171","4981","20","Female","true","false","false","true","""event"",""trial"",""time""
""fullscreenenter"",""5"",""19022""
","
","
","""event"",""trial"",""time""
""fullscreenenter"",""5"",""19022""
","
","593.3000000000466","","48","","","3000","1","","","images/redplanet1.jpg","images/alien2","images/alien1","images/rocket2","images/alien2","images/t.png","2","real","true","2","common","1","2022-12-07 16:44:36.081"
"two-step-fixation","227","908465","0.0-76.0-2.30","3171","4981","20","Female","true","false","false","true","""event"",""trial"",""time""
""fullscreenenter"",""5"",""19022""
","
","
","""event"",""trial"",""time""
""fullscreenenter"",""5"",""19022""
","
","","images/earth.jpg","","","","","","","","","","","","","","fixation","","","","","",""
"d3-animate-choice","228","910742","0.0-76.0-0.31","3171","4981","20","Female","true","false","false","true","""event"",""trial"",""time""
""fullscreenenter"",""5"",""19022""
","
","
","""event"",""trial"",""time""
""fullscreenenter"",""5"",""19022""
","
","263.80000000004657","","48","","","3000","1","","","images/earth.jpg","images/rocket2","images/rocket1","null","images/rocket2","","1","real","null","2","","",""
"d3-animate-choice","229","913509","0.0-76.0-1.31","3171","4981","20","Female","true","false","false","true","""event"",""trial"",""time""
""fullscreenenter"",""5"",""19022""
","
","
","""event"",""trial"",""time""
""fullscreenenter"",""5"",""19022""
","
","753.8999999999069","","48","","","3000","1","","","images/redplanet1.jpg","images/alien2","images/alien1","images/rocket2","images/alien2","images/nothing.png","2","real","true","2","common","0","2022-12-07 16:44:42.141"
"two-step-fixation","230","914515","0.0-76.0-2.31","3171","4981","20","Female","true","false","false","true","""event"",""trial"",""time""
""fullscreenenter"",""5"",""19022""
","
","
","""event"",""trial"",""time""
""fullscreenenter"",""5"",""19022""
","
","","images/earth.jpg","","","","","","","","","","","","","","fixation","","","","","",""
"d3-animate-choice","231","916840","0.0-76.0-0.32","3171","4981","20","Female","true","false","false","true","""event"",""trial"",""time""
""fullscreenenter"",""5"",""19022""
","
","
","""event"",""trial"",""time""
""fullscreenenter"",""5"",""19022""
","
","312.30000000004657","","49","","","3000","1","","","images/earth.jpg","images/rocket2","images/rocket1","null","images/rocket1","","1","real","null","1","","",""
"d3-animate-choice","232","919348","0.0-76.0-1.32","3171","4981","20","Female","true","false","false","true","""event"",""trial"",""time""
""fullscreenenter"",""5"",""19022""
","
","
","""event"",""trial"",""time""
""fullscreenenter"",""5"",""19022""
","
","503.19999999995343","","48","","","3000","1","","","images/purpleplanet.jpg","images/alien4","images/alien3","images/rocket1","images/alien4","images/nothing.png","2","real","true","2","common","0","2022-12-07 16:44:47.980"
"two-step-fixation","233","920359","0.0-76.0-2.32","3171","4981","20","Female","true","false","false","true","""event"",""trial"",""time""
""fullscreenenter"",""5"",""19022""
","
","
","""event"",""trial"",""time""
""fullscreenenter"",""5"",""19022""
","
","","images/earth.jpg","","","","","","","","","","","","","","fixation","","","","","",""
"d3-animate-choice","234","922443","0.0-76.0-0.33","3171","4981","20","Female","true","false","false","true","""event"",""trial"",""time""
""fullscreenenter"",""5"",""19022""
","
","
","""event"",""trial"",""time""
""fullscreenenter"",""5"",""19022""
","
","68.0999999998603","","49","","","3000","1","","","images/earth.jpg","images/rocket2","images/rocket1","null","images/rocket1","","1","real","null","1","","",""
"d3-animate-choice","235","925732","0.0-76.0-1.33","3171","4981","20","Female","true","false","false","true","""event"",""trial"",""time""
""fullscreenenter"",""5"",""19022""
","
","
","""event"",""trial"",""time""
""fullscreenenter"",""5"",""19022""
","
","1270.6000000000931","","48","","","3000","1","","","images/redplanet1.jpg","images/alien2","images/alien1","images/rocket1","images/alien2","images/t.png","2","real","false","2","rare","1","2022-12-07 16:44:54.364"
"two-step-fixation","236","926748","0.0-76.0-2.33","3171","4981","20","Female","true","false","false","true","""event"",""trial"",""time""
""fullscreenenter"",""5"",""19022""
","
","
","""event"",""trial"",""time""
""fullscreenenter"",""5"",""19022""
","
","","images/earth.jpg","","","","","","","","","","","","","","fixation","","","","","",""
"d3-animate-choice","237","929057","0.0-76.0-0.34","3171","4981","20","Female","true","false","false","true","""event"",""trial"",""time""
""fullscreenenter"",""5"",""19022""
","
","
","""event"",""trial"",""time""
""fullscreenenter"",""5"",""19022""
","
","300.0999999998603","","49","","","3000","1","","","images/earth.jpg","images/rocket2","images/rocket1","null","images/rocket1","","1","real","null","1","","",""
"d3-animate-choice","238","931731","0.0-76.0-1.34","3171","4981","20","Female","true","false","false","true","""event"",""trial"",""time""
""fullscreenenter"",""5"",""19022""
","
","
","""event"",""trial"",""time""
""fullscreenenter"",""5"",""19022""
","
","667.8000000000466","","49","","","3000","1","","","images/purpleplanet.jpg","images/alien4","images/alien3","images/rocket1","images/alien3","images/nothing.png","2","real","true","1","common","0","2022-12-07 16:45:00.363"
"two-step-fixation","239","932748","0.0-76.0-2.34","3171","4981","20","Female","true","false","false","true","""event"",""trial"",""time""
""fullscreenenter"",""5"",""19022""
","
","
","""event"",""trial"",""time""
""fullscreenenter"",""5"",""19022""
","
","","images/earth.jpg","","","","","","","","","","","","","","fixation","","","","","",""
"d3-animate-choice","240","935065","0.0-76.0-0.35","3171","4981","20","Female","true","false","false","true","""event"",""trial"",""time""
""fullscreenenter"",""5"",""19022""
","
","
","""event"",""trial"",""time""
""fullscreenenter"",""5"",""19022""
","
","306.5","","49","","","3000","1","","","images/earth.jpg","images/rocket2","images/rocket1","null","images/rocket1","","1","real","null","1","","",""
"d3-animate-choice","241","937548","0.0-76.0-1.35","3171","4981","20","Female","true","false","false","true","""event"",""trial"",""time""
""fullscreenenter"",""5"",""19022""
","
","
","""event"",""trial"",""time""
""fullscreenenter"",""5"",""19022""
","
","474.80000000004657","","49","","","3000","1","","","images/purpleplanet.jpg","images/alien4","images/alien3","images/rocket1","images/alien3","images/t.png","2","real","true","1","common","1","2022-12-07 16:45:06.180"
"two-step-fixation","242","938559","0.0-76.0-2.35","3171","4981","20","Female","true","false","false","true","""event"",""trial"",""time""
""fullscreenenter"",""5"",""19022""
","
","
","""event"",""trial"",""time""
""fullscreenenter"",""5"",""19022""
","
","","images/earth.jpg","","","","","","","","","","","","","","fixation","","","","","",""
"d3-animate-choice","243","940966","0.0-76.0-0.36","3171","4981","20","Female","true","false","false","true","""event"",""trial"",""time""
""fullscreenenter"",""5"",""19022""
","
","
","""event"",""trial"",""time""
""fullscreenenter"",""5"",""19022""
","
","402.10000000009313","","49","","","3000","1","","","images/earth.jpg","images/rocket2","images/rocket1","null","images/rocket1","","1","real","null","1","","",""
"d3-animate-choice","244","943948","0.0-76.0-1.36","3171","4981","20","Female","true","false","false","true","""event"",""trial"",""time""
""fullscreenenter"",""5"",""19022""
","
","
","""event"",""trial"",""time""
""fullscreenenter"",""5"",""19022""
","
","965.4000000001397","","48","","","3000","1","","","images/redplanet1.jpg","images/alien2","images/alien1","images/rocket1","images/alien2","images/nothing.png","2","real","false","2","rare","0","2022-12-07 16:45:12.580"
"two-step-fixation","245","944964","0.0-76.0-2.36","3171","4981","20","Female","true","false","false","true","""event"",""trial"",""time""
""fullscreenenter"",""5"",""19022""
","
","
","""event"",""trial"",""time""
