"trial_type","trial_index","time_elapsed","internal_node_id","participant_id","subject_id","age","gender","rocket_sides","red_planet_first_rocket","red_display_order","purple_display_order","interactions","blur_events","focus_events","fullscreenenter_events","fullscreenexit_events","rt","stimulus","key_press","button_pressed","success","duration","valid_pressed","rts","keys","planet_text","right_text","left_text","center_text","chosen_text","reward_text","trial_stage","practice_trial","transition_type","choice","transition","reward","timestamp"
"pavlovia","0","4","0.0-0.0","3455","5943","9","Male","true","true","false","false","
","
","
","
","
","","","","","","","","","","","","","","","","","","","","","",""
"html-keyboard-response","1","5990","0.0-1.0","3455","5943","9","Male","true","true","false","false","
","
","
","
","
","5983.299999952316","Welcome! Press the space bar to begin.","32","","","","","","","","","","","","","","","","","","",""
"audio-keyboard-response","2","9194","0.0-2.0","3455","5943","9","Male","true","true","false","false","""event"",""trial"",""time""
""blur"",""3"",""17786""
""focus"",""3"",""17787""
","""event"",""trial"",""time""
""blur"",""3"",""17786""
","""event"",""trial"",""time""
""focus"",""3"",""17787""
","
","
","3069","audio/beep_loop.wav","173","","","","","","","","","","","","","","","","","","",""
"audio-button-response","3","18604","0.0-3.0","3455","5943","9","Male","true","true","false","false","""event"",""trial"",""time""
""blur"",""3"",""17786""
""focus"",""3"",""17787""
","""event"",""trial"",""time""
""blur"",""3"",""17786""
","""event"",""trial"",""time""
""focus"",""3"",""17787""
","
","
","NaN","audio/fish.mp3","","1","","","","","","","","","","","","","","","","","",""
"audio-button-response","4","21286","0.0-4.0","3455","5943","9","Male","true","true","false","false","""event"",""trial"",""time""
""blur"",""3"",""17786""
""focus"",""3"",""17787""
""fullscreenenter"",""5"",""28113""
","""event"",""trial"",""time""
""blur"",""3"",""17786""
","""event"",""trial"",""time""
""focus"",""3"",""17787""
","""event"",""trial"",""time""
""fullscreenenter"",""5"",""28113""
","
","NaN","audio/tiger.mp3","","4","","","","","","","","","","","","","","","","","",""
"fullscreen","5","29009","0.0-5.0","3455","5943","9","Male","true","true","false","false","""event"",""trial"",""time""
""blur"",""3"",""17786""
""focus"",""3"",""17787""
""fullscreenenter"",""5"",""28113""
","""event"",""trial"",""time""
""blur"",""3"",""17786""
","""event"",""trial"",""time""
""focus"",""3"",""17787""
","""event"",""trial"",""time""
""fullscreenenter"",""5"",""28113""
","
","","","","","true","","","","","","","","","","","","","","","","",""
"d3-instructions","6","43715","0.0-6.0","3455","5943","9","Male","true","true","false","false","""event"",""trial"",""time""
""blur"",""3"",""17786""
""focus"",""3"",""17787""
""fullscreenenter"",""5"",""28113""
","""event"",""trial"",""time""
""blur"",""3"",""17786""
","""event"",""trial"",""time""
""focus"",""3"",""17787""
","""event"",""trial"",""time""
""fullscreenenter"",""5"",""28113""
","
","","","","","","","","","","","","","","","","","","","","","",""
"d3-instructions","7","53501","0.0-7.0","3455","5943","9","Male","true","true","false","false","""event"",""trial"",""time""
""blur"",""3"",""17786""
""focus"",""3"",""17787""
""fullscreenenter"",""5"",""28113""
","""event"",""trial"",""time""
""blur"",""3"",""17786""
","""event"",""trial"",""time""
""focus"",""3"",""17787""
","""event"",""trial"",""time""
""fullscreenenter"",""5"",""28113""
","
","","","","","","","","","","","","","","","","","","","","","",""
"d3-instructions","8","61225","0.0-8.0","3455","5943","9","Male","true","true","false","false","""event"",""trial"",""time""
""blur"",""3"",""17786""
""focus"",""3"",""17787""
""fullscreenenter"",""5"",""28113""
","""event"",""trial"",""time""
""blur"",""3"",""17786""
","""event"",""trial"",""time""
""focus"",""3"",""17787""
","""event"",""trial"",""time""
""fullscreenenter"",""5"",""28113""
","
","","","","","","","","","","","","","","","","","","","","","",""
"d3-instructions","9","72973","0.0-9.0","3455","5943","9","Male","true","true","false","false","""event"",""trial"",""time""
""blur"",""3"",""17786""
""focus"",""3"",""17787""
""fullscreenenter"",""5"",""28113""
","""event"",""trial"",""time""
""blur"",""3"",""17786""
","""event"",""trial"",""time""
""focus"",""3"",""17787""
","""event"",""trial"",""time""
""fullscreenenter"",""5"",""28113""
","
","","","","","","","","","","","","","","","","","","","","","",""
"d3-instructions","10","156746","0.0-10.0","3455","5943","9","Male","true","true","false","false","""event"",""trial"",""time""
""blur"",""3"",""17786""
""focus"",""3"",""17787""
""fullscreenenter"",""5"",""28113""
","""event"",""trial"",""time""
""blur"",""3"",""17786""
","""event"",""trial"",""time""
""focus"",""3"",""17787""
","""event"",""trial"",""time""
""fullscreenenter"",""5"",""28113""
","
","","","","","","","","","","","","","","","","","","","","","",""
"d3-animate-choice","11","165973","0.0-11.0","3455","5943","9","Male","true","true","false","false","""event"",""trial"",""time""
""blur"",""3"",""17786""
""focus"",""3"",""17787""
""fullscreenenter"",""5"",""28113""
","""event"",""trial"",""time""
""blur"",""3"",""17786""
","""event"",""trial"",""time""
""focus"",""3"",""17787""
","""event"",""trial"",""time""
""fullscreenenter"",""5"",""28113""
","
","1362.2000000476837","","32","","","3000","1","7199.400000095367","49","images/tutgreenplanet.jpg","images/tutalien1","images/tutalien2","null","images/tutalien2","","NA","practice","null","","","",""
"d3-animate-choice","12","171316","0.0-12.0","3455","5943","9","Male","true","true","false","false","""event"",""trial"",""time""
""blur"",""3"",""17786""
""focus"",""3"",""17787""
""fullscreenenter"",""5"",""28113""
","""event"",""trial"",""time""
""blur"",""3"",""17786""
","""event"",""trial"",""time""
""focus"",""3"",""17787""
","""event"",""trial"",""time""
""fullscreenenter"",""5"",""28113""
","
","3332","","48","","","3000","1","","","images/tutgreenplanet.jpg","images/tutalien1","images/tutalien2","null","images/tutalien1","","NA","practice","null","","","",""
"d3-animate-choice","13","175572","0.0-13.0","3455","5943","9","Male","true","true","false","false","""event"",""trial"",""time""
""blur"",""3"",""17786""
""focus"",""3"",""17787""
""fullscreenenter"",""5"",""28113""
","""event"",""trial"",""time""
""blur"",""3"",""17786""
","""event"",""trial"",""time""
""focus"",""3"",""17787""
","""event"",""trial"",""time""
""fullscreenenter"",""5"",""28113""
","
","343.2000000476837","","173","","","3000","1","2240","49","images/tutgreenplanet.jpg","images/tutalien1","images/tutalien2","null","images/tutalien2","","NA","practice","null","","","",""
"d3-animate-choice","14","179036","0.0-14.0","3455","5943","9","Male","true","true","false","false","""event"",""trial"",""time""
""blur"",""3"",""17786""
""focus"",""3"",""17787""
""fullscreenenter"",""5"",""28113""
","""event"",""trial"",""time""
""blur"",""3"",""17786""
","""event"",""trial"",""time""
""focus"",""3"",""17787""
","""event"",""trial"",""time""
""fullscreenenter"",""5"",""28113""
","
","1452.3000000715256","","48","","","3000","1","","","images/tutgreenplanet.jpg","images/tutalien1","images/tutalien2","null","images/tutalien1","","NA","practice","null","","","",""
"d3-instructions","15","185547","0.0-15.0","3455","5943","9","Male","true","true","false","false","""event"",""trial"",""time""
""blur"",""3"",""17786""
""focus"",""3"",""17787""
""fullscreenenter"",""5"",""28113""
","""event"",""trial"",""time""
""blur"",""3"",""17786""
","""event"",""trial"",""time""
""focus"",""3"",""17787""
","""event"",""trial"",""time""
""fullscreenenter"",""5"",""28113""
","
","","","","","","","","","","","","","","","","","","","","","",""
"d3-instructions","16","192626","0.0-16.0","3455","5943","9","Male","true","true","false","false","""event"",""trial"",""time""
""blur"",""3"",""17786""
""focus"",""3"",""17787""
""fullscreenenter"",""5"",""28113""
","""event"",""trial"",""time""
""blur"",""3"",""17786""
","""event"",""trial"",""time""
""focus"",""3"",""17787""
","""event"",""trial"",""time""
""fullscreenenter"",""5"",""28113""
","
","","","","","","","","","","","","","","","","","","","","","",""
"d3-instructions","17","201643","0.0-17.0","3455","5943","9","Male","true","true","false","false","""event"",""trial"",""time""
""blur"",""3"",""17786""
""focus"",""3"",""17787""
""fullscreenenter"",""5"",""28113""
","""event"",""trial"",""time""
""blur"",""3"",""17786""
","""event"",""trial"",""time""
""focus"",""3"",""17787""
","""event"",""trial"",""time""
""fullscreenenter"",""5"",""28113""
","
","","","","","","","","","","","","","","","","","","","","","",""
"d3-instructions","18","214203","0.0-18.0","3455","5943","9","Male","true","true","false","false","""event"",""trial"",""time""
""blur"",""3"",""17786""
""focus"",""3"",""17787""
""fullscreenenter"",""5"",""28113""
","""event"",""trial"",""time""
""blur"",""3"",""17786""
","""event"",""trial"",""time""
""focus"",""3"",""17787""
","""event"",""trial"",""time""
""fullscreenenter"",""5"",""28113""
","
","","","","","","","","","","","","","","","","","","","","","",""
"d3-instructions","19","234370","0.0-19.0","3455","5943","9","Male","true","true","false","false","""event"",""trial"",""time""
""blur"",""3"",""17786""
""focus"",""3"",""17787""
""fullscreenenter"",""5"",""28113""
","""event"",""trial"",""time""
""blur"",""3"",""17786""
","""event"",""trial"",""time""
""focus"",""3"",""17787""
","""event"",""trial"",""time""
""fullscreenenter"",""5"",""28113""
","
","","","","","","","","","","","","","","","","","","","","","",""
"d3-animate-choice","20","238470","0.0-20.0","3455","5943","9","Male","true","true","false","false","""event"",""trial"",""time""
""blur"",""3"",""17786""
""focus"",""3"",""17787""
""fullscreenenter"",""5"",""28113""
","""event"",""trial"",""time""
""blur"",""3"",""17786""
","""event"",""trial"",""time""
""focus"",""3"",""17787""
","""event"",""trial"",""time""
""fullscreenenter"",""5"",""28113""
","
","2082.399999976158","","49","","","3000","1","","","images/tutyellowplanet.jpg","null","images/tutalien3","null","images/tutalien3","images/t.png","NA","practice","null","","","",""
"d3-animate-choice","21","241189","0.0-21.0","3455","5943","9","Male","true","true","false","false","""event"",""trial"",""time""
""blur"",""3"",""17786""
""focus"",""3"",""17787""
""fullscreenenter"",""5"",""28113""
","""event"",""trial"",""time""
""blur"",""3"",""17786""
","""event"",""trial"",""time""
""focus"",""3"",""17787""
","""event"",""trial"",""time""
""fullscreenenter"",""5"",""28113""
","
","709.7999999523163","","49","","","3000","1","","","images/tutyellowplanet.jpg","null","images/tutalien3","null","images/tutalien3","images/t.png","NA","practice","null","","","",""
"d3-animate-choice","22","243620","0.0-22.0","3455","5943","9","Male","true","true","false","false","""event"",""trial"",""time""
""blur"",""3"",""17786""
""focus"",""3"",""17787""
""fullscreenenter"",""5"",""28113""
","""event"",""trial"",""time""
""blur"",""3"",""17786""
","""event"",""trial"",""time""
""focus"",""3"",""17787""
","""event"",""trial"",""time""
""fullscreenenter"",""5"",""28113""
","
","409.5","","49","","","3000","1","","","images/tutyellowplanet.jpg","null","images/tutalien3","null","images/tutalien3","images/t.png","NA","practice","null","","","",""
"d3-animate-choice","23","246350","0.0-23.0","3455","5943","9","Male","true","true","false","false","""event"",""trial"",""time""
""blur"",""3"",""17786""
""focus"",""3"",""17787""
""fullscreenenter"",""5"",""28113""
","""event"",""trial"",""time""
""blur"",""3"",""17786""
","""event"",""trial"",""time""
""focus"",""3"",""17787""
","""event"",""trial"",""time""
""fullscreenenter"",""5"",""28113""
","
","702.1000000238419","","49","","","3000","1","","","images/tutyellowplanet.jpg","null","images/tutalien3","null","images/tutalien3","images/t.png","NA","practice","null","","","",""
"d3-animate-choice","24","249189","0.0-24.0","3455","5943","9","Male","true","true","false","false","""event"",""trial"",""time""
""blur"",""3"",""17786""
""focus"",""3"",""17787""
""fullscreenenter"",""5"",""28113""
","""event"",""trial"",""time""
""blur"",""3"",""17786""
","""event"",""trial"",""time""
""focus"",""3"",""17787""
","""event"",""trial"",""time""
""fullscreenenter"",""5"",""28113""
","
","814.8999999761581","","49","","","3000","1","","","images/tutyellowplanet.jpg","null","images/tutalien3","null","images/tutalien3","images/nothing.png","NA","practice","null","","","",""
"d3-animate-choice","25","251669","0.0-25.0","3455","5943","9","Male","true","true","false","false","""event"",""trial"",""time""
""blur"",""3"",""17786""
""focus"",""3"",""17787""
""fullscreenenter"",""5"",""28113""
","""event"",""trial"",""time""
""blur"",""3"",""17786""
","""event"",""trial"",""time""
""focus"",""3"",""17787""
","""event"",""trial"",""time""
""fullscreenenter"",""5"",""28113""
","
","470.7000000476837","","49","","","3000","1","","","images/tutyellowplanet.jpg","null","images/tutalien3","null","images/tutalien3","images/t.png","NA","practice","null","","","",""
"d3-animate-choice","26","254320","0.0-26.0","3455","5943","9","Male","true","true","false","false","""event"",""trial"",""time""
""blur"",""3"",""17786""
""focus"",""3"",""17787""
""fullscreenenter"",""5"",""28113""
","""event"",""trial"",""time""
""blur"",""3"",""17786""
","""event"",""trial"",""time""
""focus"",""3"",""17787""
","""event"",""trial"",""time""
""fullscreenenter"",""5"",""28113""
","
","624.7999999523163","","49","","","3000","1","","","images/tutyellowplanet.jpg","null","images/tutalien3","null","images/tutalien3","images/t.png","NA","practice","null","","","",""
"d3-animate-choice","27","256850","0.0-27.0","3455","5943","9","Male","true","true","false","false","""event"",""trial"",""time""
""blur"",""3"",""17786""
""focus"",""3"",""17787""
""fullscreenenter"",""5"",""28113""
","""event"",""trial"",""time""
""blur"",""3"",""17786""
","""event"",""trial"",""time""
""focus"",""3"",""17787""
","""event"",""trial"",""time""
""fullscreenenter"",""5"",""28113""
","
","514.5","","49","","","3000","1","","","images/tutyellowplanet.jpg","null","images/tutalien3","null","images/tutalien3","images/t.png","NA","practice","null","","","",""
"d3-animate-choice","28","259548","0.0-28.0","3455","5943","9","Male","true","true","false","false","""event"",""trial"",""time""
""blur"",""3"",""17786""
""focus"",""3"",""17787""
""fullscreenenter"",""5"",""28113""
","""event"",""trial"",""time""
""blur"",""3"",""17786""
","""event"",""trial"",""time""
""focus"",""3"",""17787""
","""event"",""trial"",""time""
""fullscreenenter"",""5"",""28113""
","
","692.3000000715256","","49","","","3000","1","","","images/tutyellowplanet.jpg","null","images/tutalien3","null","images/tutalien3","images/t.png","NA","practice","null","","","",""
"d3-animate-choice","29","262172","0.0-29.0","3455","5943","9","Male","true","true","false","false","""event"",""trial"",""time""
""blur"",""3"",""17786""
""focus"",""3"",""17787""
""fullscreenenter"",""5"",""28113""
","""event"",""trial"",""time""
""blur"",""3"",""17786""
","""event"",""trial"",""time""
""focus"",""3"",""17787""
","""event"",""trial"",""time""
""fullscreenenter"",""5"",""28113""
","
","614.4000000953674","","49","","","3000","1","","","images/tutyellowplanet.jpg","null","images/tutalien3","null","images/tutalien3","images/nothing.png","NA","practice","null","","","",""
"d3-instructions","30","269268","0.0-30.0","3455","5943","9","Male","true","true","false","false","""event"",""trial"",""time""
""blur"",""3"",""17786""
""focus"",""3"",""17787""
""fullscreenenter"",""5"",""28113""
","""event"",""trial"",""time""
""blur"",""3"",""17786""
","""event"",""trial"",""time""
""focus"",""3"",""17787""
","""event"",""trial"",""time""
""fullscreenenter"",""5"",""28113""
","
","","","","","","","","","","","","","","","","","","","","","",""
"d3-instructions","31","279189","0.0-31.0","3455","5943","9","Male","true","true","false","false","""event"",""trial"",""time""
""blur"",""3"",""17786""
""focus"",""3"",""17787""
""fullscreenenter"",""5"",""28113""
","""event"",""trial"",""time""
""blur"",""3"",""17786""
","""event"",""trial"",""time""
""focus"",""3"",""17787""
","""event"",""trial"",""time""
""fullscreenenter"",""5"",""28113""
","
","","","","","","","","","","","","","","","","","","","","","",""
"d3-instructions","32","286486","0.0-32.0","3455","5943","9","Male","true","true","false","false","""event"",""trial"",""time""
""blur"",""3"",""17786""
""focus"",""3"",""17787""
""fullscreenenter"",""5"",""28113""
","""event"",""trial"",""time""
""blur"",""3"",""17786""
","""event"",""trial"",""time""
""focus"",""3"",""17787""
","""event"",""trial"",""time""
""fullscreenenter"",""5"",""28113""
","
","","","","","","","","","","","","","","","","","","","","","",""
"d3-instructions","33","292159","0.0-33.0","3455","5943","9","Male","true","true","false","false","""event"",""trial"",""time""
""blur"",""3"",""17786""
""focus"",""3"",""17787""
""fullscreenenter"",""5"",""28113""
","""event"",""trial"",""time""
""blur"",""3"",""17786""
","""event"",""trial"",""time""
""focus"",""3"",""17787""
","""event"",""trial"",""time""
""fullscreenenter"",""5"",""28113""
","
","","","","","","","","","","","","","","","","","","","","","",""
"d3-animate-choice","34","298105","0.0-34.0","3455","5943","9","Male","true","true","false","false","""event"",""trial"",""time""
""blur"",""3"",""17786""
""focus"",""3"",""17787""
""fullscreenenter"",""5"",""28113""
","""event"",""trial"",""time""
""blur"",""3"",""17786""
","""event"",""trial"",""time""
""focus"",""3"",""17787""
","""event"",""trial"",""time""
""fullscreenenter"",""5"",""28113""
","
","3930.7000000476837","","49","","","3000","1","","","images/tutgreenplanet.jpg","images/tutalien1","images/tutalien2","null","images/tutalien2","images/t.png","NA","practice","null","","","",""
"d3-animate-choice","35","300786","0.0-35.0","3455","5943","9","Male","true","true","false","false","""event"",""trial"",""time""
""blur"",""3"",""17786""
""focus"",""3"",""17787""
""fullscreenenter"",""5"",""28113""
","""event"",""trial"",""time""
""blur"",""3"",""17786""
","""event"",""trial"",""time""
""focus"",""3"",""17787""
","""event"",""trial"",""time""
""fullscreenenter"",""5"",""28113""
","
","673.2000000476837","","49","","","3000","1","","","images/tutgreenplanet.jpg","images/tutalien1","images/tutalien2","null","images/tutalien2","images/t.png","NA","practice","null","","","",""
"d3-animate-choice","36","303575","0.0-36.0","3455","5943","9","Male","true","true","false","false","""event"",""trial"",""time""
""blur"",""3"",""17786""
""focus"",""3"",""17787""
""fullscreenenter"",""5"",""28113""
","""event"",""trial"",""time""
""blur"",""3"",""17786""
","""event"",""trial"",""time""
""focus"",""3"",""17787""
","""event"",""trial"",""time""
""fullscreenenter"",""5"",""28113""
","
","763.2999999523163","","49","","","3000","1","","","images/tutgreenplanet.jpg","images/tutalien1","images/tutalien2","null","images/tutalien2","images/t.png","NA","practice","null","","","",""
"d3-animate-choice","37","306296","0.0-37.0","3455","5943","9","Male","true","true","false","false","""event"",""trial"",""time""
""blur"",""3"",""17786""
""focus"",""3"",""17787""
""fullscreenenter"",""5"",""28113""
","""event"",""trial"",""time""
""blur"",""3"",""17786""
","""event"",""trial"",""time""
""focus"",""3"",""17787""
","""event"",""trial"",""time""
""fullscreenenter"",""5"",""28113""
","
","709.6000000238419","","49","","","3000","1","","","images/tutgreenplanet.jpg","images/tutalien1","images/tutalien2","null","images/tutalien2","images/t.png","NA","practice","null","","","",""
"d3-animate-choice","38","308846","0.0-38.0","3455","5943","9","Male","true","true","false","false","""event"",""trial"",""time""
""blur"",""3"",""17786""
""focus"",""3"",""17787""
""fullscreenenter"",""5"",""28113""
","""event"",""trial"",""time""
""blur"",""3"",""17786""
","""event"",""trial"",""time""
""focus"",""3"",""17787""
","""event"",""trial"",""time""
""fullscreenenter"",""5"",""28113""
","
","523.8000000715256","","49","","","3000","1","","","images/tutgreenplanet.jpg","images/tutalien1","images/tutalien2","null","images/tutalien2","images/t.png","NA","practice","null","","","",""
"d3-animate-choice","39","311545","0.0-39.0","3455","5943","9","Male","true","true","false","false","""event"",""trial"",""time""
""blur"",""3"",""17786""
""focus"",""3"",""17787""
""fullscreenenter"",""5"",""28113""
","""event"",""trial"",""time""
""blur"",""3"",""17786""
","""event"",""trial"",""time""
""focus"",""3"",""17787""
","""event"",""trial"",""time""
""fullscreenenter"",""5"",""28113""
","
","670.8000000715256","","49","","","3000","1","","","images/tutgreenplanet.jpg","images/tutalien1","images/tutalien2","null","images/tutalien2","images/t.png","NA","practice","null","","","",""
"d3-animate-choice","40","314475","0.0-40.0","3455","5943","9","Male","true","true","false","false","""event"",""trial"",""time""
""blur"",""3"",""17786""
""focus"",""3"",""17787""
""fullscreenenter"",""5"",""28113""
","""event"",""trial"",""time""
""blur"",""3"",""17786""
","""event"",""trial"",""time""
""focus"",""3"",""17787""
","""event"",""trial"",""time""
""fullscreenenter"",""5"",""28113""
","
","908.6999999284744","","49","","","3000","1","","","images/tutgreenplanet.jpg","images/tutalien1","images/tutalien2","null","images/tutalien2","images/t.png","NA","practice","null","","","",""
"d3-animate-choice","41","316946","0.0-41.0","3455","5943","9","Male","true","true","false","false","""event"",""trial"",""time""
""blur"",""3"",""17786""
""focus"",""3"",""17787""
""fullscreenenter"",""5"",""28113""
","""event"",""trial"",""time""
""blur"",""3"",""17786""
","""event"",""trial"",""time""
""focus"",""3"",""17787""
","""event"",""trial"",""time""
""fullscreenenter"",""5"",""28113""
","
","449.10000002384186","","49","","","3000","1","","","images/tutgreenplanet.jpg","images/tutalien1","images/tutalien2","null","images/tutalien2","images/t.png","NA","practice","null","","","",""
"d3-animate-choice","42","319334","0.0-42.0","3455","5943","9","Male","true","true","false","false","""event"",""trial"",""time""
""blur"",""3"",""17786""
""focus"",""3"",""17787""
""fullscreenenter"",""5"",""28113""
","""event"",""trial"",""time""
""blur"",""3"",""17786""
","""event"",""trial"",""time""
""focus"",""3"",""17787""
","""event"",""trial"",""time""
""fullscreenenter"",""5"",""28113""
","
","357.2000000476837","","49","","","3000","1","","","images/tutgreenplanet.jpg","images/tutalien1","images/tutalien2","null","images/tutalien2","images/t.png","NA","practice","null","","","",""
"d3-animate-choice","43","321752","0.0-43.0","3455","5943","9","Male","true","true","false","false","""event"",""trial"",""time""
""blur"",""3"",""17786""
""focus"",""3"",""17787""
""fullscreenenter"",""5"",""28113""
","""event"",""trial"",""time""
""blur"",""3"",""17786""
","""event"",""trial"",""time""
""focus"",""3"",""17787""
","""event"",""trial"",""time""
""fullscreenenter"",""5"",""28113""
","
","406.2999999523163","","49","","","3000","1","","","images/tutgreenplanet.jpg","images/tutalien1","images/tutalien2","null","images/tutalien2","images/t.png","NA","practice","null","","","",""
"d3-instructions","44","335098","0.0-44.0","3455","5943","9","Male","true","true","false","false","""event"",""trial"",""time""
""blur"",""3"",""17786""
""focus"",""3"",""17787""
""fullscreenenter"",""5"",""28113""
","""event"",""trial"",""time""
""blur"",""3"",""17786""
","""event"",""trial"",""time""
""focus"",""3"",""17787""
","""event"",""trial"",""time""
""fullscreenenter"",""5"",""28113""
","
","","","","","","","","","","","","","","","","","","","","","",""
"d3-instructions","45","341517","0.0-45.0","3455","5943","9","Male","true","true","false","false","""event"",""trial"",""time""
""blur"",""3"",""17786""
""focus"",""3"",""17787""
""fullscreenenter"",""5"",""28113""
","""event"",""trial"",""time""
""blur"",""3"",""17786""
","""event"",""trial"",""time""
""focus"",""3"",""17787""
","""event"",""trial"",""time""
""fullscreenenter"",""5"",""28113""
","
","","","","","","","","","","","","","","","","","","","","","",""
"d3-instructions","46","347619","0.0-46.0","3455","5943","9","Male","true","true","false","false","""event"",""trial"",""time""
""blur"",""3"",""17786""
""focus"",""3"",""17787""
""fullscreenenter"",""5"",""28113""
","""event"",""trial"",""time""
""blur"",""3"",""17786""
","""event"",""trial"",""time""
""focus"",""3"",""17787""
","""event"",""trial"",""time""
""fullscreenenter"",""5"",""28113""
","
","","","","","","","","","","","","","","","","","","","","","",""
"d3-instructions","47","378203","0.0-47.0","3455","5943","9","Male","true","true","false","false","""event"",""trial"",""time""
""blur"",""3"",""17786""
""focus"",""3"",""17787""
""fullscreenenter"",""5"",""28113""
","""event"",""trial"",""time""
""blur"",""3"",""17786""
","""event"",""trial"",""time""
""focus"",""3"",""17787""
","""event"",""trial"",""time""
""fullscreenenter"",""5"",""28113""
","
","","","","","","","","","","","","","","","","","","","","","",""
"d3-instructions","48","384803","0.0-48.0","3455","5943","9","Male","true","true","false","false","""event"",""trial"",""time""
""blur"",""3"",""17786""
""focus"",""3"",""17787""
""fullscreenenter"",""5"",""28113""
","""event"",""trial"",""time""
""blur"",""3"",""17786""
","""event"",""trial"",""time""
""focus"",""3"",""17787""
","""event"",""trial"",""time""
""fullscreenenter"",""5"",""28113""
","
","","","","","","","","","","","","","","","","","","","","","",""
"d3-instructions","49","413916","0.0-49.0","3455","5943","9","Male","true","true","false","false","""event"",""trial"",""time""
""blur"",""3"",""17786""
""focus"",""3"",""17787""
""fullscreenenter"",""5"",""28113""
","""event"",""trial"",""time""
""blur"",""3"",""17786""
","""event"",""trial"",""time""
""focus"",""3"",""17787""
","""event"",""trial"",""time""
""fullscreenenter"",""5"",""28113""
","
","","","","","","","","","","","","","","","","","","","","","",""
"d3-instructions","50","424321","0.0-50.0","3455","5943","9","Male","true","true","false","false","""event"",""trial"",""time""
""blur"",""3"",""17786""
""focus"",""3"",""17787""
""fullscreenenter"",""5"",""28113""
","""event"",""trial"",""time""
""blur"",""3"",""17786""
","""event"",""trial"",""time""
""focus"",""3"",""17787""
","""event"",""trial"",""time""
""fullscreenenter"",""5"",""28113""
","
","","","","","","","","","","","","","","","","","","","","","",""
"d3-instructions","51","427307","0.0-51.0","3455","5943","9","Male","true","true","false","false","""event"",""trial"",""time""
""blur"",""3"",""17786""
""focus"",""3"",""17787""
""fullscreenenter"",""5"",""28113""
","""event"",""trial"",""time""
""blur"",""3"",""17786""
","""event"",""trial"",""time""
""focus"",""3"",""17787""
","""event"",""trial"",""time""
""fullscreenenter"",""5"",""28113""
","
","","","","","","","","","","","","","","","","","","","","","",""
"d3-instructions","52","430297","0.0-52.0","3455","5943","9","Male","true","true","false","false","""event"",""trial"",""time""
""blur"",""3"",""17786""
""focus"",""3"",""17787""
""fullscreenenter"",""5"",""28113""
","""event"",""trial"",""time""
""blur"",""3"",""17786""
","""event"",""trial"",""time""
""focus"",""3"",""17787""
","""event"",""trial"",""time""
""fullscreenenter"",""5"",""28113""
","
","","","","","","","","","","","","","","","","","","","","","",""
"d3-instructions","53","485898","0.0-53.0","3455","5943","9","Male","true","true","false","false","""event"",""trial"",""time""
""blur"",""3"",""17786""
""focus"",""3"",""17787""
""fullscreenenter"",""5"",""28113""
","""event"",""trial"",""time""
""blur"",""3"",""17786""
","""event"",""trial"",""time""
""focus"",""3"",""17787""
","""event"",""trial"",""time""
""fullscreenenter"",""5"",""28113""
","
","","","","","","","","","","","","","","","","","","","","","",""
"d3-instructions","54","493466","0.0-54.0","3455","5943","9","Male","true","true","false","false","""event"",""trial"",""time""
""blur"",""3"",""17786""
""focus"",""3"",""17787""
""fullscreenenter"",""5"",""28113""
","""event"",""trial"",""time""
""blur"",""3"",""17786""
","""event"",""trial"",""time""
""focus"",""3"",""17787""
","""event"",""trial"",""time""
""fullscreenenter"",""5"",""28113""
","
","","","","","","","","","","","","","","","","","","","","","",""
"d3-instructions","55","498642","0.0-55.0","3455","5943","9","Male","true","true","false","false","""event"",""trial"",""time""
""blur"",""3"",""17786""
""focus"",""3"",""17787""
""fullscreenenter"",""5"",""28113""
","""event"",""trial"",""time""
""blur"",""3"",""17786""
","""event"",""trial"",""time""
""focus"",""3"",""17787""
","""event"",""trial"",""time""
""fullscreenenter"",""5"",""28113""
","
","","","","","","","","","","","","","","","","","","","","","",""
"d3-instructions","56","505953","0.0-56.0","3455","5943","9","Male","true","true","false","false","""event"",""trial"",""time""
""blur"",""3"",""17786""
""focus"",""3"",""17787""
""fullscreenenter"",""5"",""28113""
","""event"",""trial"",""time""
""blur"",""3"",""17786""
","""event"",""trial"",""time""
""focus"",""3"",""17787""
","""event"",""trial"",""time""
""fullscreenenter"",""5"",""28113""
","
","","","","","","","","","","","","","","","","","","","","","",""
"d3-instructions","57","513477","0.0-57.0","3455","5943","9","Male","true","true","false","false","""event"",""trial"",""time""
""blur"",""3"",""17786""
""focus"",""3"",""17787""
""fullscreenenter"",""5"",""28113""
","""event"",""trial"",""time""
""blur"",""3"",""17786""
","""event"",""trial"",""time""
""focus"",""3"",""17787""
","""event"",""trial"",""time""
""fullscreenenter"",""5"",""28113""
","
","","","","","","","","","","","","","","","","","","","","","",""
"d3-instructions","58","521745","0.0-58.0","3455","5943","9","Male","true","true","false","false","""event"",""trial"",""time""
""blur"",""3"",""17786""
""focus"",""3"",""17787""
""fullscreenenter"",""5"",""28113""
","""event"",""trial"",""time""
""blur"",""3"",""17786""
","""event"",""trial"",""time""
""focus"",""3"",""17787""
","""event"",""trial"",""time""
""fullscreenenter"",""5"",""28113""
","
","","","","","","","","","","","","","","","","","","","","","",""
"d3-instructions","59","525096","0.0-59.0","3455","5943","9","Male","true","true","false","false","""event"",""trial"",""time""
""blur"",""3"",""17786""
""focus"",""3"",""17787""
""fullscreenenter"",""5"",""28113""
","""event"",""trial"",""time""
""blur"",""3"",""17786""
","""event"",""trial"",""time""
""focus"",""3"",""17787""
","""event"",""trial"",""time""
""fullscreenenter"",""5"",""28113""
","
","","","","","","","","","","","","","","","","","","","","","",""
"d3-instructions","60","529991","0.0-60.0","3455","5943","9","Male","true","true","false","false","""event"",""trial"",""time""
""blur"",""3"",""17786""
""focus"",""3"",""17787""
""fullscreenenter"",""5"",""28113""
","""event"",""trial"",""time""
""blur"",""3"",""17786""
","""event"",""trial"",""time""
""focus"",""3"",""17787""
","""event"",""trial"",""time""
""fullscreenenter"",""5"",""28113""
","
","","","","","","","","","","","","","","","","","","","","","",""
"d3-animate-choice","61","533292","0.0-61.0-0.0","3455","5943","9","Male","true","true","false","false","""event"",""trial"",""time""
""blur"",""3"",""17786""
""focus"",""3"",""17787""
""fullscreenenter"",""5"",""28113""
","""event"",""trial"",""time""
""blur"",""3"",""17786""
","""event"",""trial"",""time""
""focus"",""3"",""17787""
","""event"",""trial"",""time""
""fullscreenenter"",""5"",""28113""
","
","1276.2999999523163","","49","","","3000","1","","","images/earth.jpg","images/tutrocket2","images/tutrocket1","null","images/tutrocket1","","1","practice","null","1","","",""
"d3-animate-choice","62","536926","0.0-61.0-1.0","3455","5943","9","Male","true","true","false","false","""event"",""trial"",""time""
""blur"",""3"",""17786""
""focus"",""3"",""17787""
""fullscreenenter"",""5"",""28113""
","""event"",""trial"",""time""
""blur"",""3"",""17786""
","""event"",""trial"",""time""
""focus"",""3"",""17787""
","""event"",""trial"",""time""
""fullscreenenter"",""5"",""28113""
","
","1613.6000000238419","","49","","","3000","1","","","images/tutyellowplanet.jpg","images/tutalien4","images/tutalien3","images/tutrocket1","images/tutalien3","images/nothing.png","2","practice","false","1","rare","0","2023-01-22 14:12:18.782"
"two-step-fixation","63","537962","0.0-61.0-2.0","3455","5943","9","Male","true","true","false","false","""event"",""trial"",""time""
""blur"",""3"",""17786""
""focus"",""3"",""17787""
""fullscreenenter"",""5"",""28113""
","""event"",""trial"",""time""
""blur"",""3"",""17786""
","""event"",""trial"",""time""
""focus"",""3"",""17787""
","""event"",""trial"",""time""
""fullscreenenter"",""5"",""28113""
","
","","images/earth.jpg","","","","","","","","","","","","","","fixation","","","","","",""
"d3-animate-choice","64","541992","0.0-61.0-0.1","3455","5943","9","Male","true","true","false","false","""event"",""trial"",""time""
""blur"",""3"",""17786""
""focus"",""3"",""17787""
""fullscreenenter"",""5"",""28113""
","""event"",""trial"",""time""
""blur"",""3"",""17786""
","""event"",""trial"",""time""
""focus"",""3"",""17787""
","""event"",""trial"",""time""
""fullscreenenter"",""5"",""28113""
","
","2300.600000023842","","48","","","3000","1","","","images/earth.jpg","images/tutrocket2","images/tutrocket1","null","images/tutrocket2","","1","practice","null","2","","",""
"d3-animate-choice","65","545436","0.0-61.0-1.1","3455","5943","9","Male","true","true","false","false","""event"",""trial"",""time""
""blur"",""3"",""17786""
""focus"",""3"",""17787""
""fullscreenenter"",""5"",""28113""
","""event"",""trial"",""time""
""blur"",""3"",""17786""
","""event"",""trial"",""time""
""focus"",""3"",""17787""
","""event"",""trial"",""time""
""fullscreenenter"",""5"",""28113""
","
","1434.3999999761581","","48","","","3000","1","","","images/tutgreenplanet.jpg","images/tutalien2","images/tutalien1","images/tutrocket2","images/tutalien2","images/t.png","2","practice","false","2","rare","1","2023-01-22 14:12:27.291"
"two-step-fixation","66","546444","0.0-61.0-2.1","3455","5943","9","Male","true","true","false","false","""event"",""trial"",""time""
""blur"",""3"",""17786""
""focus"",""3"",""17787""
""fullscreenenter"",""5"",""28113""
","""event"",""trial"",""time""
""blur"",""3"",""17786""
","""event"",""trial"",""time""
""focus"",""3"",""17787""
","""event"",""trial"",""time""
""fullscreenenter"",""5"",""28113""
","
","","images/earth.jpg","","","","","","","","","","","","","","fixation","","","","","",""
"d3-animate-choice","67","549191","0.0-61.0-0.2","3455","5943","9","Male","true","true","false","false","""event"",""trial"",""time""
""blur"",""3"",""17786""
""focus"",""3"",""17787""
""fullscreenenter"",""5"",""28113""
","""event"",""trial"",""time""
""blur"",""3"",""17786""
","""event"",""trial"",""time""
""focus"",""3"",""17787""
","""event"",""trial"",""time""
""fullscreenenter"",""5"",""28113""
","
","725.2999999523163","","49","","","3000","1","","","images/earth.jpg","images/tutrocket2","images/tutrocket1","null","images/tutrocket1","","1","practice","null","1","","",""
"d3-animate-choice","68","552621","0.0-61.0-1.2","3455","5943","9","Male","true","true","false","false","""event"",""trial"",""time""
""blur"",""3"",""17786""
""focus"",""3"",""17787""
""fullscreenenter"",""5"",""28113""
","""event"",""trial"",""time""
""blur"",""3"",""17786""
","""event"",""trial"",""time""
""focus"",""3"",""17787""
","""event"",""trial"",""time""
""fullscreenenter"",""5"",""28113""
","
","1407.8000000715256","","49","","","3000","1","","","images/tutgreenplanet.jpg","images/tutalien2","images/tutalien1","images/tutrocket1","images/tutalien1","images/t.png","2","practice","true","1","common","1","2023-01-22 14:12:34.476"
"two-step-fixation","69","553642","0.0-61.0-2.2","3455","5943","9","Male","true","true","false","false","""event"",""trial"",""time""
""blur"",""3"",""17786""
""focus"",""3"",""17787""
""fullscreenenter"",""5"",""28113""
","""event"",""trial"",""time""
""blur"",""3"",""17786""
","""event"",""trial"",""time""
""focus"",""3"",""17787""
","""event"",""trial"",""time""
""fullscreenenter"",""5"",""28113""
","
","","images/earth.jpg","","","","","","","","","","","","","","fixation","","","","","",""
"d3-animate-choice","70","556292","0.0-61.0-0.3","3455","5943","9","Male","true","true","false","false","""event"",""trial"",""time""
""blur"",""3"",""17786""
""focus"",""3"",""17787""
""fullscreenenter"",""5"",""28113""
","""event"",""trial"",""time""
""blur"",""3"",""17786""
","""event"",""trial"",""time""
""focus"",""3"",""17787""
","""event"",""trial"",""time""
""fullscreenenter"",""5"",""28113""
","
","638.9000000953674","","48","","","3000","1","","","images/earth.jpg","images/tutrocket2","images/tutrocket1","null","images/tutrocket2","","1","practice","null","2","","",""
"d3-animate-choice","71","559031","0.0-61.0-1.3","3455","5943","9","Male","true","true","false","false","""event"",""trial"",""time""
""blur"",""3"",""17786""
""focus"",""3"",""17787""
""fullscreenenter"",""5"",""28113""
","""event"",""trial"",""time""
""blur"",""3"",""17786""
","""event"",""trial"",""time""
""focus"",""3"",""17787""
","""event"",""trial"",""time""
""fullscreenenter"",""5"",""28113""
","
","714.6000000238419","","48","","","3000","1","","","images/tutgreenplanet.jpg","images/tutalien2","images/tutalien1","images/tutrocket2","images/tutalien2","images/nothing.png","2","practice","false","2","rare","0","2023-01-22 14:12:40.887"
"two-step-fixation","72","560054","0.0-61.0-2.3","3455","5943","9","Male","true","true","false","false","""event"",""trial"",""time""
""blur"",""3"",""17786""
""focus"",""3"",""17787""
""fullscreenenter"",""5"",""28113""
","""event"",""trial"",""time""
""blur"",""3"",""17786""
","""event"",""trial"",""time""
""focus"",""3"",""17787""
","""event"",""trial"",""time""
""fullscreenenter"",""5"",""28113""
","
","","images/earth.jpg","","","","","","","","","","","","","","fixation","","","","","",""
"d3-animate-choice","73","563372","0.0-61.0-0.4","3455","5943","9","Male","true","true","false","false","""event"",""trial"",""time""
""blur"",""3"",""17786""
""focus"",""3"",""17787""
""fullscreenenter"",""5"",""28113""
","""event"",""trial"",""time""
""blur"",""3"",""17786""
","""event"",""trial"",""time""
""focus"",""3"",""17787""
","""event"",""trial"",""time""
""fullscreenenter"",""5"",""28113""
","
","1310.7999999523163","","49","","","3000","1","","","images/earth.jpg","images/tutrocket2","images/tutrocket1","null","images/tutrocket1","","1","practice","null","1","","",""
"d3-animate-choice","74","566788","0.0-61.0-1.4","3455","5943","9","Male","true","true","false","false","""event"",""trial"",""time""
""blur"",""3"",""17786""
""focus"",""3"",""17787""
""fullscreenenter"",""5"",""28113""
","""event"",""trial"",""time""
""blur"",""3"",""17786""
","""event"",""trial"",""time""
""focus"",""3"",""17787""
","""event"",""trial"",""time""
""fullscreenenter"",""5"",""28113""
","
","1401.3999999761581","","49","","","3000","1","","","images/tutyellowplanet.jpg","images/tutalien4","images/tutalien3","images/tutrocket1","images/tutalien3","images/nothing.png","2","practice","false","1","rare","0","2023-01-22 14:12:48.643"
"two-step-fixation","75","567797","0.0-61.0-2.4","3455","5943","9","Male","true","true","false","false","""event"",""trial"",""time""
""blur"",""3"",""17786""
""focus"",""3"",""17787""
""fullscreenenter"",""5"",""28113""
","""event"",""trial"",""time""
""blur"",""3"",""17786""
","""event"",""trial"",""time""
""focus"",""3"",""17787""
","""event"",""trial"",""time""
""fullscreenenter"",""5"",""28113""
","
","","images/earth.jpg","","","","","","","","","","","","","","fixation","","","","","",""
"d3-animate-choice","76","571389","0.0-61.0-0.5","3455","5943","9","Male","true","true","false","false","""event"",""trial"",""time""
""blur"",""3"",""17786""
""focus"",""3"",""17787""
""fullscreenenter"",""5"",""28113""
","""event"",""trial"",""time""
""blur"",""3"",""17786""
","""event"",""trial"",""time""
""focus"",""3"",""17787""
","""event"",""trial"",""time""
""fullscreenenter"",""5"",""28113""
","
","1578.8999999761581","","48","","","3000","1","","","images/earth.jpg","images/tutrocket2","images/tutrocket1","null","images/tutrocket2","","1","practice","null","2","","",""
"d3-animate-choice","77","574133","0.0-61.0-1.5","3455","5943","9","Male","true","true","false","false","""event"",""trial"",""time""
""blur"",""3"",""17786""
""focus"",""3"",""17787""
""fullscreenenter"",""5"",""28113""
","""event"",""trial"",""time""
""blur"",""3"",""17786""
","""event"",""trial"",""time""
""focus"",""3"",""17787""
","""event"",""trial"",""time""
""fullscreenenter"",""5"",""28113""
","
","729.6999999284744","","48","","","3000","1","","","images/tutgreenplanet.jpg","images/tutalien2","images/tutalien1","images/tutrocket2","images/tutalien2","images/nothing.png","2","practice","false","2","rare","0","2023-01-22 14:12:55.988"
"two-step-fixation","78","575141","0.0-61.0-2.5","3455","5943","9","Male","true","true","false","false","""event"",""trial"",""time""
""blur"",""3"",""17786""
""focus"",""3"",""17787""
""fullscreenenter"",""5"",""28113""
","""event"",""trial"",""time""
""blur"",""3"",""17786""
","""event"",""trial"",""time""
""focus"",""3"",""17787""
","""event"",""trial"",""time""
""fullscreenenter"",""5"",""28113""
","
","","images/earth.jpg","","","","","","","","","","","","","","fixation","","","","","",""
"d3-animate-choice","79","578644","0.0-61.0-0.6","3455","5943","9","Male","true","true","false","false","""event"",""trial"",""time""
""blur"",""3"",""17786""
""focus"",""3"",""17787""
""fullscreenenter"",""5"",""28113""
","""event"",""trial"",""time""
""blur"",""3"",""17786""
","""event"",""trial"",""time""
""focus"",""3"",""17787""
","""event"",""trial"",""time""
""fullscreenenter"",""5"",""28113""
","
","1487.2999999523163","","48","","","3000","1","","","images/earth.jpg","images/tutrocket2","images/tutrocket1","null","images/tutrocket2","","1","practice","null","2","","",""
"d3-animate-choice","80","581134","0.0-61.0-1.6","3455","5943","9","Male","true","true","false","false","""event"",""trial"",""time""
""blur"",""3"",""17786""
""focus"",""3"",""17787""
""fullscreenenter"",""5"",""28113""
","""event"",""trial"",""time""
""blur"",""3"",""17786""
","""event"",""trial"",""time""
""focus"",""3"",""17787""
","""event"",""trial"",""time""
""fullscreenenter"",""5"",""28113""
","
","478.10000002384186","","48","","","3000","1","","","images/tutyellowplanet.jpg","images/tutalien4","images/tutalien3","images/tutrocket2","images/tutalien4","images/nothing.png","2","practice","true","2","common","0","2023-01-22 14:13:02.989"
"two-step-fixation","81","582141","0.0-61.0-2.6","3455","5943","9","Male","true","true","false","false","""event"",""trial"",""time""
""blur"",""3"",""17786""
""focus"",""3"",""17787""
""fullscreenenter"",""5"",""28113""
","""event"",""trial"",""time""
""blur"",""3"",""17786""
","""event"",""trial"",""time""
""focus"",""3"",""17787""
","""event"",""trial"",""time""
""fullscreenenter"",""5"",""28113""
","
","","images/earth.jpg","","","","","","","","","","","","","","fixation","","","","","",""
"d3-animate-choice","82","584956","0.0-61.0-0.7","3455","5943","9","Male","true","true","false","false","""event"",""trial"",""time""
""blur"",""3"",""17786""
""focus"",""3"",""17787""
""fullscreenenter"",""5"",""28113""
","""event"",""trial"",""time""
""blur"",""3"",""17786""
","""event"",""trial"",""time""
""focus"",""3"",""17787""
","""event"",""trial"",""time""
""fullscreenenter"",""5"",""28113""
","
","805.4000000953674","","49","","","3000","1","","","images/earth.jpg","images/tutrocket2","images/tutrocket1","null","images/tutrocket1","","1","practice","null","1","","",""
"d3-animate-choice","83","587308","0.0-61.0-1.7","3455","5943","9","Male","true","true","false","false","""event"",""trial"",""time""
""blur"",""3"",""17786""
""focus"",""3"",""17787""
""fullscreenenter"",""5"",""28113""
","""event"",""trial"",""time""
""blur"",""3"",""17786""
","""event"",""trial"",""time""
""focus"",""3"",""17787""
","""event"",""trial"",""time""
""fullscreenenter"",""5"",""28113""
","
","337.89999997615814","","48","","","3000","1","","","images/tutyellowplanet.jpg","images/tutalien4","images/tutalien3","images/tutrocket1","images/tutalien4","images/t.png","2","practice","false","2","rare","1","2023-01-22 14:13:09.163"
"two-step-fixation","84","588316","0.0-61.0-2.7","3455","5943","9","Male","true","true","false","false","""event"",""trial"",""time""
""blur"",""3"",""17786""
""focus"",""3"",""17787""
""fullscreenenter"",""5"",""28113""
","""event"",""trial"",""time""
""blur"",""3"",""17786""
","""event"",""trial"",""time""
""focus"",""3"",""17787""
","""event"",""trial"",""time""
""fullscreenenter"",""5"",""28113""
","
","","images/earth.jpg","","","","","","","","","","","","","","fixation","","","","","",""
"d3-animate-choice","85","590812","0.0-61.0-0.8","3455","5943","9","Male","true","true","false","false","""event"",""trial"",""time""
""blur"",""3"",""17786""
""focus"",""3"",""17787""
""fullscreenenter"",""5"",""28113""
","""event"",""trial"",""time""
""blur"",""3"",""17786""
","""event"",""trial"",""time""
""focus"",""3"",""17787""
","""event"",""trial"",""time""
""fullscreenenter"",""5"",""28113""
","
","485.10000002384186","","48","","","3000","1","","","images/earth.jpg","images/tutrocket2","images/tutrocket1","null","images/tutrocket2","","1","practice","null","2","","",""
"d3-animate-choice","86","593252","0.0-61.0-1.8","3455","5943","9","Male","true","true","false","false","""event"",""trial"",""time""
""blur"",""3"",""17786""
""focus"",""3"",""17787""
""fullscreenenter"",""5"",""28113""
","""event"",""trial"",""time""
""blur"",""3"",""17786""
","""event"",""trial"",""time""
""focus"",""3"",""17787""
","""event"",""trial"",""time""
""fullscreenenter"",""5"",""28113""
","
","425.7999999523163","","49","","","3000","1","","","images/tutyellowplanet.jpg","images/tutalien4","images/tutalien3","images/tutrocket2","images/tutalien3","images/t.png","2","practice","true","1","common","1","2023-01-22 14:13:15.107"
"two-step-fixation","87","594275","0.0-61.0-2.8","3455","5943","9","Male","true","true","false","false","""event"",""trial"",""time""
""blur"",""3"",""17786""
""focus"",""3"",""17787""
""fullscreenenter"",""5"",""28113""
","""event"",""trial"",""time""
""blur"",""3"",""17786""
","""event"",""trial"",""time""
""focus"",""3"",""17787""
","""event"",""trial"",""time""
""fullscreenenter"",""5"",""28113""
","
","","images/earth.jpg","","","","","","","","","","","","","","fixation","","","","","",""
"d3-animate-choice","88","597444","0.0-61.0-0.9","3455","5943","9","Male","true","true","false","false","""event"",""trial"",""time""
""blur"",""3"",""17786""
""focus"",""3"",""17787""
""fullscreenenter"",""5"",""28113""
","""event"",""trial"",""time""
""blur"",""3"",""17786""
","""event"",""trial"",""time""
""focus"",""3"",""17787""
","""event"",""trial"",""time""
""fullscreenenter"",""5"",""28113""
","
","1154.5999999046326","","48","","","3000","1","","","images/earth.jpg","images/tutrocket2","images/tutrocket1","null","images/tutrocket2","","1","practice","null","2","","",""
"d3-animate-choice","89","599940","0.0-61.0-1.9","3455","5943","9","Male","true","true","false","false","""event"",""trial"",""time""
""blur"",""3"",""17786""
""focus"",""3"",""17787""
""fullscreenenter"",""5"",""28113""
","""event"",""trial"",""time""
""blur"",""3"",""17786""
","""event"",""trial"",""time""
""focus"",""3"",""17787""
","""event"",""trial"",""time""
""fullscreenenter"",""5"",""28113""
","
","489.60000002384186","","49","","","3000","1","","","images/tutyellowplanet.jpg","images/tutalien4","images/tutalien3","images/tutrocket2","images/tutalien3","images/nothing.png","2","practice","true","1","common","0","2023-01-22 14:13:21.795"
"two-step-fixation","90","600948","0.0-61.0-2.9","3455","5943","9","Male","true","true","false","false","""event"",""trial"",""time""
""blur"",""3"",""17786""
""focus"",""3"",""17787""
""fullscreenenter"",""5"",""28113""
","""event"",""trial"",""time""
""blur"",""3"",""17786""
","""event"",""trial"",""time""
""focus"",""3"",""17787""
","""event"",""trial"",""time""
""fullscreenenter"",""5"",""28113""
","
","","images/earth.jpg","","","","","","","","","","","","","","fixation","","","","","",""
"d3-animate-choice","91","603388","0.0-61.0-0.10","3455","5943","9","Male","true","true","false","false","""event"",""trial"",""time""
""blur"",""3"",""17786""
""focus"",""3"",""17787""
""fullscreenenter"",""5"",""28113""
","""event"",""trial"",""time""
""blur"",""3"",""17786""
","""event"",""trial"",""time""
""focus"",""3"",""17787""
","""event"",""trial"",""time""
""fullscreenenter"",""5"",""28113""
","
","434.39999997615814","","48","","","3000","1","","","images/earth.jpg","images/tutrocket2","images/tutrocket1","null","images/tutrocket2","","1","practice","null","2","","",""
"d3-animate-choice","92","605869","0.0-61.0-1.10","3455","5943","9","Male","true","true","false","false","""event"",""trial"",""time""
""blur"",""3"",""17786""
""focus"",""3"",""17787""
""fullscreenenter"",""5"",""28113""
","""event"",""trial"",""time""
""blur"",""3"",""17786""
","""event"",""trial"",""time""
""focus"",""3"",""17787""
","""event"",""trial"",""time""
""fullscreenenter"",""5"",""28113""
","
","469","","49","","","3000","1","","","images/tutgreenplanet.jpg","images/tutalien2","images/tutalien1","images/tutrocket2","images/tutalien1","images/t.png","2","practice","false","1","rare","1","2023-01-22 14:13:27.724"
"two-step-fixation","93","606877","0.0-61.0-2.10","3455","5943","9","Male","true","true","false","false","""event"",""trial"",""time""
""blur"",""3"",""17786""
""focus"",""3"",""17787""
""fullscreenenter"",""5"",""28113""
","""event"",""trial"",""time""
""blur"",""3"",""17786""
","""event"",""trial"",""time""
""focus"",""3"",""17787""
","""event"",""trial"",""time""
""fullscreenenter"",""5"",""28113""
","
","","images/earth.jpg","","","","","","","","","","","","","","fixation","","","","","",""
"d3-animate-choice","94","609212","0.0-61.0-0.11","3455","5943","9","Male","true","true","false","false","""event"",""trial"",""time""
""blur"",""3"",""17786""
""focus"",""3"",""17787""
""fullscreenenter"",""5"",""28113""
","""event"",""trial"",""time""
""blur"",""3"",""17786""
","""event"",""trial"",""time""
""focus"",""3"",""17787""
","""event"",""trial"",""time""
""fullscreenenter"",""5"",""28113""
","
","322.60000002384186","","49","","","3000","1","","","images/earth.jpg","images/tutrocket2","images/tutrocket1","null","images/tutrocket1","","1","practice","null","1","","",""
"d3-animate-choice","95","611610","0.0-61.0-1.11","3455","5943","9","Male","true","true","false","false","""event"",""trial"",""time""
""blur"",""3"",""17786""
""focus"",""3"",""17787""
""fullscreenenter"",""5"",""28113""
","""event"",""trial"",""time""
""blur"",""3"",""17786""
","""event"",""trial"",""time""
""focus"",""3"",""17787""
","""event"",""trial"",""time""
""fullscreenenter"",""5"",""28113""
","
","385.39999997615814","","48","","","3000","1","","","images/tutgreenplanet.jpg","images/tutalien2","images/tutalien1","images/tutrocket1","images/tutalien2","images/t.png","2","practice","true","2","common","1","2023-01-22 14:13:33.465"
"two-step-fixation","96","612620","0.0-61.0-2.11","3455","5943","9","Male","true","true","false","false","""event"",""trial"",""time""
""blur"",""3"",""17786""
""focus"",""3"",""17787""
""fullscreenenter"",""5"",""28113""
","""event"",""trial"",""time""
""blur"",""3"",""17786""
","""event"",""trial"",""time""
""focus"",""3"",""17787""
","""event"",""trial"",""time""
""fullscreenenter"",""5"",""28113""
","
","","images/earth.jpg","","","","","","","","","","","","","","fixation","","","","","",""
"d3-animate-choice","97","615429","0.0-61.0-0.12","3455","5943","9","Male","true","true","false","false","""event"",""trial"",""time""
""blur"",""3"",""17786""
""focus"",""3"",""17787""
""fullscreenenter"",""5"",""28113""
","""event"",""trial"",""time""
""blur"",""3"",""17786""
","""event"",""trial"",""time""
""focus"",""3"",""17787""
","""event"",""trial"",""time""
""fullscreenenter"",""5"",""28113""
","
","800.1000000238419","","48","","","3000","1","","","images/earth.jpg","images/tutrocket2","images/tutrocket1","null","images/tutrocket2","","1","practice","null","2","","",""
"d3-animate-choice","98","617884","0.0-61.0-1.12","3455","5943","9","Male","true","true","false","false","""event"",""trial"",""time""
""blur"",""3"",""17786""
""focus"",""3"",""17787""
""fullscreenenter"",""5"",""28113""
","""event"",""trial"",""time""
""blur"",""3"",""17786""
","""event"",""trial"",""time""
""focus"",""3"",""17787""
","""event"",""trial"",""time""
""fullscreenenter"",""5"",""28113""
","
","446.59999990463257","","49","","","3000","1","","","images/tutgreenplanet.jpg","images/tutalien2","images/tutalien1","images/tutrocket2","images/tutalien1","images/t.png","2","practice","false","1","rare","1","2023-01-22 14:13:39.739"
"two-step-fixation","99","618892","0.0-61.0-2.12","3455","5943","9","Male","true","true","false","false","""event"",""trial"",""time""
""blur"",""3"",""17786""
""focus"",""3"",""17787""
""fullscreenenter"",""5"",""28113""
","""event"",""trial"",""time""
""blur"",""3"",""17786""
","""event"",""trial"",""time""
""focus"",""3"",""17787""
","""event"",""trial"",""time""
""fullscreenenter"",""5"",""28113""
","
","","images/earth.jpg","","","","","","","","","","","","","","fixation","","","","","",""
"d3-animate-choice","100","621325","0.0-61.0-0.13","3455","5943","9","Male","true","true","false","false","""event"",""trial"",""time""
""blur"",""3"",""17786""
""focus"",""3"",""17787""
""fullscreenenter"",""5"",""28113""
","""event"",""trial"",""time""
""blur"",""3"",""17786""
","""event"",""trial"",""time""
""focus"",""3"",""17787""
","""event"",""trial"",""time""
""fullscreenenter"",""5"",""28113""
","
","420.2000000476837","","49","","","3000","1","","","images/earth.jpg","images/tutrocket2","images/tutrocket1","null","images/tutrocket1","","1","practice","null","1","","",""
"d3-animate-choice","101","623812","0.0-61.0-1.13","3455","5943","9","Male","true","true","false","false","""event"",""trial"",""time""
""blur"",""3"",""17786""
""focus"",""3"",""17787""
""fullscreenenter"",""5"",""28113""
","""event"",""trial"",""time""
""blur"",""3"",""17786""
","""event"",""trial"",""time""
""focus"",""3"",""17787""
","""event"",""trial"",""time""
""fullscreenenter"",""5"",""28113""
","
","473.6999999284744","","48","","","3000","1","","","images/tutyellowplanet.jpg","images/tutalien4","images/tutalien3","images/tutrocket1","images/tutalien4","images/nothing.png","2","practice","false","2","rare","0","2023-01-22 14:13:45.667"
"two-step-fixation","102","624820","0.0-61.0-2.13","3455","5943","9","Male","true","true","false","false","""event"",""trial"",""time""
""blur"",""3"",""17786""
""focus"",""3"",""17787""
""fullscreenenter"",""5"",""28113""
","""event"",""trial"",""time""
""blur"",""3"",""17786""
","""event"",""trial"",""time""
""focus"",""3"",""17787""
","""event"",""trial"",""time""
""fullscreenenter"",""5"",""28113""
","
","","images/earth.jpg","","","","","","","","","","","","","","fixation","","","","","",""
"d3-animate-choice","103","627140","0.0-61.0-0.14","3455","5943","9","Male","true","true","false","false","""event"",""trial"",""time""
""blur"",""3"",""17786""
""focus"",""3"",""17787""
""fullscreenenter"",""5"",""28113""
","""event"",""trial"",""time""
""blur"",""3"",""17786""
","""event"",""trial"",""time""
""focus"",""3"",""17787""
","""event"",""trial"",""time""
""fullscreenenter"",""5"",""28113""
","
","307","","48","","","3000","1","","","images/earth.jpg","images/tutrocket2","images/tutrocket1","null","images/tutrocket2","","1","practice","null","2","","",""
"d3-animate-choice","104","629437","0.0-61.0-1.14","3455","5943","9","Male","true","true","false","false","""event"",""trial"",""time""
""blur"",""3"",""17786""
""focus"",""3"",""17787""
""fullscreenenter"",""5"",""28113""
","""event"",""trial"",""time""
""blur"",""3"",""17786""
","""event"",""trial"",""time""
""focus"",""3"",""17787""
","""event"",""trial"",""time""
""fullscreenenter"",""5"",""28113""
","
","288.39999997615814","","49","","","3000","1","","","images/tutyellowplanet.jpg","images/tutalien4","images/tutalien3","images/tutrocket2","images/tutalien3","images/nothing.png","2","practice","true","1","common","0","2023-01-22 14:13:51.292"
"two-step-fixation","105","630452","0.0-61.0-2.14","3455","5943","9","Male","true","true","false","false","""event"",""trial"",""time""
""blur"",""3"",""17786""
""focus"",""3"",""17787""
""fullscreenenter"",""5"",""28113""
","""event"",""trial"",""time""
""blur"",""3"",""17786""
","""event"",""trial"",""time""
""focus"",""3"",""17787""
","""event"",""trial"",""time""
""fullscreenenter"",""5"",""28113""
","
","","images/earth.jpg","","","","","","","","","","","","","","fixation","","","","","",""
"d3-animate-choice","106","633404","0.0-61.0-0.15","3455","5943","9","Male","true","true","false","false","""event"",""trial"",""time""
""blur"",""3"",""17786""
""focus"",""3"",""17787""
""fullscreenenter"",""5"",""28113""
","""event"",""trial"",""time""
""blur"",""3"",""17786""
","""event"",""trial"",""time""
""focus"",""3"",""17787""
","""event"",""trial"",""time""
""fullscreenenter"",""5"",""28113""
","
","943.3999999761581","","49","","","3000","1","","","images/earth.jpg","images/tutrocket2","images/tutrocket1","null","images/tutrocket1","","1","practice","null","1","","",""
"d3-animate-choice","107","635805","0.0-61.0-1.15","3455","5943","9","Male","true","true","false","false","""event"",""trial"",""time""
""blur"",""3"",""17786""
""focus"",""3"",""17787""
""fullscreenenter"",""5"",""28113""
","""event"",""trial"",""time""
""blur"",""3"",""17786""
","""event"",""trial"",""time""
""focus"",""3"",""17787""
","""event"",""trial"",""time""
""fullscreenenter"",""5"",""28113""
","
","392.10000002384186","","49","","","3000","1","","","images/tutyellowplanet.jpg","images/tutalien4","images/tutalien3","images/tutrocket1","images/tutalien3","images/nothing.png","2","practice","false","1","rare","0","2023-01-22 14:13:57.660"
"two-step-fixation","108","636813","0.0-61.0-2.15","3455","5943","9","Male","true","true","false","false","""event"",""trial"",""time""
""blur"",""3"",""17786""
""focus"",""3"",""17787""
""fullscreenenter"",""5"",""28113""
","""event"",""trial"",""time""
""blur"",""3"",""17786""
","""event"",""trial"",""time""
""focus"",""3"",""17787""
","""event"",""trial"",""time""
""fullscreenenter"",""5"",""28113""
","
","","images/earth.jpg","","","","","","","","","","","","","","fixation","","","","","",""
"d3-animate-choice","109","639627","0.0-61.0-0.16","3455","5943","9","Male","true","true","false","false","""event"",""trial"",""time""
""blur"",""3"",""17786""
""focus"",""3"",""17787""
""fullscreenenter"",""5"",""28113""
","""event"",""trial"",""time""
""blur"",""3"",""17786""
","""event"",""trial"",""time""
""focus"",""3"",""17787""
","""event"",""trial"",""time""
""fullscreenenter"",""5"",""28113""
","
","802.6000000238419","","48","","","3000","1","","","images/earth.jpg","images/tutrocket2","images/tutrocket1","null","images/tutrocket2","","1","practice","null","2","","",""
"d3-animate-choice","110","642067","0.0-61.0-1.16","3455","5943","9","Male","true","true","false","false","""event"",""trial"",""time""
""blur"",""3"",""17786""
""focus"",""3"",""17787""
""fullscreenenter"",""5"",""28113""
","""event"",""trial"",""time""
""blur"",""3"",""17786""
","""event"",""trial"",""time""
""focus"",""3"",""17787""
","""event"",""trial"",""time""
""fullscreenenter"",""5"",""28113""
","
","429.89999997615814","","48","","","3000","1","","","images/tutgreenplanet.jpg","images/tutalien2","images/tutalien1","images/tutrocket2","images/tutalien2","images/t.png","2","practice","false","2","rare","1","2023-01-22 14:14:03.923"
"two-step-fixation","111","643076","0.0-61.0-2.16","3455","5943","9","Male","true","true","false","false","""event"",""trial"",""time""
""blur"",""3"",""17786""
""focus"",""3"",""17787""
""fullscreenenter"",""5"",""28113""
","""event"",""trial"",""time""
""blur"",""3"",""17786""
","""event"",""trial"",""time""
""focus"",""3"",""17787""
","""event"",""trial"",""time""
""fullscreenenter"",""5"",""28113""
","
","","images/earth.jpg","","","","","","","","","","","","","","fixation","","","","","",""
"d3-animate-choice","112","645443","0.0-61.0-0.17","3455","5943","9","Male","true","true","false","false","""event"",""trial"",""time""
""blur"",""3"",""17786""
""focus"",""3"",""17787""
""fullscreenenter"",""5"",""28113""
","""event"",""trial"",""time""
""blur"",""3"",""17786""
","""event"",""trial"",""time""
""focus"",""3"",""17787""
","""event"",""trial"",""time""
""fullscreenenter"",""5"",""28113""
","
","357.7999999523163","","49","","","3000","1","","","images/earth.jpg","images/tutrocket2","images/tutrocket1","null","images/tutrocket1","","1","practice","null","1","","",""
"d3-animate-choice","113","647732","0.0-61.0-1.17","3455","5943","9","Male","true","true","false","false","""event"",""trial"",""time""
""blur"",""3"",""17786""
""focus"",""3"",""17787""
""fullscreenenter"",""5"",""28113""
","""event"",""trial"",""time""
""blur"",""3"",""17786""
","""event"",""trial"",""time""
""focus"",""3"",""17787""
","""event"",""trial"",""time""
""fullscreenenter"",""5"",""28113""
","
","279.7000000476837","","48","","","3000","1","","","images/tutgreenplanet.jpg","images/tutalien2","images/tutalien1","images/tutrocket1","images/tutalien2","images/t.png","2","practice","true","2","common","1","2023-01-22 14:14:09.587"
"two-step-fixation","114","648740","0.0-61.0-2.17","3455","5943","9","Male","true","true","false","false","""event"",""trial"",""time""
""blur"",""3"",""17786""
""focus"",""3"",""17787""
""fullscreenenter"",""5"",""28113""
","""event"",""trial"",""time""
""blur"",""3"",""17786""
","""event"",""trial"",""time""
""focus"",""3"",""17787""
","""event"",""trial"",""time""
""fullscreenenter"",""5"",""28113""
","
","","images/earth.jpg","","","","","","","","","","","","","","fixation","","","","","",""
"d3-animate-choice","115","651268","0.0-61.0-0.18","3455","5943","9","Male","true","true","false","false","""event"",""trial"",""time""
""blur"",""3"",""17786""
""focus"",""3"",""17787""
""fullscreenenter"",""5"",""28113""
","""event"",""trial"",""time""
""blur"",""3"",""17786""
","""event"",""trial"",""time""
""focus"",""3"",""17787""
","""event"",""trial"",""time""
""fullscreenenter"",""5"",""28113""
","
","517.3999999761581","","49","","","3000","1","","","images/earth.jpg","images/tutrocket2","images/tutrocket1","null","images/tutrocket1","","1","practice","null","1","","",""
"d3-animate-choice","116","653644","0.0-61.0-1.18","3455","5943","9","Male","true","true","false","false","""event"",""trial"",""time""
""blur"",""3"",""17786""
""focus"",""3"",""17787""
""fullscreenenter"",""5"",""28113""
","""event"",""trial"",""time""
""blur"",""3"",""17786""
","""event"",""trial"",""time""
""focus"",""3"",""17787""
","""event"",""trial"",""time""
""fullscreenenter"",""5"",""28113""
","
","365.7999999523163","","49","","","3000","1","","","images/tutyellowplanet.jpg","images/tutalien4","images/tutalien3","images/tutrocket1","images/tutalien3","images/t.png","2","practice","false","1","rare","1","2023-01-22 14:14:15.500"
"two-step-fixation","117","654651","0.0-61.0-2.18","3455","5943","9","Male","true","true","false","false","""event"",""trial"",""time""
""blur"",""3"",""17786""
""focus"",""3"",""17787""
""fullscreenenter"",""5"",""28113""
","""event"",""trial"",""time""
""blur"",""3"",""17786""
","""event"",""trial"",""time""
""focus"",""3"",""17787""
","""event"",""trial"",""time""
""fullscreenenter"",""5"",""28113""
","
","","images/earth.jpg","","","","","","","","","","","","","","fixation","","","","","",""
"d3-animate-choice","118","657300","0.0-61.0-0.19","3455","5943","9","Male","true","true","false","false","""event"",""trial"",""time""
""blur"",""3"",""17786""
""focus"",""3"",""17787""
""fullscreenenter"",""5"",""28113""
","""event"",""trial"",""time""
""blur"",""3"",""17786""
","""event"",""trial"",""time""
""focus"",""3"",""17787""
","""event"",""trial"",""time""
""fullscreenenter"",""5"",""28113""
","
","636.5","","48","","","3000","1","","","images/earth.jpg","images/tutrocket2","images/tutrocket1","null","images/tutrocket2","","1","practice","null","2","","",""
"d3-animate-choice","119","659868","0.0-61.0-1.19","3455","5943","9","Male","true","true","false","false","""event"",""trial"",""time""
""blur"",""3"",""17786""
""focus"",""3"",""17787""
""fullscreenenter"",""5"",""28113""
","""event"",""trial"",""time""
""blur"",""3"",""17786""
","""event"",""trial"",""time""
""focus"",""3"",""17787""
","""event"",""trial"",""time""
""fullscreenenter"",""5"",""28113""
","
","560.6000000238419","","48","","","3000","1","","","images/tutyellowplanet.jpg","images/tutalien4","images/tutalien3","images/tutrocket2","images/tutalien4","images/t.png","2","practice","true","2","common","1","2023-01-22 14:14:21.723"
"two-step-fixation","120","660876","0.0-61.0-2.19","3455","5943","9","Male","true","true","false","false","""event"",""trial"",""time""
""blur"",""3"",""17786""
""focus"",""3"",""17787""
""fullscreenenter"",""5"",""28113""
","""event"",""trial"",""time""
""blur"",""3"",""17786""
","""event"",""trial"",""time""
""focus"",""3"",""17787""
","""event"",""trial"",""time""
""fullscreenenter"",""5"",""28113""
","
","","images/earth.jpg","","","","","","","","","","","","","","fixation","","","","","",""
"d3-instructions","121","665825","0.0-62.0","3455","5943","9","Male","true","true","false","false","""event"",""trial"",""time""
""blur"",""3"",""17786""
""focus"",""3"",""17787""
""fullscreenenter"",""5"",""28113""
","""event"",""trial"",""time""
""blur"",""3"",""17786""
","""event"",""trial"",""time""
""focus"",""3"",""17787""
","""event"",""trial"",""time""
""fullscreenenter"",""5"",""28113""
","
","","","","","","","","","","","","","","","","","","","","","",""
"audio-keyboard-response","122","668621","0.0-63.0","3455","5943","9","Male","true","true","false","false","""event"",""trial"",""time""
""blur"",""3"",""17786""
""focus"",""3"",""17787""
""fullscreenenter"",""5"",""28113""
","""event"",""trial"",""time""
""blur"",""3"",""17786""
","""event"",""trial"",""time""
""focus"",""3"",""17787""
","""event"",""trial"",""time""
""fullscreenenter"",""5"",""28113""
","
","2789","audio/instructions/treasure_feedback.wav","32","","","","","","","","","","","","","","","","","","",""
"d3-instructions","123","678857","0.0-64.0","3455","5943","9","Male","true","true","false","false","""event"",""trial"",""time""
""blur"",""3"",""17786""
""focus"",""3"",""17787""
""fullscreenenter"",""5"",""28113""
","""event"",""trial"",""time""
""blur"",""3"",""17786""
","""event"",""trial"",""time""
""focus"",""3"",""17787""
","""event"",""trial"",""time""
""fullscreenenter"",""5"",""28113""
","
","","","","","","","","","","","","","","","","","","","","","",""
"d3-instructions","124","690736","0.0-65.0","3455","5943","9","Male","true","true","false","false","""event"",""trial"",""time""
""blur"",""3"",""17786""
""focus"",""3"",""17787""
""fullscreenenter"",""5"",""28113""
","""event"",""trial"",""time""
""blur"",""3"",""17786""
","""event"",""trial"",""time""
""focus"",""3"",""17787""
","""event"",""trial"",""time""
""fullscreenenter"",""5"",""28113""
","
","","","","","","","","","","","","","","","","","","","","","",""
"d3-instructions","125","704131","0.0-66.0","3455","5943","9","Male","true","true","false","false","""event"",""trial"",""time""
""blur"",""3"",""17786""
""focus"",""3"",""17787""
""fullscreenenter"",""5"",""28113""
","""event"",""trial"",""time""
""blur"",""3"",""17786""
","""event"",""trial"",""time""
""focus"",""3"",""17787""
","""event"",""trial"",""time""
""fullscreenenter"",""5"",""28113""
","
","","","","","","","","","","","","","","","","","","","","","",""
"d3-instructions","126","716084","0.0-67.0","3455","5943","9","Male","true","true","false","false","""event"",""trial"",""time""
""blur"",""3"",""17786""
""focus"",""3"",""17787""
""fullscreenenter"",""5"",""28113""
","""event"",""trial"",""time""
""blur"",""3"",""17786""
","""event"",""trial"",""time""
""focus"",""3"",""17787""
","""event"",""trial"",""time""
""fullscreenenter"",""5"",""28113""
","
","","","","","","","","","","","","","","","","","","","","","",""
"d3-instructions","127","720405","0.0-68.0","3455","5943","9","Male","true","true","false","false","""event"",""trial"",""time""
""blur"",""3"",""17786""
""focus"",""3"",""17787""
""fullscreenenter"",""5"",""28113""
","""event"",""trial"",""time""
""blur"",""3"",""17786""
","""event"",""trial"",""time""
""focus"",""3"",""17787""
","""event"",""trial"",""time""
""fullscreenenter"",""5"",""28113""
","
","","","","","","","","","","","","","","","","","","","","","",""
"instructions-quiz","128","724142","0.0-69.0","3455","5943","9","Male","true","true","false","false","""event"",""trial"",""time""
""blur"",""3"",""17786""
""focus"",""3"",""17787""
""fullscreenenter"",""5"",""28113""
","""event"",""trial"",""time""
""blur"",""3"",""17786""
","""event"",""trial"",""time""
""focus"",""3"",""17787""
","""event"",""trial"",""time""
""fullscreenenter"",""5"",""28113""
","
","3732.100000023842","audio/quiz/Q1_Prompt.wav","","1","","","","","","","","","","","","","","","","","",""
"audio-keyboard-response","129","730407","0.0-70.0","3455","5943","9","Male","true","true","false","false","""event"",""trial"",""time""
""blur"",""3"",""17786""
""focus"",""3"",""17787""
""fullscreenenter"",""5"",""28113""
","""event"",""trial"",""time""
""blur"",""3"",""17786""
","""event"",""trial"",""time""
""focus"",""3"",""17787""
","""event"",""trial"",""time""
""fullscreenenter"",""5"",""28113""
","
","6261","audio/quiz/Q1_Correct.wav","32","","","","","","","","","","","","","","","","","","",""
"instructions-quiz","130","737114","0.0-71.0","3455","5943","9","Male","true","true","false","false","""event"",""trial"",""time""
""blur"",""3"",""17786""
""focus"",""3"",""17787""
""fullscreenenter"",""5"",""28113""
","""event"",""trial"",""time""
""blur"",""3"",""17786""
","""event"",""trial"",""time""
""focus"",""3"",""17787""
","""event"",""trial"",""time""
""fullscreenenter"",""5"",""28113""
","
","6702.399999976158","audio/quiz/Q2_Prompt.wav","","1","","","","","","","","","","","","","","","","","",""
"audio-keyboard-response","131","748705","0.0-72.0","3455","5943","9","Male","true","true","false","false","""event"",""trial"",""time""
""blur"",""3"",""17786""
""focus"",""3"",""17787""
""fullscreenenter"",""5"",""28113""
","""event"",""trial"",""time""
""blur"",""3"",""17786""
","""event"",""trial"",""time""
""focus"",""3"",""17787""
","""event"",""trial"",""time""
""fullscreenenter"",""5"",""28113""
","
","11589","audio/quiz/Q2_Incorrect.wav","32","","","","","","","","","","","","","","","","","","",""
"instructions-quiz","132","752220","0.0-73.0","3455","5943","9","Male","true","true","false","false","""event"",""trial"",""time""
""blur"",""3"",""17786""
""focus"",""3"",""17787""
""fullscreenenter"",""5"",""28113""
","""event"",""trial"",""time""
""blur"",""3"",""17786""
","""event"",""trial"",""time""
""focus"",""3"",""17787""
","""event"",""trial"",""time""
""fullscreenenter"",""5"",""28113""
","
","3511.2999999523163","audio/quiz/Q3_Prompt.wav","","1","","","","","","","","","","","","","","","","","",""
"audio-keyboard-response","133","755776","0.0-74.0","3455","5943","9","Male","true","true","false","false","""event"",""trial"",""time""
""blur"",""3"",""17786""
""focus"",""3"",""17787""
""fullscreenenter"",""5"",""28113""
","""event"",""trial"",""time""
""blur"",""3"",""17786""
","""event"",""trial"",""time""
""focus"",""3"",""17787""
","""event"",""trial"",""time""
""fullscreenenter"",""5"",""28113""
","
","3549","audio/quiz/Q3_Correct.wav","32","","","","","","","","","","","","","","","","","","",""
"d3-instructions","134","775271","0.0-75.0","3455","5943","9","Male","true","true","false","false","""event"",""trial"",""time""
""blur"",""3"",""17786""
""focus"",""3"",""17787""
""fullscreenenter"",""5"",""28113""
","""event"",""trial"",""time""
""blur"",""3"",""17786""
","""event"",""trial"",""time""
""focus"",""3"",""17787""
","""event"",""trial"",""time""
""fullscreenenter"",""5"",""28113""
","
","","","","","","","","","","","","","","","","","","","","","",""
"pavlovia","135","775275","0.0-76.0","3455","5943","9","Male","true","true","false","false","""event"",""trial"",""time""
""blur"",""3"",""17786""
""focus"",""3"",""17787""
""fullscreenenter"",""5"",""28113""
","""event"",""trial"",""time""
""blur"",""3"",""17786""
","""event"",""trial"",""time""
""focus"",""3"",""17787""
","""event"",""trial"",""time""
""fullscreenenter"",""5"",""28113""
","
","","","","","","","","","","","","","","","","","","","","","",""
"d3-animate-choice","136","779293","0.0-77.0-0.0","3455","5943","9","Male","true","true","false","false","""event"",""trial"",""time""
""blur"",""3"",""17786""
""focus"",""3"",""17787""
""fullscreenenter"",""5"",""28113""
","""event"",""trial"",""time""
""blur"",""3"",""17786""
","""event"",""trial"",""time""
""focus"",""3"",""17787""
","""event"",""trial"",""time""
""fullscreenenter"",""5"",""28113""
","
","2263.2000000476837","","49","","","3000","1","","","images/earth.jpg","images/rocket2","images/rocket1","null","images/rocket1","","1","real","null","1","","",""
"d3-animate-choice","137","783305","0.0-77.0-1.0","3455","5943","9","Male","true","true","false","false","""event"",""trial"",""time""
""blur"",""3"",""17786""
""focus"",""3"",""17787""
""fullscreenenter"",""5"",""28113""
","""event"",""trial"",""time""
""blur"",""3"",""17786""
","""event"",""trial"",""time""
""focus"",""3"",""17787""
","""event"",""trial"",""time""
""fullscreenenter"",""5"",""28113""
","
","2126.399999976158","","49","","","3000","1","","","images/redplanet1.jpg","images/alien2","images/alien1","images/rocket1","images/alien1","images/nothing.png","2","real","true","1","common","0","2023-01-22 14:16:25.160"
"two-step-fixation","138","784317","0.0-77.0-2.0","3455","5943","9","Male","true","true","false","false","""event"",""trial"",""time""
""blur"",""3"",""17786""
""focus"",""3"",""17787""
""fullscreenenter"",""5"",""28113""
","""event"",""trial"",""time""
""blur"",""3"",""17786""
","""event"",""trial"",""time""
""focus"",""3"",""17787""
","""event"",""trial"",""time""
""fullscreenenter"",""5"",""28113""
","
","","images/earth.jpg","","","","","","","","","","","","","","fixation","","","","","",""
"d3-animate-choice","139","787421","0.0-77.0-0.1","3455","5943","9","Male","true","true","false","false","""event"",""trial"",""time""
""blur"",""3"",""17786""
""focus"",""3"",""17787""
""fullscreenenter"",""5"",""28113""
","""event"",""trial"",""time""
""blur"",""3"",""17786""
","""event"",""trial"",""time""
""focus"",""3"",""17787""
","""event"",""trial"",""time""
""fullscreenenter"",""5"",""28113""
","
","1093.2000000476837","","49","","","3000","1","","","images/earth.jpg","images/rocket2","images/rocket1","null","images/rocket1","","1","real","null","1","","",""
"d3-animate-choice","140","791439","0.0-77.0-1.1","3455","5943","9","Male","true","true","false","false","""event"",""trial"",""time""
""blur"",""3"",""17786""
""focus"",""3"",""17787""
""fullscreenenter"",""5"",""28113""
","""event"",""trial"",""time""
""blur"",""3"",""17786""
","""event"",""trial"",""time""
""focus"",""3"",""17787""
","""event"",""trial"",""time""
""fullscreenenter"",""5"",""28113""
","
","2626.899999976158","","48","","","3000","1","","","images/purpleplanet.jpg","images/alien4","images/alien3","images/rocket1","images/alien4","images/nothing.png","2","real","false","2","rare","0","2023-01-22 14:16:33.294"
"two-step-fixation","141","792445","0.0-77.0-2.1","3455","5943","9","Male","true","true","false","false","""event"",""trial"",""time""
""blur"",""3"",""17786""
""focus"",""3"",""17787""
""fullscreenenter"",""5"",""28113""
","""event"",""trial"",""time""
""blur"",""3"",""17786""
","""event"",""trial"",""time""
""focus"",""3"",""17787""
","""event"",""trial"",""time""
""fullscreenenter"",""5"",""28113""
","
","","images/earth.jpg","","","","","","","","","","","","","","fixation","","","","","",""
"d3-animate-choice","142","795669","0.0-77.0-0.2","3455","5943","9","Male","true","true","false","false","""event"",""trial"",""time""
""blur"",""3"",""17786""
""focus"",""3"",""17787""
""fullscreenenter"",""5"",""28113""
","""event"",""trial"",""time""
""blur"",""3"",""17786""
","""event"",""trial"",""time""
""focus"",""3"",""17787""
","""event"",""trial"",""time""
""fullscreenenter"",""5"",""28113""
","
","1210.5","","48","","","3000","1","","","images/earth.jpg","images/rocket2","images/rocket1","null","images/rocket2","","1","real","null","2","","",""
"d3-animate-choice","143","799686","0.0-77.0-1.2","3455","5943","9","Male","true","true","false","false","""event"",""trial"",""time""
""blur"",""3"",""17786""
""focus"",""3"",""17787""
""fullscreenenter"",""5"",""28113""
","""event"",""trial"",""time""
""blur"",""3"",""17786""
","""event"",""trial"",""time""
""focus"",""3"",""17787""
","""event"",""trial"",""time""
""fullscreenenter"",""5"",""28113""
","
","2074.5999999046326","","48","","","3000","1","","","images/purpleplanet.jpg","images/alien4","images/alien3","images/rocket2","images/alien4","images/t.png","2","real","true","2","common","1","2023-01-22 14:16:41.542"
"two-step-fixation","144","800702","0.0-77.0-2.2","3455","5943","9","Male","true","true","false","false","""event"",""trial"",""time""
""blur"",""3"",""17786""
""focus"",""3"",""17787""
""fullscreenenter"",""5"",""28113""
","""event"",""trial"",""time""
""blur"",""3"",""17786""
","""event"",""trial"",""time""
""focus"",""3"",""17787""
","""event"",""trial"",""time""
""fullscreenenter"",""5"",""28113""
","
","","images/earth.jpg","","","","","","","","","","","","","","fixation","","","","","",""
"d3-animate-choice","145","803261","0.0-77.0-0.3","3455","5943","9","Male","true","true","false","false","""event"",""trial"",""time""
""blur"",""3"",""17786""
""focus"",""3"",""17787""
""fullscreenenter"",""5"",""28113""
","""event"",""trial"",""time""
""blur"",""3"",""17786""
","""event"",""trial"",""time""
""focus"",""3"",""17787""
","""event"",""trial"",""time""
""fullscreenenter"",""5"",""28113""
","
","548.2999999523163","","48","","","3000","1","","","images/earth.jpg","images/rocket2","images/rocket1","null","images/rocket2","","1","real","null","2","","",""
"d3-animate-choice","146","805965","0.0-77.0-1.3","3455","5943","9","Male","true","true","false","false","""event"",""trial"",""time""
""blur"",""3"",""17786""
""focus"",""3"",""17787""
""fullscreenenter"",""5"",""28113""
","""event"",""trial"",""time""
""blur"",""3"",""17786""
","""event"",""trial"",""time""
""focus"",""3"",""17787""
","""event"",""trial"",""time""
""fullscreenenter"",""5"",""28113""
","
","695.3000000715256","","48","","","3000","1","","","images/purpleplanet.jpg","images/alien4","images/alien3","images/rocket2","images/alien4","images/t.png","2","real","true","2","common","1","2023-01-22 14:16:47.820"
"two-step-fixation","147","806973","0.0-77.0-2.3","3455","5943","9","Male","true","true","false","false","""event"",""trial"",""time""
""blur"",""3"",""17786""
""focus"",""3"",""17787""
""fullscreenenter"",""5"",""28113""
","""event"",""trial"",""time""
""blur"",""3"",""17786""
","""event"",""trial"",""time""
""focus"",""3"",""17787""
","""event"",""trial"",""time""
""fullscreenenter"",""5"",""28113""
","
","","images/earth.jpg","","","","","","","","","","","","","","fixation","","","","","",""
"d3-animate-choice","148","809373","0.0-77.0-0.4","3455","5943","9","Male","true","true","false","false","""event"",""trial"",""time""
""blur"",""3"",""17786""
""focus"",""3"",""17787""
""fullscreenenter"",""5"",""28113""
","""event"",""trial"",""time""
""blur"",""3"",""17786""
","""event"",""trial"",""time""
""focus"",""3"",""17787""
","""event"",""trial"",""time""
""fullscreenenter"",""5"",""28113""
","
","391.8000000715256","","48","","","3000","1","","","images/earth.jpg","images/rocket2","images/rocket1","null","images/rocket2","","1","real","null","2","","",""
"d3-animate-choice","149","812045","0.0-77.0-1.4","3455","5943","9","Male","true","true","false","false","""event"",""trial"",""time""
""blur"",""3"",""17786""
""focus"",""3"",""17787""
""fullscreenenter"",""5"",""28113""
","""event"",""trial"",""time""
""blur"",""3"",""17786""
","""event"",""trial"",""time""
""focus"",""3"",""17787""
","""event"",""trial"",""time""
""fullscreenenter"",""5"",""28113""
","
","661.6999999284744","","48","","","3000","1","","","images/purpleplanet.jpg","images/alien4","images/alien3","images/rocket2","images/alien4","images/nothing.png","2","real","true","2","common","0","2023-01-22 14:16:53.900"
"two-step-fixation","150","813053","0.0-77.0-2.4","3455","5943","9","Male","true","true","false","false","""event"",""trial"",""time""
""blur"",""3"",""17786""
""focus"",""3"",""17787""
""fullscreenenter"",""5"",""28113""
","""event"",""trial"",""time""
""blur"",""3"",""17786""
","""event"",""trial"",""time""
""focus"",""3"",""17787""
","""event"",""trial"",""time""
""fullscreenenter"",""5"",""28113""
","
","","images/earth.jpg","","","","","","","","","","","","","","fixation","","","","","",""
"d3-animate-choice","151","815990","0.0-77.0-0.5","3455","5943","9","Male","true","true","false","false","""event"",""trial"",""time""
""blur"",""3"",""17786""
""focus"",""3"",""17787""
""fullscreenenter"",""5"",""28113""
","""event"",""trial"",""time""
""blur"",""3"",""17786""
","""event"",""trial"",""time""
""focus"",""3"",""17787""
","""event"",""trial"",""time""
""fullscreenenter"",""5"",""28113""
","
","927.6000000238419","","48","","","3000","1","","","images/earth.jpg","images/rocket2","images/rocket1","null","images/rocket2","","1","real","null","2","","",""
"d3-animate-choice","152","820005","0.0-77.0-1.5","3455","5943","9","Male","true","true","false","false","""event"",""trial"",""time""
""blur"",""3"",""17786""
""focus"",""3"",""17787""
""fullscreenenter"",""5"",""28113""
","""event"",""trial"",""time""
""blur"",""3"",""17786""
","""event"",""trial"",""time""
""focus"",""3"",""17787""
","""event"",""trial"",""time""
""fullscreenenter"",""5"",""28113""
","
","2035.6999999284744","","49","","","3000","1","","","images/redplanet1.jpg","images/alien2","images/alien1","images/rocket2","images/alien1","images/t.png","2","real","false","1","rare","1","2023-01-22 14:17:01.860"
"two-step-fixation","153","821013","0.0-77.0-2.5","3455","5943","9","Male","true","true","false","false","""event"",""trial"",""time""
""blur"",""3"",""17786""
""focus"",""3"",""17787""
""fullscreenenter"",""5"",""28113""
","""event"",""trial"",""time""
""blur"",""3"",""17786""
","""event"",""trial"",""time""
""focus"",""3"",""17787""
","""event"",""trial"",""time""
""fullscreenenter"",""5"",""28113""
","
","","images/earth.jpg","","","","","","","","","","","","","","fixation","","","","","",""
"d3-animate-choice","154","823499","0.0-77.0-0.6","3455","5943","9","Male","true","true","false","false","""event"",""trial"",""time""
""blur"",""3"",""17786""
""focus"",""3"",""17787""
""fullscreenenter"",""5"",""28113""
","""event"",""trial"",""time""
""blur"",""3"",""17786""
","""event"",""trial"",""time""
""focus"",""3"",""17787""
","""event"",""trial"",""time""
""fullscreenenter"",""5"",""28113""
","
","474.7999999523163","","48","","","3000","1","","","images/earth.jpg","images/rocket2","images/rocket1","null","images/rocket2","","1","real","null","2","","",""
"d3-animate-choice","155","827005","0.0-77.0-1.6","3455","5943","9","Male","true","true","false","false","""event"",""trial"",""time""
""blur"",""3"",""17786""
""focus"",""3"",""17787""
""fullscreenenter"",""5"",""28113""
","""event"",""trial"",""time""
""blur"",""3"",""17786""
","""event"",""trial"",""time""
""focus"",""3"",""17787""
","""event"",""trial"",""time""
""fullscreenenter"",""5"",""28113""
","
","1493.1000000238419","","49","","","3000","1","","","images/redplanet1.jpg","images/alien2","images/alien1","images/rocket2","images/alien1","images/t.png","2","real","false","1","rare","1","2023-01-22 14:17:08.860"
"two-step-fixation","156","828013","0.0-77.0-2.6","3455","5943","9","Male","true","true","false","false","""event"",""trial"",""time""
""blur"",""3"",""17786""
""focus"",""3"",""17787""
""fullscreenenter"",""5"",""28113""
","""event"",""trial"",""time""
""blur"",""3"",""17786""
","""event"",""trial"",""time""
""focus"",""3"",""17787""
","""event"",""trial"",""time""
""fullscreenenter"",""5"",""28113""
","
","","images/earth.jpg","","","","","","","","","","","","","","fixation","","","","","",""
"d3-animate-choice","157","830309","0.0-77.0-0.7","3455","5943","9","Male","true","true","false","false","""event"",""trial"",""time""
""blur"",""3"",""17786""
""focus"",""3"",""17787""
""fullscreenenter"",""5"",""28113""
","""event"",""trial"",""time""
""blur"",""3"",""17786""
","""event"",""trial"",""time""
""focus"",""3"",""17787""
","""event"",""trial"",""time""
""fullscreenenter"",""5"",""28113""
","
","283.89999997615814","","48","","","3000","1","","","images/earth.jpg","images/rocket2","images/rocket1","null","images/rocket2","","1","real","null","2","","",""
"d3-animate-choice","158","833248","0.0-77.0-1.7","3455","5943","9","Male","true","true","false","false","""event"",""trial"",""time""
""blur"",""3"",""17786""
""focus"",""3"",""17787""
""fullscreenenter"",""5"",""28113""
","""event"",""trial"",""time""
""blur"",""3"",""17786""
","""event"",""trial"",""time""
""focus"",""3"",""17787""
","""event"",""trial"",""time""
""fullscreenenter"",""5"",""28113""
","
","930.5","","49","","","3000","1","","","images/redplanet1.jpg","images/alien2","images/alien1","images/rocket2","images/alien1","images/t.png","2","real","false","1","rare","1","2023-01-22 14:17:15.103"
"two-step-fixation","159","834261","0.0-77.0-2.7","3455","5943","9","Male","true","true","false","false","""event"",""trial"",""time""
""blur"",""3"",""17786""
""focus"",""3"",""17787""
""fullscreenenter"",""5"",""28113""
","""event"",""trial"",""time""
""blur"",""3"",""17786""
","""event"",""trial"",""time""
""focus"",""3"",""17787""
","""event"",""trial"",""time""
""fullscreenenter"",""5"",""28113""
","
","","images/earth.jpg","","","","","","","","","","","","","","fixation","","","","","",""
"d3-animate-choice","160","836605","0.0-77.0-0.8","3455","5943","9","Male","true","true","false","false","""event"",""trial"",""time""
""blur"",""3"",""17786""
""focus"",""3"",""17787""
""fullscreenenter"",""5"",""28113""
","""event"",""trial"",""time""
""blur"",""3"",""17786""
","""event"",""trial"",""time""
""focus"",""3"",""17787""
","""event"",""trial"",""time""
""fullscreenenter"",""5"",""28113""
","
","333.5","","48","","","3000","1","","","images/earth.jpg","images/rocket2","images/rocket1","null","images/rocket2","","1","real","null","2","","",""
"d3-animate-choice","161","840485","0.0-77.0-1.8","3455","5943","9","Male","true","true","false","false","""event"",""trial"",""time""
""blur"",""3"",""17786""
""focus"",""3"",""17787""
""fullscreenenter"",""5"",""28113""
","""event"",""trial"",""time""
""blur"",""3"",""17786""
","""event"",""trial"",""time""
""focus"",""3"",""17787""
","""event"",""trial"",""time""
""fullscreenenter"",""5"",""28113""
","
","1872.8999999761581","","48","","","3000","1","","","images/purpleplanet.jpg","images/alien4","images/alien3","images/rocket2","images/alien4","images/t.png","2","real","true","2","common","1","2023-01-22 14:17:22.340"
"two-step-fixation","162","841492","0.0-77.0-2.8","3455","5943","9","Male","true","true","false","false","""event"",""trial"",""time""
""blur"",""3"",""17786""
""focus"",""3"",""17787""
""fullscreenenter"",""5"",""28113""
","""event"",""trial"",""time""
""blur"",""3"",""17786""
","""event"",""trial"",""time""
""focus"",""3"",""17787""
","""event"",""trial"",""time""
""fullscreenenter"",""5"",""28113""
","
","","images/earth.jpg","","","","","","","","","","","","","","fixation","","","","","",""
"d3-animate-choice","163","844269","0.0-77.0-0.9","3455","5943","9","Male","true","true","false","false","""event"",""trial"",""time""
""blur"",""3"",""17786""
""focus"",""3"",""17787""
""fullscreenenter"",""5"",""28113""
","""event"",""trial"",""time""
""blur"",""3"",""17786""
","""event"",""trial"",""time""
""focus"",""3"",""17787""
","""event"",""trial"",""time""
""fullscreenenter"",""5"",""28113""
","
","766.5999999046326","","48","","","3000","1","","","images/earth.jpg","images/rocket2","images/rocket1","null","images/rocket2","","1","real","null","2","","",""
"d3-animate-choice","164","847333","0.0-77.0-1.9","3455","5943","9","Male","true","true","false","false","""event"",""trial"",""time""
""blur"",""3"",""17786""
""focus"",""3"",""17787""
""fullscreenenter"",""5"",""28113""
","""event"",""trial"",""time""
""blur"",""3"",""17786""
","""event"",""trial"",""time""
""focus"",""3"",""17787""
","""event"",""trial"",""time""
""fullscreenenter"",""5"",""28113""
","
","1057.1000000238419","","49","","","3000","1","","","images/redplanet1.jpg","images/alien2","images/alien1","images/rocket2","images/alien1","images/nothing.png","2","real","false","1","rare","0","2023-01-22 14:17:29.188"
"two-step-fixation","165","848341","0.0-77.0-2.9","3455","5943","9","Male","true","true","false","false","""event"",""trial"",""time""
""blur"",""3"",""17786""
""focus"",""3"",""17787""
""fullscreenenter"",""5"",""28113""
","""event"",""trial"",""time""
""blur"",""3"",""17786""
","""event"",""trial"",""time""
""focus"",""3"",""17787""
","""event"",""trial"",""time""
""fullscreenenter"",""5"",""28113""
","
","","images/earth.jpg","","","","","","","","","","","","","","fixation","","","","","",""
"d3-animate-choice","166","851317","0.0-77.0-0.10","3455","5943","9","Male","true","true","false","false","""event"",""trial"",""time""
""blur"",""3"",""17786""
""focus"",""3"",""17787""
""fullscreenenter"",""5"",""28113""
","""event"",""trial"",""time""
""blur"",""3"",""17786""
","""event"",""trial"",""time""
""focus"",""3"",""17787""
","""event"",""trial"",""time""
""fullscreenenter"",""5"",""28113""
","
","971.7000000476837","","48","","","3000","1","","","images/earth.jpg","images/rocket2","images/rocket1","null","images/rocket2","","1","real","null","2","","",""
"d3-animate-choice","167","854405","0.0-77.0-1.10","3455","5943","9","Male","true","true","false","false","""event"",""trial"",""time""
""blur"",""3"",""17786""
""focus"",""3"",""17787""
""fullscreenenter"",""5"",""28113""
","""event"",""trial"",""time""
""blur"",""3"",""17786""
","""event"",""trial"",""time""
""focus"",""3"",""17787""
","""event"",""trial"",""time""
""fullscreenenter"",""5"",""28113""
","
","1082.6000000238419","","48","","","3000","1","","","images/redplanet1.jpg","images/alien2","images/alien1","images/rocket2","images/alien2","images/nothing.png","2","real","false","2","rare","0","2023-01-22 14:17:36.260"
"two-step-fixation","168","855412","0.0-77.0-2.10","3455","5943","9","Male","true","true","false","false","""event"",""trial"",""time""
""blur"",""3"",""17786""
""focus"",""3"",""17787""
""fullscreenenter"",""5"",""28113""
","""event"",""trial"",""time""
""blur"",""3"",""17786""
","""event"",""trial"",""time""
""focus"",""3"",""17787""
","""event"",""trial"",""time""
""fullscreenenter"",""5"",""28113""
","
","","images/earth.jpg","","","","","","","","","","","","","","fixation","","","","","",""
"d3-animate-choice","169","858022","0.0-77.0-0.11","3455","5943","9","Male","true","true","false","false","""event"",""trial"",""time""
""blur"",""3"",""17786""
""focus"",""3"",""17787""
""fullscreenenter"",""5"",""28113""
","""event"",""trial"",""time""
""blur"",""3"",""17786""
","""event"",""trial"",""time""
""focus"",""3"",""17787""
","""event"",""trial"",""time""
""fullscreenenter"",""5"",""28113""
","
","597","","49","","","3000","1","","","images/earth.jpg","images/rocket2","images/rocket1","null","images/rocket1","","1","real","null","1","","",""
"d3-animate-choice","170","861411","0.0-77.0-1.11","3455","5943","9","Male","true","true","false","false","""event"",""trial"",""time""
""blur"",""3"",""17786""
""focus"",""3"",""17787""
""fullscreenenter"",""5"",""28113""
","""event"",""trial"",""time""
""blur"",""3"",""17786""
","""event"",""trial"",""time""
""focus"",""3"",""17787""
","""event"",""trial"",""time""
""fullscreenenter"",""5"",""28113""
","
","1379.5","","48","","","3000","1","","","images/redplanet1.jpg","images/alien2","images/alien1","images/rocket1","images/alien2","images/nothing.png","2","real","true","2","common","0","2023-01-22 14:17:43.266"
"two-step-fixation","171","862421","0.0-77.0-2.11","3455","5943","9","Male","true","true","false","false","""event"",""trial"",""time""
""blur"",""3"",""17786""
""focus"",""3"",""17787""
""fullscreenenter"",""5"",""28113""
","""event"",""trial"",""time""
""blur"",""3"",""17786""
","""event"",""trial"",""time""
""focus"",""3"",""17787""
","""event"",""trial"",""time""
""fullscreenenter"",""5"",""28113""
","
","","images/earth.jpg","","","","","","","","","","","","","","fixation","","","","","",""
"d3-animate-choice","172","864804","0.0-77.0-0.12","3455","5943","9","Male","true","true","false","false","""event"",""trial"",""time""
""blur"",""3"",""17786""
""focus"",""3"",""17787""
""fullscreenenter"",""5"",""28113""
","""event"",""trial"",""time""
""blur"",""3"",""17786""
","""event"",""trial"",""time""
""focus"",""3"",""17787""
","""event"",""trial"",""time""
""fullscreenenter"",""5"",""28113""
","
","367.8000000715256","","49","","","3000","1","","","images/earth.jpg","images/rocket2","images/rocket1","null","images/rocket1","","1","real","null","1","","",""
"d3-animate-choice","173","868610","0.0-77.0-1.12","3455","5943","9","Male","true","true","false","false","""event"",""trial"",""time""
""blur"",""3"",""17786""
""focus"",""3"",""17787""
""fullscreenenter"",""5"",""28113""
","""event"",""trial"",""time""
""blur"",""3"",""17786""
","""event"",""trial"",""time""
""focus"",""3"",""17787""
","""event"",""trial"",""time""
""fullscreenenter"",""5"",""28113""
","
","1796.4000000953674","","49","","","3000","1","","","images/purpleplanet.jpg","images/alien4","images/alien3","images/rocket1","images/alien3","images/nothing.png","2","real","false","1","rare","0","2023-01-22 14:17:50.465"
"two-step-fixation","174","869620","0.0-77.0-2.12","3455","5943","9","Male","true","true","false","false","""event"",""trial"",""time""
""blur"",""3"",""17786""
""focus"",""3"",""17787""
""fullscreenenter"",""5"",""28113""
","""event"",""trial"",""time""
""blur"",""3"",""17786""
","""event"",""trial"",""time""
""focus"",""3"",""17787""
","""event"",""trial"",""time""
""fullscreenenter"",""5"",""28113""
","
","","images/earth.jpg","","","","","","","","","","","","","","fixation","","","","","",""
"d3-animate-choice","175","871700","0.0-77.0-0.13","3455","5943","9","Male","true","true","false","false","""event"",""trial"",""time""
""blur"",""3"",""17786""
""focus"",""3"",""17787""
""fullscreenenter"",""5"",""28113""
","""event"",""trial"",""time""
""blur"",""3"",""17786""
","""event"",""trial"",""time""
""focus"",""3"",""17787""
","""event"",""trial"",""time""
""fullscreenenter"",""5"",""28113""
","
","69.79999995231628","","49","","","3000","1","","","images/earth.jpg","images/rocket2","images/rocket1","null","images/rocket1","","1","real","null","1","","",""
"d3-animate-choice","176","875641","0.0-77.0-1.13","3455","5943","9","Male","true","true","false","false","""event"",""trial"",""time""
""blur"",""3"",""17786""
""focus"",""3"",""17787""
""fullscreenenter"",""5"",""28113""
","""event"",""trial"",""time""
""blur"",""3"",""17786""
","""event"",""trial"",""time""
""focus"",""3"",""17787""
","""event"",""trial"",""time""
""fullscreenenter"",""5"",""28113""
","
","1933.5999999046326","","49","","","3000","1","","","images/redplanet1.jpg","images/alien2","images/alien1","images/rocket1","images/alien1","images/t.png","2","real","true","1","common","1","2023-01-22 14:17:57.497"
"two-step-fixation","177","876652","0.0-77.0-2.13","3455","5943","9","Male","true","true","false","false","""event"",""trial"",""time""
""blur"",""3"",""17786""
""focus"",""3"",""17787""
""fullscreenenter"",""5"",""28113""
","""event"",""trial"",""time""
""blur"",""3"",""17786""
","""event"",""trial"",""time""
""focus"",""3"",""17787""
","""event"",""trial"",""time""
""fullscreenenter"",""5"",""28113""
","
","","images/earth.jpg","","","","","","","","","","","","","","fixation","","","","","",""
"d3-animate-choice","178","879116","0.0-77.0-0.14","3455","5943","9","Male","true","true","false","false","""event"",""trial"",""time""
""blur"",""3"",""17786""
""focus"",""3"",""17787""
""fullscreenenter"",""5"",""28113""
","""event"",""trial"",""time""
""blur"",""3"",""17786""
","""event"",""trial"",""time""
""focus"",""3"",""17787""
","""event"",""trial"",""time""
""fullscreenenter"",""5"",""28113""
","
