"trial_type","trial_index","time_elapsed","internal_node_id","participant_id","subject_id","age","gender","rocket_sides","red_planet_first_rocket","red_display_order","purple_display_order","interactions","blur_events","focus_events","fullscreenenter_events","fullscreenexit_events","rt","stimulus","key_press","button_pressed","success","duration","valid_pressed","rts","keys","planet_text","right_text","left_text","center_text","chosen_text","reward_text","trial_stage","practice_trial","transition_type","choice","transition","reward","timestamp"
"pavlovia","0","2","0.0-0.0","199","5358","10","Female","false","true","true","true","
","
","
","
","
","","","","","","","","","","","","","","","","","","","","","",""
"html-keyboard-response","1","41970","0.0-1.0","199","5358","10","Female","false","true","true","true","
","
","
","
","
","41967.300000071526","Welcome! Press the space bar to begin.","32","","","","","","","","","","","","","","","","","","",""
"audio-keyboard-response","2","46508","0.0-2.0","199","5358","10","Female","false","true","true","true","
","
","
","
","
","4522","audio/beep_loop.wav","32","","","","","","","","","","","","","","","","","","",""
"audio-button-response","3","49836","0.0-3.0","199","5358","10","Female","false","true","true","true","
","
","
","
","
","NaN","audio/fish.mp3","","1","","","","","","","","","","","","","","","","","",""
"audio-button-response","4","56086","0.0-4.0","199","5358","10","Female","false","true","true","true","""event"",""trial"",""time""
""fullscreenenter"",""5"",""61395""
","
","
","""event"",""trial"",""time""
""fullscreenenter"",""5"",""61395""
","
","NaN","audio/tiger.mp3","","4","","","","","","","","","","","","","","","","","",""
"fullscreen","5","62386","0.0-5.0","199","5358","10","Female","false","true","true","true","""event"",""trial"",""time""
""fullscreenenter"",""5"",""61395""
","
","
","""event"",""trial"",""time""
""fullscreenenter"",""5"",""61395""
","
","","","","","true","","","","","","","","","","","","","","","","",""
"d3-instructions","6","75011","0.0-6.0","199","5358","10","Female","false","true","true","true","""event"",""trial"",""time""
""fullscreenenter"",""5"",""61395""
","
","
","""event"",""trial"",""time""
""fullscreenenter"",""5"",""61395""
","
","","","","","","","","","","","","","","","","","","","","","",""
"d3-instructions","7","85801","0.0-7.0","199","5358","10","Female","false","true","true","true","""event"",""trial"",""time""
""fullscreenenter"",""5"",""61395""
","
","
","""event"",""trial"",""time""
""fullscreenenter"",""5"",""61395""
","
","","","","","","","","","","","","","","","","","","","","","",""
"d3-instructions","8","93677","0.0-8.0","199","5358","10","Female","false","true","true","true","""event"",""trial"",""time""
""fullscreenenter"",""5"",""61395""
","
","
","""event"",""trial"",""time""
""fullscreenenter"",""5"",""61395""
","
","","","","","","","","","","","","","","","","","","","","","",""
"d3-instructions","9","107667","0.0-9.0","199","5358","10","Female","false","true","true","true","""event"",""trial"",""time""
""fullscreenenter"",""5"",""61395""
","
","
","""event"",""trial"",""time""
""fullscreenenter"",""5"",""61395""
","
","","","","","","","","","","","","","","","","","","","","","",""
"d3-instructions","10","127925","0.0-10.0","199","5358","10","Female","false","true","true","true","""event"",""trial"",""time""
""fullscreenenter"",""5"",""61395""
","
","
","""event"",""trial"",""time""
""fullscreenenter"",""5"",""61395""
","
","","","","","","","","","","","","","","","","","","","","","",""
"d3-animate-choice","11","131616","0.0-11.0","199","5358","10","Female","false","true","true","true","""event"",""trial"",""time""
""fullscreenenter"",""5"",""61395""
","
","
","""event"",""trial"",""time""
""fullscreenenter"",""5"",""61395""
","
","1681.7999999523163","","49","","","3000","1","","","images/tutgreenplanet.jpg","images/tutalien1","images/tutalien2","null","images/tutalien2","","NA","practice","null","","","",""
"d3-animate-choice","12","134269","0.0-12.0","199","5358","10","Female","false","true","true","true","""event"",""trial"",""time""
""fullscreenenter"",""5"",""61395""
","
","
","""event"",""trial"",""time""
""fullscreenenter"",""5"",""61395""
","
","647.7000000476837","","48","","","3000","1","","","images/tutgreenplanet.jpg","images/tutalien1","images/tutalien2","null","images/tutalien1","","NA","practice","null","","","",""
"d3-animate-choice","13","136685","0.0-13.0","199","5358","10","Female","false","true","true","true","""event"",""trial"",""time""
""fullscreenenter"",""5"",""61395""
","
","
","""event"",""trial"",""time""
""fullscreenenter"",""5"",""61395""
","
","412.60000002384186","","48","","","3000","1","","","images/tutgreenplanet.jpg","images/tutalien1","images/tutalien2","null","images/tutalien1","","NA","practice","null","","","",""
"d3-animate-choice","14","139006","0.0-14.0","199","5358","10","Female","false","true","true","true","""event"",""trial"",""time""
""fullscreenenter"",""5"",""61395""
","
","
","""event"",""trial"",""time""
""fullscreenenter"",""5"",""61395""
","
","316.40000009536743","","49","","","3000","1","","","images/tutgreenplanet.jpg","images/tutalien1","images/tutalien2","null","images/tutalien2","","NA","practice","null","","","",""
"d3-instructions","15","149132","0.0-15.0","199","5358","10","Female","false","true","true","true","""event"",""trial"",""time""
""fullscreenenter"",""5"",""61395""
","
","
","""event"",""trial"",""time""
""fullscreenenter"",""5"",""61395""
","
","","","","","","","","","","","","","","","","","","","","","",""
"d3-instructions","16","155519","0.0-16.0","199","5358","10","Female","false","true","true","true","""event"",""trial"",""time""
""fullscreenenter"",""5"",""61395""
","
","
","""event"",""trial"",""time""
""fullscreenenter"",""5"",""61395""
","
","","","","","","","","","","","","","","","","","","","","","",""
"d3-instructions","17","163827","0.0-17.0","199","5358","10","Female","false","true","true","true","""event"",""trial"",""time""
""fullscreenenter"",""5"",""61395""
","
","
","""event"",""trial"",""time""
""fullscreenenter"",""5"",""61395""
","
","","","","","","","","","","","","","","","","","","","","","",""
"d3-instructions","18","175895","0.0-18.0","199","5358","10","Female","false","true","true","true","""event"",""trial"",""time""
""fullscreenenter"",""5"",""61395""
","
","
","""event"",""trial"",""time""
""fullscreenenter"",""5"",""61395""
","
","","","","","","","","","","","","","","","","","","","","","",""
"d3-instructions","19","188911","0.0-19.0","199","5358","10","Female","false","true","true","true","""event"",""trial"",""time""
""fullscreenenter"",""5"",""61395""
","
","
","""event"",""trial"",""time""
""fullscreenenter"",""5"",""61395""
","
","","","","","","","","","","","","","","","","","","","","","",""
"d3-animate-choice","20","191697","0.0-20.0","199","5358","10","Female","false","true","true","true","""event"",""trial"",""time""
""fullscreenenter"",""5"",""61395""
","
","
","""event"",""trial"",""time""
""fullscreenenter"",""5"",""61395""
","
","778.8000000715256","","49","","","3000","1","1121,1419.7000000476837","49,49","images/tutyellowplanet.jpg","null","images/tutalien3","null","images/tutalien3","images/nothing.png","NA","practice","null","","","",""
"d3-animate-choice","21","194158","0.0-21.0","199","5358","10","Female","false","true","true","true","""event"",""trial"",""time""
""fullscreenenter"",""5"",""61395""
","
","
","""event"",""trial"",""time""
""fullscreenenter"",""5"",""61395""
","
","454.89999997615814","","49","","","3000","1","","","images/tutyellowplanet.jpg","null","images/tutalien3","null","images/tutalien3","images/t.png","NA","practice","null","","","",""
"d3-animate-choice","22","196613","0.0-22.0","199","5358","10","Female","false","true","true","true","""event"",""trial"",""time""
""fullscreenenter"",""5"",""61395""
","
","
","""event"",""trial"",""time""
""fullscreenenter"",""5"",""61395""
","
","448","","49","","","3000","1","","","images/tutyellowplanet.jpg","null","images/tutalien3","null","images/tutalien3","images/t.png","NA","practice","null","","","",""
"d3-animate-choice","23","199135","0.0-23.0","199","5358","10","Female","false","true","true","true","""event"",""trial"",""time""
""fullscreenenter"",""5"",""61395""
","
","
","""event"",""trial"",""time""
""fullscreenenter"",""5"",""61395""
","
","516.1999999284744","","49","","","3000","1","","","images/tutyellowplanet.jpg","null","images/tutalien3","null","images/tutalien3","images/t.png","NA","practice","null","","","",""
"d3-animate-choice","24","201595","0.0-24.0","199","5358","10","Female","false","true","true","true","""event"",""trial"",""time""
""fullscreenenter"",""5"",""61395""
","
","
","""event"",""trial"",""time""
""fullscreenenter"",""5"",""61395""
","
","457.1999999284744","","49","","","3000","1","","","images/tutyellowplanet.jpg","null","images/tutalien3","null","images/tutalien3","images/t.png","NA","practice","null","","","",""
"d3-animate-choice","25","204045","0.0-25.0","199","5358","10","Female","false","true","true","true","""event"",""trial"",""time""
""fullscreenenter"",""5"",""61395""
","
","
","""event"",""trial"",""time""
""fullscreenenter"",""5"",""61395""
","
","443.60000002384186","","49","","","3000","1","","","images/tutyellowplanet.jpg","null","images/tutalien3","null","images/tutalien3","images/t.png","NA","practice","null","","","",""
"d3-animate-choice","26","206498","0.0-26.0","199","5358","10","Female","false","true","true","true","""event"",""trial"",""time""
""fullscreenenter"",""5"",""61395""
","
","
","""event"",""trial"",""time""
""fullscreenenter"",""5"",""61395""
","
","445.90000009536743","","49","","","3000","1","","","images/tutyellowplanet.jpg","null","images/tutalien3","null","images/tutalien3","images/t.png","NA","practice","null","","","",""
"d3-animate-choice","27","208961","0.0-27.0","199","5358","10","Female","false","true","true","true","""event"",""trial"",""time""
""fullscreenenter"",""5"",""61395""
","
","
","""event"",""trial"",""time""
""fullscreenenter"",""5"",""61395""
","
","457.8000000715256","","49","","","3000","1","","","images/tutyellowplanet.jpg","null","images/tutalien3","null","images/tutalien3","images/t.png","NA","practice","null","","","",""
"d3-animate-choice","28","211387","0.0-28.0","199","5358","10","Female","false","true","true","true","""event"",""trial"",""time""
""fullscreenenter"",""5"",""61395""
","
","
","""event"",""trial"",""time""
""fullscreenenter"",""5"",""61395""
","
","417.7000000476837","","49","","","3000","1","","","images/tutyellowplanet.jpg","null","images/tutalien3","null","images/tutalien3","images/t.png","NA","practice","null","","","",""
"d3-animate-choice","29","213793","0.0-29.0","199","5358","10","Female","false","true","true","true","""event"",""trial"",""time""
""fullscreenenter"",""5"",""61395""
","
","
","""event"",""trial"",""time""
""fullscreenenter"",""5"",""61395""
","
","400.39999997615814","","49","","","3000","1","","","images/tutyellowplanet.jpg","null","images/tutalien3","null","images/tutalien3","images/t.png","NA","practice","null","","","",""
"d3-instructions","30","219506","0.0-30.0","199","5358","10","Female","false","true","true","true","""event"",""trial"",""time""
""fullscreenenter"",""5"",""61395""
","
","
","""event"",""trial"",""time""
""fullscreenenter"",""5"",""61395""
","
","","","","","","","","","","","","","","","","","","","","","",""
"d3-instructions","31","229728","0.0-31.0","199","5358","10","Female","false","true","true","true","""event"",""trial"",""time""
""fullscreenenter"",""5"",""61395""
","
","
","""event"",""trial"",""time""
""fullscreenenter"",""5"",""61395""
","
","","","","","","","","","","","","","","","","","","","","","",""
"d3-instructions","32","237471","0.0-32.0","199","5358","10","Female","false","true","true","true","""event"",""trial"",""time""
""fullscreenenter"",""5"",""61395""
","
","
","""event"",""trial"",""time""
""fullscreenenter"",""5"",""61395""
","
","","","","","","","","","","","","","","","","","","","","","",""
"d3-instructions","33","242740","0.0-33.0","199","5358","10","Female","false","true","true","true","""event"",""trial"",""time""
""fullscreenenter"",""5"",""61395""
","
","
","""event"",""trial"",""time""
""fullscreenenter"",""5"",""61395""
","
","","","","","","","","","","","","","","","","","","","","","",""
"d3-animate-choice","34","246262","0.0-34.0","199","5358","10","Female","false","true","true","true","""event"",""trial"",""time""
""fullscreenenter"",""5"",""61395""
","
","
","""event"",""trial"",""time""
""fullscreenenter"",""5"",""61395""
","
","1516.6999999284744","","49","","","3000","1","","","images/tutgreenplanet.jpg","images/tutalien1","images/tutalien2","null","images/tutalien2","images/t.png","NA","practice","null","","","",""
"d3-animate-choice","35","248846","0.0-35.0","199","5358","10","Female","false","true","true","true","""event"",""trial"",""time""
""fullscreenenter"",""5"",""61395""
","
","
","""event"",""trial"",""time""
""fullscreenenter"",""5"",""61395""
","
","579.6000000238419","","48","","","3000","1","","","images/tutgreenplanet.jpg","images/tutalien1","images/tutalien2","null","images/tutalien1","images/nothing.png","NA","practice","null","","","",""
"d3-animate-choice","36","251481","0.0-36.0","199","5358","10","Female","false","true","true","true","""event"",""trial"",""time""
""fullscreenenter"",""5"",""61395""
","
","
","""event"",""trial"",""time""
""fullscreenenter"",""5"",""61395""
","
","631.5","","48","","","3000","1","","","images/tutgreenplanet.jpg","images/tutalien1","images/tutalien2","null","images/tutalien1","images/nothing.png","NA","practice","null","","","",""
"d3-animate-choice","37","254120","0.0-37.0","199","5358","10","Female","false","true","true","true","""event"",""trial"",""time""
""fullscreenenter"",""5"",""61395""
","
","
","""event"",""trial"",""time""
""fullscreenenter"",""5"",""61395""
","
","632.6000000238419","","49","","","3000","1","","","images/tutgreenplanet.jpg","images/tutalien1","images/tutalien2","null","images/tutalien2","images/t.png","NA","practice","null","","","",""
"d3-animate-choice","38","256625","0.0-38.0","199","5358","10","Female","false","true","true","true","""event"",""trial"",""time""
""fullscreenenter"",""5"",""61395""
","
","
","""event"",""trial"",""time""
""fullscreenenter"",""5"",""61395""
","
","498.39999997615814","","49","","","3000","1","","","images/tutgreenplanet.jpg","images/tutalien1","images/tutalien2","null","images/tutalien2","images/t.png","NA","practice","null","","","",""
"d3-animate-choice","39","259074","0.0-39.0","199","5358","10","Female","false","true","true","true","""event"",""trial"",""time""
""fullscreenenter"",""5"",""61395""
","
","
","""event"",""trial"",""time""
""fullscreenenter"",""5"",""61395""
","
","445.10000002384186","","49","","","3000","1","","","images/tutgreenplanet.jpg","images/tutalien1","images/tutalien2","null","images/tutalien2","images/t.png","NA","practice","null","","","",""
"d3-animate-choice","40","261535","0.0-40.0","199","5358","10","Female","false","true","true","true","""event"",""trial"",""time""
""fullscreenenter"",""5"",""61395""
","
","
","""event"",""trial"",""time""
""fullscreenenter"",""5"",""61395""
","
","458.2000000476837","","49","","","3000","1","","","images/tutgreenplanet.jpg","images/tutalien1","images/tutalien2","null","images/tutalien2","images/t.png","NA","practice","null","","","",""
"d3-animate-choice","41","264066","0.0-41.0","199","5358","10","Female","false","true","true","true","""event"",""trial"",""time""
""fullscreenenter"",""5"",""61395""
","
","
","""event"",""trial"",""time""
""fullscreenenter"",""5"",""61395""
","
","528.3999999761581","","49","","","3000","1","","","images/tutgreenplanet.jpg","images/tutalien1","images/tutalien2","null","images/tutalien2","images/t.png","NA","practice","null","","","",""
"d3-animate-choice","42","266481","0.0-42.0","199","5358","10","Female","false","true","true","true","""event"",""trial"",""time""
""fullscreenenter"",""5"",""61395""
","
","
","""event"",""trial"",""time""
""fullscreenenter"",""5"",""61395""
","
","412.10000002384186","","49","","","3000","1","","","images/tutgreenplanet.jpg","images/tutalien1","images/tutalien2","null","images/tutalien2","images/t.png","NA","practice","null","","","",""
"d3-animate-choice","43","268951","0.0-43.0","199","5358","10","Female","false","true","true","true","""event"",""trial"",""time""
""fullscreenenter"",""5"",""61395""
","
","
","""event"",""trial"",""time""
""fullscreenenter"",""5"",""61395""
","
","466.7999999523163","","49","","","3000","1","","","images/tutgreenplanet.jpg","images/tutalien1","images/tutalien2","null","images/tutalien2","images/t.png","NA","practice","null","","","",""
"d3-instructions","44","280740","0.0-44.0","199","5358","10","Female","false","true","true","true","""event"",""trial"",""time""
""fullscreenenter"",""5"",""61395""
","
","
","""event"",""trial"",""time""
""fullscreenenter"",""5"",""61395""
","
","","","","","","","","","","","","","","","","","","","","","",""
"d3-instructions","45","286079","0.0-45.0","199","5358","10","Female","false","true","true","true","""event"",""trial"",""time""
""fullscreenenter"",""5"",""61395""
","
","
","""event"",""trial"",""time""
""fullscreenenter"",""5"",""61395""
","
","","","","","","","","","","","","","","","","","","","","","",""
"d3-instructions","46","290139","0.0-46.0","199","5358","10","Female","false","true","true","true","""event"",""trial"",""time""
""fullscreenenter"",""5"",""61395""
","
","
","""event"",""trial"",""time""
""fullscreenenter"",""5"",""61395""
","
","","","","","","","","","","","","","","","","","","","","","",""
"d3-instructions","47","305943","0.0-47.0","199","5358","10","Female","false","true","true","true","""event"",""trial"",""time""
""fullscreenenter"",""5"",""61395""
","
","
","""event"",""trial"",""time""
""fullscreenenter"",""5"",""61395""
","
","","","","","","","","","","","","","","","","","","","","","",""
"d3-instructions","48","310944","0.0-48.0","199","5358","10","Female","false","true","true","true","""event"",""trial"",""time""
""fullscreenenter"",""5"",""61395""
","
","
","""event"",""trial"",""time""
""fullscreenenter"",""5"",""61395""
","
","","","","","","","","","","","","","","","","","","","","","",""
"d3-instructions","49","320616","0.0-49.0","199","5358","10","Female","false","true","true","true","""event"",""trial"",""time""
""fullscreenenter"",""5"",""61395""
","
","
","""event"",""trial"",""time""
""fullscreenenter"",""5"",""61395""
","
","","","","","","","","","","","","","","","","","","","","","",""
"d3-instructions","50","328783","0.0-50.0","199","5358","10","Female","false","true","true","true","""event"",""trial"",""time""
""fullscreenenter"",""5"",""61395""
","
","
","""event"",""trial"",""time""
""fullscreenenter"",""5"",""61395""
","
","","","","","","","","","","","","","","","","","","","","","",""
"d3-instructions","51","331421","0.0-51.0","199","5358","10","Female","false","true","true","true","""event"",""trial"",""time""
""fullscreenenter"",""5"",""61395""
","
","
","""event"",""trial"",""time""
""fullscreenenter"",""5"",""61395""
","
","","","","","","","","","","","","","","","","","","","","","",""
"d3-instructions","52","333483","0.0-52.0","199","5358","10","Female","false","true","true","true","""event"",""trial"",""time""
""fullscreenenter"",""5"",""61395""
","
","
","""event"",""trial"",""time""
""fullscreenenter"",""5"",""61395""
","
","","","","","","","","","","","","","","","","","","","","","",""
"d3-instructions","53","345342","0.0-53.0","199","5358","10","Female","false","true","true","true","""event"",""trial"",""time""
""fullscreenenter"",""5"",""61395""
","
","
","""event"",""trial"",""time""
""fullscreenenter"",""5"",""61395""
","
","","","","","","","","","","","","","","","","","","","","","",""
"d3-instructions","54","357488","0.0-54.0","199","5358","10","Female","false","true","true","true","""event"",""trial"",""time""
""fullscreenenter"",""5"",""61395""
","
","
","""event"",""trial"",""time""
""fullscreenenter"",""5"",""61395""
","
","","","","","","","","","","","","","","","","","","","","","",""
"d3-instructions","55","367775","0.0-55.0","199","5358","10","Female","false","true","true","true","""event"",""trial"",""time""
""fullscreenenter"",""5"",""61395""
","
","
","""event"",""trial"",""time""
""fullscreenenter"",""5"",""61395""
","
","","","","","","","","","","","","","","","","","","","","","",""
"d3-instructions","56","375116","0.0-56.0","199","5358","10","Female","false","true","true","true","""event"",""trial"",""time""
""fullscreenenter"",""5"",""61395""
","
","
","""event"",""trial"",""time""
""fullscreenenter"",""5"",""61395""
","
","","","","","","","","","","","","","","","","","","","","","",""
"d3-instructions","57","384953","0.0-57.0","199","5358","10","Female","false","true","true","true","""event"",""trial"",""time""
""fullscreenenter"",""5"",""61395""
","
","
","""event"",""trial"",""time""
""fullscreenenter"",""5"",""61395""
","
","","","","","","","","","","","","","","","","","","","","","",""
"d3-instructions","58","396425","0.0-58.0","199","5358","10","Female","false","true","true","true","""event"",""trial"",""time""
""fullscreenenter"",""5"",""61395""
","
","
","""event"",""trial"",""time""
""fullscreenenter"",""5"",""61395""
","
","","","","","","","","","","","","","","","","","","","","","",""
"d3-instructions","59","400797","0.0-59.0","199","5358","10","Female","false","true","true","true","""event"",""trial"",""time""
""fullscreenenter"",""5"",""61395""
","
","
","""event"",""trial"",""time""
""fullscreenenter"",""5"",""61395""
","
","","","","","","","","","","","","","","","","","","","","","",""
"d3-instructions","60","404230","0.0-60.0","199","5358","10","Female","false","true","true","true","""event"",""trial"",""time""
""fullscreenenter"",""5"",""61395""
","
","
","""event"",""trial"",""time""
""fullscreenenter"",""5"",""61395""
","
","","","","","","","","","","","","","","","","","","","","","",""
"d3-animate-choice","61","407477","0.0-61.0-0.0","199","5358","10","Female","false","true","true","true","""event"",""trial"",""time""
""fullscreenenter"",""5"",""61395""
","
","
","""event"",""trial"",""time""
""fullscreenenter"",""5"",""61395""
","
","1241.8000000715256","","49","","","3000","1","","","images/earth.jpg","images/tutrocket1","images/tutrocket2","null","images/tutrocket2","","1","practice","null","1","","",""
"d3-animate-choice","62","411483","0.0-61.0-1.0","199","5358","10","Female","false","true","true","true","""event"",""trial"",""time""
""fullscreenenter"",""5"",""61395""
","
","
","""event"",""trial"",""time""
""fullscreenenter"",""5"",""61395""
","
","2357","","48","","","3000","1","","","images/tutgreenplanet.jpg","images/tutalien2","images/tutalien1","images/tutrocket2","images/tutalien2","images/nothing.png","2","practice","false","2","rare","0","2023-01-02 19:12:08.739"
"two-step-fixation","63","412490","0.0-61.0-2.0","199","5358","10","Female","false","true","true","true","""event"",""trial"",""time""
""fullscreenenter"",""5"",""61395""
","
","
","""event"",""trial"",""time""
""fullscreenenter"",""5"",""61395""
","
","","images/earth.jpg","","","","","","","","","","","","","","fixation","","","","","",""
"d3-animate-choice","64","414941","0.0-61.0-0.1","199","5358","10","Female","false","true","true","true","""event"",""trial"",""time""
""fullscreenenter"",""5"",""61395""
","
","
","""event"",""trial"",""time""
""fullscreenenter"",""5"",""61395""
","
","444.90000009536743","","48","","","3000","1","","","images/earth.jpg","images/tutrocket1","images/tutrocket2","null","images/tutrocket1","","1","practice","null","2","","",""
"d3-animate-choice","65","418221","0.0-61.0-1.1","199","5358","10","Female","false","true","true","true","""event"",""trial"",""time""
""fullscreenenter"",""5"",""61395""
","
","
","""event"",""trial"",""time""
""fullscreenenter"",""5"",""61395""
","
","1274.1999999284744","","49","","","3000","1","","","images/tutgreenplanet.jpg","images/tutalien2","images/tutalien1","images/tutrocket1","images/tutalien1","images/nothing.png","2","practice","true","1","common","0","2023-01-02 19:12:15.476"
"two-step-fixation","66","419226","0.0-61.0-2.1","199","5358","10","Female","false","true","true","true","""event"",""trial"",""time""
""fullscreenenter"",""5"",""61395""
","
","
","""event"",""trial"",""time""
""fullscreenenter"",""5"",""61395""
","
","","images/earth.jpg","","","","","","","","","","","","","","fixation","","","","","",""
"d3-animate-choice","67","423236","0.0-61.0-0.2","199","5358","10","Female","false","true","true","true","""event"",""trial"",""time""
""fullscreenenter"",""5"",""61395""
","
","
","""event"",""trial"",""time""
""fullscreenenter"",""5"",""61395""
","
","2160.8000000715256","","48","","","3000","1","","","images/earth.jpg","images/tutrocket1","images/tutrocket2","null","images/tutrocket1","","1","practice","null","2","","",""
"d3-animate-choice","68","426609","0.0-61.0-1.2","199","5358","10","Female","false","true","true","true","""event"",""trial"",""time""
""fullscreenenter"",""5"",""61395""
","
","
","""event"",""trial"",""time""
""fullscreenenter"",""5"",""61395""
","
","1368.5","","48","","","3000","1","","","images/tutgreenplanet.jpg","images/tutalien2","images/tutalien1","images/tutrocket1","images/tutalien2","images/nothing.png","2","practice","true","2","common","0","2023-01-02 19:12:23.864"
"two-step-fixation","69","427613","0.0-61.0-2.2","199","5358","10","Female","false","true","true","true","""event"",""trial"",""time""
""fullscreenenter"",""5"",""61395""
","
","
","""event"",""trial"",""time""
""fullscreenenter"",""5"",""61395""
","
","","images/earth.jpg","","","","","","","","","","","","","","fixation","","","","","",""
"d3-animate-choice","70","430117","0.0-61.0-0.3","199","5358","10","Female","false","true","true","true","""event"",""trial"",""time""
""fullscreenenter"",""5"",""61395""
","
","
","""event"",""trial"",""time""
""fullscreenenter"",""5"",""61395""
","
","496.2999999523163","","49","","","3000","1","","","images/earth.jpg","images/tutrocket1","images/tutrocket2","null","images/tutrocket2","","1","practice","null","1","","",""
"d3-animate-choice","71","432820","0.0-61.0-1.3","199","5358","10","Female","false","true","true","true","""event"",""trial"",""time""
""fullscreenenter"",""5"",""61395""
","
","
","""event"",""trial"",""time""
""fullscreenenter"",""5"",""61395""
","
","697","","49","","","3000","1","","","images/tutgreenplanet.jpg","images/tutalien2","images/tutalien1","images/tutrocket2","images/tutalien1","images/nothing.png","2","practice","false","1","rare","0","2023-01-02 19:12:30.075"
"two-step-fixation","72","433825","0.0-61.0-2.3","199","5358","10","Female","false","true","true","true","""event"",""trial"",""time""
""fullscreenenter"",""5"",""61395""
","
","
","""event"",""trial"",""time""
""fullscreenenter"",""5"",""61395""
","
","","images/earth.jpg","","","","","","","","","","","","","","fixation","","","","","",""
"d3-animate-choice","73","436384","0.0-61.0-0.4","199","5358","10","Female","false","true","true","true","""event"",""trial"",""time""
""fullscreenenter"",""5"",""61395""
","
","
","""event"",""trial"",""time""
""fullscreenenter"",""5"",""61395""
","
","555.2000000476837","","49","","","3000","1","","","images/earth.jpg","images/tutrocket1","images/tutrocket2","null","images/tutrocket2","","1","practice","null","1","","",""
"d3-animate-choice","74","439567","0.0-61.0-1.4","199","5358","10","Female","false","true","true","true","""event"",""trial"",""time""
""fullscreenenter"",""5"",""61395""
","
","
","""event"",""trial"",""time""
""fullscreenenter"",""5"",""61395""
","
","1176.6999999284744","","49","","","3000","1","","","images/tutgreenplanet.jpg","images/tutalien2","images/tutalien1","images/tutrocket2","images/tutalien1","images/nothing.png","2","practice","false","1","rare","0","2023-01-02 19:12:36.822"
"two-step-fixation","75","440575","0.0-61.0-2.4","199","5358","10","Female","false","true","true","true","""event"",""trial"",""time""
""fullscreenenter"",""5"",""61395""
","
","
","""event"",""trial"",""time""
""fullscreenenter"",""5"",""61395""
","
","","images/earth.jpg","","","","","","","","","","","","","","fixation","","","","","",""
"d3-animate-choice","76","443530","0.0-61.0-0.5","199","5358","10","Female","false","true","true","true","""event"",""trial"",""time""
""fullscreenenter"",""5"",""61395""
","
","
","""event"",""trial"",""time""
""fullscreenenter"",""5"",""61395""
","
","950.0999999046326","","49","","","3000","1","","","images/earth.jpg","images/tutrocket1","images/tutrocket2","null","images/tutrocket2","","1","practice","null","1","","",""
"d3-animate-choice","77","446746","0.0-61.0-1.5","199","5358","10","Female","false","true","true","true","""event"",""trial"",""time""
""fullscreenenter"",""5"",""61395""
","
","
","""event"",""trial"",""time""
""fullscreenenter"",""5"",""61395""
","
","1211.1999999284744","","48","","","3000","1","","","images/tutyellowplanet.jpg","images/tutalien4","images/tutalien3","images/tutrocket2","images/tutalien4","images/t.png","2","practice","true","2","common","1","2023-01-02 19:12:44.001"
"two-step-fixation","78","447750","0.0-61.0-2.5","199","5358","10","Female","false","true","true","true","""event"",""trial"",""time""
""fullscreenenter"",""5"",""61395""
","
","
","""event"",""trial"",""time""
""fullscreenenter"",""5"",""61395""
","
","","images/earth.jpg","","","","","","","","","","","","","","fixation","","","","","",""
"d3-animate-choice","79","450617","0.0-61.0-0.6","199","5358","10","Female","false","true","true","true","""event"",""trial"",""time""
""fullscreenenter"",""5"",""61395""
","
","
","""event"",""trial"",""time""
""fullscreenenter"",""5"",""61395""
","
","864.5","","49","","","3000","1","","","images/earth.jpg","images/tutrocket1","images/tutrocket2","null","images/tutrocket2","","1","practice","null","1","","",""
"d3-animate-choice","80","453299","0.0-61.0-1.6","199","5358","10","Female","false","true","true","true","""event"",""trial"",""time""
""fullscreenenter"",""5"",""61395""
","
","
","""event"",""trial"",""time""
""fullscreenenter"",""5"",""61395""
","
","675.1000000238419","","48","","","3000","1","","","images/tutyellowplanet.jpg","images/tutalien4","images/tutalien3","images/tutrocket2","images/tutalien4","images/t.png","2","practice","true","2","common","1","2023-01-02 19:12:50.554"
"two-step-fixation","81","454305","0.0-61.0-2.6","199","5358","10","Female","false","true","true","true","""event"",""trial"",""time""
""fullscreenenter"",""5"",""61395""
","
","
","""event"",""trial"",""time""
""fullscreenenter"",""5"",""61395""
","
","","images/earth.jpg","","","","","","","","","","","","","","fixation","","","","","",""
"d3-animate-choice","82","456867","0.0-61.0-0.7","199","5358","10","Female","false","true","true","true","""event"",""trial"",""time""
""fullscreenenter"",""5"",""61395""
","
","
","""event"",""trial"",""time""
""fullscreenenter"",""5"",""61395""
","
","554.1999999284744","","49","","","3000","1","","","images/earth.jpg","images/tutrocket1","images/tutrocket2","null","images/tutrocket2","","1","practice","null","1","","",""
"d3-animate-choice","83","459528","0.0-61.0-1.7","199","5358","10","Female","false","true","true","true","""event"",""trial"",""time""
""fullscreenenter"",""5"",""61395""
","
","
","""event"",""trial"",""time""
""fullscreenenter"",""5"",""61395""
","
","657.3999999761581","","48","","","3000","1","","","images/tutyellowplanet.jpg","images/tutalien4","images/tutalien3","images/tutrocket2","images/tutalien4","images/t.png","2","practice","true","2","common","1","2023-01-02 19:12:56.783"
"two-step-fixation","84","460533","0.0-61.0-2.7","199","5358","10","Female","false","true","true","true","""event"",""trial"",""time""
""fullscreenenter"",""5"",""61395""
","
","
","""event"",""trial"",""time""
""fullscreenenter"",""5"",""61395""
","
","","images/earth.jpg","","","","","","","","","","","","","","fixation","","","","","",""
"d3-animate-choice","85","462877","0.0-61.0-0.8","199","5358","10","Female","false","true","true","true","""event"",""trial"",""time""
""fullscreenenter"",""5"",""61395""
","
","
","""event"",""trial"",""time""
""fullscreenenter"",""5"",""61395""
","
","341.5","","49","","","3000","1","","","images/earth.jpg","images/tutrocket1","images/tutrocket2","null","images/tutrocket2","","1","practice","null","1","","",""
"d3-animate-choice","86","465414","0.0-61.0-1.8","199","5358","10","Female","false","true","true","true","""event"",""trial"",""time""
""fullscreenenter"",""5"",""61395""
","
","
","""event"",""trial"",""time""
""fullscreenenter"",""5"",""61395""
","
","530.3999999761581","","48","","","3000","1","","","images/tutgreenplanet.jpg","images/tutalien2","images/tutalien1","images/tutrocket2","images/tutalien2","images/t.png","2","practice","false","2","rare","1","2023-01-02 19:13:02.669"
"two-step-fixation","87","466422","0.0-61.0-2.8","199","5358","10","Female","false","true","true","true","""event"",""trial"",""time""
""fullscreenenter"",""5"",""61395""
","
","
","""event"",""trial"",""time""
""fullscreenenter"",""5"",""61395""
","
","","images/earth.jpg","","","","","","","","","","","","","","fixation","","","","","",""
"d3-animate-choice","88","468894","0.0-61.0-0.9","199","5358","10","Female","false","true","true","true","""event"",""trial"",""time""
""fullscreenenter"",""5"",""61395""
","
","
","""event"",""trial"",""time""
""fullscreenenter"",""5"",""61395""
","
","467","","49","","","3000","1","","","images/earth.jpg","images/tutrocket1","images/tutrocket2","null","images/tutrocket2","","1","practice","null","1","","",""
"d3-animate-choice","89","471260","0.0-61.0-1.9","199","5358","10","Female","false","true","true","true","""event"",""trial"",""time""
""fullscreenenter"",""5"",""61395""
","
","
","""event"",""trial"",""time""
""fullscreenenter"",""5"",""61395""
","
","358.5","","48","","","3000","1","","","images/tutyellowplanet.jpg","images/tutalien4","images/tutalien3","images/tutrocket2","images/tutalien4","images/nothing.png","2","practice","true","2","common","0","2023-01-02 19:13:08.515"
"two-step-fixation","90","472264","0.0-61.0-2.9","199","5358","10","Female","false","true","true","true","""event"",""trial"",""time""
""fullscreenenter"",""5"",""61395""
","
","
","""event"",""trial"",""time""
""fullscreenenter"",""5"",""61395""
","
","","images/earth.jpg","","","","","","","","","","","","","","fixation","","","","","",""
"d3-animate-choice","91","475133","0.0-61.0-0.10","199","5358","10","Female","false","true","true","true","""event"",""trial"",""time""
""fullscreenenter"",""5"",""61395""
","
","
","""event"",""trial"",""time""
""fullscreenenter"",""5"",""61395""
","
","864.5","","48","","","3000","1","","","images/earth.jpg","images/tutrocket1","images/tutrocket2","null","images/tutrocket1","","1","practice","null","2","","",""
"d3-animate-choice","92","477628","0.0-61.0-1.10","199","5358","10","Female","false","true","true","true","""event"",""trial"",""time""
""fullscreenenter"",""5"",""61395""
","
","
","""event"",""trial"",""time""
""fullscreenenter"",""5"",""61395""
","
","492.39999997615814","","49","","","3000","1","","","images/tutgreenplanet.jpg","images/tutalien2","images/tutalien1","images/tutrocket1","images/tutalien1","images/nothing.png","2","practice","true","1","common","0","2023-01-02 19:13:14.883"
"two-step-fixation","93","478633","0.0-61.0-2.10","199","5358","10","Female","false","true","true","true","""event"",""trial"",""time""
""fullscreenenter"",""5"",""61395""
","
","
","""event"",""trial"",""time""
""fullscreenenter"",""5"",""61395""
","
","","images/earth.jpg","","","","","","","","","","","","","","fixation","","","","","",""
"d3-animate-choice","94","480993","0.0-61.0-0.11","199","5358","10","Female","false","true","true","true","""event"",""trial"",""time""
""fullscreenenter"",""5"",""61395""
","
","
","""event"",""trial"",""time""
""fullscreenenter"",""5"",""61395""
","
","356.09999990463257","","49","","","3000","1","2133.399999976158","49","images/earth.jpg","images/tutrocket1","images/tutrocket2","null","images/tutrocket2","","1","practice","null","1","","",""
"d3-animate-choice","95","483316","0.0-61.0-1.11","199","5358","10","Female","false","true","true","true","""event"",""trial"",""time""
""fullscreenenter"",""5"",""61395""
","
","
","""event"",""trial"",""time""
""fullscreenenter"",""5"",""61395""
","
","315.5","","49","","","3000","1","","","images/tutyellowplanet.jpg","images/tutalien4","images/tutalien3","images/tutrocket2","images/tutalien3","images/t.png","2","practice","true","1","common","1","2023-01-02 19:13:20.571"
"two-step-fixation","96","484323","0.0-61.0-2.11","199","5358","10","Female","false","true","true","true","""event"",""trial"",""time""
""fullscreenenter"",""5"",""61395""
","
","
","""event"",""trial"",""time""
""fullscreenenter"",""5"",""61395""
","
","","images/earth.jpg","","","","","","","","","","","","","","fixation","","","","","",""
"d3-animate-choice","97","486975","0.0-61.0-0.12","199","5358","10","Female","false","true","true","true","""event"",""trial"",""time""
""fullscreenenter"",""5"",""61395""
","
","
","""event"",""trial"",""time""
""fullscreenenter"",""5"",""61395""
","
","648.3999999761581","","49","","","3000","1","","","images/earth.jpg","images/tutrocket1","images/tutrocket2","null","images/tutrocket2","","1","practice","null","1","","",""
"d3-animate-choice","98","489627","0.0-61.0-1.12","199","5358","10","Female","false","true","true","true","""event"",""trial"",""time""
""fullscreenenter"",""5"",""61395""
","
","
","""event"",""trial"",""time""
""fullscreenenter"",""5"",""61395""
","
","647.2999999523163","","48","","","3000","1","","","images/tutyellowplanet.jpg","images/tutalien4","images/tutalien3","images/tutrocket2","images/tutalien4","images/t.png","2","practice","true","2","common","1","2023-01-02 19:13:26.882"
"two-step-fixation","99","490633","0.0-61.0-2.12","199","5358","10","Female","false","true","true","true","""event"",""trial"",""time""
""fullscreenenter"",""5"",""61395""
","
","
","""event"",""trial"",""time""
""fullscreenenter"",""5"",""61395""
","
","","images/earth.jpg","","","","","","","","","","","","","","fixation","","","","","",""
"d3-animate-choice","100","493098","0.0-61.0-0.13","199","5358","10","Female","false","true","true","true","""event"",""trial"",""time""
""fullscreenenter"",""5"",""61395""
","
","
","""event"",""trial"",""time""
""fullscreenenter"",""5"",""61395""
","
","461.89999997615814","","49","","","3000","1","","","images/earth.jpg","images/tutrocket1","images/tutrocket2","null","images/tutrocket2","","1","practice","null","1","","",""
"d3-animate-choice","101","495624","0.0-61.0-1.13","199","5358","10","Female","false","true","true","true","""event"",""trial"",""time""
""fullscreenenter"",""5"",""61395""
","
","
","""event"",""trial"",""time""
""fullscreenenter"",""5"",""61395""
","
","520","","48","","","3000","1","","","images/tutyellowplanet.jpg","images/tutalien4","images/tutalien3","images/tutrocket2","images/tutalien4","images/nothing.png","2","practice","true","2","common","0","2023-01-02 19:13:32.879"
"two-step-fixation","102","496632","0.0-61.0-2.13","199","5358","10","Female","false","true","true","true","""event"",""trial"",""time""
""fullscreenenter"",""5"",""61395""
","
","
","""event"",""trial"",""time""
""fullscreenenter"",""5"",""61395""
","
","","images/earth.jpg","","","","","","","","","","","","","","fixation","","","","","",""
"d3-animate-choice","103","499013","0.0-61.0-0.14","199","5358","10","Female","false","true","true","true","""event"",""trial"",""time""
""fullscreenenter"",""5"",""61395""
","
","
","""event"",""trial"",""time""
""fullscreenenter"",""5"",""61395""
","
","377.60000002384186","","49","","","3000","1","","","images/earth.jpg","images/tutrocket1","images/tutrocket2","null","images/tutrocket2","","1","practice","null","1","","",""
"d3-animate-choice","104","501484","0.0-61.0-1.14","199","5358","10","Female","false","true","true","true","""event"",""trial"",""time""
""fullscreenenter"",""5"",""61395""
","
","
","""event"",""trial"",""time""
""fullscreenenter"",""5"",""61395""
","
","467.09999990463257","","49","","","3000","1","","","images/tutyellowplanet.jpg","images/tutalien4","images/tutalien3","images/tutrocket2","images/tutalien3","images/nothing.png","2","practice","true","1","common","0","2023-01-02 19:13:38.739"
"two-step-fixation","105","502488","0.0-61.0-2.14","199","5358","10","Female","false","true","true","true","""event"",""trial"",""time""
""fullscreenenter"",""5"",""61395""
","
","
","""event"",""trial"",""time""
""fullscreenenter"",""5"",""61395""
","
","","images/earth.jpg","","","","","","","","","","","","","","fixation","","","","","",""
"d3-animate-choice","106","505266","0.0-61.0-0.15","199","5358","10","Female","false","true","true","true","""event"",""trial"",""time""
""fullscreenenter"",""5"",""61395""
","
","
","""event"",""trial"",""time""
""fullscreenenter"",""5"",""61395""
","
","770.7000000476837","","48","","","3000","1","","","images/earth.jpg","images/tutrocket1","images/tutrocket2","null","images/tutrocket1","","1","practice","null","2","","",""
"d3-animate-choice","107","508907","0.0-61.0-1.15","199","5358","10","Female","false","true","true","true","""event"",""trial"",""time""
""fullscreenenter"",""5"",""61395""
","
","
","""event"",""trial"",""time""
""fullscreenenter"",""5"",""61395""
","
","1636.6000000238419","","49","","","3000","1","","","images/tutgreenplanet.jpg","images/tutalien2","images/tutalien1","images/tutrocket1","images/tutalien1","images/t.png","2","practice","true","1","common","1","2023-01-02 19:13:46.163"
"two-step-fixation","108","509912","0.0-61.0-2.15","199","5358","10","Female","false","true","true","true","""event"",""trial"",""time""
""fullscreenenter"",""5"",""61395""
","
","
","""event"",""trial"",""time""
""fullscreenenter"",""5"",""61395""
","
","","images/earth.jpg","","","","","","","","","","","","","","fixation","","","","","",""
"d3-animate-choice","109","512632","0.0-61.0-0.16","199","5358","10","Female","false","true","true","true","""event"",""trial"",""time""
""fullscreenenter"",""5"",""61395""
","
","
","""event"",""trial"",""time""
""fullscreenenter"",""5"",""61395""
","
","713.7999999523163","","48","","","3000","1","","","images/earth.jpg","images/tutrocket1","images/tutrocket2","null","images/tutrocket1","","1","practice","null","2","","",""
"d3-animate-choice","110","515028","0.0-61.0-1.16","199","5358","10","Female","false","true","true","true","""event"",""trial"",""time""
""fullscreenenter"",""5"",""61395""
","
","
","""event"",""trial"",""time""
""fullscreenenter"",""5"",""61395""
","
","390.39999997615814","","48","","","3000","1","","","images/tutgreenplanet.jpg","images/tutalien2","images/tutalien1","images/tutrocket1","images/tutalien2","images/nothing.png","2","practice","true","2","common","0","2023-01-02 19:13:52.283"
"two-step-fixation","111","516033","0.0-61.0-2.16","199","5358","10","Female","false","true","true","true","""event"",""trial"",""time""
""fullscreenenter"",""5"",""61395""
","
","
","""event"",""trial"",""time""
""fullscreenenter"",""5"",""61395""
","
","","images/earth.jpg","","","","","","","","","","","","","","fixation","","","","","",""
"d3-animate-choice","112","518657","0.0-61.0-0.17","199","5358","10","Female","false","true","true","true","""event"",""trial"",""time""
""fullscreenenter"",""5"",""61395""
","
","
","""event"",""trial"",""time""
""fullscreenenter"",""5"",""61395""
","
","310.10000002384186","","81","","","3000","1","620","49","images/earth.jpg","images/tutrocket1","images/tutrocket2","null","images/tutrocket2","","1","practice","null","","","",""
"d3-animate-choice","113","521774","0.0-61.0-1.17","199","5358","10","Female","false","true","true","true","""event"",""trial"",""time""
""fullscreenenter"",""5"",""61395""
","
","
","""event"",""trial"",""time""
""fullscreenenter"",""5"",""61395""
","
","1113.3999999761581","","49","","","3000","1","","","images/tutyellowplanet.jpg","images/tutalien4","images/tutalien3","images/tutrocket2","images/tutalien3","images/nothing.png","2","practice","true","1","common","0","2023-01-02 19:13:59.029"
"two-step-fixation","114","522778","0.0-61.0-2.17","199","5358","10","Female","false","true","true","true","""event"",""trial"",""time""
""fullscreenenter"",""5"",""61395""
","
","
","""event"",""trial"",""time""
""fullscreenenter"",""5"",""61395""
","
","","images/earth.jpg","","","","","","","","","","","","","","fixation","","","","","",""
"d3-animate-choice","115","525066","0.0-61.0-0.18","199","5358","10","Female","false","true","true","true","""event"",""trial"",""time""
""fullscreenenter"",""5"",""61395""
","
","
","""event"",""trial"",""time""
""fullscreenenter"",""5"",""61395""
","
","280.3000000715256","","48","","","3000","1","532.3999999761581","48","images/earth.jpg","images/tutrocket1","images/tutrocket2","null","images/tutrocket1","","1","practice","null","2","","",""
"d3-animate-choice","116","527730","0.0-61.0-1.18","199","5358","10","Female","false","true","true","true","""event"",""trial"",""time""
""fullscreenenter"",""5"",""61395""
","
","
","""event"",""trial"",""time""
""fullscreenenter"",""5"",""61395""
","
","658.9000000953674","","48","","","3000","1","","","images/tutgreenplanet.jpg","images/tutalien2","images/tutalien1","images/tutrocket1","images/tutalien2","images/nothing.png","2","practice","true","2","common","0","2023-01-02 19:14:04.985"
"two-step-fixation","117","528736","0.0-61.0-2.18","199","5358","10","Female","false","true","true","true","""event"",""trial"",""time""
""fullscreenenter"",""5"",""61395""
","
","
","""event"",""trial"",""time""
""fullscreenenter"",""5"",""61395""
","
","","images/earth.jpg","","","","","","","","","","","","","","fixation","","","","","",""
"d3-animate-choice","118","531141","0.0-61.0-0.19","199","5358","10","Female","false","true","true","true","""event"",""trial"",""time""
""fullscreenenter"",""5"",""61395""
","
","
","""event"",""trial"",""time""
""fullscreenenter"",""5"",""61395""
","
","395.89999997615814","","49","","","3000","1","","","images/earth.jpg","images/tutrocket1","images/tutrocket2","null","images/tutrocket2","","1","practice","null","1","","",""
"d3-animate-choice","119","533804","0.0-61.0-1.19","199","5358","10","Female","false","true","true","true","""event"",""trial"",""time""
""fullscreenenter"",""5"",""61395""
","
","
","""event"",""trial"",""time""
""fullscreenenter"",""5"",""61395""
","
","656.3000000715256","","49","","","3000","1","","","images/tutyellowplanet.jpg","images/tutalien4","images/tutalien3","images/tutrocket2","images/tutalien3","images/nothing.png","2","practice","true","1","common","0","2023-01-02 19:14:11.059"
"two-step-fixation","120","534811","0.0-61.0-2.19","199","5358","10","Female","false","true","true","true","""event"",""trial"",""time""
""fullscreenenter"",""5"",""61395""
","
","
","""event"",""trial"",""time""
""fullscreenenter"",""5"",""61395""
","
","","images/earth.jpg","","","","","","","","","","","","","","fixation","","","","","",""
"d3-instructions","121","541321","0.0-62.0","199","5358","10","Female","false","true","true","true","""event"",""trial"",""time""
""fullscreenenter"",""5"",""61395""
","
","
","""event"",""trial"",""time""
""fullscreenenter"",""5"",""61395""
","
","","","","","","","","","","","","","","","","","","","","","",""
"audio-keyboard-response","122","546071","0.0-63.0","199","5358","10","Female","false","true","true","true","""event"",""trial"",""time""
""fullscreenenter"",""5"",""61395""
","
","
","""event"",""trial"",""time""
""fullscreenenter"",""5"",""61395""
","
","4748","audio/instructions/treasure_feedback.wav","32","","","","","","","","","","","","","","","","","","",""
"d3-instructions","123","566289","0.0-64.0","199","5358","10","Female","false","true","true","true","""event"",""trial"",""time""
""fullscreenenter"",""5"",""61395""
","
","
","""event"",""trial"",""time""
""fullscreenenter"",""5"",""61395""
","
","","","","","","","","","","","","","","","","","","","","","",""
"d3-instructions","124","578271","0.0-65.0","199","5358","10","Female","false","true","true","true","""event"",""trial"",""time""
""fullscreenenter"",""5"",""61395""
","
","
","""event"",""trial"",""time""
""fullscreenenter"",""5"",""61395""
","
","","","","","","","","","","","","","","","","","","","","","",""
"d3-instructions","125","591300","0.0-66.0","199","5358","10","Female","false","true","true","true","""event"",""trial"",""time""
""fullscreenenter"",""5"",""61395""
","
","
","""event"",""trial"",""time""
""fullscreenenter"",""5"",""61395""
","
","","","","","","","","","","","","","","","","","","","","","",""
"d3-instructions","126","604175","0.0-67.0","199","5358","10","Female","false","true","true","true","""event"",""trial"",""time""
""fullscreenenter"",""5"",""61395""
","
","
","""event"",""trial"",""time""
""fullscreenenter"",""5"",""61395""
","
","","","","","","","","","","","","","","","","","","","","","",""
"d3-instructions","127","610433","0.0-68.0","199","5358","10","Female","false","true","true","true","""event"",""trial"",""time""
""fullscreenenter"",""5"",""61395""
","
","
","""event"",""trial"",""time""
""fullscreenenter"",""5"",""61395""
","
","","","","","","","","","","","","","","","","","","","","","",""
"instructions-quiz","128","614279","0.0-69.0","199","5358","10","Female","false","true","true","true","""event"",""trial"",""time""
""fullscreenenter"",""5"",""61395""
","
","
","""event"",""trial"",""time""
""fullscreenenter"",""5"",""61395""
","
","3843.9000000953674","audio/quiz/Q1_Prompt.wav","","1","","","","","","","","","","","","","","","","","",""
"audio-keyboard-response","129","623039","0.0-70.0","199","5358","10","Female","false","true","true","true","""event"",""trial"",""time""
""fullscreenenter"",""5"",""61395""
","
","
","""event"",""trial"",""time""
""fullscreenenter"",""5"",""61395""
","
","8754","audio/quiz/Q1_Correct.wav","32","","","","","","","","","","","","","","","","","","",""
"instructions-quiz","130","629129","0.0-71.0","199","5358","10","Female","false","true","true","true","""event"",""trial"",""time""
""fullscreenenter"",""5"",""61395""
","
","
","""event"",""trial"",""time""
""fullscreenenter"",""5"",""61395""
","
","6087.5","audio/quiz/Q2_Prompt.wav","","0","","","","","","","","","","","","","","","","","",""
"audio-keyboard-response","131","636654","0.0-72.0","199","5358","10","Female","false","true","true","true","""event"",""trial"",""time""
""fullscreenenter"",""5"",""61395""
","
","
","""event"",""trial"",""time""
""fullscreenenter"",""5"",""61395""
","
","7523","audio/quiz/Q2_Correct.wav","32","","","","","","","","","","","","","","","","","","",""
"instructions-quiz","132","641396","0.0-73.0","199","5358","10","Female","false","true","true","true","""event"",""trial"",""time""
""fullscreenenter"",""5"",""61395""
","
","
","""event"",""trial"",""time""
""fullscreenenter"",""5"",""61395""
","
","4739.199999928474","audio/quiz/Q3_Prompt.wav","","1","","","","","","","","","","","","","","","","","",""
"audio-keyboard-response","133","643675","0.0-74.0","199","5358","10","Female","false","true","true","true","""event"",""trial"",""time""
""fullscreenenter"",""5"",""61395""
","
","
","""event"",""trial"",""time""
""fullscreenenter"",""5"",""61395""
","
","2276","audio/quiz/Q3_Correct.wav","32","","","","","","","","","","","","","","","","","","",""
"d3-instructions","134","659668","0.0-75.0","199","5358","10","Female","false","true","true","true","""event"",""trial"",""time""
""fullscreenenter"",""5"",""61395""
","
","
","""event"",""trial"",""time""
""fullscreenenter"",""5"",""61395""
","
","","","","","","","","","","","","","","","","","","","","","",""
"pavlovia","135","659670","0.0-76.0","199","5358","10","Female","false","true","true","true","""event"",""trial"",""time""
""fullscreenenter"",""5"",""61395""
","
","
","""event"",""trial"",""time""
""fullscreenenter"",""5"",""61395""
","
","","","","","","","","","","","","","","","","","","","","","",""
"d3-animate-choice","136","662665","0.0-77.0-0.0","199","5358","10","Female","false","true","true","true","""event"",""trial"",""time""
""fullscreenenter"",""5"",""61395""
","
","
","""event"",""trial"",""time""
""fullscreenenter"",""5"",""61395""
","
","988.7000000476837","","49","","","3000","1","","","images/earth.jpg","images/rocket1","images/rocket2","null","images/rocket2","","1","real","null","1","","",""
"d3-animate-choice","137","666026","0.0-77.0-1.0","199","5358","10","Female","false","true","true","true","""event"",""trial"",""time""
""fullscreenenter"",""5"",""61395""
","
","
","""event"",""trial"",""time""
""fullscreenenter"",""5"",""61395""
","
","1353.5","","48","","","3000","1","","","images/purpleplanet.jpg","images/alien4","images/alien3","images/rocket2","images/alien4","images/t.png","2","real","true","2","common","1","2023-01-02 19:16:23.281"
"two-step-fixation","138","667030","0.0-77.0-2.0","199","5358","10","Female","false","true","true","true","""event"",""trial"",""time""
""fullscreenenter"",""5"",""61395""
","
","
","""event"",""trial"",""time""
""fullscreenenter"",""5"",""61395""
","
","","images/earth.jpg","","","","","","","","","","","","","","fixation","","","","","",""
"d3-animate-choice","139","669404","0.0-77.0-0.1","199","5358","10","Female","false","true","true","true","""event"",""trial"",""time""
""fullscreenenter"",""5"",""61395""
","
","
","""event"",""trial"",""time""
""fullscreenenter"",""5"",""61395""
","
","366.5","","49","","","3000","1","","","images/earth.jpg","images/rocket1","images/rocket2","null","images/rocket2","","1","real","null","1","","",""
"d3-animate-choice","140","672115","0.0-77.0-1.1","199","5358","10","Female","false","true","true","true","""event"",""trial"",""time""
""fullscreenenter"",""5"",""61395""
","
","
","""event"",""trial"",""time""
""fullscreenenter"",""5"",""61395""
","
","707.5","","48","","","3000","1","","","images/purpleplanet.jpg","images/alien4","images/alien3","images/rocket2","images/alien4","images/nothing.png","2","real","true","2","common","0","2023-01-02 19:16:29.370"
"two-step-fixation","141","673119","0.0-77.0-2.1","199","5358","10","Female","false","true","true","true","""event"",""trial"",""time""
""fullscreenenter"",""5"",""61395""
","
","
","""event"",""trial"",""time""
""fullscreenenter"",""5"",""61395""
","
","","images/earth.jpg","","","","","","","","","","","","","","fixation","","","","","",""
"d3-animate-choice","142","675481","0.0-77.0-0.2","199","5358","10","Female","false","true","true","true","""event"",""trial"",""time""
""fullscreenenter"",""5"",""61395""
","
","
","""event"",""trial"",""time""
""fullscreenenter"",""5"",""61395""
","
","358.1999999284744","","48","","","3000","1","","","images/earth.jpg","images/rocket1","images/rocket2","null","images/rocket1","","1","real","null","2","","",""
"d3-animate-choice","143","678477","0.0-77.0-1.2","199","5358","10","Female","false","true","true","true","""event"",""trial"",""time""
""fullscreenenter"",""5"",""61395""
","
","
","""event"",""trial"",""time""
""fullscreenenter"",""5"",""61395""
","
","990.7999999523163","","49","","","3000","1","","","images/redplanet1.jpg","images/alien2","images/alien1","images/rocket1","images/alien1","images/nothing.png","2","real","true","1","common","0","2023-01-02 19:16:35.732"
"two-step-fixation","144","679481","0.0-77.0-2.2","199","5358","10","Female","false","true","true","true","""event"",""trial"",""time""
""fullscreenenter"",""5"",""61395""
","
","
","""event"",""trial"",""time""
""fullscreenenter"",""5"",""61395""
","
","","images/earth.jpg","","","","","","","","","","","","","","fixation","","","","","",""
"d3-animate-choice","145","681736","0.0-77.0-0.3","199","5358","10","Female","false","true","true","true","""event"",""trial"",""time""
""fullscreenenter"",""5"",""61395""
","
","
","""event"",""trial"",""time""
""fullscreenenter"",""5"",""61395""
","
","249.20000004768372","","49","","","3000","1","","","images/earth.jpg","images/rocket1","images/rocket2","null","images/rocket2","","1","real","null","1","","",""
"d3-animate-choice","146","684328","0.0-77.0-1.3","199","5358","10","Female","false","true","true","true","""event"",""trial"",""time""
""fullscreenenter"",""5"",""61395""
","
","
","""event"",""trial"",""time""
""fullscreenenter"",""5"",""61395""
","
","587.2999999523163","","49","","","3000","1","","","images/purpleplanet.jpg","images/alien4","images/alien3","images/rocket2","images/alien3","images/nothing.png","2","real","true","1","common","0","2023-01-02 19:16:41.583"
"two-step-fixation","147","685335","0.0-77.0-2.3","199","5358","10","Female","false","true","true","true","""event"",""trial"",""time""
""fullscreenenter"",""5"",""61395""
","
","
","""event"",""trial"",""time""
""fullscreenenter"",""5"",""61395""
","
","","images/earth.jpg","","","","","","","","","","","","","","fixation","","","","","",""
"d3-animate-choice","148","687760","0.0-77.0-0.4","199","5358","10","Female","false","true","true","true","""event"",""trial"",""time""
""fullscreenenter"",""5"",""61395""
","
","
","""event"",""trial"",""time""
""fullscreenenter"",""5"",""61395""
","
","418.60000002384186","","49","","","3000","1","","","images/earth.jpg","images/rocket1","images/rocket2","null","images/rocket2","","1","real","null","1","","",""
"d3-animate-choice","149","690790","0.0-77.0-1.4","199","5358","10","Female","false","true","true","true","""event"",""trial"",""time""
""fullscreenenter"",""5"",""61395""
","
","
","""event"",""trial"",""time""
""fullscreenenter"",""5"",""61395""
","
","1026.5","","48","","","3000","1","","","images/purpleplanet.jpg","images/alien4","images/alien3","images/rocket2","images/alien4","images/nothing.png","2","real","true","2","common","0","2023-01-02 19:16:48.045"
"two-step-fixation","150","691796","0.0-77.0-2.4","199","5358","10","Female","false","true","true","true","""event"",""trial"",""time""
""fullscreenenter"",""5"",""61395""
","
","
","""event"",""trial"",""time""
""fullscreenenter"",""5"",""61395""
","
","","images/earth.jpg","","","","","","","","","","","","","","fixation","","","","","",""
"d3-animate-choice","151","694203","0.0-77.0-0.5","199","5358","10","Female","false","true","true","true","""event"",""trial"",""time""
""fullscreenenter"",""5"",""61395""
","
","
","""event"",""trial"",""time""
""fullscreenenter"",""5"",""61395""
","
","397.60000002384186","","48","","","3000","1","","","images/earth.jpg","images/rocket1","images/rocket2","null","images/rocket1","","1","real","null","2","","",""
"d3-animate-choice","152","696779","0.0-77.0-1.5","199","5358","10","Female","false","true","true","true","""event"",""trial"",""time""
""fullscreenenter"",""5"",""61395""
","
","
","""event"",""trial"",""time""
""fullscreenenter"",""5"",""61395""
","
","571.7000000476837","","48","","","3000","1","","","images/redplanet1.jpg","images/alien2","images/alien1","images/rocket1","images/alien2","images/t.png","2","real","true","2","common","1","2023-01-02 19:16:54.034"
"two-step-fixation","153","697784","0.0-77.0-2.5","199","5358","10","Female","false","true","true","true","""event"",""trial"",""time""
""fullscreenenter"",""5"",""61395""
","
","
","""event"",""trial"",""time""
""fullscreenenter"",""5"",""61395""
","
","","images/earth.jpg","","","","","","","","","","","","","","fixation","","","","","",""
"d3-animate-choice","154","700095","0.0-77.0-0.6","199","5358","10","Female","false","true","true","true","""event"",""trial"",""time""
""fullscreenenter"",""5"",""61395""
","
","
","""event"",""trial"",""time""
""fullscreenenter"",""5"",""61395""
","
","305.2000000476837","","48","","","3000","1","","","images/earth.jpg","images/rocket1","images/rocket2","null","images/rocket1","","1","real","null","2","","",""
"d3-animate-choice","155","702588","0.0-77.0-1.6","199","5358","10","Female","false","true","true","true","""event"",""trial"",""time""
""fullscreenenter"",""5"",""61395""
","
","
","""event"",""trial"",""time""
""fullscreenenter"",""5"",""61395""
","
","487.1999999284744","","48","","","3000","1","","","images/redplanet1.jpg","images/alien2","images/alien1","images/rocket1","images/alien2","images/t.png","2","real","true","2","common","1","2023-01-02 19:16:59.843"
"two-step-fixation","156","703596","0.0-77.0-2.6","199","5358","10","Female","false","true","true","true","""event"",""trial"",""time""
""fullscreenenter"",""5"",""61395""
","
","
","""event"",""trial"",""time""
""fullscreenenter"",""5"",""61395""
","
","","images/earth.jpg","","","","","","","","","","","","","","fixation","","","","","",""
"d3-animate-choice","157","705902","0.0-77.0-0.7","199","5358","10","Female","false","true","true","true","""event"",""trial"",""time""
""fullscreenenter"",""5"",""61395""
","
","
","""event"",""trial"",""time""
""fullscreenenter"",""5"",""61395""
","
","300.10000002384186","","48","","","3000","1","","","images/earth.jpg","images/rocket1","images/rocket2","null","images/rocket1","","1","real","null","2","","",""
"d3-animate-choice","158","708907","0.0-77.0-1.7","199","5358","10","Female","false","true","true","true","""event"",""trial"",""time""
""fullscreenenter"",""5"",""61395""
","
","
","""event"",""trial"",""time""
""fullscreenenter"",""5"",""61395""
","
","997.2999999523163","","48","","","3000","1","","","images/purpleplanet.jpg","images/alien4","images/alien3","images/rocket1","images/alien4","images/t.png","2","real","false","2","rare","1","2023-01-02 19:17:06.162"
"two-step-fixation","159","709911","0.0-77.0-2.7","199","5358","10","Female","false","true","true","true","""event"",""trial"",""time""
""fullscreenenter"",""5"",""61395""
","
","
","""event"",""trial"",""time""
""fullscreenenter"",""5"",""61395""
","
","","images/earth.jpg","","","","","","","","","","","","","","fixation","","","","","",""
"d3-animate-choice","160","712065","0.0-77.0-0.8","199","5358","10","Female","false","true","true","true","""event"",""trial"",""time""
""fullscreenenter"",""5"",""61395""
","
","
","""event"",""trial"",""time""
""fullscreenenter"",""5"",""61395""
","
","146.60000002384186","","48","","","3000","1","","","images/earth.jpg","images/rocket1","images/rocket2","null","images/rocket1","","1","real","null","2","","",""
"d3-animate-choice","161","714585","0.0-77.0-1.8","199","5358","10","Female","false","true","true","true","""event"",""trial"",""time""
""fullscreenenter"",""5"",""61395""
","
","
","""event"",""trial"",""time""
""fullscreenenter"",""5"",""61395""
","
","515.5","","48","","","3000","1","","","images/redplanet1.jpg","images/alien2","images/alien1","images/rocket1","images/alien2","images/t.png","2","real","true","2","common","1","2023-01-02 19:17:11.840"
"two-step-fixation","162","715589","0.0-77.0-2.8","199","5358","10","Female","false","true","true","true","""event"",""trial"",""time""
""fullscreenenter"",""5"",""61395""
","
","
","""event"",""trial"",""time""
""fullscreenenter"",""5"",""61395""
","
","","images/earth.jpg","","","","","","","","","","","","","","fixation","","","","","",""
"d3-animate-choice","163","717914","0.0-77.0-0.9","199","5358","10","Female","false","true","true","true","""event"",""trial"",""time""
""fullscreenenter"",""5"",""61395""
","
","
","""event"",""trial"",""time""
""fullscreenenter"",""5"",""61395""
","
","318.5","","48","","","3000","1","","","images/earth.jpg","images/rocket1","images/rocket2","null","images/rocket1","","1","real","null","2","","",""
"d3-animate-choice","164","720865","0.0-77.0-1.9","199","5358","10","Female","false","true","true","true","""event"",""trial"",""time""
""fullscreenenter"",""5"",""61395""
","
","
","""event"",""trial"",""time""
""fullscreenenter"",""5"",""61395""
","
","945.4000000953674","","49","","","3000","1","","","images/redplanet1.jpg","images/alien2","images/alien1","images/rocket1","images/alien1","images/t.png","2","real","true","1","common","1","2023-01-02 19:17:18.120"
"two-step-fixation","165","721872","0.0-77.0-2.9","199","5358","10","Female","false","true","true","true","""event"",""trial"",""time""
""fullscreenenter"",""5"",""61395""
","
","
","""event"",""trial"",""time""
""fullscreenenter"",""5"",""61395""
","
","","images/earth.jpg","","","","","","","","","","","","","","fixation","","","","","",""
"d3-animate-choice","166","724193","0.0-77.0-0.10","199","5358","10","Female","false","true","true","true","""event"",""trial"",""time""
""fullscreenenter"",""5"",""61395""
","
","
","""event"",""trial"",""time""
""fullscreenenter"",""5"",""61395""
","
","313.60000002384186","","48","","","3000","1","","","images/earth.jpg","images/rocket1","images/rocket2","null","images/rocket1","","1","real","null","2","","",""
"d3-animate-choice","167","726635","0.0-77.0-1.10","199","5358","10","Female","false","true","true","true","""event"",""trial"",""time""
""fullscreenenter"",""5"",""61395""
","
","
","""event"",""trial"",""time""
""fullscreenenter"",""5"",""61395""
","
","434.6999999284744","","48","","","3000","1","","","images/redplanet1.jpg","images/alien2","images/alien1","images/rocket1","images/alien2","images/t.png","2","real","true","2","common","1","2023-01-02 19:17:23.890"
"two-step-fixation","168","727640","0.0-77.0-2.10","199","5358","10","Female","false","true","true","true","""event"",""trial"",""time""
""fullscreenenter"",""5"",""61395""
","
","
","""event"",""trial"",""time""
""fullscreenenter"",""5"",""61395""
","
","","images/earth.jpg","","","","","","","","","","","","","","fixation","","","","","",""
"d3-animate-choice","169","729954","0.0-77.0-0.11","199","5358","10","Female","false","true","true","true","""event"",""trial"",""time""
""fullscreenenter"",""5"",""61395""
","
","
","""event"",""trial"",""time""
""fullscreenenter"",""5"",""61395""
","
","307","","48","","","3000","1","","","images/earth.jpg","images/rocket1","images/rocket2","null","images/rocket1","","1","real","null","2","","",""
"d3-animate-choice","170","732950","0.0-77.0-1.11","199","5358","10","Female","false","true","true","true","""event"",""trial"",""time""
""fullscreenenter"",""5"",""61395""
","
","
","""event"",""trial"",""time""
""fullscreenenter"",""5"",""61395""
","
","987.3000000715256","","48","","","3000","1","","","images/redplanet1.jpg","images/alien2","images/alien1","images/rocket1","images/alien2","images/t.png","2","real","true","2","common","1","2023-01-02 19:17:30.205"
"two-step-fixation","171","733955","0.0-77.0-2.11","199","5358","10","Female","false","true","true","true","""event"",""trial"",""time""
""fullscreenenter"",""5"",""61395""
","
","
","""event"",""trial"",""time""
""fullscreenenter"",""5"",""61395""
","
","","images/earth.jpg","","","","","","","","","","","","","","fixation","","","","","",""
"d3-animate-choice","172","736359","0.0-77.0-0.12","199","5358","10","Female","false","true","true","true","""event"",""trial"",""time""
""fullscreenenter"",""5"",""61395""
","
","
","""event"",""trial"",""time""
""fullscreenenter"",""5"",""61395""
","
","397.1999999284744","","49","","","3000","1","","","images/earth.jpg","images/rocket1","images/rocket2","null","images/rocket2","","1","real","null","1","","",""
"d3-animate-choice","173","739300","0.0-77.0-1.12","199","5358","10","Female","false","true","true","true","""event"",""trial"",""time""
""fullscreenenter"",""5"",""61395""
","
","
","""event"",""trial"",""time""
""fullscreenenter"",""5"",""61395""
","
","934.5999999046326","","49","","","3000","1","","","images/purpleplanet.jpg","images/alien4","images/alien3","images/rocket2","images/alien3","images/t.png","2","real","true","1","common","1","2023-01-02 19:17:36.555"
"two-step-fixation","174","740305","0.0-77.0-2.12","199","5358","10","Female","false","true","true","true","""event"",""trial"",""time""
""fullscreenenter"",""5"",""61395""
","
","
","""event"",""trial"",""time""
""fullscreenenter"",""5"",""61395""
","
","","images/earth.jpg","","","","","","","","","","","","","","fixation","","","","","",""
"d3-animate-choice","175","742629","0.0-77.0-0.13","199","5358","10","Female","false","true","true","true","""event"",""trial"",""time""
""fullscreenenter"",""5"",""61395""
","
","
","""event"",""trial"",""time""
""fullscreenenter"",""5"",""61395""
","
","318.5","","48","","","3000","1","","","images/earth.jpg","images/rocket1","images/rocket2","null","images/rocket1","","1","real","null","2","","",""
"d3-animate-choice","176","745279","0.0-77.0-1.13","199","5358","10","Female","false","true","true","true","""event"",""trial"",""time""
""fullscreenenter"",""5"",""61395""
","
","
","""event"",""trial"",""time""
""fullscreenenter"",""5"",""61395""
","
","643.6000000238419","","49","","","3000","1","","","images/redplanet1.jpg","images/alien2","images/alien1","images/rocket1","images/alien1","images/nothing.png","2","real","true","1","common","0","2023-01-02 19:17:42.534"
"two-step-fixation","177","746284","0.0-77.0-2.13","199","5358","10","Female","false","true","true","true","""event"",""trial"",""time""
""fullscreenenter"",""5"",""61395""
","
","
","""event"",""trial"",""time""
""fullscreenenter"",""5"",""61395""
","
","","images/earth.jpg","","","","","","","","","","","","","","fixation","","","","","",""
"d3-animate-choice","178","748866","0.0-77.0-0.14","199","5358","10","Female","false","true","true","true","""event"",""trial"",""time""
""fullscreenenter"",""5"",""61395""
","
","
","""event"",""trial"",""time""
""fullscreenenter"",""5"",""61395""
","
","576.1000000238419","","49","","","3000","1","","","images/earth.jpg","images/rocket1","images/rocket2","null","images/rocket2","","1","real","null","1","","",""
"d3-animate-choice","179","752136","0.0-77.0-1.14","199","5358","10","Female","false","true","true","true","""event"",""trial"",""time""
""fullscreenenter"",""5"",""61395""
","
","
","""event"",""trial"",""time""
""fullscreenenter"",""5"",""61395""
","
","1262","","49","","","3000","1","","","images/purpleplanet.jpg","images/alien4","images/alien3","images/rocket2","images/alien3","images/nothing.png","2","real","true","1","common","0","2023-01-02 19:17:49.391"
"two-step-fixation","180","753139","0.0-77.0-2.14","199","5358","10","Female","false","true","true","true","""event"",""trial"",""time""
""fullscreenenter"",""5"",""61395""
","
","
","""event"",""trial"",""time""
""fullscreenenter"",""5"",""61395""
","
","","images/earth.jpg","","","","","","","","","","","","","","fixation","","","","","",""
"d3-animate-choice","181","755489","0.0-77.0-0.15","199","5358","10","Female","false","true","true","true","""event"",""trial"",""time""
""fullscreenenter"",""5"",""61395""
","
","
","""event"",""trial"",""time""
""fullscreenenter"",""5"",""61395""
","
","347","","48","","","3000","1","","","images/earth.jpg","images/rocket1","images/rocket2","null","images/rocket1","","1","real","null","2","","",""
"d3-animate-choice","182","757923","0.0-77.0-1.15","199","5358","10","Female","false","true","true","true","""event"",""trial"",""time""
""fullscreenenter"",""5"",""61395""
","
","
","""event"",""trial"",""time""
""fullscreenenter"",""5"",""61395""
","
","430.89999997615814","","49","","","3000","1","","","images/redplanet1.jpg","images/alien2","images/alien1","images/rocket1","images/alien1","images/nothing.png","2","real","true","1","common","0","2023-01-02 19:17:55.178"
"two-step-fixation","183","758927","0.0-77.0-2.15","199","5358","10","Female","false","true","true","true","""event"",""trial"",""time""
""fullscreenenter"",""5"",""61395""
","
","
","""event"",""trial"",""time""
""fullscreenenter"",""5"",""61395""
","
","","images/earth.jpg","","","","","","","","","","","","","","fixation","","","","","",""
"d3-animate-choice","184","761413","0.0-77.0-0.16","199","5358","10","Female","false","true","true","true","""event"",""trial"",""time""
""fullscreenenter"",""5"",""61395""
","
","
","""event"",""trial"",""time""
""fullscreenenter"",""5"",""61395""
","
","481.10000002384186","","48","","","3000","1","","","images/earth.jpg","images/rocket1","images/rocket2","null","images/rocket1","","1","real","null","2","","",""
"d3-animate-choice","185","763567","0.0-77.0-1.16","199","5358","10","Female","false","true","true","true","""event"",""trial"",""time""
""fullscreenenter"",""5"",""61395""
","
","
","""event"",""trial"",""time""
""fullscreenenter"",""5"",""61395""
","
","150.30000007152557","","48","","","3000","1","","","images/purpleplanet.jpg","images/alien4","images/alien3","images/rocket1","images/alien4","images/t.png","2","real","false","2","rare","1","2023-01-02 19:18:00.822"
"two-step-fixation","186","764570","0.0-77.0-2.16","199","5358","10","Female","false","true","true","true","""event"",""trial"",""time""
""fullscreenenter"",""5"",""61395""
","
","
","""event"",""trial"",""time""
""fullscreenenter"",""5"",""61395""
","
","","images/earth.jpg","","","","","","","","","","","","","","fixation","","","","","",""
"d3-animate-choice","187","766800","0.0-77.0-0.17","199","5358","10","Female","false","true","true","true","""event"",""trial"",""time""
""fullscreenenter"",""5"",""61395""
","
","
","""event"",""trial"",""time""
""fullscreenenter"",""5"",""61395""
","
","221.80000007152557","","48","","","3000","1","","","images/earth.jpg","images/rocket1","images/rocket2","null","images/rocket1","","1","real","null","2","","",""
"d3-animate-choice","188","769318","0.0-77.0-1.17","199","5358","10","Female","false","true","true","true","""event"",""trial"",""time""
""fullscreenenter"",""5"",""61395""
","
","
","""event"",""trial"",""time""
""fullscreenenter"",""5"",""61395""
","
","514.1000000238419","","48","","","3000","1","","","images/redplanet1.jpg","images/alien2","images/alien1","images/rocket1","images/alien2","images/t.png","2","real","true","2","common","1","2023-01-02 19:18:06.573"
"two-step-fixation","189","770323","0.0-77.0-2.17","199","5358","10","Female","false","true","true","true","""event"",""trial"",""time""
""fullscreenenter"",""5"",""61395""
","
","
","""event"",""trial"",""time""
""fullscreenenter"",""5"",""61395""
","
","","images/earth.jpg","","","","","","","","","","","","","","fixation","","","","","",""
"d3-animate-choice","190","772621","0.0-77.0-0.18","199","5358","10","Female","false","true","true","true","""event"",""trial"",""time""
""fullscreenenter"",""5"",""61395""
","
","
","""event"",""trial"",""time""
""fullscreenenter"",""5"",""61395""
","
","292.10000002384186","","48","","","3000","1","","","images/earth.jpg","images/rocket1","images/rocket2","null","images/rocket1","","1","real","null","2","","",""
"d3-animate-choice","191","775094","0.0-77.0-1.18","199","5358","10","Female","false","true","true","true","""event"",""trial"",""time""
""fullscreenenter"",""5"",""61395""
","
","
","""event"",""trial"",""time""
""fullscreenenter"",""5"",""61395""
","
","469.7999999523163","","48","","","3000","1","","","images/redplanet1.jpg","images/alien2","images/alien1","images/rocket1","images/alien2","images/nothing.png","2","real","true","2","common","0","2023-01-02 19:18:12.350"
"two-step-fixation","192","776100","0.0-77.0-2.18","199","5358","10","Female","false","true","true","true","""event"",""trial"",""time""
""fullscreenenter"",""5"",""61395""
","
","
","""event"",""trial"",""time""
""fullscreenenter"",""5"",""61395""
","
","","images/earth.jpg","","","","","","","","","","","","","","fixation","","","","","",""
"d3-animate-choice","193","778430","0.0-77.0-0.19","199","5358","10","Female","false","true","true","true","""event"",""trial"",""time""
""fullscreenenter"",""5"",""61395""
","
","
","""event"",""trial"",""time""
""fullscreenenter"",""5"",""61395""
","
","322.89999997615814","","48","","","3000","1","","","images/earth.jpg","images/rocket1","images/rocket2","null","images/rocket1","","1","real","null","2","","",""
"d3-animate-choice","194","780933","0.0-77.0-1.19","199","5358","10","Female","false","true","true","true","""event"",""trial"",""time""
""fullscreenenter"",""5"",""61395""
","
","
","""event"",""trial"",""time""
""fullscreenenter"",""5"",""61395""
","
","496.59999990463257","","49","","","3000","1","","","images/redplanet1.jpg","images/alien2","images/alien1","images/rocket1","images/alien1","images/t.png","2","real","true","1","common","1","2023-01-02 19:18:18.188"
"two-step-fixation","195","781938","0.0-77.0-2.19","199","5358","10","Female","false","true","true","true","""event"",""trial"",""time""
""fullscreenenter"",""5"",""61395""
","
","
","""event"",""trial"",""time""
""fullscreenenter"",""5"",""61395""
","
","","images/earth.jpg","","","","","","","","","","","","","","fixation","","","","","",""
"d3-animate-choice","196","784271","0.0-77.0-0.20","199","5358","10","Female","false","true","true","true","""event"",""trial"",""time""
""fullscreenenter"",""5"",""61395""
","
","
","""event"",""trial"",""time""
""fullscreenenter"",""5"",""61395""
","
","329.2999999523163","","48","","","3000","1","","","images/earth.jpg","images/rocket1","images/rocket2","null","images/rocket1","","1","real","null","2","","",""
"d3-animate-choice","197","786993","0.0-77.0-1.20","199","5358","10","Female","false","true","true","true","""event"",""trial"",""time""
""fullscreenenter"",""5"",""61395""
","
","
","""event"",""trial"",""time""
""fullscreenenter"",""5"",""61395""
","
","714.8000000715256","","48","","","3000","1","","","images/redplanet1.jpg","images/alien2","images/alien1","images/rocket1","images/alien2","images/t.png","2","real","true","2","common","1","2023-01-02 19:18:24.248"
"two-step-fixation","198","788000","0.0-77.0-2.20","199","5358","10","Female","false","true","true","true","""event"",""trial"",""time""
""fullscreenenter"",""5"",""61395""
","
","
","""event"",""trial"",""time""
""fullscreenenter"",""5"",""61395""
","
","","images/earth.jpg","","","","","","","","","","","","","","fixation","","","","","",""
"d3-animate-choice","199","790611","0.0-77.0-0.21","199","5358","10","Female","false","true","true","true","""event"",""trial"",""time""
""fullscreenenter"",""5"",""61395""
","
","
","""event"",""trial"",""time""
""fullscreenenter"",""5"",""61395""
","
","606.6000000238419","","49","","","3000","1","","","images/earth.jpg","images/rocket1","images/rocket2","null","images/rocket2","","1","real","null","1","","",""
"d3-animate-choice","200","793336","0.0-77.0-1.21","199","5358","10","Female","false","true","true","true","""event"",""trial"",""time""
""fullscreenenter"",""5"",""61395""
","
","
","""event"",""trial"",""time""
""fullscreenenter"",""5"",""61395""
","
","718.4000000953674","","49","","","3000","1","","","images/purpleplanet.jpg","images/alien4","images/alien3","images/rocket2","images/alien3","images/nothing.png","2","real","true","1","common","0","2023-01-02 19:18:30.591"
"two-step-fixation","201","794343","0.0-77.0-2.21","199","5358","10","Female","false","true","true","true","""event"",""trial"",""time""
""fullscreenenter"",""5"",""61395""
","
","
","""event"",""trial"",""time""
""fullscreenenter"",""5"",""61395""
","
","","images/earth.jpg","","","","","","","","","","","","","","fixation","","","","","",""
"d3-animate-choice","202","796677","0.0-77.0-0.22","199","5358","10","Female","false","true","true","true","""event"",""trial"",""time""
""fullscreenenter"",""5"",""61395""
","
","
","""event"",""trial"",""time""
""fullscreenenter"",""5"",""61395""
","
","328.09999990463257","","48","","","3000","1","","","images/earth.jpg","images/rocket1","images/rocket2","null","images/rocket1","","1","real","null","2","","",""
"d3-animate-choice","203","799440","0.0-77.0-1.22","199","5358","10","Female","false","true","true","true","""event"",""trial"",""time""
""fullscreenenter"",""5"",""61395""
","
","
","""event"",""trial"",""time""
""fullscreenenter"",""5"",""61395""
","
","760","","48","","","3000","1","","","images/redplanet1.jpg","images/alien2","images/alien1","images/rocket1","images/alien2","images/nothing.png","2","real","true","2","common","0","2023-01-02 19:18:36.695"
"two-step-fixation","204","800443","0.0-77.0-2.22","199","5358","10","Female","false","true","true","true","""event"",""trial"",""time""
""fullscreenenter"",""5"",""61395""
","
","
","""event"",""trial"",""time""
""fullscreenenter"",""5"",""61395""
","
","","images/earth.jpg","","","","","","","","","","","","","","fixation","","","","","",""
"d3-animate-choice","205","802818","0.0-77.0-0.23","199","5358","10","Female","false","true","true","true","""event"",""trial"",""time""
""fullscreenenter"",""5"",""61395""
","
","
","""event"",""trial"",""time""
""fullscreenenter"",""5"",""61395""
","
","368.6999999284744","","49","","","3000","1","","","images/earth.jpg","images/rocket1","images/rocket2","null","images/rocket2","","1","real","null","1","","",""
"d3-animate-choice","206","805528","0.0-77.0-1.23","199","5358","10","Female","false","true","true","true","""event"",""trial"",""time""
""fullscreenenter"",""5"",""61395""
","
","
","""event"",""trial"",""time""
""fullscreenenter"",""5"",""61395""
","
","703.3000000715256","","49","","","3000","1","","","images/purpleplanet.jpg","images/alien4","images/alien3","images/rocket2","images/alien3","images/t.png","2","real","true","1","common","1","2023-01-02 19:18:42.783"
"two-step-fixation","207","806533","0.0-77.0-2.23","199","5358","10","Female","false","true","true","true","""event"",""trial"",""time""
""fullscreenenter"",""5"",""61395""
","
","
","""event"",""trial"",""time""
""fullscreenenter"",""5"",""61395""
","
","","images/earth.jpg","","","","","","","","","","","","","","fixation","","","","","",""
"d3-animate-choice","208","809047","0.0-77.0-0.24","199","5358","10","Female","false","true","true","true","""event"",""trial"",""time""
""fullscreenenter"",""5"",""61395""
","
","
","""event"",""trial"",""time""
""fullscreenenter"",""5"",""61395""
","
","506.7999999523163","","48","","","3000","1","","","images/earth.jpg","images/rocket1","images/rocket2","null","images/rocket1","","1","real","null","2","","",""
"d3-animate-choice","209","811613","0.0-77.0-1.24","199","5358","10","Female","false","true","true","true","""event"",""trial"",""time""
""fullscreenenter"",""5"",""61395""
","
","
","""event"",""trial"",""time""
""fullscreenenter"",""5"",""61395""
","
","558.6999999284744","","49","","","3000","1","","","images/redplanet1.jpg","images/alien2","images/alien1","images/rocket1","images/alien1","images/nothing.png","2","real","true","1","common","0","2023-01-02 19:18:48.868"
"two-step-fixation","210","812619","0.0-77.0-2.24","199","5358","10","Female","false","true","true","true","""event"",""trial"",""time""
""fullscreenenter"",""5"",""61395""
","
","
","""event"",""trial"",""time""
""fullscreenenter"",""5"",""61395""
","
","","images/earth.jpg","","","","","","","","","","","","","","fixation","","","","","",""
"d3-animate-choice","211","815084","0.0-77.0-0.25","199","5358","10","Female","false","true","true","true","""event"",""trial"",""time""
""fullscreenenter"",""5"",""61395""
","
","
","""event"",""trial"",""time""
""fullscreenenter"",""5"",""61395""
","
","456.39999997615814","","48","","","3000","1","","","images/earth.jpg","images/rocket1","images/rocket2","null","images/rocket1","","1","real","null","2","","",""
"d3-animate-choice","212","817836","0.0-77.0-1.25","199","5358","10","Female","false","true","true","true","""event"",""trial"",""time""
""fullscreenenter"",""5"",""61395""
","
","
","""event"",""trial"",""time""
""fullscreenenter"",""5"",""61395""
","
","747.5999999046326","","48","","","3000","1","","","images/redplanet1.jpg","images/alien2","images/alien1","images/rocket1","images/alien2","images/t.png","2","real","true","2","common","1","2023-01-02 19:18:55.091"
"two-step-fixation","213","818840","0.0-77.0-2.25","199","5358","10","Female","false","true","true","true","""event"",""trial"",""time""
""fullscreenenter"",""5"",""61395""
","
","
","""event"",""trial"",""time""
""fullscreenenter"",""5"",""61395""
","
","","images/earth.jpg","","","","","","","","","","","","","","fixation","","","","","",""
"d3-animate-choice","214","821574","0.0-77.0-0.26","199","5358","10","Female","false","true","true","true","""event"",""trial"",""time""
""fullscreenenter"",""5"",""61395""
","
","
","""event"",""trial"",""time""
""fullscreenenter"",""5"",""61395""
","
","730.6000000238419","","48","","","3000","1","","","images/earth.jpg","images/rocket1","images/rocket2","null","images/rocket1","","1","real","null","2","","",""
"d3-animate-choice","215","824549","0.0-77.0-1.26","199","5358","10","Female","false","true","true","true","""event"",""trial"",""time""
""fullscreenenter"",""5"",""61395""
","
","
","""event"",""trial"",""time""
""fullscreenenter"",""5"",""61395""
","
","969.1000000238419","","48","","","3000","1","","","images/redplanet1.jpg","images/alien2","images/alien1","images/rocket1","images/alien2","images/nothing.png","2","real","true","2","common","0","2023-01-02 19:19:01.804"
"two-step-fixation","216","825556","0.0-77.0-2.26","199","5358","10","Female","false","true","true","true","""event"",""trial"",""time""
""fullscreenenter"",""5"",""61395""
","
","
","""event"",""trial"",""time""
""fullscreenenter"",""5"",""61395""
","
","","images/earth.jpg","","","","","","","","","","","","","","fixation","","","","","",""
"d3-animate-choice","217","828030","0.0-77.0-0.27","199","5358","10","Female","false","true","true","true","""event"",""trial"",""time""
""fullscreenenter"",""5"",""61395""
","
","
","""event"",""trial"",""time""
""fullscreenenter"",""5"",""61395""
","
","466.89999997615814","","49","","","3000","1","","","images/earth.jpg","images/rocket1","images/rocket2","null","images/rocket2","","1","real","null","1","","",""
"d3-animate-choice","218","830623","0.0-77.0-1.27","199","5358","10","Female","false","true","true","true","""event"",""trial"",""time""
""fullscreenenter"",""5"",""61395""
","
","
","""event"",""trial"",""time""
""fullscreenenter"",""5"",""61395""
","
","589.5","","48","","","3000","1","","","images/purpleplanet.jpg","images/alien4","images/alien3","images/rocket2","images/alien4","images/t.png","2","real","true","2","common","1","2023-01-02 19:19:07.879"
"two-step-fixation","219","831628","0.0-77.0-2.27","199","5358","10","Female","false","true","true","true","""event"",""trial"",""time""
""fullscreenenter"",""5"",""61395""
","
","
","""event"",""trial"",""time""
""fullscreenenter"",""5"",""61395""
","
","","images/earth.jpg","","","","","","","","","","","","","","fixation","","","","","",""
"d3-animate-choice","220","834309","0.0-77.0-0.28","199","5358","10","Female","false","true","true","true","""event"",""trial"",""time""
""fullscreenenter"",""5"",""61395""
","
","
","""event"",""trial"",""time""
""fullscreenenter"",""5"",""61395""
","
","678","","49","","","3000","1","","","images/earth.jpg","images/rocket1","images/rocket2","null","images/rocket2","","1","real","null","1","","",""
"d3-animate-choice","221","837061","0.0-77.0-1.28","199","5358","10","Female","false","true","true","true","""event"",""trial"",""time""
""fullscreenenter"",""5"",""61395""
","
","
","""event"",""trial"",""time""
""fullscreenenter"",""5"",""61395""
","
","747.2999999523163","","48","","","3000","1","","","images/purpleplanet.jpg","images/alien4","images/alien3","images/rocket2","images/alien4","images/t.png","2","real","true","2","common","1","2023-01-02 19:19:14.316"
"two-step-fixation","222","838065","0.0-77.0-2.28","199","5358","10","Female","false","true","true","true","""event"",""trial"",""time""
""fullscreenenter"",""5"",""61395""
","
","
","""event"",""trial"",""time""
""fullscreenenter"",""5"",""61395""
","
","","images/earth.jpg","","","","","","","","","","","","","","fixation","","","","","",""
"d3-animate-choice","223","840604","0.0-77.0-0.29","199","5358","10","Female","false","true","true","true","""event"",""trial"",""time""
""fullscreenenter"",""5"",""61395""
","
","
","""event"",""trial"",""time""
""fullscreenenter"",""5"",""61395""
","
","535","","49","","","3000","1","","","images/earth.jpg","images/rocket1","images/rocket2","null","images/rocket2","","1","real","null","1","","",""
"d3-animate-choice","224","843243","0.0-77.0-1.29","199","5358","10","Female","false","true","true","true","""event"",""trial"",""time""
""fullscreenenter"",""5"",""61395""
","
","
","""event"",""trial"",""time""
""fullscreenenter"",""5"",""61395""
","
","630.7999999523163","","48","","","3000","1","","","images/redplanet1.jpg","images/alien2","images/alien1","images/rocket2","images/alien2","images/t.png","2","real","false","2","rare","1","2023-01-02 19:19:20.498"
"two-step-fixation","225","844249","0.0-77.0-2.29","199","5358","10","Female","false","true","true","true","""event"",""trial"",""time""
""fullscreenenter"",""5"",""61395""
","
","
","""event"",""trial"",""time""
""fullscreenenter"",""5"",""61395""
","
","","images/earth.jpg","","","","","","","","","","","","","","fixation","","","","","",""
"d3-animate-choice","226","846304","0.0-77.0-0.30","199","5358","10","Female","false","true","true","true","""event"",""trial"",""time""
""fullscreenenter"",""5"",""61395""
","
","
","""event"",""trial"",""time""
""fullscreenenter"",""5"",""61395""
","
","52.39999997615814","","49","","","3000","1","","","images/earth.jpg","images/rocket1","images/rocket2","null","images/rocket2","","1","real","null","1","","",""
"d3-animate-choice","227","848876","0.0-77.0-1.30","199","5358","10","Female","false","true","true","true","""event"",""trial"",""time""
""fullscreenenter"",""5"",""61395""
","
","
","""event"",""trial"",""time""
""fullscreenenter"",""5"",""61395""
","
","566","","48","","","3000","1","","","images/purpleplanet.jpg","images/alien4","images/alien3","images/rocket2","images/alien4","images/t.png","2","real","true","2","common","1","2023-01-02 19:19:26.131"
"two-step-fixation","228","849884","0.0-77.0-2.30","199","5358","10","Female","false","true","true","true","""event"",""trial"",""time""
""fullscreenenter"",""5"",""61395""
","
","
","""event"",""trial"",""time""
""fullscreenenter"",""5"",""61395""
","
","","images/earth.jpg","","","","","","","","","","","","","","fixation","","","","","",""
"d3-animate-choice","229","852248","0.0-77.0-0.31","199","5358","10","Female","false","true","true","true","""event"",""trial"",""time""
""fullscreenenter"",""5"",""61395""
","
","
","""event"",""trial"",""time""
""fullscreenenter"",""5"",""61395""
","
","359.8000000715256","","49","","","3000","1","","","images/earth.jpg","images/rocket1","images/rocket2","null","images/rocket2","","1","real","null","1","","",""
"d3-animate-choice","230","854754","0.0-77.0-1.31","199","5358","10","Female","false","true","true","true","""event"",""trial"",""time""
""fullscreenenter"",""5"",""61395""
","
","
","""event"",""trial"",""time""
""fullscreenenter"",""5"",""61395""
","
","500.2999999523163","","48","","","3000","1","","","images/purpleplanet.jpg","images/alien4","images/alien3","images/rocket2","images/alien4","images/t.png","2","real","true","2","common","1","2023-01-02 19:19:32.009"
"two-step-fixation","231","855760","0.0-77.0-2.31","199","5358","10","Female","false","true","true","true","""event"",""trial"",""time""
""fullscreenenter"",""5"",""61395""
","
","
","""event"",""trial"",""time""
""fullscreenenter"",""5"",""61395""
","
","","images/earth.jpg","","","","","","","","","","","","","","fixation","","","","","",""
"d3-animate-choice","232","857992","0.0-77.0-0.32","199","5358","10","Female","false","true","true","true","""event"",""trial"",""time""
""fullscreenenter"",""5"",""61395""
","
","
","""event"",""trial"",""time""
""fullscreenenter"",""5"",""61395""
","
","224.39999997615814","","48","","","3000","1","","","images/earth.jpg","images/rocket1","images/rocket2","null","images/rocket1","","1","real","null","2","","",""
"d3-animate-choice","233","860559","0.0-77.0-1.32","199","5358","10","Female","false","true","true","true","""event"",""trial"",""time""
""fullscreenenter"",""5"",""61395""
","
","
","""event"",""trial"",""time""
""fullscreenenter"",""5"",""61395""
","
","564.6000000238419","","48","","","3000","1","","","images/redplanet1.jpg","images/alien2","images/alien1","images/rocket1","images/alien2","images/t.png","2","real","true","2","common","1","2023-01-02 19:19:37.814"
"two-step-fixation","234","861566","0.0-77.0-2.32","199","5358","10","Female","false","true","true","true","""event"",""trial"",""time""
""fullscreenenter"",""5"",""61395""
","
","
","""event"",""trial"",""time""
""fullscreenenter"",""5"",""61395""
","
","","images/earth.jpg","","","","","","","","","","","","","","fixation","","","","","",""
"d3-animate-choice","235","863903","0.0-77.0-0.33","199","5358","10","Female","false","true","true","true","""event"",""trial"",""time""
""fullscreenenter"",""5"",""61395""
","
","
","""event"",""trial"",""time""
""fullscreenenter"",""5"",""61395""
","
","331.5","","48","","","3000","1","","","images/earth.jpg","images/rocket1","images/rocket2","null","images/rocket1","","1","real","null","2","","",""
"d3-animate-choice","236","866346","0.0-77.0-1.33","199","5358","10","Female","false","true","true","true","""event"",""trial"",""time""
""fullscreenenter"",""5"",""61395""
","
","
","""event"",""trial"",""time""
""fullscreenenter"",""5"",""61395""
","
","435.2000000476837","","48","","","3000","1","","","images/redplanet1.jpg","images/alien2","images/alien1","images/rocket1","images/alien2","images/nothing.png","2","real","true","2","common","0","2023-01-02 19:19:43.601"
"two-step-fixation","237","867353","0.0-77.0-2.33","199","5358","10","Female","false","true","true","true","""event"",""trial"",""time""
""fullscreenenter"",""5"",""61395""
","
","
","""event"",""trial"",""time""
""fullscreenenter"",""5"",""61395""
","
","","images/earth.jpg","","","","","","","","","","","","","","fixation","","","","","",""
"d3-animate-choice","238","869760","0.0-77.0-0.34","199","5358","10","Female","false","true","true","true","""event"",""trial"",""time""
""fullscreenenter"",""5"",""61395""
","
","
","""event"",""trial"",""time""
""fullscreenenter"",""5"",""61395""
","
","402.8000000715256","","49","","","3000","1","","","images/earth.jpg","images/rocket1","images/rocket2","null","images/rocket2","","1","real","null","1","","",""
"d3-animate-choice","239","872685","0.0-77.0-1.34","199","5358","10","Female","false","true","true","true","""event"",""trial"",""time""
""fullscreenenter"",""5"",""61395""
","
","
","""event"",""trial"",""time""
""fullscreenenter"",""5"",""61395""
","
","920.2999999523163","","48","","","3000","1","","","images/purpleplanet.jpg","images/alien4","images/alien3","images/rocket2","images/alien4","images/t.png","2","real","true","2","common","1","2023-01-02 19:19:49.940"
"two-step-fixation","240","873694","0.0-77.0-2.34","199","5358","10","Female","false","true","true","true","""event"",""trial"",""time""
""fullscreenenter"",""5"",""61395""
","
","
","""event"",""trial"",""time""
""fullscreenenter"",""5"",""61395""
","
","","images/earth.jpg","","","","","","","","","","","","","","fixation","","","","","",""
"d3-animate-choice","241","876029","0.0-77.0-0.35","199","5358","10","Female","false","true","true","true","""event"",""trial"",""time""
""fullscreenenter"",""5"",""61395""
","
","
","""event"",""trial"",""time""
""fullscreenenter"",""5"",""61395""
","
","327.1999999284744","","49","","","3000","1","","","images/earth.jpg","images/rocket1","images/rocket2","null","images/rocket2","","1","real","null","1","","",""
"d3-animate-choice","242","878860","0.0-77.0-1.35","199","5358","10","Female","false","true","true","true","""event"",""trial"",""time""
""fullscreenenter"",""5"",""61395""
","
","
","""event"",""trial"",""time""
""fullscreenenter"",""5"",""61395""
","
","824","","49","","","3000","1","","","images/redplanet1.jpg","images/alien2","images/alien1","images/rocket2","images/alien1","images/nothing.png","2","real","false","1","rare","0","2023-01-02 19:19:56.116"
"two-step-fixation","243","879869","0.0-77.0-2.35","199","5358","10","Female","false","true","true","true","""event"",""trial"",""time""
""fullscreenenter"",""5"",""61395""
","
","
","""event"",""trial"",""time""
""fullscreenenter"",""5"",""61395""
","
","","images/earth.jpg","","","","","","","","","","","","","","fixation","","","","","",""
"d3-animate-choice","244","882069","0.0-77.0-0.36","199","5358","10","Female","false","true","true","true","""event"",""trial"",""time""
""fullscreenenter"",""5"",""61395""
","
","
","""event"",""trial"",""time""
""fullscreenenter"",""5"",""61395""
","
","193.89999997615814","","49","","","3000","1","","","images/earth.jpg","images/rocket1","images/rocket2","null","images/rocket2","","1","real","null","1","","",""
"d3-animate-choice","245","884665","0.0-77.0-1.36","199","5358","10","Female","false","true","true","true","""event"",""trial"",""time""
""fullscreenenter"",""5"",""61395""
","
","
","""event"",""trial"",""time""
""fullscreenenter"",""5"",""61395""
","
","588","","48","","","3000","1","","","images/purpleplanet.jpg","images/alien4","images/alien3","images/rocket2","images/alien4","images/nothing.png","2","real","true","2","common","0","2023-01-02 19:20:01.920"
"two-step-fixation","246","885671","0.0-77.0-2.36","199","5358","10","Female","false","true","true","true","""event"",""trial"",""time""
""fullscreenenter"",""5"",""61395""
","
","
","""event"",""trial"",""time""
""fullscreenenter"",""5"",""61395""
","
","","images/earth.jpg","","","","","","","","","","","","","","fixation","","","","","",""
