"trial_type","trial_index","time_elapsed","internal_node_id","participant_id","subject_id","age","gender","rocket_sides","red_planet_first_rocket","red_display_order","purple_display_order","interactions","blur_events","focus_events","fullscreenenter_events","fullscreenexit_events","rt","stimulus","key_press","button_pressed","success","duration","valid_pressed","rts","keys","planet_text","right_text","left_text","center_text","chosen_text","reward_text","trial_stage","practice_trial","transition_type","choice","transition","reward","timestamp"
"pavlovia","0","3","0.0-0.0","171","804","8","Male","false","true","true","false","
","
","
","
","
","","","","","","","","","","","","","","","","","","","","","",""
"html-keyboard-response","1","2952","0.0-1.0","171","804","8","Male","false","true","true","false","
","
","
","
","
","2948.900000035763","Welcome! Press the space bar to begin.","32","","","","","","","","","","","","","","","","","","",""
"audio-keyboard-response","2","18915","0.0-2.0","171","804","8","Male","false","true","true","false","
","
","
","
","
","15731","audio/beep_loop.wav","32","","","","","","","","","","","","","","","","","","",""
"audio-button-response","3","23131","0.0-3.0","171","804","8","Male","false","true","true","false","
","
","
","
","
","NaN","audio/fish.mp3","","1","","","","","","","","","","","","","","","","","",""
"audio-button-response","4","27051","0.0-4.0","171","804","8","Male","false","true","true","false","""event"",""trial"",""time""
""fullscreenenter"",""5"",""35646""
","
","
","""event"",""trial"",""time""
""fullscreenenter"",""5"",""35646""
","
","NaN","audio/tiger.mp3","","4","","","","","","","","","","","","","","","","","",""
"fullscreen","5","36597","0.0-5.0","171","804","8","Male","false","true","true","false","""event"",""trial"",""time""
""fullscreenenter"",""5"",""35646""
","
","
","""event"",""trial"",""time""
""fullscreenenter"",""5"",""35646""
","
","","","","","true","","","","","","","","","","","","","","","","",""
"d3-instructions","6","52812","0.0-6.0","171","804","8","Male","false","true","true","false","""event"",""trial"",""time""
""fullscreenenter"",""5"",""35646""
","
","
","""event"",""trial"",""time""
""fullscreenenter"",""5"",""35646""
","
","","","","","","","","","","","","","","","","","","","","","",""
"d3-instructions","7","68951","0.0-7.0","171","804","8","Male","false","true","true","false","""event"",""trial"",""time""
""fullscreenenter"",""5"",""35646""
","
","
","""event"",""trial"",""time""
""fullscreenenter"",""5"",""35646""
","
","","","","","","","","","","","","","","","","","","","","","",""
"d3-instructions","8","78749","0.0-8.0","171","804","8","Male","false","true","true","false","""event"",""trial"",""time""
""fullscreenenter"",""5"",""35646""
","
","
","""event"",""trial"",""time""
""fullscreenenter"",""5"",""35646""
","
","","","","","","","","","","","","","","","","","","","","","",""
"d3-instructions","9","93443","0.0-9.0","171","804","8","Male","false","true","true","false","""event"",""trial"",""time""
""fullscreenenter"",""5"",""35646""
","
","
","""event"",""trial"",""time""
""fullscreenenter"",""5"",""35646""
","
","","","","","","","","","","","","","","","","","","","","","",""
"d3-instructions","10","113339","0.0-10.0","171","804","8","Male","false","true","true","false","""event"",""trial"",""time""
""fullscreenenter"",""5"",""35646""
","
","
","""event"",""trial"",""time""
""fullscreenenter"",""5"",""35646""
","
","","","","","","","","","","","","","","","","","","","","","",""
"d3-animate-choice","11","119464","0.0-11.0","171","804","8","Male","false","true","true","false","""event"",""trial"",""time""
""fullscreenenter"",""5"",""35646""
","
","
","""event"",""trial"",""time""
""fullscreenenter"",""5"",""35646""
","
","4109","","48","","","3000","1","","","images/tutgreenplanet.jpg","images/tutalien1","images/tutalien2","null","images/tutalien1","","NA","practice","null","","","",""
"d3-animate-choice","12","124403","0.0-12.0","171","804","8","Male","false","true","true","false","""event"",""trial"",""time""
""fullscreenenter"",""5"",""35646""
","
","
","""event"",""trial"",""time""
""fullscreenenter"",""5"",""35646""
","
","2929.900000035763","","49","","","3000","1","","","images/tutgreenplanet.jpg","images/tutalien1","images/tutalien2","null","images/tutalien2","","NA","practice","null","","","",""
"d3-animate-choice","13","127568","0.0-13.0","171","804","8","Male","false","true","true","false","""event"",""trial"",""time""
""fullscreenenter"",""5"",""35646""
","
","
","""event"",""trial"",""time""
""fullscreenenter"",""5"",""35646""
","
","1151.4000000357628","","48","","","3000","1","","","images/tutgreenplanet.jpg","images/tutalien1","images/tutalien2","null","images/tutalien1","","NA","practice","null","","","",""
"d3-animate-choice","14","131006","0.0-14.0","171","804","8","Male","false","true","true","false","""event"",""trial"",""time""
""fullscreenenter"",""5"",""35646""
","
","
","""event"",""trial"",""time""
""fullscreenenter"",""5"",""35646""
","
","1433.199999988079","","48","","","3000","1","1469.0999999642372","49","images/tutgreenplanet.jpg","images/tutalien1","images/tutalien2","null","images/tutalien1","","NA","practice","null","","","",""
"d3-instructions","15","141517","0.0-15.0","171","804","8","Male","false","true","true","false","""event"",""trial"",""time""
""fullscreenenter"",""5"",""35646""
","
","
","""event"",""trial"",""time""
""fullscreenenter"",""5"",""35646""
","
","","","","","","","","","","","","","","","","","","","","","",""
"d3-instructions","16","155365","0.0-16.0","171","804","8","Male","false","true","true","false","""event"",""trial"",""time""
""fullscreenenter"",""5"",""35646""
","
","
","""event"",""trial"",""time""
""fullscreenenter"",""5"",""35646""
","
","","","","","","","","","","","","","","","","","","","","","",""
"d3-instructions","17","167793","0.0-17.0","171","804","8","Male","false","true","true","false","""event"",""trial"",""time""
""fullscreenenter"",""5"",""35646""
","
","
","""event"",""trial"",""time""
""fullscreenenter"",""5"",""35646""
","
","","","","","","","","","","","","","","","","","","","","","",""
"d3-instructions","18","186916","0.0-18.0","171","804","8","Male","false","true","true","false","""event"",""trial"",""time""
""fullscreenenter"",""5"",""35646""
","
","
","""event"",""trial"",""time""
""fullscreenenter"",""5"",""35646""
","
","","","","","","","","","","","","","","","","","","","","","",""
"d3-instructions","19","222721","0.0-19.0","171","804","8","Male","false","true","true","false","""event"",""trial"",""time""
""fullscreenenter"",""5"",""35646""
","
","
","""event"",""trial"",""time""
""fullscreenenter"",""5"",""35646""
","
","","","","","","","","","","","","","","","","","","","","","",""
"d3-animate-choice","20","225639","0.0-20.0","171","804","8","Male","false","true","true","false","""event"",""trial"",""time""
""fullscreenenter"",""5"",""35646""
","
","
","""event"",""trial"",""time""
""fullscreenenter"",""5"",""35646""
","
","909.6000000238419","","49","","","3000","1","","","images/tutyellowplanet.jpg","null","images/tutalien3","null","images/tutalien3","images/nothing.png","NA","practice","null","","","",""
"d3-animate-choice","21","228301","0.0-21.0","171","804","8","Male","false","true","true","false","""event"",""trial"",""time""
""fullscreenenter"",""5"",""35646""
","
","
","""event"",""trial"",""time""
""fullscreenenter"",""5"",""35646""
","
","653.5","","49","","","3000","1","","","images/tutyellowplanet.jpg","null","images/tutalien3","null","images/tutalien3","images/t.png","NA","practice","null","","","",""
"d3-animate-choice","22","231302","0.0-22.0","171","804","8","Male","false","true","true","false","""event"",""trial"",""time""
""fullscreenenter"",""5"",""35646""
","
","
","""event"",""trial"",""time""
""fullscreenenter"",""5"",""35646""
","
","985.8999999761581","","49","","","3000","1","","","images/tutyellowplanet.jpg","null","images/tutalien3","null","images/tutalien3","images/t.png","NA","practice","null","","","",""
"d3-animate-choice","23","233966","0.0-23.0","171","804","8","Male","false","true","true","false","""event"",""trial"",""time""
""fullscreenenter"",""5"",""35646""
","
","
","""event"",""trial"",""time""
""fullscreenenter"",""5"",""35646""
","
","649.0999999642372","","49","","","3000","1","","","images/tutyellowplanet.jpg","null","images/tutalien3","null","images/tutalien3","images/t.png","NA","practice","null","","","",""
"d3-animate-choice","24","236338","0.0-24.0","171","804","8","Male","false","true","true","false","""event"",""trial"",""time""
""fullscreenenter"",""5"",""35646""
","
","
","""event"",""trial"",""time""
""fullscreenenter"",""5"",""35646""
","
","365.5","","49","","","3000","1","","","images/tutyellowplanet.jpg","null","images/tutalien3","null","images/tutalien3","images/nothing.png","NA","practice","null","","","",""
"d3-animate-choice","25","238838","0.0-25.0","171","804","8","Male","false","true","true","false","""event"",""trial"",""time""
""fullscreenenter"",""5"",""35646""
","
","
","""event"",""trial"",""time""
""fullscreenenter"",""5"",""35646""
","
","492.0999999642372","","49","","","3000","1","","","images/tutyellowplanet.jpg","null","images/tutalien3","null","images/tutalien3","images/t.png","NA","practice","null","","","",""
"d3-animate-choice","26","241739","0.0-26.0","171","804","8","Male","false","true","true","false","""event"",""trial"",""time""
""fullscreenenter"",""5"",""35646""
","
","
","""event"",""trial"",""time""
""fullscreenenter"",""5"",""35646""
","
","891.6999999880791","","49","","","3000","1","","","images/tutyellowplanet.jpg","null","images/tutalien3","null","images/tutalien3","images/t.png","NA","practice","null","","","",""
"d3-animate-choice","27","244113","0.0-27.0","171","804","8","Male","false","true","true","false","""event"",""trial"",""time""
""fullscreenenter"",""5"",""35646""
","
","
","""event"",""trial"",""time""
""fullscreenenter"",""5"",""35646""
","
","355.39999997615814","","49","","","3000","1","","","images/tutyellowplanet.jpg","null","images/tutalien3","null","images/tutalien3","images/t.png","NA","practice","null","","","",""
"d3-animate-choice","28","246760","0.0-28.0","171","804","8","Male","false","true","true","false","""event"",""trial"",""time""
""fullscreenenter"",""5"",""35646""
","
","
","""event"",""trial"",""time""
""fullscreenenter"",""5"",""35646""
","
","641.9000000357628","","49","","","3000","1","","","images/tutyellowplanet.jpg","null","images/tutalien3","null","images/tutalien3","images/nothing.png","NA","practice","null","","","",""
"d3-animate-choice","29","249882","0.0-29.0","171","804","8","Male","false","true","true","false","""event"",""trial"",""time""
""fullscreenenter"",""5"",""35646""
","
","
","""event"",""trial"",""time""
""fullscreenenter"",""5"",""35646""
","
","1109.6000000238419","","49","","","3000","1","","","images/tutyellowplanet.jpg","null","images/tutalien3","null","images/tutalien3","images/t.png","NA","practice","null","","","",""
"d3-instructions","30","261692","0.0-30.0","171","804","8","Male","false","true","true","false","""event"",""trial"",""time""
""fullscreenenter"",""5"",""35646""
","
","
","""event"",""trial"",""time""
""fullscreenenter"",""5"",""35646""
","
","","","","","","","","","","","","","","","","","","","","","",""
"d3-instructions","31","274018","0.0-31.0","171","804","8","Male","false","true","true","false","""event"",""trial"",""time""
""fullscreenenter"",""5"",""35646""
","
","
","""event"",""trial"",""time""
""fullscreenenter"",""5"",""35646""
","
","","","","","","","","","","","","","","","","","","","","","",""
"d3-instructions","32","285682","0.0-32.0","171","804","8","Male","false","true","true","false","""event"",""trial"",""time""
""fullscreenenter"",""5"",""35646""
","
","
","""event"",""trial"",""time""
""fullscreenenter"",""5"",""35646""
","
","","","","","","","","","","","","","","","","","","","","","",""
"d3-instructions","33","298339","0.0-33.0","171","804","8","Male","false","true","true","false","""event"",""trial"",""time""
""fullscreenenter"",""5"",""35646""
","
","
","""event"",""trial"",""time""
""fullscreenenter"",""5"",""35646""
","
","","","","","","","","","","","","","","","","","","","","","",""
"d3-animate-choice","34","301588","0.0-34.0","171","804","8","Male","false","true","true","false","""event"",""trial"",""time""
""fullscreenenter"",""5"",""35646""
","
","
","""event"",""trial"",""time""
""fullscreenenter"",""5"",""35646""
","
","1226.699999988079","","48","","","3000","1","","","images/tutgreenplanet.jpg","images/tutalien1","images/tutalien2","null","images/tutalien1","images/nothing.png","NA","practice","null","","","",""
"d3-animate-choice","35","304607","0.0-35.0","171","804","8","Male","false","true","true","false","""event"",""trial"",""time""
""fullscreenenter"",""5"",""35646""
","
","
","""event"",""trial"",""time""
""fullscreenenter"",""5"",""35646""
","
","1006.0999999642372","","49","","","3000","1","","","images/tutgreenplanet.jpg","images/tutalien1","images/tutalien2","null","images/tutalien2","images/t.png","NA","practice","null","","","",""
"d3-animate-choice","36","307007","0.0-36.0","171","804","8","Male","false","true","true","false","""event"",""trial"",""time""
""fullscreenenter"",""5"",""35646""
","
","
","""event"",""trial"",""time""
""fullscreenenter"",""5"",""35646""
","
","395.60000002384186","","48","","","3000","1","","","images/tutgreenplanet.jpg","images/tutalien1","images/tutalien2","null","images/tutalien1","images/nothing.png","NA","practice","null","","","",""
"d3-animate-choice","37","309515","0.0-37.0","171","804","8","Male","false","true","true","false","""event"",""trial"",""time""
""fullscreenenter"",""5"",""35646""
","
","
","""event"",""trial"",""time""
""fullscreenenter"",""5"",""35646""
","
","498.30000001192093","","49","","","3000","1","","","images/tutgreenplanet.jpg","images/tutalien1","images/tutalien2","null","images/tutalien2","images/t.png","NA","practice","null","","","",""
"d3-animate-choice","38","312083","0.0-38.0","171","804","8","Male","false","true","true","false","""event"",""trial"",""time""
""fullscreenenter"",""5"",""35646""
","
","
","""event"",""trial"",""time""
""fullscreenenter"",""5"",""35646""
","
","563.6999999880791","","49","","","3000","1","","","images/tutgreenplanet.jpg","images/tutalien1","images/tutalien2","null","images/tutalien2","images/t.png","NA","practice","null","","","",""
"d3-animate-choice","39","314687","0.0-39.0","171","804","8","Male","false","true","true","false","""event"",""trial"",""time""
""fullscreenenter"",""5"",""35646""
","
","
","""event"",""trial"",""time""
""fullscreenenter"",""5"",""35646""
","
","589.6000000238419","","48","","","3000","1","","","images/tutgreenplanet.jpg","images/tutalien1","images/tutalien2","null","images/tutalien1","images/nothing.png","NA","practice","null","","","",""
"d3-animate-choice","40","317169","0.0-40.0","171","804","8","Male","false","true","true","false","""event"",""trial"",""time""
""fullscreenenter"",""5"",""35646""
","
","
","""event"",""trial"",""time""
""fullscreenenter"",""5"",""35646""
","
","471.9000000357628","","49","","","3000","1","","","images/tutgreenplanet.jpg","images/tutalien1","images/tutalien2","null","images/tutalien2","images/t.png","NA","practice","null","","","",""
"d3-animate-choice","41","319778","0.0-41.0","171","804","8","Male","false","true","true","false","""event"",""trial"",""time""
""fullscreenenter"",""5"",""35646""
","
","
","""event"",""trial"",""time""
""fullscreenenter"",""5"",""35646""
","
","604.5999999642372","","49","","","3000","1","","","images/tutgreenplanet.jpg","images/tutalien1","images/tutalien2","null","images/tutalien2","images/t.png","NA","practice","null","","","",""
"d3-animate-choice","42","322464","0.0-42.0","171","804","8","Male","false","true","true","false","""event"",""trial"",""time""
""fullscreenenter"",""5"",""35646""
","
","
","""event"",""trial"",""time""
""fullscreenenter"",""5"",""35646""
","
","674.1000000238419","","49","","","3000","1","","","images/tutgreenplanet.jpg","images/tutalien1","images/tutalien2","null","images/tutalien2","images/t.png","NA","practice","null","","","",""
"d3-animate-choice","43","324917","0.0-43.0","171","804","8","Male","false","true","true","false","""event"",""trial"",""time""
""fullscreenenter"",""5"",""35646""
","
","
","""event"",""trial"",""time""
""fullscreenenter"",""5"",""35646""
","
","447.2000000476837","","49","","","3000","1","","","images/tutgreenplanet.jpg","images/tutalien1","images/tutalien2","null","images/tutalien2","images/t.png","NA","practice","null","","","",""
"d3-instructions","44","340480","0.0-44.0","171","804","8","Male","false","true","true","false","""event"",""trial"",""time""
""fullscreenenter"",""5"",""35646""
","
","
","""event"",""trial"",""time""
""fullscreenenter"",""5"",""35646""
","
","","","","","","","","","","","","","","","","","","","","","",""
"d3-instructions","45","349411","0.0-45.0","171","804","8","Male","false","true","true","false","""event"",""trial"",""time""
""fullscreenenter"",""5"",""35646""
","
","
","""event"",""trial"",""time""
""fullscreenenter"",""5"",""35646""
","
","","","","","","","","","","","","","","","","","","","","","",""
"d3-instructions","46","363277","0.0-46.0","171","804","8","Male","false","true","true","false","""event"",""trial"",""time""
""fullscreenenter"",""5"",""35646""
","
","
","""event"",""trial"",""time""
""fullscreenenter"",""5"",""35646""
","
","","","","","","","","","","","","","","","","","","","","","",""
"d3-instructions","47","381670","0.0-47.0","171","804","8","Male","false","true","true","false","""event"",""trial"",""time""
""fullscreenenter"",""5"",""35646""
","
","
","""event"",""trial"",""time""
""fullscreenenter"",""5"",""35646""
","
","","","","","","","","","","","","","","","","","","","","","",""
"d3-instructions","48","395653","0.0-48.0","171","804","8","Male","false","true","true","false","""event"",""trial"",""time""
""fullscreenenter"",""5"",""35646""
","
","
","""event"",""trial"",""time""
""fullscreenenter"",""5"",""35646""
","
","","","","","","","","","","","","","","","","","","","","","",""
"d3-instructions","49","409456","0.0-49.0","171","804","8","Male","false","true","true","false","""event"",""trial"",""time""
""fullscreenenter"",""5"",""35646""
","
","
","""event"",""trial"",""time""
""fullscreenenter"",""5"",""35646""
","
","","","","","","","","","","","","","","","","","","","","","",""
"d3-instructions","50","421496","0.0-50.0","171","804","8","Male","false","true","true","false","""event"",""trial"",""time""
""fullscreenenter"",""5"",""35646""
","
","
","""event"",""trial"",""time""
""fullscreenenter"",""5"",""35646""
","
","","","","","","","","","","","","","","","","","","","","","",""
"d3-instructions","51","426189","0.0-51.0","171","804","8","Male","false","true","true","false","""event"",""trial"",""time""
""fullscreenenter"",""5"",""35646""
","
","
","""event"",""trial"",""time""
""fullscreenenter"",""5"",""35646""
","
","","","","","","","","","","","","","","","","","","","","","",""
"d3-instructions","52","433460","0.0-52.0","171","804","8","Male","false","true","true","false","""event"",""trial"",""time""
""fullscreenenter"",""5"",""35646""
","
","
","""event"",""trial"",""time""
""fullscreenenter"",""5"",""35646""
","
","","","","","","","","","","","","","","","","","","","","","",""
"d3-instructions","53","452879","0.0-53.0","171","804","8","Male","false","true","true","false","""event"",""trial"",""time""
""fullscreenenter"",""5"",""35646""
","
","
","""event"",""trial"",""time""
""fullscreenenter"",""5"",""35646""
","
","","","","","","","","","","","","","","","","","","","","","",""
"d3-instructions","54","473284","0.0-54.0","171","804","8","Male","false","true","true","false","""event"",""trial"",""time""
""fullscreenenter"",""5"",""35646""
","
","
","""event"",""trial"",""time""
""fullscreenenter"",""5"",""35646""
","
","","","","","","","","","","","","","","","","","","","","","",""
"d3-instructions","55","485243","0.0-55.0","171","804","8","Male","false","true","true","false","""event"",""trial"",""time""
""fullscreenenter"",""5"",""35646""
","
","
","""event"",""trial"",""time""
""fullscreenenter"",""5"",""35646""
","
","","","","","","","","","","","","","","","","","","","","","",""
"d3-instructions","56","495381","0.0-56.0","171","804","8","Male","false","true","true","false","""event"",""trial"",""time""
""fullscreenenter"",""5"",""35646""
","
","
","""event"",""trial"",""time""
""fullscreenenter"",""5"",""35646""
","
","","","","","","","","","","","","","","","","","","","","","",""
"d3-instructions","57","509411","0.0-57.0","171","804","8","Male","false","true","true","false","""event"",""trial"",""time""
""fullscreenenter"",""5"",""35646""
","
","
","""event"",""trial"",""time""
""fullscreenenter"",""5"",""35646""
","
","","","","","","","","","","","","","","","","","","","","","",""
"d3-instructions","58","525947","0.0-58.0","171","804","8","Male","false","true","true","false","""event"",""trial"",""time""
""fullscreenenter"",""5"",""35646""
","
","
","""event"",""trial"",""time""
""fullscreenenter"",""5"",""35646""
","
","","","","","","","","","","","","","","","","","","","","","",""
"d3-instructions","59","536350","0.0-59.0","171","804","8","Male","false","true","true","false","""event"",""trial"",""time""
""fullscreenenter"",""5"",""35646""
","
","
","""event"",""trial"",""time""
""fullscreenenter"",""5"",""35646""
","
","","","","","","","","","","","","","","","","","","","","","",""
"d3-instructions","60","543705","0.0-60.0","171","804","8","Male","false","true","true","false","""event"",""trial"",""time""
""fullscreenenter"",""5"",""35646""
","
","
","""event"",""trial"",""time""
""fullscreenenter"",""5"",""35646""
","
","","","","","","","","","","","","","","","","","","","","","",""
"d3-animate-choice","61","546995","0.0-61.0-0.0","171","804","8","Male","false","true","true","false","""event"",""trial"",""time""
""fullscreenenter"",""5"",""35646""
","
","
","""event"",""trial"",""time""
""fullscreenenter"",""5"",""35646""
","
","1281.6000000238419","","48","","","3000","1","","","images/earth.jpg","images/tutrocket1","images/tutrocket2","null","images/tutrocket1","","1","practice","null","2","","",""
"d3-animate-choice","62","551020","0.0-61.0-1.0","171","804","8","Male","false","true","true","false","""event"",""trial"",""time""
""fullscreenenter"",""5"",""35646""
","
","
","""event"",""trial"",""time""
""fullscreenenter"",""5"",""35646""
","
","2563.800000011921","","48","","","3000","1","","","images/tutyellowplanet.jpg","images/tutalien4","images/tutalien3","images/tutrocket1","images/tutalien4","images/nothing.png","2","practice","false","2","rare","0","2022-02-13 22:45:33.697"
"two-step-fixation","63","552030","0.0-61.0-2.0","171","804","8","Male","false","true","true","false","""event"",""trial"",""time""
""fullscreenenter"",""5"",""35646""
","
","
","""event"",""trial"",""time""
""fullscreenenter"",""5"",""35646""
","
","","images/earth.jpg","","","","","","","","","","","","","","fixation","","","","","",""
"d3-animate-choice","64","555999","0.0-61.0-0.1","171","804","8","Male","false","true","true","false","""event"",""trial"",""time""
""fullscreenenter"",""5"",""35646""
","
","
","""event"",""trial"",""time""
""fullscreenenter"",""5"",""35646""
","
","1961.5","","49","","","3000","1","","","images/earth.jpg","images/tutrocket1","images/tutrocket2","null","images/tutrocket2","","1","practice","null","1","","",""
"d3-animate-choice","65","559247","0.0-61.0-1.1","171","804","8","Male","false","true","true","false","""event"",""trial"",""time""
""fullscreenenter"",""5"",""35646""
","
","
","""event"",""trial"",""time""
""fullscreenenter"",""5"",""35646""
","
","1241.5","","49","","","3000","1","","","images/tutyellowplanet.jpg","images/tutalien4","images/tutalien3","images/tutrocket2","images/tutalien3","images/t.png","2","practice","true","1","common","1","2022-02-13 22:45:41.923"
"two-step-fixation","66","560259","0.0-61.0-2.1","171","804","8","Male","false","true","true","false","""event"",""trial"",""time""
""fullscreenenter"",""5"",""35646""
","
","
","""event"",""trial"",""time""
""fullscreenenter"",""5"",""35646""
","
","","images/earth.jpg","","","","","","","","","","","","","","fixation","","","","","",""
"d3-animate-choice","67","564289","0.0-61.0-0.2","171","804","8","Male","false","true","true","false","""event"",""trial"",""time""
""fullscreenenter"",""5"",""35646""
","
","
","""event"",""trial"",""time""
""fullscreenenter"",""5"",""35646""
","
","1217.300000011921","","189","","","3000","1","2458.400000035763","48","images/earth.jpg","images/tutrocket1","images/tutrocket2","null","images/tutrocket1","","1","practice","null","","","",""
"d3-animate-choice","68","566980","0.0-61.0-1.2","171","804","8","Male","false","true","true","false","""event"",""trial"",""time""
""fullscreenenter"",""5"",""35646""
","
","
","""event"",""trial"",""time""
""fullscreenenter"",""5"",""35646""
","
","686.1999999880791","","49","","","3000","1","","","images/tutyellowplanet.jpg","images/tutalien4","images/tutalien3","images/tutrocket1","images/tutalien3","images/nothing.png","2","practice","false","1","rare","0","2022-02-13 22:45:49.656"
"two-step-fixation","69","567989","0.0-61.0-2.2","171","804","8","Male","false","true","true","false","""event"",""trial"",""time""
""fullscreenenter"",""5"",""35646""
","
","
","""event"",""trial"",""time""
""fullscreenenter"",""5"",""35646""
","
","","images/earth.jpg","","","","","","","","","","","","","","fixation","","","","","",""
"d3-animate-choice","70","570600","0.0-61.0-0.3","171","804","8","Male","false","true","true","false","""event"",""trial"",""time""
""fullscreenenter"",""5"",""35646""
","
","
","""event"",""trial"",""time""
""fullscreenenter"",""5"",""35646""
","
","602.6000000238419","","49","","","3000","1","","","images/earth.jpg","images/tutrocket1","images/tutrocket2","null","images/tutrocket2","","1","practice","null","1","","",""
"d3-animate-choice","71","573655","0.0-61.0-1.3","171","804","8","Male","false","true","true","false","""event"",""trial"",""time""
""fullscreenenter"",""5"",""35646""
","
","
","""event"",""trial"",""time""
""fullscreenenter"",""5"",""35646""
","
","1051.2000000476837","","48","","","3000","1","","","images/tutgreenplanet.jpg","images/tutalien2","images/tutalien1","images/tutrocket2","images/tutalien2","images/nothing.png","2","practice","false","2","rare","0","2022-02-13 22:45:56.331"
"two-step-fixation","72","574665","0.0-61.0-2.3","171","804","8","Male","false","true","true","false","""event"",""trial"",""time""
""fullscreenenter"",""5"",""35646""
","
","
","""event"",""trial"",""time""
""fullscreenenter"",""5"",""35646""
","
","","images/earth.jpg","","","","","","","","","","","","","","fixation","","","","","",""
"d3-animate-choice","73","577913","0.0-61.0-0.4","171","804","8","Male","false","true","true","false","""event"",""trial"",""time""
""fullscreenenter"",""5"",""35646""
","
","
","""event"",""trial"",""time""
""fullscreenenter"",""5"",""35646""
","
","1242.300000011921","","49","","","3000","1","","","images/earth.jpg","images/tutrocket1","images/tutrocket2","null","images/tutrocket2","","1","practice","null","1","","",""
"d3-animate-choice","74","581013","0.0-61.0-1.4","171","804","8","Male","false","true","true","false","""event"",""trial"",""time""
""fullscreenenter"",""5"",""35646""
","
","
","""event"",""trial"",""time""
""fullscreenenter"",""5"",""35646""
","
","1088.5","","49","","","3000","1","","","images/tutgreenplanet.jpg","images/tutalien2","images/tutalien1","images/tutrocket2","images/tutalien1","images/t.png","2","practice","false","1","rare","1","2022-02-13 22:46:03.689"
"two-step-fixation","75","582021","0.0-61.0-2.4","171","804","8","Male","false","true","true","false","""event"",""trial"",""time""
""fullscreenenter"",""5"",""35646""
","
","
","""event"",""trial"",""time""
""fullscreenenter"",""5"",""35646""
","
","","images/earth.jpg","","","","","","","","","","","","","","fixation","","","","","",""
"d3-animate-choice","76","584564","0.0-61.0-0.5","171","804","8","Male","false","true","true","false","""event"",""trial"",""time""
""fullscreenenter"",""5"",""35646""
","
","
","""event"",""trial"",""time""
""fullscreenenter"",""5"",""35646""
","
","525.8000000119209","","48","","","3000","1","","","images/earth.jpg","images/tutrocket1","images/tutrocket2","null","images/tutrocket1","","1","practice","null","2","","",""
"d3-animate-choice","77","588425","0.0-61.0-1.5","171","804","8","Male","false","true","true","false","""event"",""trial"",""time""
""fullscreenenter"",""5"",""35646""
","
","
","""event"",""trial"",""time""
""fullscreenenter"",""5"",""35646""
","
","1845.3999999761581","","49","","","3000","1","","","images/tutgreenplanet.jpg","images/tutalien2","images/tutalien1","images/tutrocket1","images/tutalien1","images/nothing.png","2","practice","true","1","common","0","2022-02-13 22:46:11.101"
"two-step-fixation","78","589430","0.0-61.0-2.5","171","804","8","Male","false","true","true","false","""event"",""trial"",""time""
""fullscreenenter"",""5"",""35646""
","
","
","""event"",""trial"",""time""
""fullscreenenter"",""5"",""35646""
","
","","images/earth.jpg","","","","","","","","","","","","","","fixation","","","","","",""
"d3-animate-choice","79","592063","0.0-61.0-0.6","171","804","8","Male","false","true","true","false","""event"",""trial"",""time""
""fullscreenenter"",""5"",""35646""
","
","
","""event"",""trial"",""time""
""fullscreenenter"",""5"",""35646""
","
","622.9000000357628","","48","","","3000","1","","","images/earth.jpg","images/tutrocket1","images/tutrocket2","null","images/tutrocket1","","1","practice","null","2","","",""
"d3-animate-choice","80","596005","0.0-61.0-1.6","171","804","8","Male","false","true","true","false","""event"",""trial"",""time""
""fullscreenenter"",""5"",""35646""
","
","
","""event"",""trial"",""time""
""fullscreenenter"",""5"",""35646""
","
","1934.6000000238419","","49","","","3000","1","","","images/tutyellowplanet.jpg","images/tutalien4","images/tutalien3","images/tutrocket1","images/tutalien3","images/nothing.png","2","practice","false","1","rare","0","2022-02-13 22:46:18.681"
"two-step-fixation","81","597013","0.0-61.0-2.6","171","804","8","Male","false","true","true","false","""event"",""trial"",""time""
""fullscreenenter"",""5"",""35646""
","
","
","""event"",""trial"",""time""
""fullscreenenter"",""5"",""35646""
","
","","images/earth.jpg","","","","","","","","","","","","","","fixation","","","","","",""
"d3-animate-choice","82","599429","0.0-61.0-0.7","171","804","8","Male","false","true","true","false","""event"",""trial"",""time""
""fullscreenenter"",""5"",""35646""
","
","
","""event"",""trial"",""time""
""fullscreenenter"",""5"",""35646""
","
","410.19999998807907","","48","","","3000","1","","","images/earth.jpg","images/tutrocket1","images/tutrocket2","null","images/tutrocket1","","1","practice","null","2","","",""
"d3-animate-choice","83","602380","0.0-61.0-1.7","171","804","8","Male","false","true","true","false","""event"",""trial"",""time""
""fullscreenenter"",""5"",""35646""
","
","
","""event"",""trial"",""time""
""fullscreenenter"",""5"",""35646""
","
","944","","48","","","3000","1","","","images/tutgreenplanet.jpg","images/tutalien2","images/tutalien1","images/tutrocket1","images/tutalien2","images/nothing.png","2","practice","true","2","common","0","2022-02-13 22:46:25.056"
"two-step-fixation","84","603389","0.0-61.0-2.7","171","804","8","Male","false","true","true","false","""event"",""trial"",""time""
""fullscreenenter"",""5"",""35646""
","
","
","""event"",""trial"",""time""
""fullscreenenter"",""5"",""35646""
","
","","images/earth.jpg","","","","","","","","","","","","","","fixation","","","","","",""
"d3-animate-choice","85","606171","0.0-61.0-0.8","171","804","8","Male","false","true","true","false","""event"",""trial"",""time""
""fullscreenenter"",""5"",""35646""
","
","
","""event"",""trial"",""time""
""fullscreenenter"",""5"",""35646""
","
","774.3000000119209","","49","","","3000","1","","","images/earth.jpg","images/tutrocket1","images/tutrocket2","null","images/tutrocket2","","1","practice","null","1","","",""
"d3-animate-choice","86","608755","0.0-61.0-1.8","171","804","8","Male","false","true","true","false","""event"",""trial"",""time""
""fullscreenenter"",""5"",""35646""
","
","
","""event"",""trial"",""time""
""fullscreenenter"",""5"",""35646""
","
","576.8999999761581","","48","","","3000","1","","","images/tutyellowplanet.jpg","images/tutalien4","images/tutalien3","images/tutrocket2","images/tutalien4","images/nothing.png","2","practice","true","2","common","0","2022-02-13 22:46:31.431"
"two-step-fixation","87","609763","0.0-61.0-2.8","171","804","8","Male","false","true","true","false","""event"",""trial"",""time""
""fullscreenenter"",""5"",""35646""
","
","
","""event"",""trial"",""time""
""fullscreenenter"",""5"",""35646""
","
","","images/earth.jpg","","","","","","","","","","","","","","fixation","","","","","",""
"d3-animate-choice","88","612406","0.0-61.0-0.9","171","804","8","Male","false","true","true","false","""event"",""trial"",""time""
""fullscreenenter"",""5"",""35646""
","
","
","""event"",""trial"",""time""
""fullscreenenter"",""5"",""35646""
","
","638.4000000357628","","49","","","3000","1","","","images/earth.jpg","images/tutrocket1","images/tutrocket2","null","images/tutrocket2","","1","practice","null","1","","",""
"d3-animate-choice","89","615505","0.0-61.0-1.9","171","804","8","Male","false","true","true","false","""event"",""trial"",""time""
""fullscreenenter"",""5"",""35646""
","
","
","""event"",""trial"",""time""
""fullscreenenter"",""5"",""35646""
","
","1092.800000011921","","48","","","3000","1","","","images/tutyellowplanet.jpg","images/tutalien4","images/tutalien3","images/tutrocket2","images/tutalien4","images/nothing.png","2","practice","true","2","common","0","2022-02-13 22:46:38.181"
"two-step-fixation","90","616512","0.0-61.0-2.9","171","804","8","Male","false","true","true","false","""event"",""trial"",""time""
""fullscreenenter"",""5"",""35646""
","
","
","""event"",""trial"",""time""
""fullscreenenter"",""5"",""35646""
","
","","images/earth.jpg","","","","","","","","","","","","","","fixation","","","","","",""
"d3-animate-choice","91","620537","0.0-61.0-0.10","171","804","8","Male","false","true","true","false","""event"",""trial"",""time""
""fullscreenenter"",""5"",""35646""
","
","
","""event"",""trial"",""time""
""fullscreenenter"",""5"",""35646""
","
","2732.199999988079","","48","","","3000","1","","","images/earth.jpg","images/tutrocket1","images/tutrocket2","null","images/tutrocket1","","1","practice","null","2","","",""
"d3-animate-choice","92","624555","0.0-61.0-1.10","171","804","8","Male","false","true","true","false","""event"",""trial"",""time""
""fullscreenenter"",""5"",""35646""
","
","
","""event"",""trial"",""time""
""fullscreenenter"",""5"",""35646""
","
","null","","null","","","3000","0","","","images/tutgreenplanet.jpg","images/tutalien2","images/tutalien1","images/tutrocket1","","","2","practice","true","","common","0","2022-02-13 22:46:47.232"
"two-step-fixation","93","625562","0.0-61.0-2.10","171","804","8","Male","false","true","true","false","""event"",""trial"",""time""
""fullscreenenter"",""5"",""35646""
","
","
","""event"",""trial"",""time""
""fullscreenenter"",""5"",""35646""
","
","","images/earth.jpg","","","","","","","","","","","","","","fixation","","","","","",""
"d3-animate-choice","94","628439","0.0-61.0-0.11","171","804","8","Male","false","true","true","false","""event"",""trial"",""time""
""fullscreenenter"",""5"",""35646""
","
","
","""event"",""trial"",""time""
""fullscreenenter"",""5"",""35646""
","
","869.8000000119209","","48","","","3000","1","1142.800000011921","48","images/earth.jpg","images/tutrocket1","images/tutrocket2","null","images/tutrocket1","","1","practice","null","2","","",""
"d3-animate-choice","95","631301","0.0-61.0-1.11","171","804","8","Male","false","true","true","false","""event"",""trial"",""time""
""fullscreenenter"",""5"",""35646""
","
","
","""event"",""trial"",""time""
""fullscreenenter"",""5"",""35646""
","
","850.5","","49","","","3000","1","","","images/tutgreenplanet.jpg","images/tutalien2","images/tutalien1","images/tutrocket1","images/tutalien1","images/nothing.png","2","practice","true","1","common","0","2022-02-13 22:46:53.977"
"two-step-fixation","96","632314","0.0-61.0-2.11","171","804","8","Male","false","true","true","false","""event"",""trial"",""time""
""fullscreenenter"",""5"",""35646""
","
","
","""event"",""trial"",""time""
""fullscreenenter"",""5"",""35646""
","
","","images/earth.jpg","","","","","","","","","","","","","","fixation","","","","","",""
"d3-animate-choice","97","634906","0.0-61.0-0.12","171","804","8","Male","false","true","true","false","""event"",""trial"",""time""
""fullscreenenter"",""5"",""35646""
","
","
","""event"",""trial"",""time""
""fullscreenenter"",""5"",""35646""
","
","583","","49","","","3000","1","","","images/earth.jpg","images/tutrocket1","images/tutrocket2","null","images/tutrocket2","","1","practice","null","1","","",""
"d3-animate-choice","98","637456","0.0-61.0-1.12","171","804","8","Male","false","true","true","false","""event"",""trial"",""time""
""fullscreenenter"",""5"",""35646""
","
","
","""event"",""trial"",""time""
""fullscreenenter"",""5"",""35646""
","
","542.1000000238419","","48","","","3000","1","","","images/tutgreenplanet.jpg","images/tutalien2","images/tutalien1","images/tutrocket2","images/tutalien2","images/t.png","2","practice","false","2","rare","1","2022-02-13 22:47:00.132"
"two-step-fixation","99","638471","0.0-61.0-2.12","171","804","8","Male","false","true","true","false","""event"",""trial"",""time""
""fullscreenenter"",""5"",""35646""
","
","
","""event"",""trial"",""time""
""fullscreenenter"",""5"",""35646""
","
","","images/earth.jpg","","","","","","","","","","","","","","fixation","","","","","",""
"d3-animate-choice","100","640889","0.0-61.0-0.13","171","804","8","Male","false","true","true","false","""event"",""trial"",""time""
""fullscreenenter"",""5"",""35646""
","
","
","""event"",""trial"",""time""
""fullscreenenter"",""5"",""35646""
","
","410.9000000357628","","49","","","3000","1","","","images/earth.jpg","images/tutrocket1","images/tutrocket2","null","images/tutrocket2","","1","practice","null","1","","",""
"d3-animate-choice","101","643814","0.0-61.0-1.13","171","804","8","Male","false","true","true","false","""event"",""trial"",""time""
""fullscreenenter"",""5"",""35646""
","
","
","""event"",""trial"",""time""
""fullscreenenter"",""5"",""35646""
","
","915.1000000238419","","48","","","3000","1","","","images/tutgreenplanet.jpg","images/tutalien2","images/tutalien1","images/tutrocket2","images/tutalien2","images/nothing.png","2","practice","false","2","rare","0","2022-02-13 22:47:06.490"
"two-step-fixation","102","644822","0.0-61.0-2.13","171","804","8","Male","false","true","true","false","""event"",""trial"",""time""
""fullscreenenter"",""5"",""35646""
","
","
","""event"",""trial"",""time""
""fullscreenenter"",""5"",""35646""
","
","","images/earth.jpg","","","","","","","","","","","","","","fixation","","","","","",""
"d3-animate-choice","103","647408","0.0-61.0-0.14","171","804","8","Male","false","true","true","false","""event"",""trial"",""time""
""fullscreenenter"",""5"",""35646""
","
","
","""event"",""trial"",""time""
""fullscreenenter"",""5"",""35646""
","
","573.3000000119209","","49","","","3000","1","1063.199999988079","49","images/earth.jpg","images/tutrocket1","images/tutrocket2","null","images/tutrocket2","","1","practice","null","1","","",""
"d3-animate-choice","104","649509","0.0-61.0-1.14","171","804","8","Male","false","true","true","false","""event"",""trial"",""time""
""fullscreenenter"",""5"",""35646""
","
","
","""event"",""trial"",""time""
""fullscreenenter"",""5"",""35646""
","
","95.89999997615814","","48","","","3000","1","","","images/tutyellowplanet.jpg","images/tutalien4","images/tutalien3","images/tutrocket2","images/tutalien4","images/t.png","2","practice","true","2","common","1","2022-02-13 22:47:12.185"
"two-step-fixation","105","650520","0.0-61.0-2.14","171","804","8","Male","false","true","true","false","""event"",""trial"",""time""
""fullscreenenter"",""5"",""35646""
","
","
","""event"",""trial"",""time""
""fullscreenenter"",""5"",""35646""
","
","","images/earth.jpg","","","","","","","","","","","","","","fixation","","","","","",""
"d3-animate-choice","106","654240","0.0-61.0-0.15","171","804","8","Male","false","true","true","false","""event"",""trial"",""time""
""fullscreenenter"",""5"",""35646""
","
","
","""event"",""trial"",""time""
""fullscreenenter"",""5"",""35646""
","
","1707.6000000238419","","48","","","3000","1","","","images/earth.jpg","images/tutrocket1","images/tutrocket2","null","images/tutrocket1","","1","practice","null","2","","",""
"d3-animate-choice","107","657348","0.0-61.0-1.15","171","804","8","Male","false","true","true","false","""event"",""trial"",""time""
""fullscreenenter"",""5"",""35646""
","
","
","""event"",""trial"",""time""
""fullscreenenter"",""5"",""35646""
","
","1096.8999999761581","","49","","","3000","1","","","images/tutgreenplanet.jpg","images/tutalien2","images/tutalien1","images/tutrocket1","images/tutalien1","images/t.png","2","practice","true","1","common","1","2022-02-13 22:47:20.024"
"two-step-fixation","108","658357","0.0-61.0-2.15","171","804","8","Male","false","true","true","false","""event"",""trial"",""time""
""fullscreenenter"",""5"",""35646""
","
","
","""event"",""trial"",""time""
""fullscreenenter"",""5"",""35646""
","
","","images/earth.jpg","","","","","","","","","","","","","","fixation","","","","","",""
"d3-animate-choice","109","661606","0.0-61.0-0.16","171","804","8","Male","false","true","true","false","""event"",""trial"",""time""
""fullscreenenter"",""5"",""35646""
","
","
","""event"",""trial"",""time""
""fullscreenenter"",""5"",""35646""
","
","1238.1000000238419","","48","","","3000","1","","","images/earth.jpg","images/tutrocket1","images/tutrocket2","null","images/tutrocket1","","1","practice","null","2","","",""
"d3-animate-choice","110","665381","0.0-61.0-1.16","171","804","8","Male","false","true","true","false","""event"",""trial"",""time""
""fullscreenenter"",""5"",""35646""
","
","
","""event"",""trial"",""time""
""fullscreenenter"",""5"",""35646""
","
","1768.699999988079","","49","","","3000","1","","","images/tutgreenplanet.jpg","images/tutalien2","images/tutalien1","images/tutrocket1","images/tutalien1","images/nothing.png","2","practice","true","1","common","0","2022-02-13 22:47:28.057"
"two-step-fixation","111","666389","0.0-61.0-2.16","171","804","8","Male","false","true","true","false","""event"",""trial"",""time""
""fullscreenenter"",""5"",""35646""
","
","
","""event"",""trial"",""time""
""fullscreenenter"",""5"",""35646""
","
","","images/earth.jpg","","","","","","","","","","","","","","fixation","","","","","",""
"d3-animate-choice","112","668432","0.0-61.0-0.17","171","804","8","Male","false","true","true","false","""event"",""trial"",""time""
""fullscreenenter"",""5"",""35646""
","
","
","""event"",""trial"",""time""
""fullscreenenter"",""5"",""35646""
","
","39.39999997615814","","48","","","3000","1","","","images/earth.jpg","images/tutrocket1","images/tutrocket2","null","images/tutrocket1","","1","practice","null","2","","",""
"d3-animate-choice","113","671373","0.0-61.0-1.17","171","804","8","Male","false","true","true","false","""event"",""trial"",""time""
""fullscreenenter"",""5"",""35646""
","
","
","""event"",""trial"",""time""
""fullscreenenter"",""5"",""35646""
","
","930.7000000476837","","49","","","3000","1","","","images/tutyellowplanet.jpg","images/tutalien4","images/tutalien3","images/tutrocket1","images/tutalien3","images/nothing.png","2","practice","false","1","rare","0","2022-02-13 22:47:34.049"
"two-step-fixation","114","672382","0.0-61.0-2.17","171","804","8","Male","false","true","true","false","""event"",""trial"",""time""
""fullscreenenter"",""5"",""35646""
","
","
","""event"",""trial"",""time""
""fullscreenenter"",""5"",""35646""
","
","","images/earth.jpg","","","","","","","","","","","","","","fixation","","","","","",""
"d3-animate-choice","115","674806","0.0-61.0-0.18","171","804","8","Male","false","true","true","false","""event"",""trial"",""time""
""fullscreenenter"",""5"",""35646""
","
","
","""event"",""trial"",""time""
""fullscreenenter"",""5"",""35646""
","
","414","","48","","","3000","1","","","images/earth.jpg","images/tutrocket1","images/tutrocket2","null","images/tutrocket1","","1","practice","null","2","","",""
"d3-animate-choice","116","677314","0.0-61.0-1.18","171","804","8","Male","false","true","true","false","""event"",""trial"",""time""
""fullscreenenter"",""5"",""35646""
","
","
","""event"",""trial"",""time""
""fullscreenenter"",""5"",""35646""
","
","499.60000002384186","","48","","","3000","1","","","images/tutgreenplanet.jpg","images/tutalien2","images/tutalien1","images/tutrocket1","images/tutalien2","images/nothing.png","2","practice","true","2","common","0","2022-02-13 22:47:39.990"
"two-step-fixation","117","678323","0.0-61.0-2.18","171","804","8","Male","false","true","true","false","""event"",""trial"",""time""
""fullscreenenter"",""5"",""35646""
","
","
","""event"",""trial"",""time""
""fullscreenenter"",""5"",""35646""
","
","","images/earth.jpg","","","","","","","","","","","","","","fixation","","","","","",""
"d3-animate-choice","118","680961","0.0-61.0-0.19","171","804","8","Male","false","true","true","false","""event"",""trial"",""time""
""fullscreenenter"",""5"",""35646""
","
","
","""event"",""trial"",""time""
""fullscreenenter"",""5"",""35646""
","
","634.3000000119209","","48","","","3000","1","","","images/earth.jpg","images/tutrocket1","images/tutrocket2","null","images/tutrocket1","","1","practice","null","2","","",""
"d3-animate-choice","119","683945","0.0-61.0-1.19","171","804","8","Male","false","true","true","false","""event"",""trial"",""time""
""fullscreenenter"",""5"",""35646""
","
","
","""event"",""trial"",""time""
""fullscreenenter"",""5"",""35646""
","
","973.5","","49","","","3000","1","","","images/tutgreenplanet.jpg","images/tutalien2","images/tutalien1","images/tutrocket1","images/tutalien1","images/nothing.png","2","practice","true","1","common","0","2022-02-13 22:47:46.621"
"two-step-fixation","120","684956","0.0-61.0-2.19","171","804","8","Male","false","true","true","false","""event"",""trial"",""time""
""fullscreenenter"",""5"",""35646""
","
","
","""event"",""trial"",""time""
""fullscreenenter"",""5"",""35646""
","
","","images/earth.jpg","","","","","","","","","","","","","","fixation","","","","","",""
"d3-instructions","121","762413","0.0-62.0","171","804","8","Male","false","true","true","false","""event"",""trial"",""time""
""fullscreenenter"",""5"",""35646""
","
","
","""event"",""trial"",""time""
""fullscreenenter"",""5"",""35646""
","
","","","","","","","","","","","","","","","","","","","","","",""
"audio-keyboard-response","122","770979","0.0-63.0","171","804","8","Male","false","true","true","false","""event"",""trial"",""time""
""fullscreenenter"",""5"",""35646""
","
","
","""event"",""trial"",""time""
""fullscreenenter"",""5"",""35646""
","
","8341","audio/instructions/treasure_feedback.wav","32","","","","","","","","","","","","","","","","","","",""
"d3-instructions","123","793331","0.0-64.0","171","804","8","Male","false","true","true","false","""event"",""trial"",""time""
""fullscreenenter"",""5"",""35646""
","
","
","""event"",""trial"",""time""
""fullscreenenter"",""5"",""35646""
","
","","","","","","","","","","","","","","","","","","","","","",""
"d3-instructions","124","808271","0.0-65.0","171","804","8","Male","false","true","true","false","""event"",""trial"",""time""
""fullscreenenter"",""5"",""35646""
","
","
","""event"",""trial"",""time""
""fullscreenenter"",""5"",""35646""
","
","","","","","","","","","","","","","","","","","","","","","",""
"d3-instructions","125","836269","0.0-66.0","171","804","8","Male","false","true","true","false","""event"",""trial"",""time""
""fullscreenenter"",""5"",""35646""
","
","
","""event"",""trial"",""time""
""fullscreenenter"",""5"",""35646""
","
","","","","","","","","","","","","","","","","","","","","","",""
"d3-instructions","126","854260","0.0-67.0","171","804","8","Male","false","true","true","false","""event"",""trial"",""time""
""fullscreenenter"",""5"",""35646""
","
","
","""event"",""trial"",""time""
""fullscreenenter"",""5"",""35646""
","
","","","","","","","","","","","","","","","","","","","","","",""
"d3-instructions","127","863531","0.0-68.0","171","804","8","Male","false","true","true","false","""event"",""trial"",""time""
""fullscreenenter"",""5"",""35646""
","
","
","""event"",""trial"",""time""
""fullscreenenter"",""5"",""35646""
","
","","","","","","","","","","","","","","","","","","","","","",""
"instructions-quiz","128","878651","0.0-69.0","171","804","8","Male","false","true","true","false","""event"",""trial"",""time""
""fullscreenenter"",""5"",""35646""
","
","
","""event"",""trial"",""time""
""fullscreenenter"",""5"",""35646""
","
","15116.900000035763","audio/quiz/Q1_Prompt.wav","","1","","","","","","","","","","","","","","","","","",""
"audio-keyboard-response","129","887816","0.0-70.0","171","804","8","Male","false","true","true","false","""event"",""trial"",""time""
""fullscreenenter"",""5"",""35646""
","
","
","""event"",""trial"",""time""
""fullscreenenter"",""5"",""35646""
","
","null","audio/quiz/Q1_Correct.wav","null","","","","","","","","","","","","","","","","","","",""
"instructions-quiz","130","898053","0.0-71.0","171","804","8","Male","false","true","true","false","""event"",""trial"",""time""
""fullscreenenter"",""5"",""35646""
","
","
","""event"",""trial"",""time""
""fullscreenenter"",""5"",""35646""
","
","10234.799999952316","audio/quiz/Q2_Prompt.wav","","0","","","","","","","","","","","","","","","","","",""
"audio-keyboard-response","131","910926","0.0-72.0","171","804","8","Male","false","true","true","false","""event"",""trial"",""time""
""fullscreenenter"",""5"",""35646""
","
","
","""event"",""trial"",""time""
""fullscreenenter"",""5"",""35646""
","
","null","audio/quiz/Q2_Correct.wav","null","","","","","","","","","","","","","","","","","","",""
"instructions-quiz","132","917804","0.0-73.0","171","804","8","Male","false","true","true","false","""event"",""trial"",""time""
""fullscreenenter"",""5"",""35646""
","
","
","""event"",""trial"",""time""
""fullscreenenter"",""5"",""35646""
","
","6875.5","audio/quiz/Q3_Prompt.wav","","1","","","","","","","","","","","","","","","","","",""
"audio-keyboard-response","133","923606","0.0-74.0","171","804","8","Male","false","true","true","false","""event"",""trial"",""time""
""fullscreenenter"",""5"",""35646""
","
","
","""event"",""trial"",""time""
""fullscreenenter"",""5"",""35646""
","
","null","audio/quiz/Q3_Correct.wav","null","","","","","","","","","","","","","","","","","","",""
"d3-instructions","134","944349","0.0-75.0","171","804","8","Male","false","true","true","false","""event"",""trial"",""time""
""fullscreenenter"",""5"",""35646""
","
","
","""event"",""trial"",""time""
""fullscreenenter"",""5"",""35646""
","
","","","","","","","","","","","","","","","","","","","","","",""
"d3-animate-choice","135","948355","0.0-76.0-0.0","171","804","8","Male","false","true","true","false","""event"",""trial"",""time""
""fullscreenenter"",""5"",""35646""
","
","
","""event"",""trial"",""time""
""fullscreenenter"",""5"",""35646""
","
","2574.400000035763","","48","","","3000","1","","","images/earth.jpg","images/rocket1","images/rocket2","null","images/rocket1","","1","real","null","2","","",""
"d3-animate-choice","136","951775","0.0-76.0-1.0","171","804","8","Male","false","true","true","false","""event"",""trial"",""time""
""fullscreenenter"",""5"",""35646""
","
","
","""event"",""trial"",""time""
""fullscreenenter"",""5"",""35646""
","
","1410.300000011921","","49","","","3000","1","","","images/redplanet1.jpg","images/alien2","images/alien1","images/rocket1","images/alien1","images/t.png","2","real","true","1","common","1","2022-02-13 22:52:14.451"
"two-step-fixation","137","952784","0.0-76.0-2.0","171","804","8","Male","false","true","true","false","""event"",""trial"",""time""
""fullscreenenter"",""5"",""35646""
","
","
","""event"",""trial"",""time""
""fullscreenenter"",""5"",""35646""
","
","","images/earth.jpg","","","","","","","","","","","","","","fixation","","","","","",""
"d3-animate-choice","138","955815","0.0-76.0-0.1","171","804","8","Male","false","true","true","false","""event"",""trial"",""time""
""fullscreenenter"",""5"",""35646""
","
","
","""event"",""trial"",""time""
""fullscreenenter"",""5"",""35646""
","
","1021.8000000119209","","48","","","3000","1","","","images/earth.jpg","images/rocket1","images/rocket2","null","images/rocket1","","1","real","null","2","","",""
"d3-animate-choice","139","959048","0.0-76.0-1.1","171","804","8","Male","false","true","true","false","""event"",""trial"",""time""
""fullscreenenter"",""5"",""35646""
","
","
","""event"",""trial"",""time""
""fullscreenenter"",""5"",""35646""
","
","1228.1000000238419","","48","","","3000","1","","","images/redplanet1.jpg","images/alien2","images/alien1","images/rocket1","images/alien2","images/t.png","2","real","true","2","common","1","2022-02-13 22:52:21.724"
"two-step-fixation","140","960057","0.0-76.0-2.1","171","804","8","Male","false","true","true","false","""event"",""trial"",""time""
""fullscreenenter"",""5"",""35646""
","
","
","""event"",""trial"",""time""
""fullscreenenter"",""5"",""35646""
","
","","images/earth.jpg","","","","","","","","","","","","","","fixation","","","","","",""
"d3-animate-choice","141","962560","0.0-76.0-0.2","171","804","8","Male","false","true","true","false","""event"",""trial"",""time""
""fullscreenenter"",""5"",""35646""
","
","
","""event"",""trial"",""time""
""fullscreenenter"",""5"",""35646""
","
","492.80000001192093","","49","","","3000","1","","","images/earth.jpg","images/rocket1","images/rocket2","null","images/rocket2","","1","real","null","1","","",""
"d3-animate-choice","142","966112","0.0-76.0-1.2","171","804","8","Male","false","true","true","false","""event"",""trial"",""time""
""fullscreenenter"",""5"",""35646""
","
","
","""event"",""trial"",""time""
""fullscreenenter"",""5"",""35646""
","
","1543.199999988079","","48","","","3000","1","","","images/purpleplanet.jpg","images/alien4","images/alien3","images/rocket2","images/alien4","images/t.png","2","real","true","2","common","1","2022-02-13 22:52:28.788"
"two-step-fixation","143","967122","0.0-76.0-2.2","171","804","8","Male","false","true","true","false","""event"",""trial"",""time""
""fullscreenenter"",""5"",""35646""
","
","
","""event"",""trial"",""time""
""fullscreenenter"",""5"",""35646""
","
","","images/earth.jpg","","","","","","","","","","","","","","fixation","","","","","",""
"d3-animate-choice","144","969573","0.0-76.0-0.3","171","804","8","Male","false","true","true","false","""event"",""trial"",""time""
""fullscreenenter"",""5"",""35646""
","
","
","""event"",""trial"",""time""
""fullscreenenter"",""5"",""35646""
","
","442.10000002384186","","49","","","3000","1","","","images/earth.jpg","images/rocket1","images/rocket2","null","images/rocket2","","1","real","null","1","","",""
"d3-animate-choice","145","972834","0.0-76.0-1.3","171","804","8","Male","false","true","true","false","""event"",""trial"",""time""
""fullscreenenter"",""5"",""35646""
","
","
","""event"",""trial"",""time""
""fullscreenenter"",""5"",""35646""
","
","1254.5999999642372","","49","","","3000","1","","","images/redplanet1.jpg","images/alien2","images/alien1","images/rocket2","images/alien1","images/nothing.png","2","real","false","1","rare","0","2022-02-13 22:52:35.510"
"two-step-fixation","146","973843","0.0-76.0-2.3","171","804","8","Male","false","true","true","false","""event"",""trial"",""time""
""fullscreenenter"",""5"",""35646""
","
","
","""event"",""trial"",""time""
""fullscreenenter"",""5"",""35646""
","
","","images/earth.jpg","","","","","","","","","","","","","","fixation","","","","","",""
"d3-animate-choice","147","976418","0.0-76.0-0.4","171","804","8","Male","false","true","true","false","""event"",""trial"",""time""
""fullscreenenter"",""5"",""35646""
","
","
","""event"",""trial"",""time""
""fullscreenenter"",""5"",""35646""
","
","562.1000000238419","","48","","","3000","1","","","images/earth.jpg","images/rocket1","images/rocket2","null","images/rocket1","","1","real","null","2","","",""
"d3-animate-choice","148","980135","0.0-76.0-1.4","171","804","8","Male","false","true","true","false","""event"",""trial"",""time""
""fullscreenenter"",""5"",""35646""
","
","
","""event"",""trial"",""time""
""fullscreenenter"",""5"",""35646""
","
","1712.0999999642372","","49","","","3000","1","","","images/purpleplanet.jpg","images/alien4","images/alien3","images/rocket1","images/alien3","images/nothing.png","2","real","false","1","rare","0","2022-02-13 22:52:42.811"
"two-step-fixation","149","981151","0.0-76.0-2.4","171","804","8","Male","false","true","true","false","""event"",""trial"",""time""
""fullscreenenter"",""5"",""35646""
","
","
","""event"",""trial"",""time""
""fullscreenenter"",""5"",""35646""
","
","","images/earth.jpg","","","","","","","","","","","","","","fixation","","","","","",""
"d3-animate-choice","150","984226","0.0-76.0-0.5","171","804","8","Male","false","true","true","false","""event"",""trial"",""time""
""fullscreenenter"",""5"",""35646""
","
","
","""event"",""trial"",""time""
""fullscreenenter"",""5"",""35646""
","
","1064.5","","48","","","3000","1","","","images/earth.jpg","images/rocket1","images/rocket2","null","images/rocket1","","1","real","null","2","","",""
"d3-animate-choice","151","988034","0.0-76.0-1.5","171","804","8","Male","false","true","true","false","""event"",""trial"",""time""
""fullscreenenter"",""5"",""35646""
","
","
","""event"",""trial"",""time""
""fullscreenenter"",""5"",""35646""
","
","1801.800000011921","","48","","","3000","1","","","images/purpleplanet.jpg","images/alien4","images/alien3","images/rocket1","images/alien4","images/t.png","2","real","false","2","rare","1","2022-02-13 22:52:50.710"
"two-step-fixation","152","989050","0.0-76.0-2.5","171","804","8","Male","false","true","true","false","""event"",""trial"",""time""
""fullscreenenter"",""5"",""35646""
","
","
","""event"",""trial"",""time""
""fullscreenenter"",""5"",""35646""
","
","","images/earth.jpg","","","","","","","","","","","","","","fixation","","","","","",""
"d3-animate-choice","153","992001","0.0-76.0-0.6","171","804","8","Male","false","true","true","false","""event"",""trial"",""time""
""fullscreenenter"",""5"",""35646""
","
","
","""event"",""trial"",""time""
""fullscreenenter"",""5"",""35646""
","
","939.8000000119209","","49","","","3000","1","1523.800000011921","49","images/earth.jpg","images/rocket1","images/rocket2","null","images/rocket2","","1","real","null","1","","",""
"d3-animate-choice","154","994971","0.0-76.0-1.6","171","804","8","Male","false","true","true","false","""event"",""trial"",""time""
""fullscreenenter"",""5"",""35646""
","
","
","""event"",""trial"",""time""
""fullscreenenter"",""5"",""35646""
","
","963.3000000119209","","49","","","3000","1","","","images/purpleplanet.jpg","images/alien4","images/alien3","images/rocket2","images/alien3","images/nothing.png","2","real","true","1","common","0","2022-02-13 22:52:57.647"
"two-step-fixation","155","995977","0.0-76.0-2.6","171","804","8","Male","false","true","true","false","""event"",""trial"",""time""
""fullscreenenter"",""5"",""35646""
","
","
","""event"",""trial"",""time""
""fullscreenenter"",""5"",""35646""
","
","","images/earth.jpg","","","","","","","","","","","","","","fixation","","","","","",""
"d3-animate-choice","156","998582","0.0-76.0-0.7","171","804","8","Male","false","true","true","false","""event"",""trial"",""time""
""fullscreenenter"",""5"",""35646""
","
","
","""event"",""trial"",""time""
""fullscreenenter"",""5"",""35646""
","
","600.4000000357628","","48","","","3000","1","","","images/earth.jpg","images/rocket1","images/rocket2","null","images/rocket1","","1","real","null","2","","",""
"d3-animate-choice","157","1001509","0.0-76.0-1.7","171","804","8","Male","false","true","true","false","""event"",""trial"",""time""
""fullscreenenter"",""5"",""35646""
","
","
","""event"",""trial"",""time""
""fullscreenenter"",""5"",""35646""
","
","920.1999999880791","","48","","","3000","1","","","images/redplanet1.jpg","images/alien2","images/alien1","images/rocket1","images/alien2","images/nothing.png","2","real","true","2","common","0","2022-02-13 22:53:04.185"
"two-step-fixation","158","1002518","0.0-76.0-2.7","171","804","8","Male","false","true","true","false","""event"",""trial"",""time""
""fullscreenenter"",""5"",""35646""
","
","
","""event"",""trial"",""time""
""fullscreenenter"",""5"",""35646""
","
","","images/earth.jpg","","","","","","","","","","","","","","fixation","","","","","",""
"d3-animate-choice","159","1004918","0.0-76.0-0.8","171","804","8","Male","false","true","true","false","""event"",""trial"",""time""
""fullscreenenter"",""5"",""35646""
","
","
","""event"",""trial"",""time""
""fullscreenenter"",""5"",""35646""
","
","392.30000001192093","","48","","","3000","1","","","images/earth.jpg","images/rocket1","images/rocket2","null","images/rocket1","","1","real","null","2","","",""
"d3-animate-choice","160","1008143","0.0-76.0-1.8","171","804","8","Male","false","true","true","false","""event"",""trial"",""time""
""fullscreenenter"",""5"",""35646""
","
","
","""event"",""trial"",""time""
""fullscreenenter"",""5"",""35646""
","
","1216.800000011921","","48","","","3000","1","","","images/purpleplanet.jpg","images/alien4","images/alien3","images/rocket1","images/alien4","images/t.png","2","real","false","2","rare","1","2022-02-13 22:53:10.819"
"two-step-fixation","161","1009152","0.0-76.0-2.8","171","804","8","Male","false","true","true","false","""event"",""trial"",""time""
""fullscreenenter"",""5"",""35646""
","
","
","""event"",""trial"",""time""
""fullscreenenter"",""5"",""35646""
","
","","images/earth.jpg","","","","","","","","","","","","","","fixation","","","","","",""
"d3-animate-choice","162","1011818","0.0-76.0-0.9","171","804","8","Male","false","true","true","false","""event"",""trial"",""time""
""fullscreenenter"",""5"",""35646""
","
","
","""event"",""trial"",""time""
""fullscreenenter"",""5"",""35646""
","
","659.8999999761581","","48","","","3000","1","","","images/earth.jpg","images/rocket1","images/rocket2","null","images/rocket1","","1","real","null","2","","",""
"d3-animate-choice","163","1014351","0.0-76.0-1.9","171","804","8","Male","false","true","true","false","""event"",""trial"",""time""
""fullscreenenter"",""5"",""35646""
","
","
","""event"",""trial"",""time""
""fullscreenenter"",""5"",""35646""
","
","530.1999999880791","","48","","","3000","1","","","images/redplanet1.jpg","images/alien2","images/alien1","images/rocket1","images/alien2","images/nothing.png","2","real","true","2","common","0","2022-02-13 22:53:17.027"
"two-step-fixation","164","1015360","0.0-76.0-2.9","171","804","8","Male","false","true","true","false","""event"",""trial"",""time""
""fullscreenenter"",""5"",""35646""
","
","
","""event"",""trial"",""time""
""fullscreenenter"",""5"",""35646""
","
","","images/earth.jpg","","","","","","","","","","","","","","fixation","","","","","",""
"d3-animate-choice","165","1017859","0.0-76.0-0.10","171","804","8","Male","false","true","true","false","""event"",""trial"",""time""
""fullscreenenter"",""5"",""35646""
","
","
","""event"",""trial"",""time""
""fullscreenenter"",""5"",""35646""
","
","490.5","","49","","","3000","1","","","images/earth.jpg","images/rocket1","images/rocket2","null","images/rocket2","","1","real","null","1","","",""
"d3-animate-choice","166","1021018","0.0-76.0-1.10","171","804","8","Male","false","true","true","false","""event"",""trial"",""time""
""fullscreenenter"",""5"",""35646""
","
","
","""event"",""trial"",""time""
""fullscreenenter"",""5"",""35646""
","
","1146.3999999761581","","48","","","3000","1","","","images/purpleplanet.jpg","images/alien4","images/alien3","images/rocket2","images/alien4","images/t.png","2","real","true","2","common","1","2022-02-13 22:53:23.695"
"two-step-fixation","167","1022026","0.0-76.0-2.10","171","804","8","Male","false","true","true","false","""event"",""trial"",""time""
""fullscreenenter"",""5"",""35646""
","
","
","""event"",""trial"",""time""
""fullscreenenter"",""5"",""35646""
","
","","images/earth.jpg","","","","","","","","","","","","","","fixation","","","","","",""
"d3-animate-choice","168","1025559","0.0-76.0-0.11","171","804","8","Male","false","true","true","false","""event"",""trial"",""time""
""fullscreenenter"",""5"",""35646""
","
","
","""event"",""trial"",""time""
""fullscreenenter"",""5"",""35646""
","
","1524.6000000238419","","48","","","3000","1","","","images/earth.jpg","images/rocket1","images/rocket2","null","images/rocket1","","1","real","null","2","","",""
"d3-animate-choice","169","1028485","0.0-76.0-1.11","171","804","8","Male","false","true","true","false","""event"",""trial"",""time""
""fullscreenenter"",""5"",""35646""
","
","
","""event"",""trial"",""time""
""fullscreenenter"",""5"",""35646""
","
","919.8999999761581","","48","","","3000","1","1423.699999988079","49","images/redplanet1.jpg","images/alien2","images/alien1","images/rocket1","images/alien2","images/nothing.png","2","real","true","2","common","0","2022-02-13 22:53:31.161"
"two-step-fixation","170","1029493","0.0-76.0-2.11","171","804","8","Male","false","true","true","false","""event"",""trial"",""time""
""fullscreenenter"",""5"",""35646""
","
","
","""event"",""trial"",""time""
""fullscreenenter"",""5"",""35646""
","
","","images/earth.jpg","","","","","","","","","","","","","","fixation","","","","","",""
"d3-animate-choice","171","1031843","0.0-76.0-0.12","171","804","8","Male","false","true","true","false","""event"",""trial"",""time""
""fullscreenenter"",""5"",""35646""
","
","
","""event"",""trial"",""time""
""fullscreenenter"",""5"",""35646""
","
","342.30000001192093","","49","","","3000","1","","","images/earth.jpg","images/rocket1","images/rocket2","null","images/rocket2","","1","real","null","1","","",""
"d3-animate-choice","172","1034343","0.0-76.0-1.12","171","804","8","Male","false","true","true","false","""event"",""trial"",""time""
""fullscreenenter"",""5"",""35646""
","
","
","""event"",""trial"",""time""
""fullscreenenter"",""5"",""35646""
","
","494.30000001192093","","48","","","3000","1","","","images/purpleplanet.jpg","images/alien4","images/alien3","images/rocket2","images/alien4","images/nothing.png","2","real","true","2","common","0","2022-02-13 22:53:37.019"
"two-step-fixation","173","1035350","0.0-76.0-2.12","171","804","8","Male","false","true","true","false","""event"",""trial"",""time""
""fullscreenenter"",""5"",""35646""
","
","
","""event"",""trial"",""time""
""fullscreenenter"",""5"",""35646""
","
","","images/earth.jpg","","","","","","","","","","","","","","fixation","","","","","",""
"d3-animate-choice","174","1038002","0.0-76.0-0.13","171","804","8","Male","false","true","true","false","""event"",""trial"",""time""
""fullscreenenter"",""5"",""35646""
","
","
","""event"",""trial"",""time""
""fullscreenenter"",""5"",""35646""
","
","646.7000000476837","","48","","","3000","1","","","images/earth.jpg","images/rocket1","images/rocket2","null","images/rocket1","","1","real","null","2","","",""
"d3-animate-choice","175","1040994","0.0-76.0-1.13","171","804","8","Male","false","true","true","false","""event"",""trial"",""time""
""fullscreenenter"",""5"",""35646""
","
","
","""event"",""trial"",""time""
""fullscreenenter"",""5"",""35646""
","
","984.5","","49","","","3000","1","","","images/redplanet1.jpg","images/alien2","images/alien1","images/rocket1","images/alien1","images/nothing.png","2","real","true","1","common","0","2022-02-13 22:53:43.670"
"two-step-fixation","176","1042001","0.0-76.0-2.13","171","804","8","Male","false","true","true","false","""event"",""trial"",""time""
""fullscreenenter"",""5"",""35646""
","
","
","""event"",""trial"",""time""
""fullscreenenter"",""5"",""35646""
","
","","images/earth.jpg","","","","","","","","","","","","","","fixation","","","","","",""
"d3-animate-choice","177","1044569","0.0-76.0-0.14","171","804","8","Male","false","true","true","false","""event"",""trial"",""time""
""fullscreenenter"",""5"",""35646""
","
","
","""event"",""trial"",""time""
""fullscreenenter"",""5"",""35646""
","
","558","","49","","","3000","1","","","images/earth.jpg","images/rocket1","images/rocket2","null","images/rocket2","","1","real","null","1","","",""
"d3-animate-choice","178","1047660","0.0-76.0-1.14","171","804","8","Male","false","true","true","false","""event"",""trial"",""time""
""fullscreenenter"",""5"",""35646""
","
","
","""event"",""trial"",""time""
""fullscreenenter"",""5"",""35646""
","
","1087.3999999761581","","48","","","3000","1","","","images/redplanet1.jpg","images/alien2","images/alien1","images/rocket2","images/alien2","images/nothing.png","2","real","false","2","rare","0","2022-02-13 22:53:50.336"
"two-step-fixation","179","1048670","0.0-76.0-2.14","171","804","8","Male","false","true","true","false","""event"",""trial"",""time""
""fullscreenenter"",""5"",""35646""
","
","
","""event"",""trial"",""time""
""fullscreenenter"",""5"",""35646""
","
","","images/earth.jpg","","","","","","","","","","","","","","fixation","","","","","",""
"d3-animate-choice","180","1051943","0.0-76.0-0.15","171","804","8","Male","false","true","true","false","""event"",""trial"",""time""
""fullscreenenter"",""5"",""35646""
","
","
","""event"",""trial"",""time""
""fullscreenenter"",""5"",""35646""
","
","1265.7000000476837","","48","","","3000","1","","","images/earth.jpg","images/rocket1","images/rocket2","null","images/rocket1","","1","real","null","2","","",""
"d3-animate-choice","181","1055027","0.0-76.0-1.15","171","804","8","Male","false","true","true","false","""event"",""trial"",""time""
""fullscreenenter"",""5"",""35646""
","
","
","""event"",""trial"",""time""
""fullscreenenter"",""5"",""35646""
","
","1075.9000000357628","","48","","","3000","1","","","images/redplanet1.jpg","images/alien2","images/alien1","images/rocket1","images/alien2","images/t.png","2","real","true","2","common","1","2022-02-13 22:53:57.703"
"two-step-fixation","182","1056035","0.0-76.0-2.15","171","804","8","Male","false","true","true","false","""event"",""trial"",""time""
""fullscreenenter"",""5"",""35646""
","
","
","""event"",""trial"",""time""
""fullscreenenter"",""5"",""35646""
","
","","images/earth.jpg","","","","","","","","","","","","","","fixation","","","","","",""
"d3-animate-choice","183","1058343","0.0-76.0-0.16","171","804","8","Male","false","true","true","false","""event"",""trial"",""time""
""fullscreenenter"",""5"",""35646""
","
","
","""event"",""trial"",""time""
""fullscreenenter"",""5"",""35646""
","
","296.9000000357628","","49","","","3000","1","","","images/earth.jpg","images/rocket1","images/rocket2","null","images/rocket2","","1","real","null","1","","",""
"d3-animate-choice","184","1061614","0.0-76.0-1.16","171","804","8","Male","false","true","true","false","""event"",""trial"",""time""
""fullscreenenter"",""5"",""35646""
","
","
","""event"",""trial"",""time""
""fullscreenenter"",""5"",""35646""
","
","1260.699999988079","","48","","","3000","1","","","images/purpleplanet.jpg","images/alien4","images/alien3","images/rocket2","images/alien4","images/t.png","2","real","true","2","common","1","2022-02-13 22:54:04.291"
"two-step-fixation","185","1062619","0.0-76.0-2.16","171","804","8","Male","false","true","true","false","""event"",""trial"",""time""
""fullscreenenter"",""5"",""35646""
","
","
","""event"",""trial"",""time""
""fullscreenenter"",""5"",""35646""
","
","","images/earth.jpg","","","","","","","","","","","","","","fixation","","","","","",""
"d3-animate-choice","186","1065256","0.0-76.0-0.17","171","804","8","Male","false","true","true","false","""event"",""trial"",""time""
""fullscreenenter"",""5"",""35646""
","
","
","""event"",""trial"",""time""
""fullscreenenter"",""5"",""35646""
","
","630.1999999880791","","48","","","3000","1","","","images/earth.jpg","images/rocket1","images/rocket2","null","images/rocket1","","1","real","null","2","","",""
"d3-animate-choice","187","1068294","0.0-76.0-1.17","171","804","8","Male","false","true","true","false","""event"",""trial"",""time""
""fullscreenenter"",""5"",""35646""
","
","
","""event"",""trial"",""time""
""fullscreenenter"",""5"",""35646""
","
","1030.5","","48","","","3000","1","","","images/redplanet1.jpg","images/alien2","images/alien1","images/rocket1","images/alien2","images/t.png","2","real","true","2","common","1","2022-02-13 22:54:10.970"
"two-step-fixation","188","1069312","0.0-76.0-2.17","171","804","8","Male","false","true","true","false","""event"",""trial"",""time""
""fullscreenenter"",""5"",""35646""
","
","
","""event"",""trial"",""time""
""fullscreenenter"",""5"",""35646""
","
","","images/earth.jpg","","","","","","","","","","","","","","fixation","","","","","",""
"d3-animate-choice","189","1071952","0.0-76.0-0.18","171","804","8","Male","false","true","true","false","""event"",""trial"",""time""
""fullscreenenter"",""5"",""35646""
","
","
","""event"",""trial"",""time""
""fullscreenenter"",""5"",""35646""
","
","634.8999999761581","","49","","","3000","1","","","images/earth.jpg","images/rocket1","images/rocket2","null","images/rocket2","","1","real","null","1","","",""
"d3-animate-choice","190","1074586","0.0-76.0-1.18","171","804","8","Male","false","true","true","false","""event"",""trial"",""time""
""fullscreenenter"",""5"",""35646""
","
","
","""event"",""trial"",""time""
""fullscreenenter"",""5"",""35646""
","
","626.1999999880791","","48","","","3000","1","","","images/purpleplanet.jpg","images/alien4","images/alien3","images/rocket2","images/alien4","images/t.png","2","real","true","2","common","1","2022-02-13 22:54:17.262"
"two-step-fixation","191","1075603","0.0-76.0-2.18","171","804","8","Male","false","true","true","false","""event"",""trial"",""time""
""fullscreenenter"",""5"",""35646""
","
","
","""event"",""trial"",""time""
""fullscreenenter"",""5"",""35646""
","
","","images/earth.jpg","","","","","","","","","","","","","","fixation","","","","","",""
"d3-animate-choice","192","1078086","0.0-76.0-0.19","171","804","8","Male","false","true","true","false","""event"",""trial"",""time""
""fullscreenenter"",""5"",""35646""
","
","
","""event"",""trial"",""time""
""fullscreenenter"",""5"",""35646""
","
","477.30000001192093","","49","","","3000","1","","","images/earth.jpg","images/rocket1","images/rocket2","null","images/rocket2","","1","real","null","1","","",""
"d3-animate-choice","193","1080569","0.0-76.0-1.19","171","804","8","Male","false","true","true","false","""event"",""trial"",""time""
""fullscreenenter"",""5"",""35646""
","
","
","""event"",""trial"",""time""
""fullscreenenter"",""5"",""35646""
","
","476","","48","","","3000","1","","","images/redplanet1.jpg","images/alien2","images/alien1","images/rocket2","images/alien2","images/t.png","2","real","false","2","rare","1","2022-02-13 22:54:23.245"
"two-step-fixation","194","1081586","0.0-76.0-2.19","171","804","8","Male","false","true","true","false","""event"",""trial"",""time""
""fullscreenenter"",""5"",""35646""
","
","
","""event"",""trial"",""time""
""fullscreenenter"",""5"",""35646""
","
","","images/earth.jpg","","","","","","","","","","","","","","fixation","","","","","",""
"d3-animate-choice","195","1083901","0.0-76.0-0.20","171","804","8","Male","false","true","true","false","""event"",""trial"",""time""
""fullscreenenter"",""5"",""35646""
","
","
","""event"",""trial"",""time""
""fullscreenenter"",""5"",""35646""
","
","305.89999997615814","","48","","","3000","1","","","images/earth.jpg","images/rocket1","images/rocket2","null","images/rocket1","","1","real","null","2","","",""
"d3-animate-choice","196","1086756","0.0-76.0-1.20","171","804","8","Male","false","true","true","false","""event"",""trial"",""time""
""fullscreenenter"",""5"",""35646""
","
","
","""event"",""trial"",""time""
""fullscreenenter"",""5"",""35646""
","
","841.1999999880791","","49","","","3000","1","","","images/redplanet1.jpg","images/alien2","images/alien1","images/rocket1","images/alien1","images/t.png","2","real","true","1","common","1","2022-02-13 22:54:29.432"
"two-step-fixation","197","1087762","0.0-76.0-2.20","171","804","8","Male","false","true","true","false","""event"",""trial"",""time""
""fullscreenenter"",""5"",""35646""
","
","
","""event"",""trial"",""time""
""fullscreenenter"",""5"",""35646""
","
","","images/earth.jpg","","","","","","","","","","","","","","fixation","","","","","",""
"d3-animate-choice","198","1090711","0.0-76.0-0.21","171","804","8","Male","false","true","true","false","""event"",""trial"",""time""
""fullscreenenter"",""5"",""35646""
","
","
","""event"",""trial"",""time""
""fullscreenenter"",""5"",""35646""
","
","942.8000000119209","","49","","","3000","1","","","images/earth.jpg","images/rocket1","images/rocket2","null","images/rocket2","","1","real","null","1","","",""
"d3-animate-choice","199","1093386","0.0-76.0-1.21","171","804","8","Male","false","true","true","false","""event"",""trial"",""time""
""fullscreenenter"",""5"",""35646""
","
","
","""event"",""trial"",""time""
""fullscreenenter"",""5"",""35646""
","
","671.1999999880791","","48","","","3000","1","","","images/redplanet1.jpg","images/alien2","images/alien1","images/rocket2","images/alien2","images/t.png","2","real","false","2","rare","1","2022-02-13 22:54:36.063"
"two-step-fixation","200","1094394","0.0-76.0-2.21","171","804","8","Male","false","true","true","false","""event"",""trial"",""time""
""fullscreenenter"",""5"",""35646""
","
","
","""event"",""trial"",""time""
""fullscreenenter"",""5"",""35646""
","
","","images/earth.jpg","","","","","","","","","","","","","","fixation","","","","","",""
"d3-animate-choice","201","1097053","0.0-76.0-0.22","171","804","8","Male","false","true","true","false","""event"",""trial"",""time""
""fullscreenenter"",""5"",""35646""
","
","
","""event"",""trial"",""time""
""fullscreenenter"",""5"",""35646""
","
","650.8999999761581","","49","","","3000","1","","","images/earth.jpg","images/rocket1","images/rocket2","null","images/rocket2","","1","real","null","1","","",""
"d3-animate-choice","202","1099936","0.0-76.0-1.22","171","804","8","Male","false","true","true","false","""event"",""trial"",""time""
""fullscreenenter"",""5"",""35646""
","
","
","""event"",""trial"",""time""
""fullscreenenter"",""5"",""35646""
","
","877","","48","","","3000","1","","","images/purpleplanet.jpg","images/alien4","images/alien3","images/rocket2","images/alien4","images/t.png","2","real","true","2","common","1","2022-02-13 22:54:42.613"
"two-step-fixation","203","1100941","0.0-76.0-2.22","171","804","8","Male","false","true","true","false","""event"",""trial"",""time""
""fullscreenenter"",""5"",""35646""
","
","
","""event"",""trial"",""time""
""fullscreenenter"",""5"",""35646""
","
","","images/earth.jpg","","","","","","","","","","","","","","fixation","","","","","",""
"d3-animate-choice","204","1104628","0.0-76.0-0.23","171","804","8","Male","false","true","true","false","""event"",""trial"",""time""
""fullscreenenter"",""5"",""35646""
","
","
","""event"",""trial"",""time""
""fullscreenenter"",""5"",""35646""
","
","1677.3999999761581","","49","","","3000","1","","","images/earth.jpg","images/rocket1","images/rocket2","null","images/rocket2","","1","real","null","1","","",""
"d3-animate-choice","205","1107494","0.0-76.0-1.23","171","804","8","Male","false","true","true","false","""event"",""trial"",""time""
""fullscreenenter"",""5"",""35646""
","
","
","""event"",""trial"",""time""
""fullscreenenter"",""5"",""35646""
","
","854.6000000238419","","48","","","3000","1","","","images/purpleplanet.jpg","images/alien4","images/alien3","images/rocket2","images/alien4","images/nothing.png","2","real","true","2","common","0","2022-02-13 22:54:50.170"
"two-step-fixation","206","1108503","0.0-76.0-2.23","171","804","8","Male","false","true","true","false","""event"",""trial"",""time""
""fullscreenenter"",""5"",""35646""
","
","
","""event"",""trial"",""time""
""fullscreenenter"",""5"",""35646""
","
","","images/earth.jpg","","","","","","","","","","","","","","fixation","","","","","",""
"d3-animate-choice","207","1112503","0.0-76.0-0.24","171","804","8","Male","false","true","true","false","""event"",""trial"",""time""
""fullscreenenter"",""5"",""35646""
","
","
","""event"",""trial"",""time""
""fullscreenenter"",""5"",""35646""
","
","1991.9000000357628","","48","","","3000","1","","","images/earth.jpg","images/rocket1","images/rocket2","null","images/rocket1","","1","real","null","2","","",""
"d3-animate-choice","208","1115545","0.0-76.0-1.24","171","804","8","Male","false","true","true","false","""event"",""trial"",""time""
""fullscreenenter"",""5"",""35646""
","
","
","""event"",""trial"",""time""
""fullscreenenter"",""5"",""35646""
","
","1036.199999988079","","48","","","3000","1","","","images/redplanet1.jpg","images/alien2","images/alien1","images/rocket1","images/alien2","images/t.png","2","real","true","2","common","1","2022-02-13 22:54:58.221"
"two-step-fixation","209","1116554","0.0-76.0-2.24","171","804","8","Male","false","true","true","false","""event"",""trial"",""time""
""fullscreenenter"",""5"",""35646""
","
","
","""event"",""trial"",""time""
""fullscreenenter"",""5"",""35646""
","
","","images/earth.jpg","","","","","","","","","","","","","","fixation","","","","","",""
"d3-animate-choice","210","1119153","0.0-76.0-0.25","171","804","8","Male","false","true","true","false","""event"",""trial"",""time""
""fullscreenenter"",""5"",""35646""
","
","
","""event"",""trial"",""time""
""fullscreenenter"",""5"",""35646""
","
","593.1000000238419","","49","","","3000","1","","","images/earth.jpg","images/rocket1","images/rocket2","null","images/rocket2","","1","real","null","1","","",""
"d3-animate-choice","211","1121771","0.0-76.0-1.25","171","804","8","Male","false","true","true","false","""event"",""trial"",""time""
""fullscreenenter"",""5"",""35646""
","
","
","""event"",""trial"",""time""
""fullscreenenter"",""5"",""35646""
","
","613.6999999880791","","48","","","3000","1","","","images/purpleplanet.jpg","images/alien4","images/alien3","images/rocket2","images/alien4","images/t.png","2","real","true","2","common","1","2022-02-13 22:55:04.447"
"two-step-fixation","212","1122779","0.0-76.0-2.25","171","804","8","Male","false","true","true","false","""event"",""trial"",""time""
""fullscreenenter"",""5"",""35646""
","
","
","""event"",""trial"",""time""
""fullscreenenter"",""5"",""35646""
","
","","images/earth.jpg","","","","","","","","","","","","","","fixation","","","","","",""
"d3-animate-choice","213","1125412","0.0-76.0-0.26","171","804","8","Male","false","true","true","false","""event"",""trial"",""time""
""fullscreenenter"",""5"",""35646""
","
","
","""event"",""trial"",""time""
""fullscreenenter"",""5"",""35646""
","
","627.3999999761581","","49","","","3000","1","","","images/earth.jpg","images/rocket1","images/rocket2","null","images/rocket2","","1","real","null","1","","",""
"d3-animate-choice","214","1128312","0.0-76.0-1.26","171","804","8","Male","false","true","true","false","""event"",""trial"",""time""
""fullscreenenter"",""5"",""35646""
","
","
","""event"",""trial"",""time""
""fullscreenenter"",""5"",""35646""
","
","895.8999999761581","","49","","","3000","1","","","images/redplanet1.jpg","images/alien2","images/alien1","images/rocket2","images/alien1","images/t.png","2","real","false","1","rare","1","2022-02-13 22:55:10.988"
"two-step-fixation","215","1129321","0.0-76.0-2.26","171","804","8","Male","false","true","true","false","""event"",""trial"",""time""
""fullscreenenter"",""5"",""35646""
","
","
","""event"",""trial"",""time""
""fullscreenenter"",""5"",""35646""
","
","","images/earth.jpg","","","","","","","","","","","","","","fixation","","","","","",""
"d3-animate-choice","216","1131746","0.0-76.0-0.27","171","804","8","Male","false","true","true","false","""event"",""trial"",""time""
""fullscreenenter"",""5"",""35646""
","
","
","""event"",""trial"",""time""
""fullscreenenter"",""5"",""35646""
","
","415.4000000357628","","48","","","3000","1","","","images/earth.jpg","images/rocket1","images/rocket2","null","images/rocket1","","1","real","null","2","","",""
"d3-animate-choice","217","1134579","0.0-76.0-1.27","171","804","8","Male","false","true","true","false","""event"",""trial"",""time""
""fullscreenenter"",""5"",""35646""
","
","
","""event"",""trial"",""time""
""fullscreenenter"",""5"",""35646""
","
","817.5","","49","","","3000","1","","","images/redplanet1.jpg","images/alien2","images/alien1","images/rocket1","images/alien1","images/t.png","2","real","true","1","common","1","2022-02-13 22:55:17.255"
"two-step-fixation","218","1135597","0.0-76.0-2.27","171","804","8","Male","false","true","true","false","""event"",""trial"",""time""
""fullscreenenter"",""5"",""35646""
","
","
","""event"",""trial"",""time""
""fullscreenenter"",""5"",""35646""
","
","","images/earth.jpg","","","","","","","","","","","","","","fixation","","","","","",""
"d3-animate-choice","219","1138413","0.0-76.0-0.28","171","804","8","Male","false","true","true","false","""event"",""trial"",""time""
""fullscreenenter"",""5"",""35646""
","
","
","""event"",""trial"",""time""
""fullscreenenter"",""5"",""35646""
","
","808.1999999880791","","49","","","3000","1","","","images/earth.jpg","images/rocket1","images/rocket2","null","images/rocket2","","1","real","null","1","","",""
"d3-animate-choice","220","1141055","0.0-76.0-1.28","171","804","8","Male","false","true","true","false","""event"",""trial"",""time""
""fullscreenenter"",""5"",""35646""
","
","
","""event"",""trial"",""time""
""fullscreenenter"",""5"",""35646""
","
","634.9000000357628","","48","","","3000","1","","","images/redplanet1.jpg","images/alien2","images/alien1","images/rocket2","images/alien2","images/t.png","2","real","false","2","rare","1","2022-02-13 22:55:23.731"
"two-step-fixation","221","1142062","0.0-76.0-2.28","171","804","8","Male","false","true","true","false","""event"",""trial"",""time""
""fullscreenenter"",""5"",""35646""
","
","
","""event"",""trial"",""time""
""fullscreenenter"",""5"",""35646""
","
","","images/earth.jpg","","","","","","","","","","","","","","fixation","","","","","",""
"d3-animate-choice","222","1144921","0.0-76.0-0.29","171","804","8","Male","false","true","true","false","""event"",""trial"",""time""
""fullscreenenter"",""5"",""35646""
","
","
","""event"",""trial"",""time""
""fullscreenenter"",""5"",""35646""
","
","851.4000000357628","","49","","","3000","1","","","images/earth.jpg","images/rocket1","images/rocket2","null","images/rocket2","","1","real","null","1","","",""
"d3-animate-choice","223","1147655","0.0-76.0-1.29","171","804","8","Male","false","true","true","false","""event"",""trial"",""time""
""fullscreenenter"",""5"",""35646""
","
","
","""event"",""trial"",""time""
""fullscreenenter"",""5"",""35646""
","
","728.8999999761581","","48","","","3000","1","","","images/purpleplanet.jpg","images/alien4","images/alien3","images/rocket2","images/alien4","images/nothing.png","2","real","true","2","common","0","2022-02-13 22:55:30.331"
"two-step-fixation","224","1148662","0.0-76.0-2.29","171","804","8","Male","false","true","true","false","""event"",""trial"",""time""
""fullscreenenter"",""5"",""35646""
","
","
","""event"",""trial"",""time""
""fullscreenenter"",""5"",""35646""
","
","","images/earth.jpg","","","","","","","","","","","","","","fixation","","","","","",""
"d3-animate-choice","225","1151404","0.0-76.0-0.30","171","804","8","Male","false","true","true","false","""event"",""trial"",""time""
""fullscreenenter"",""5"",""35646""
","
","
","""event"",""trial"",""time""
""fullscreenenter"",""5"",""35646""
","
","733.8999999761581","","49","","","3000","1","","","images/earth.jpg","images/rocket1","images/rocket2","null","images/rocket2","","1","real","null","1","","",""
"d3-animate-choice","226","1154337","0.0-76.0-1.30","171","804","8","Male","false","true","true","false","""event"",""trial"",""time""
""fullscreenenter"",""5"",""35646""
","
","
","""event"",""trial"",""time""
""fullscreenenter"",""5"",""35646""
","
","927.0999999642372","","48","","","3000","1","","","images/redplanet1.jpg","images/alien2","images/alien1","images/rocket2","images/alien2","images/t.png","2","real","false","2","rare","1","2022-02-13 22:55:37.013"
"two-step-fixation","227","1155343","0.0-76.0-2.30","171","804","8","Male","false","true","true","false","""event"",""trial"",""time""
""fullscreenenter"",""5"",""35646""
","
","
","""event"",""trial"",""time""
""fullscreenenter"",""5"",""35646""
","
","","images/earth.jpg","","","","","","","","","","","","","","fixation","","","","","",""
"d3-animate-choice","228","1158146","0.0-76.0-0.31","171","804","8","Male","false","true","true","false","""event"",""trial"",""time""
""fullscreenenter"",""5"",""35646""
","
","
","""event"",""trial"",""time""
""fullscreenenter"",""5"",""35646""
","
","792.5","","48","","","3000","1","","","images/earth.jpg","images/rocket1","images/rocket2","null","images/rocket1","","1","real","null","2","","",""
"d3-animate-choice","229","1161012","0.0-76.0-1.31","171","804","8","Male","false","true","true","false","""event"",""trial"",""time""
""fullscreenenter"",""5"",""35646""
","
","
","""event"",""trial"",""time""
""fullscreenenter"",""5"",""35646""
","
","861.3000000119209","","49","","","3000","1","","","images/redplanet1.jpg","images/alien2","images/alien1","images/rocket1","images/alien1","images/t.png","2","real","true","1","common","1","2022-02-13 22:55:43.689"
"two-step-fixation","230","1162022","0.0-76.0-2.31","171","804","8","Male","false","true","true","false","""event"",""trial"",""time""
""fullscreenenter"",""5"",""35646""
","
","
","""event"",""trial"",""time""
""fullscreenenter"",""5"",""35646""
","
","","images/earth.jpg","","","","","","","","","","","","","","fixation","","","","","",""
"d3-animate-choice","231","1164695","0.0-76.0-0.32","171","804","8","Male","false","true","true","false","""event"",""trial"",""time""
""fullscreenenter"",""5"",""35646""
","
","
","""event"",""trial"",""time""
""fullscreenenter"",""5"",""35646""
","
","665.6000000238419","","49","","","3000","1","","","images/earth.jpg","images/rocket1","images/rocket2","null","images/rocket2","","1","real","null","1","","",""
"d3-animate-choice","232","1167471","0.0-76.0-1.32","171","804","8","Male","false","true","true","false","""event"",""trial"",""time""
""fullscreenenter"",""5"",""35646""
","
","
","""event"",""trial"",""time""
""fullscreenenter"",""5"",""35646""
","
","766.8000000119209","","48","","","3000","1","","","images/redplanet1.jpg","images/alien2","images/alien1","images/rocket2","images/alien2","images/t.png","2","real","false","2","rare","1","2022-02-13 22:55:50.147"
"two-step-fixation","233","1168480","0.0-76.0-2.32","171","804","8","Male","false","true","true","false","""event"",""trial"",""time""
""fullscreenenter"",""5"",""35646""
","
","
","""event"",""trial"",""time""
""fullscreenenter"",""5"",""35646""
","
","","images/earth.jpg","","","","","","","","","","","","","","fixation","","","","","",""
"d3-animate-choice","234","1170980","0.0-76.0-0.33","171","804","8","Male","false","true","true","false","""event"",""trial"",""time""
""fullscreenenter"",""5"",""35646""
","
","
","""event"",""trial"",""time""
""fullscreenenter"",""5"",""35646""
","
","488.0999999642372","","49","","","3000","1","","","images/earth.jpg","images/rocket1","images/rocket2","null","images/rocket2","","1","real","null","1","","",""
"d3-animate-choice","235","1173906","0.0-76.0-1.33","171","804","8","Male","false","true","true","false","""event"",""trial"",""time""
""fullscreenenter"",""5"",""35646""
","
","
","""event"",""trial"",""time""
""fullscreenenter"",""5"",""35646""
","
","922","","48","","","3000","1","","","images/purpleplanet.jpg","images/alien4","images/alien3","images/rocket2","images/alien4","images/nothing.png","2","real","true","2","common","0","2022-02-13 22:55:56.582"
"two-step-fixation","236","1174913","0.0-76.0-2.33","171","804","8","Male","false","true","true","false","""event"",""trial"",""time""
""fullscreenenter"",""5"",""35646""
","
","
","""event"",""trial"",""time""
""fullscreenenter"",""5"",""35646""
","
","","images/earth.jpg","","","","","","","","","","","","","","fixation","","","","","",""
"d3-animate-choice","237","1177272","0.0-76.0-0.34","171","804","8","Male","false","true","true","false","""event"",""trial"",""time""
""fullscreenenter"",""5"",""35646""
","
","
","""event"",""trial"",""time""
""fullscreenenter"",""5"",""35646""
","
","351.69999998807907","","49","","","3000","1","","","images/earth.jpg","images/rocket1","images/rocket2","null","images/rocket2","","1","real","null","1","","",""
"d3-animate-choice","238","1180271","0.0-76.0-1.34","171","804","8","Male","false","true","true","false","""event"",""trial"",""time""
""fullscreenenter"",""5"",""35646""
","
","
","""event"",""trial"",""time""
""fullscreenenter"",""5"",""35646""
","
","993.9000000357628","","48","","","3000","1","","","images/purpleplanet.jpg","images/alien4","images/alien3","images/rocket2","images/alien4","images/nothing.png","2","real","true","2","common","0","2022-02-13 22:56:02.948"
"two-step-fixation","239","1181279","0.0-76.0-2.34","171","804","8","Male","false","true","true","false","""event"",""trial"",""time""
""fullscreenenter"",""5"",""35646""
","
","
","""event"",""trial"",""time""
""fullscreenenter"",""5"",""35646""
","
","","images/earth.jpg","","","","","","","","","","","","","","fixation","","","","","",""
"d3-animate-choice","240","1184247","0.0-76.0-0.35","171","804","8","Male","false","true","true","false","""event"",""trial"",""time""
""fullscreenenter"",""5"",""35646""
","
","
","""event"",""trial"",""time""
""fullscreenenter"",""5"",""35646""
","
","956.8999999761581","","48","","","3000","1","","","images/earth.jpg","images/rocket1","images/rocket2","null","images/rocket1","","1","real","null","2","","",""
"d3-animate-choice","241","1187030","0.0-76.0-1.35","171","804","8","Male","false","true","true","false","""event"",""trial"",""time""
""fullscreenenter"",""5"",""35646""
","
","
","""event"",""trial"",""time""
""fullscreenenter"",""5"",""35646""
","
","771.8000000119209","","49","","","3000","1","","","images/redplanet1.jpg","images/alien2","images/alien1","images/rocket1","images/alien1","images/t.png","2","real","true","1","common","1","2022-02-13 22:56:09.706"
"two-step-fixation","242","1188037","0.0-76.0-2.35","171","804","8","Male","false","true","true","false","""event"",""trial"",""time""
""fullscreenenter"",""5"",""35646""
","
","
","""event"",""trial"",""time""
""fullscreenenter"",""5"",""35646""
","
","","images/earth.jpg","","","","","","","","","","","","","","fixation","","","","","",""
"d3-animate-choice","243","1190838","0.0-76.0-0.36","171","804","8","Male","false","true","true","false","""event"",""trial"",""time""
""fullscreenenter"",""5"",""35646""
","
","
","""event"",""trial"",""time""
""fullscreenenter"",""5"",""35646""
","
","793.3000000119209","","48","","","3000","1","","","images/earth.jpg","images/rocket1","images/rocket2","null","images/rocket1","","1","real","null","2","","",""
"d3-animate-choice","244","1193680","0.0-76.0-1.36","171","804","8","Male","false","true","true","false","""event"",""trial"",""time""
""fullscreenenter"",""5"",""35646""
","
","
","""event"",""trial"",""time""
""fullscreenenter"",""5"",""35646""
","
","831.6999999880791","","49","","","3000","1","","","images/purpleplanet.jpg","images/alien4","images/alien3","images/rocket1","images/alien3","images/nothing.png","2","real","false","1","rare","0","2022-02-13 22:56:16.356"
"two-step-fixation","245","1194689","0.0-76.0-2.36","171","804","8","Male","false","true","true","false","""event"",""trial"",""time""
""fullscreenenter"",""5"",""35646""
","
","
","""event"",""trial"",""time""
""fullscreenenter"",""5"",""35646""
","
","","images/earth.jpg","","","","","","","","","","","","","","fixation","","","","","",""
"d3-animate-choice","246","1197413","0.0-76.0-0.37","171","804","8","Male","false","true","true","false","""event"",""trial"",""time""
""fullscreenenter"",""5"",""35646""
","
","
","""event"",""trial"",""time""
""fullscreenenter"",""5"",""35646""
","
","713.1000000238419","","48","","","3000","1","","","images/earth.jpg","images/rocket1","images/rocket2","null","images/rocket1","","1","real","null","2","","",""
"d3-animate-choice","247","1201072","0.0-76.0-1.37","171","804","8","Male","false","true","true","false","""event"",""trial"",""time""
""fullscreenenter"",""5"",""35646""
","
","
","""event"",""trial"",""time""
""fullscreenenter"",""5"",""35646""
","
","1654.199999988079","","49","","","3000","1","","","images/purpleplanet.jpg","images/alien4","images/alien3","images/rocket1","images/alien3","images/t.png","2","real","false","1","rare","1","2022-02-13 22:56:23.749"
