"trial_type","trial_index","time_elapsed","internal_node_id","participant_id","subject_id","age","gender","rocket_sides","red_planet_first_rocket","red_display_order","purple_display_order","interactions","blur_events","focus_events","fullscreenenter_events","fullscreenexit_events","rt","stimulus","key_press","button_pressed","success","duration","valid_pressed","rts","keys","planet_text","right_text","left_text","center_text","chosen_text","reward_text","trial_stage","practice_trial","transition_type","choice","transition","reward","timestamp"
"pavlovia","0","3","0.0-0.0","2995","4973","16","Female","false","false","true","false","
","
","
","
","
","","","","","","","","","","","","","","","","","","","","","",""
"html-keyboard-response","1","14071","0.0-1.0","2995","4973","16","Female","false","false","true","false","
","
","
","
","
","14067.90000000596","Welcome! Press the space bar to begin.","32","","","","","","","","","","","","","","","","","","",""
"audio-keyboard-response","2","19514","0.0-2.0","2995","4973","16","Female","false","false","true","false","
","
","
","
","
","5346","audio/beep_loop.wav","32","","","","","","","","","","","","","","","","","","",""
"audio-button-response","3","21094","0.0-3.0","2995","4973","16","Female","false","false","true","false","
","
","
","
","
","NaN","audio/fish.mp3","","1","","","","","","","","","","","","","","","","","",""
"audio-button-response","4","23395","0.0-4.0","2995","4973","16","Female","false","false","true","false","""event"",""trial"",""time""
""fullscreenenter"",""5"",""25899""
","
","
","""event"",""trial"",""time""
""fullscreenenter"",""5"",""25899""
","
","NaN","audio/tiger.mp3","","4","","","","","","","","","","","","","","","","","",""
"fullscreen","5","26887","0.0-5.0","2995","4973","16","Female","false","false","true","false","""event"",""trial"",""time""
""fullscreenenter"",""5"",""25899""
","
","
","""event"",""trial"",""time""
""fullscreenenter"",""5"",""25899""
","
","","","","","true","","","","","","","","","","","","","","","","",""
"d3-instructions","6","37284","0.0-6.0","2995","4973","16","Female","false","false","true","false","""event"",""trial"",""time""
""fullscreenenter"",""5"",""25899""
","
","
","""event"",""trial"",""time""
""fullscreenenter"",""5"",""25899""
","
","","","","","","","","","","","","","","","","","","","","","",""
"d3-instructions","7","45094","0.0-7.0","2995","4973","16","Female","false","false","true","false","""event"",""trial"",""time""
""fullscreenenter"",""5"",""25899""
","
","
","""event"",""trial"",""time""
""fullscreenenter"",""5"",""25899""
","
","","","","","","","","","","","","","","","","","","","","","",""
"d3-instructions","8","51057","0.0-8.0","2995","4973","16","Female","false","false","true","false","""event"",""trial"",""time""
""fullscreenenter"",""5"",""25899""
","
","
","""event"",""trial"",""time""
""fullscreenenter"",""5"",""25899""
","
","","","","","","","","","","","","","","","","","","","","","",""
"d3-instructions","9","59949","0.0-9.0","2995","4973","16","Female","false","false","true","false","""event"",""trial"",""time""
""fullscreenenter"",""5"",""25899""
","
","
","""event"",""trial"",""time""
""fullscreenenter"",""5"",""25899""
","
","","","","","","","","","","","","","","","","","","","","","",""
"d3-instructions","10","83675","0.0-10.0","2995","4973","16","Female","false","false","true","false","""event"",""trial"",""time""
""fullscreenenter"",""5"",""25899""
","
","
","""event"",""trial"",""time""
""fullscreenenter"",""5"",""25899""
","
","","","","","","","","","","","","","","","","","","","","","",""
"d3-animate-choice","11","92349","0.0-11.0","2995","4973","16","Female","false","false","true","false","""event"",""trial"",""time""
""fullscreenenter"",""5"",""25899""
","
","
","""event"",""trial"",""time""
""fullscreenenter"",""5"",""25899""
","
","2766.8999999910593","","32","","","3000","1","5299.20000000298,6670.79999999702","32,49","images/tutgreenplanet.jpg","images/tutalien1","images/tutalien2","null","images/tutalien2","","NA","practice","null","","","",""
"d3-animate-choice","12","95982","0.0-12.0","2995","4973","16","Female","false","false","true","false","""event"",""trial"",""time""
""fullscreenenter"",""5"",""25899""
","
","
","""event"",""trial"",""time""
""fullscreenenter"",""5"",""25899""
","
","1627.4000000059605","","48","","","3000","1","","","images/tutgreenplanet.jpg","images/tutalien1","images/tutalien2","null","images/tutalien1","","NA","practice","null","","","",""
"d3-animate-choice","13","100916","0.0-13.0","2995","4973","16","Female","false","false","true","false","""event"",""trial"",""time""
""fullscreenenter"",""5"",""25899""
","
","
","""event"",""trial"",""time""
""fullscreenenter"",""5"",""25899""
","
","2928.4000000059605","","49","","","3000","1","","","images/tutgreenplanet.jpg","images/tutalien1","images/tutalien2","null","images/tutalien2","","NA","practice","null","","","",""
"d3-animate-choice","14","103267","0.0-14.0","2995","4973","16","Female","false","false","true","false","""event"",""trial"",""time""
""fullscreenenter"",""5"",""25899""
","
","
","""event"",""trial"",""time""
""fullscreenenter"",""5"",""25899""
","
","346.3999999910593","","48","","","3000","1","","","images/tutgreenplanet.jpg","images/tutalien1","images/tutalien2","null","images/tutalien1","","NA","practice","null","","","",""
"d3-instructions","15","108994","0.0-15.0","2995","4973","16","Female","false","false","true","false","""event"",""trial"",""time""
""fullscreenenter"",""5"",""25899""
","
","
","""event"",""trial"",""time""
""fullscreenenter"",""5"",""25899""
","
","","","","","","","","","","","","","","","","","","","","","",""
"d3-instructions","16","123576","0.0-16.0","2995","4973","16","Female","false","false","true","false","""event"",""trial"",""time""
""fullscreenenter"",""5"",""25899""
","
","
","""event"",""trial"",""time""
""fullscreenenter"",""5"",""25899""
","
","","","","","","","","","","","","","","","","","","","","","",""
"d3-instructions","17","139693","0.0-17.0","2995","4973","16","Female","false","false","true","false","""event"",""trial"",""time""
""fullscreenenter"",""5"",""25899""
""blur"",""18"",""146260""
""focus"",""18"",""148288""
","""event"",""trial"",""time""
""blur"",""18"",""146260""
","""event"",""trial"",""time""
""focus"",""18"",""148288""
","""event"",""trial"",""time""
""fullscreenenter"",""5"",""25899""
","
","","","","","","","","","","","","","","","","","","","","","",""
"d3-instructions","18","151037","0.0-18.0","2995","4973","16","Female","false","false","true","false","""event"",""trial"",""time""
""fullscreenenter"",""5"",""25899""
""blur"",""18"",""146260""
""focus"",""18"",""148288""
","""event"",""trial"",""time""
""blur"",""18"",""146260""
","""event"",""trial"",""time""
""focus"",""18"",""148288""
","""event"",""trial"",""time""
""fullscreenenter"",""5"",""25899""
","
","","","","","","","","","","","","","","","","","","","","","",""
"d3-instructions","19","164844","0.0-19.0","2995","4973","16","Female","false","false","true","false","""event"",""trial"",""time""
""fullscreenenter"",""5"",""25899""
""blur"",""18"",""146260""
""focus"",""18"",""148288""
","""event"",""trial"",""time""
""blur"",""18"",""146260""
","""event"",""trial"",""time""
""focus"",""18"",""148288""
","""event"",""trial"",""time""
""fullscreenenter"",""5"",""25899""
","
","","","","","","","","","","","","","","","","","","","","","",""
"d3-animate-choice","20","168052","0.0-20.0","2995","4973","16","Female","false","false","true","false","""event"",""trial"",""time""
""fullscreenenter"",""5"",""25899""
""blur"",""18"",""146260""
""focus"",""18"",""148288""
","""event"",""trial"",""time""
""blur"",""18"",""146260""
","""event"",""trial"",""time""
""focus"",""18"",""148288""
","""event"",""trial"",""time""
""fullscreenenter"",""5"",""25899""
","
","1202.2999999970198","","49","","","3000","1","2207","49","images/tutyellowplanet.jpg","null","images/tutalien3","null","images/tutalien3","images/t.png","NA","practice","null","","","",""
"d3-animate-choice","21","170076","0.0-21.0","2995","4973","16","Female","false","false","true","false","""event"",""trial"",""time""
""fullscreenenter"",""5"",""25899""
""blur"",""18"",""146260""
""focus"",""18"",""148288""
","""event"",""trial"",""time""
""blur"",""18"",""146260""
","""event"",""trial"",""time""
""focus"",""18"",""148288""
","""event"",""trial"",""time""
""fullscreenenter"",""5"",""25899""
","
","19.100000008940697","","49","","","3000","1","396.6000000089407,780.9000000059605","49,49","images/tutyellowplanet.jpg","null","images/tutalien3","null","images/tutalien3","images/t.png","NA","practice","null","","","",""
"d3-animate-choice","22","172345","0.0-22.0","2995","4973","16","Female","false","false","true","false","""event"",""trial"",""time""
""fullscreenenter"",""5"",""25899""
""blur"",""18"",""146260""
""focus"",""18"",""148288""
","""event"",""trial"",""time""
""blur"",""18"",""146260""
","""event"",""trial"",""time""
""focus"",""18"",""148288""
","""event"",""trial"",""time""
""fullscreenenter"",""5"",""25899""
","
","266.79999999701977","","49","","","3000","1","1670.9000000059605,2044.0999999940395,2234","49,49,49","images/tutyellowplanet.jpg","null","images/tutalien3","null","images/tutalien3","images/t.png","NA","practice","null","","","",""
"d3-animate-choice","23","174513","0.0-23.0","2995","4973","16","Female","false","false","true","false","""event"",""trial"",""time""
""fullscreenenter"",""5"",""25899""
""blur"",""18"",""146260""
""focus"",""18"",""148288""
","""event"",""trial"",""time""
""blur"",""18"",""146260""
","""event"",""trial"",""time""
""focus"",""18"",""148288""
","""event"",""trial"",""time""
""fullscreenenter"",""5"",""25899""
","
","165.09999999403954","","49","","","3000","1","1553.5,2005.0999999940395","49,49","images/tutyellowplanet.jpg","null","images/tutalien3","null","images/tutalien3","images/t.png","NA","practice","null","","","",""
"d3-animate-choice","24","176527","0.0-24.0","2995","4973","16","Female","false","false","true","false","""event"",""trial"",""time""
""fullscreenenter"",""5"",""25899""
""blur"",""18"",""146260""
""focus"",""18"",""148288""
","""event"",""trial"",""time""
""blur"",""18"",""146260""
","""event"",""trial"",""time""
""focus"",""18"",""148288""
","""event"",""trial"",""time""
""fullscreenenter"",""5"",""25899""
","
","10.600000008940697","","49","","","3000","1","219.6000000089407","49","images/tutyellowplanet.jpg","null","images/tutalien3","null","images/tutalien3","images/t.png","NA","practice","null","","","",""
"d3-animate-choice","25","178536","0.0-25.0","2995","4973","16","Female","false","false","true","false","""event"",""trial"",""time""
""fullscreenenter"",""5"",""25899""
""blur"",""18"",""146260""
""focus"",""18"",""148288""
","""event"",""trial"",""time""
""blur"",""18"",""146260""
","""event"",""trial"",""time""
""focus"",""18"",""148288""
","""event"",""trial"",""time""
""fullscreenenter"",""5"",""25899""
","
","5","","49","","","3000","1","246","49","images/tutyellowplanet.jpg","null","images/tutalien3","null","images/tutalien3","images/t.png","NA","practice","null","","","",""
"d3-animate-choice","26","180852","0.0-26.0","2995","4973","16","Female","false","false","true","false","""event"",""trial"",""time""
""fullscreenenter"",""5"",""25899""
""blur"",""18"",""146260""
""focus"",""18"",""148288""
","""event"",""trial"",""time""
""blur"",""18"",""146260""
","""event"",""trial"",""time""
""focus"",""18"",""148288""
","""event"",""trial"",""time""
""fullscreenenter"",""5"",""25899""
","
","313.20000000298023","","49","","","3000","1","","","images/tutyellowplanet.jpg","null","images/tutalien3","null","images/tutalien3","images/t.png","NA","practice","null","","","",""
"d3-animate-choice","27","183133","0.0-27.0","2995","4973","16","Female","false","false","true","false","""event"",""trial"",""time""
""fullscreenenter"",""5"",""25899""
""blur"",""18"",""146260""
""focus"",""18"",""148288""
","""event"",""trial"",""time""
""blur"",""18"",""146260""
","""event"",""trial"",""time""
""focus"",""18"",""148288""
","""event"",""trial"",""time""
""fullscreenenter"",""5"",""25899""
","
","276.20000000298023","","49","","","3000","1","","","images/tutyellowplanet.jpg","null","images/tutalien3","null","images/tutalien3","images/t.png","NA","practice","null","","","",""
"d3-animate-choice","28","185445","0.0-28.0","2995","4973","16","Female","false","false","true","false","""event"",""trial"",""time""
""fullscreenenter"",""5"",""25899""
""blur"",""18"",""146260""
""focus"",""18"",""148288""
","""event"",""trial"",""time""
""blur"",""18"",""146260""
","""event"",""trial"",""time""
""focus"",""18"",""148288""
","""event"",""trial"",""time""
""fullscreenenter"",""5"",""25899""
","
","310.29999999701977","","49","","","3000","1","","","images/tutyellowplanet.jpg","null","images/tutalien3","null","images/tutalien3","images/nothing.png","NA","practice","null","","","",""
"d3-animate-choice","29","187804","0.0-29.0","2995","4973","16","Female","false","false","true","false","""event"",""trial"",""time""
""fullscreenenter"",""5"",""25899""
""blur"",""18"",""146260""
""focus"",""18"",""148288""
","""event"",""trial"",""time""
""blur"",""18"",""146260""
","""event"",""trial"",""time""
""focus"",""18"",""148288""
","""event"",""trial"",""time""
""fullscreenenter"",""5"",""25899""
","
","353.29999999701977","","49","","","3000","1","","","images/tutyellowplanet.jpg","null","images/tutalien3","null","images/tutalien3","images/t.png","NA","practice","null","","","",""
"d3-instructions","30","192724","0.0-30.0","2995","4973","16","Female","false","false","true","false","""event"",""trial"",""time""
""fullscreenenter"",""5"",""25899""
""blur"",""18"",""146260""
""focus"",""18"",""148288""
","""event"",""trial"",""time""
""blur"",""18"",""146260""
","""event"",""trial"",""time""
""focus"",""18"",""148288""
","""event"",""trial"",""time""
""fullscreenenter"",""5"",""25899""
","
","","","","","","","","","","","","","","","","","","","","","",""
"d3-instructions","31","208532","0.0-31.0","2995","4973","16","Female","false","false","true","false","""event"",""trial"",""time""
""fullscreenenter"",""5"",""25899""
""blur"",""18"",""146260""
""focus"",""18"",""148288""
","""event"",""trial"",""time""
""blur"",""18"",""146260""
","""event"",""trial"",""time""
""focus"",""18"",""148288""
","""event"",""trial"",""time""
""fullscreenenter"",""5"",""25899""
","
","","","","","","","","","","","","","","","","","","","","","",""
"d3-instructions","32","216998","0.0-32.0","2995","4973","16","Female","false","false","true","false","""event"",""trial"",""time""
""fullscreenenter"",""5"",""25899""
""blur"",""18"",""146260""
""focus"",""18"",""148288""
","""event"",""trial"",""time""
""blur"",""18"",""146260""
","""event"",""trial"",""time""
""focus"",""18"",""148288""
","""event"",""trial"",""time""
""fullscreenenter"",""5"",""25899""
","
","","","","","","","","","","","","","","","","","","","","","",""
"d3-instructions","33","290094","0.0-33.0","2995","4973","16","Female","false","false","true","false","""event"",""trial"",""time""
""fullscreenenter"",""5"",""25899""
""blur"",""18"",""146260""
""focus"",""18"",""148288""
","""event"",""trial"",""time""
""blur"",""18"",""146260""
","""event"",""trial"",""time""
""focus"",""18"",""148288""
","""event"",""trial"",""time""
""fullscreenenter"",""5"",""25899""
","
","","","","","","","","","","","","","","","","","","","","","",""
"d3-animate-choice","34","293487","0.0-34.0","2995","4973","16","Female","false","false","true","false","""event"",""trial"",""time""
""fullscreenenter"",""5"",""25899""
""blur"",""18"",""146260""
""focus"",""18"",""148288""
","""event"",""trial"",""time""
""blur"",""18"",""146260""
","""event"",""trial"",""time""
""focus"",""18"",""148288""
","""event"",""trial"",""time""
""fullscreenenter"",""5"",""25899""
","
","1386.7999999970198","","49","","","3000","1","","","images/tutgreenplanet.jpg","images/tutalien1","images/tutalien2","null","images/tutalien2","images/t.png","NA","practice","null","","","",""
"d3-animate-choice","35","295840","0.0-35.0","2995","4973","16","Female","false","false","true","false","""event"",""trial"",""time""
""fullscreenenter"",""5"",""25899""
""blur"",""18"",""146260""
""focus"",""18"",""148288""
","""event"",""trial"",""time""
""blur"",""18"",""146260""
","""event"",""trial"",""time""
""focus"",""18"",""148288""
","""event"",""trial"",""time""
""fullscreenenter"",""5"",""25899""
","
","347.79999999701977","","48","","","3000","1","","","images/tutgreenplanet.jpg","images/tutalien1","images/tutalien2","null","images/tutalien1","images/nothing.png","NA","practice","null","","","",""
"d3-animate-choice","36","298161","0.0-36.0","2995","4973","16","Female","false","false","true","false","""event"",""trial"",""time""
""fullscreenenter"",""5"",""25899""
""blur"",""18"",""146260""
""focus"",""18"",""148288""
","""event"",""trial"",""time""
""blur"",""18"",""146260""
","""event"",""trial"",""time""
""focus"",""18"",""148288""
","""event"",""trial"",""time""
""fullscreenenter"",""5"",""25899""
","
","317.79999999701977","","49","","","3000","1","1709.0999999940395","49","images/tutgreenplanet.jpg","images/tutalien1","images/tutalien2","null","images/tutalien2","images/nothing.png","NA","practice","null","","","",""
"d3-animate-choice","37","300412","0.0-37.0","2995","4973","16","Female","false","false","true","false","""event"",""trial"",""time""
""fullscreenenter"",""5"",""25899""
""blur"",""18"",""146260""
""focus"",""18"",""148288""
","""event"",""trial"",""time""
""blur"",""18"",""146260""
","""event"",""trial"",""time""
""focus"",""18"",""148288""
","""event"",""trial"",""time""
""fullscreenenter"",""5"",""25899""
","
","245","","49","","","3000","1","","","images/tutgreenplanet.jpg","images/tutalien1","images/tutalien2","null","images/tutalien2","images/t.png","NA","practice","null","","","",""
"d3-animate-choice","38","302681","0.0-38.0","2995","4973","16","Female","false","false","true","false","""event"",""trial"",""time""
""fullscreenenter"",""5"",""25899""
""blur"",""18"",""146260""
""focus"",""18"",""148288""
","""event"",""trial"",""time""
""blur"",""18"",""146260""
","""event"",""trial"",""time""
""focus"",""18"",""148288""
","""event"",""trial"",""time""
""fullscreenenter"",""5"",""25899""
","
","262.69999998807907","","48","","","3000","1","","","images/tutgreenplanet.jpg","images/tutalien1","images/tutalien2","null","images/tutalien1","images/nothing.png","NA","practice","null","","","",""
"d3-animate-choice","39","304959","0.0-39.0","2995","4973","16","Female","false","false","true","false","""event"",""trial"",""time""
""fullscreenenter"",""5"",""25899""
""blur"",""18"",""146260""
""focus"",""18"",""148288""
","""event"",""trial"",""time""
""blur"",""18"",""146260""
","""event"",""trial"",""time""
""focus"",""18"",""148288""
","""event"",""trial"",""time""
""fullscreenenter"",""5"",""25899""
","
","274.79999999701977","","49","","","3000","1","","","images/tutgreenplanet.jpg","images/tutalien1","images/tutalien2","null","images/tutalien2","images/nothing.png","NA","practice","null","","","",""
"d3-animate-choice","40","307217","0.0-40.0","2995","4973","16","Female","false","false","true","false","""event"",""trial"",""time""
""fullscreenenter"",""5"",""25899""
""blur"",""18"",""146260""
""focus"",""18"",""148288""
","""event"",""trial"",""time""
""blur"",""18"",""146260""
","""event"",""trial"",""time""
""focus"",""18"",""148288""
","""event"",""trial"",""time""
""fullscreenenter"",""5"",""25899""
","
","251.5","","49","","","3000","1","","","images/tutgreenplanet.jpg","images/tutalien1","images/tutalien2","null","images/tutalien2","images/t.png","NA","practice","null","","","",""
"d3-animate-choice","41","309415","0.0-41.0","2995","4973","16","Female","false","false","true","false","""event"",""trial"",""time""
""fullscreenenter"",""5"",""25899""
""blur"",""18"",""146260""
""focus"",""18"",""148288""
","""event"",""trial"",""time""
""blur"",""18"",""146260""
","""event"",""trial"",""time""
""focus"",""18"",""148288""
","""event"",""trial"",""time""
""fullscreenenter"",""5"",""25899""
","
","194.29999999701977","","49","","","3000","1","","","images/tutgreenplanet.jpg","images/tutalien1","images/tutalien2","null","images/tutalien2","images/t.png","NA","practice","null","","","",""
"d3-animate-choice","42","311658","0.0-42.0","2995","4973","16","Female","false","false","true","false","""event"",""trial"",""time""
""fullscreenenter"",""5"",""25899""
""blur"",""18"",""146260""
""focus"",""18"",""148288""
","""event"",""trial"",""time""
""blur"",""18"",""146260""
","""event"",""trial"",""time""
""focus"",""18"",""148288""
","""event"",""trial"",""time""
""fullscreenenter"",""5"",""25899""
","
","238.79999999701977","","48","","","3000","1","","","images/tutgreenplanet.jpg","images/tutalien1","images/tutalien2","null","images/tutalien1","images/nothing.png","NA","practice","null","","","",""
"d3-animate-choice","43","313994","0.0-43.0","2995","4973","16","Female","false","false","true","false","""event"",""trial"",""time""
""fullscreenenter"",""5"",""25899""
""blur"",""18"",""146260""
""focus"",""18"",""148288""
","""event"",""trial"",""time""
""blur"",""18"",""146260""
","""event"",""trial"",""time""
""focus"",""18"",""148288""
","""event"",""trial"",""time""
""fullscreenenter"",""5"",""25899""
","
","329.20000000298023","","48","","","3000","1","","","images/tutgreenplanet.jpg","images/tutalien1","images/tutalien2","null","images/tutalien1","images/nothing.png","NA","practice","null","","","",""
"d3-instructions","44","318832","0.0-44.0","2995","4973","16","Female","false","false","true","false","""event"",""trial"",""time""
""fullscreenenter"",""5"",""25899""
""blur"",""18"",""146260""
""focus"",""18"",""148288""
","""event"",""trial"",""time""
""blur"",""18"",""146260""
","""event"",""trial"",""time""
""focus"",""18"",""148288""
","""event"",""trial"",""time""
""fullscreenenter"",""5"",""25899""
","
","","","","","","","","","","","","","","","","","","","","","",""
"d3-instructions","45","325392","0.0-45.0","2995","4973","16","Female","false","false","true","false","""event"",""trial"",""time""
""fullscreenenter"",""5"",""25899""
""blur"",""18"",""146260""
""focus"",""18"",""148288""
","""event"",""trial"",""time""
""blur"",""18"",""146260""
","""event"",""trial"",""time""
""focus"",""18"",""148288""
","""event"",""trial"",""time""
""fullscreenenter"",""5"",""25899""
","
","","","","","","","","","","","","","","","","","","","","","",""
"d3-instructions","46","329511","0.0-46.0","2995","4973","16","Female","false","false","true","false","""event"",""trial"",""time""
""fullscreenenter"",""5"",""25899""
""blur"",""18"",""146260""
""focus"",""18"",""148288""
","""event"",""trial"",""time""
""blur"",""18"",""146260""
","""event"",""trial"",""time""
""focus"",""18"",""148288""
","""event"",""trial"",""time""
""fullscreenenter"",""5"",""25899""
","
","","","","","","","","","","","","","","","","","","","","","",""
"d3-instructions","47","342630","0.0-47.0","2995","4973","16","Female","false","false","true","false","""event"",""trial"",""time""
""fullscreenenter"",""5"",""25899""
""blur"",""18"",""146260""
""focus"",""18"",""148288""
""blur"",""48"",""345089""
""focus"",""48"",""350160""
","""event"",""trial"",""time""
""blur"",""18"",""146260""
""blur"",""48"",""345089""
","""event"",""trial"",""time""
""focus"",""18"",""148288""
""focus"",""48"",""350160""
","""event"",""trial"",""time""
""fullscreenenter"",""5"",""25899""
","
","","","","","","","","","","","","","","","","","","","","","",""
"d3-instructions","48","352393","0.0-48.0","2995","4973","16","Female","false","false","true","false","""event"",""trial"",""time""
""fullscreenenter"",""5"",""25899""
""blur"",""18"",""146260""
""focus"",""18"",""148288""
""blur"",""48"",""345089""
""focus"",""48"",""350160""
","""event"",""trial"",""time""
""blur"",""18"",""146260""
""blur"",""48"",""345089""
","""event"",""trial"",""time""
""focus"",""18"",""148288""
""focus"",""48"",""350160""
","""event"",""trial"",""time""
""fullscreenenter"",""5"",""25899""
","
","","","","","","","","","","","","","","","","","","","","","",""
"d3-instructions","49","358464","0.0-49.0","2995","4973","16","Female","false","false","true","false","""event"",""trial"",""time""
""fullscreenenter"",""5"",""25899""
""blur"",""18"",""146260""
""focus"",""18"",""148288""
""blur"",""48"",""345089""
""focus"",""48"",""350160""
","""event"",""trial"",""time""
""blur"",""18"",""146260""
""blur"",""48"",""345089""
","""event"",""trial"",""time""
""focus"",""18"",""148288""
""focus"",""48"",""350160""
","""event"",""trial"",""time""
""fullscreenenter"",""5"",""25899""
","
","","","","","","","","","","","","","","","","","","","","","",""
"d3-instructions","50","367980","0.0-50.0","2995","4973","16","Female","false","false","true","false","""event"",""trial"",""time""
""fullscreenenter"",""5"",""25899""
""blur"",""18"",""146260""
""focus"",""18"",""148288""
""blur"",""48"",""345089""
""focus"",""48"",""350160""
","""event"",""trial"",""time""
""blur"",""18"",""146260""
""blur"",""48"",""345089""
","""event"",""trial"",""time""
""focus"",""18"",""148288""
""focus"",""48"",""350160""
","""event"",""trial"",""time""
""fullscreenenter"",""5"",""25899""
","
","","","","","","","","","","","","","","","","","","","","","",""
"d3-instructions","51","372041","0.0-51.0","2995","4973","16","Female","false","false","true","false","""event"",""trial"",""time""
""fullscreenenter"",""5"",""25899""
""blur"",""18"",""146260""
""focus"",""18"",""148288""
""blur"",""48"",""345089""
""focus"",""48"",""350160""
","""event"",""trial"",""time""
""blur"",""18"",""146260""
""blur"",""48"",""345089""
","""event"",""trial"",""time""
""focus"",""18"",""148288""
""focus"",""48"",""350160""
","""event"",""trial"",""time""
""fullscreenenter"",""5"",""25899""
","
","","","","","","","","","","","","","","","","","","","","","",""
"d3-instructions","52","377520","0.0-52.0","2995","4973","16","Female","false","false","true","false","""event"",""trial"",""time""
""fullscreenenter"",""5"",""25899""
""blur"",""18"",""146260""
""focus"",""18"",""148288""
""blur"",""48"",""345089""
""focus"",""48"",""350160""
","""event"",""trial"",""time""
""blur"",""18"",""146260""
""blur"",""48"",""345089""
","""event"",""trial"",""time""
""focus"",""18"",""148288""
""focus"",""48"",""350160""
","""event"",""trial"",""time""
""fullscreenenter"",""5"",""25899""
","
","","","","","","","","","","","","","","","","","","","","","",""
"d3-instructions","53","389554","0.0-53.0","2995","4973","16","Female","false","false","true","false","""event"",""trial"",""time""
""fullscreenenter"",""5"",""25899""
""blur"",""18"",""146260""
""focus"",""18"",""148288""
""blur"",""48"",""345089""
""focus"",""48"",""350160""
","""event"",""trial"",""time""
""blur"",""18"",""146260""
""blur"",""48"",""345089""
","""event"",""trial"",""time""
""focus"",""18"",""148288""
""focus"",""48"",""350160""
","""event"",""trial"",""time""
""fullscreenenter"",""5"",""25899""
","
","","","","","","","","","","","","","","","","","","","","","",""
"d3-instructions","54","406683","0.0-54.0","2995","4973","16","Female","false","false","true","false","""event"",""trial"",""time""
""fullscreenenter"",""5"",""25899""
""blur"",""18"",""146260""
""focus"",""18"",""148288""
""blur"",""48"",""345089""
""focus"",""48"",""350160""
","""event"",""trial"",""time""
""blur"",""18"",""146260""
""blur"",""48"",""345089""
","""event"",""trial"",""time""
""focus"",""18"",""148288""
""focus"",""48"",""350160""
","""event"",""trial"",""time""
""fullscreenenter"",""5"",""25899""
","
","","","","","","","","","","","","","","","","","","","","","",""
"d3-instructions","55","417965","0.0-55.0","2995","4973","16","Female","false","false","true","false","""event"",""trial"",""time""
""fullscreenenter"",""5"",""25899""
""blur"",""18"",""146260""
""focus"",""18"",""148288""
""blur"",""48"",""345089""
""focus"",""48"",""350160""
","""event"",""trial"",""time""
""blur"",""18"",""146260""
""blur"",""48"",""345089""
","""event"",""trial"",""time""
""focus"",""18"",""148288""
""focus"",""48"",""350160""
","""event"",""trial"",""time""
""fullscreenenter"",""5"",""25899""
","
","","","","","","","","","","","","","","","","","","","","","",""
"d3-instructions","56","425649","0.0-56.0","2995","4973","16","Female","false","false","true","false","""event"",""trial"",""time""
""fullscreenenter"",""5"",""25899""
""blur"",""18"",""146260""
""focus"",""18"",""148288""
""blur"",""48"",""345089""
""focus"",""48"",""350160""
","""event"",""trial"",""time""
""blur"",""18"",""146260""
""blur"",""48"",""345089""
","""event"",""trial"",""time""
""focus"",""18"",""148288""
""focus"",""48"",""350160""
","""event"",""trial"",""time""
""fullscreenenter"",""5"",""25899""
","
","","","","","","","","","","","","","","","","","","","","","",""
"d3-instructions","57","436004","0.0-57.0","2995","4973","16","Female","false","false","true","false","""event"",""trial"",""time""
""fullscreenenter"",""5"",""25899""
""blur"",""18"",""146260""
""focus"",""18"",""148288""
""blur"",""48"",""345089""
""focus"",""48"",""350160""
","""event"",""trial"",""time""
""blur"",""18"",""146260""
""blur"",""48"",""345089""
","""event"",""trial"",""time""
""focus"",""18"",""148288""
""focus"",""48"",""350160""
","""event"",""trial"",""time""
""fullscreenenter"",""5"",""25899""
","
","","","","","","","","","","","","","","","","","","","","","",""
"d3-instructions","58","446202","0.0-58.0","2995","4973","16","Female","false","false","true","false","""event"",""trial"",""time""
""fullscreenenter"",""5"",""25899""
""blur"",""18"",""146260""
""focus"",""18"",""148288""
""blur"",""48"",""345089""
""focus"",""48"",""350160""
","""event"",""trial"",""time""
""blur"",""18"",""146260""
""blur"",""48"",""345089""
","""event"",""trial"",""time""
""focus"",""18"",""148288""
""focus"",""48"",""350160""
","""event"",""trial"",""time""
""fullscreenenter"",""5"",""25899""
","
","","","","","","","","","","","","","","","","","","","","","",""
"d3-instructions","59","449380","0.0-59.0","2995","4973","16","Female","false","false","true","false","""event"",""trial"",""time""
""fullscreenenter"",""5"",""25899""
""blur"",""18"",""146260""
""focus"",""18"",""148288""
""blur"",""48"",""345089""
""focus"",""48"",""350160""
","""event"",""trial"",""time""
""blur"",""18"",""146260""
""blur"",""48"",""345089""
","""event"",""trial"",""time""
""focus"",""18"",""148288""
""focus"",""48"",""350160""
","""event"",""trial"",""time""
""fullscreenenter"",""5"",""25899""
","
","","","","","","","","","","","","","","","","","","","","","",""
"d3-instructions","60","451473","0.0-60.0","2995","4973","16","Female","false","false","true","false","""event"",""trial"",""time""
""fullscreenenter"",""5"",""25899""
""blur"",""18"",""146260""
""focus"",""18"",""148288""
""blur"",""48"",""345089""
""focus"",""48"",""350160""
","""event"",""trial"",""time""
""blur"",""18"",""146260""
""blur"",""48"",""345089""
","""event"",""trial"",""time""
""focus"",""18"",""148288""
""focus"",""48"",""350160""
","""event"",""trial"",""time""
""fullscreenenter"",""5"",""25899""
","
","","","","","","","","","","","","","","","","","","","","","",""
"d3-animate-choice","61","455159","0.0-61.0-0.0","2995","4973","16","Female","false","false","true","false","""event"",""trial"",""time""
""fullscreenenter"",""5"",""25899""
""blur"",""18"",""146260""
""focus"",""18"",""148288""
""blur"",""48"",""345089""
""focus"",""48"",""350160""
","""event"",""trial"",""time""
""blur"",""18"",""146260""
""blur"",""48"",""345089""
","""event"",""trial"",""time""
""focus"",""18"",""148288""
""focus"",""48"",""350160""
","""event"",""trial"",""time""
""fullscreenenter"",""5"",""25899""
","
","1680.7000000029802","","48","","","3000","1","","","images/earth.jpg","images/tutrocket1","images/tutrocket2","null","images/tutrocket1","","1","practice","null","2","","",""
"d3-animate-choice","62","457876","0.0-61.0-1.0","2995","4973","16","Female","false","false","true","false","""event"",""trial"",""time""
""fullscreenenter"",""5"",""25899""
""blur"",""18"",""146260""
""focus"",""18"",""148288""
""blur"",""48"",""345089""
""focus"",""48"",""350160""
","""event"",""trial"",""time""
""blur"",""18"",""146260""
""blur"",""48"",""345089""
","""event"",""trial"",""time""
""focus"",""18"",""148288""
""focus"",""48"",""350160""
","""event"",""trial"",""time""
""fullscreenenter"",""5"",""25899""
","
","712.9000000059605","","48","","","3000","1","","","images/tutgreenplanet.jpg","images/tutalien2","images/tutalien1","images/tutrocket1","images/tutalien2","images/nothing.png","2","practice","false","2","rare","0","2022-12-06 05:20:39.514"
"two-step-fixation","63","458880","0.0-61.0-2.0","2995","4973","16","Female","false","false","true","false","""event"",""trial"",""time""
""fullscreenenter"",""5"",""25899""
""blur"",""18"",""146260""
""focus"",""18"",""148288""
""blur"",""48"",""345089""
""focus"",""48"",""350160""
","""event"",""trial"",""time""
""blur"",""18"",""146260""
""blur"",""48"",""345089""
","""event"",""trial"",""time""
""focus"",""18"",""148288""
""focus"",""48"",""350160""
","""event"",""trial"",""time""
""fullscreenenter"",""5"",""25899""
","
","","images/earth.jpg","","","","","","","","","","","","","","fixation","","","","","",""
"d3-animate-choice","64","461382","0.0-61.0-0.1","2995","4973","16","Female","false","false","true","false","""event"",""trial"",""time""
""fullscreenenter"",""5"",""25899""
""blur"",""18"",""146260""
""focus"",""18"",""148288""
""blur"",""48"",""345089""
""focus"",""48"",""350160""
","""event"",""trial"",""time""
""blur"",""18"",""146260""
""blur"",""48"",""345089""
","""event"",""trial"",""time""
""focus"",""18"",""148288""
""focus"",""48"",""350160""
","""event"",""trial"",""time""
""fullscreenenter"",""5"",""25899""
","
","494.70000000298023","","49","","","3000","1","","","images/earth.jpg","images/tutrocket1","images/tutrocket2","null","images/tutrocket2","","1","practice","null","1","","",""
"d3-animate-choice","65","463866","0.0-61.0-1.1","2995","4973","16","Female","false","false","true","false","""event"",""trial"",""time""
""fullscreenenter"",""5"",""25899""
""blur"",""18"",""146260""
""focus"",""18"",""148288""
""blur"",""48"",""345089""
""focus"",""48"",""350160""
","""event"",""trial"",""time""
""blur"",""18"",""146260""
""blur"",""48"",""345089""
","""event"",""trial"",""time""
""focus"",""18"",""148288""
""focus"",""48"",""350160""
","""event"",""trial"",""time""
""fullscreenenter"",""5"",""25899""
","
","479.29999999701977","","49","","","3000","1","","","images/tutgreenplanet.jpg","images/tutalien2","images/tutalien1","images/tutrocket2","images/tutalien1","images/t.png","2","practice","true","1","common","1","2022-12-06 05:20:45.504"
"two-step-fixation","66","464871","0.0-61.0-2.1","2995","4973","16","Female","false","false","true","false","""event"",""trial"",""time""
""fullscreenenter"",""5"",""25899""
""blur"",""18"",""146260""
""focus"",""18"",""148288""
""blur"",""48"",""345089""
""focus"",""48"",""350160""
","""event"",""trial"",""time""
""blur"",""18"",""146260""
""blur"",""48"",""345089""
","""event"",""trial"",""time""
""focus"",""18"",""148288""
""focus"",""48"",""350160""
","""event"",""trial"",""time""
""fullscreenenter"",""5"",""25899""
","
","","images/earth.jpg","","","","","","","","","","","","","","fixation","","","","","",""
"d3-animate-choice","67","467163","0.0-61.0-0.2","2995","4973","16","Female","false","false","true","false","""event"",""trial"",""time""
""fullscreenenter"",""5"",""25899""
""blur"",""18"",""146260""
""focus"",""18"",""148288""
""blur"",""48"",""345089""
""focus"",""48"",""350160""
","""event"",""trial"",""time""
""blur"",""18"",""146260""
""blur"",""48"",""345089""
","""event"",""trial"",""time""
""focus"",""18"",""148288""
""focus"",""48"",""350160""
","""event"",""trial"",""time""
""fullscreenenter"",""5"",""25899""
","
","287.40000000596046","","49","","","3000","1","","","images/earth.jpg","images/tutrocket1","images/tutrocket2","null","images/tutrocket2","","1","practice","null","1","","",""
"d3-animate-choice","68","469514","0.0-61.0-1.2","2995","4973","16","Female","false","false","true","false","""event"",""trial"",""time""
""fullscreenenter"",""5"",""25899""
""blur"",""18"",""146260""
""focus"",""18"",""148288""
""blur"",""48"",""345089""
""focus"",""48"",""350160""
","""event"",""trial"",""time""
""blur"",""18"",""146260""
""blur"",""48"",""345089""
","""event"",""trial"",""time""
""focus"",""18"",""148288""
""focus"",""48"",""350160""
","""event"",""trial"",""time""
""fullscreenenter"",""5"",""25899""
","
","347.20000000298023","","49","","","3000","1","","","images/tutgreenplanet.jpg","images/tutalien2","images/tutalien1","images/tutrocket2","images/tutalien1","images/t.png","2","practice","true","1","common","1","2022-12-06 05:20:51.152"
"two-step-fixation","69","470518","0.0-61.0-2.2","2995","4973","16","Female","false","false","true","false","""event"",""trial"",""time""
""fullscreenenter"",""5"",""25899""
""blur"",""18"",""146260""
""focus"",""18"",""148288""
""blur"",""48"",""345089""
""focus"",""48"",""350160""
","""event"",""trial"",""time""
""blur"",""18"",""146260""
""blur"",""48"",""345089""
","""event"",""trial"",""time""
""focus"",""18"",""148288""
""focus"",""48"",""350160""
","""event"",""trial"",""time""
""fullscreenenter"",""5"",""25899""
","
","","images/earth.jpg","","","","","","","","","","","","","","fixation","","","","","",""
"d3-animate-choice","70","472654","0.0-61.0-0.3","2995","4973","16","Female","false","false","true","false","""event"",""trial"",""time""
""fullscreenenter"",""5"",""25899""
""blur"",""18"",""146260""
""focus"",""18"",""148288""
""blur"",""48"",""345089""
""focus"",""48"",""350160""
","""event"",""trial"",""time""
""blur"",""18"",""146260""
""blur"",""48"",""345089""
","""event"",""trial"",""time""
""focus"",""18"",""148288""
""focus"",""48"",""350160""
","""event"",""trial"",""time""
""fullscreenenter"",""5"",""25899""
","
","130.80000001192093","","48","","","3000","1","","","images/earth.jpg","images/tutrocket1","images/tutrocket2","null","images/tutrocket1","","1","practice","null","2","","",""
"d3-animate-choice","71","474968","0.0-61.0-1.3","2995","4973","16","Female","false","false","true","false","""event"",""trial"",""time""
""fullscreenenter"",""5"",""25899""
""blur"",""18"",""146260""
""focus"",""18"",""148288""
""blur"",""48"",""345089""
""focus"",""48"",""350160""
","""event"",""trial"",""time""
""blur"",""18"",""146260""
""blur"",""48"",""345089""
","""event"",""trial"",""time""
""focus"",""18"",""148288""
""focus"",""48"",""350160""
","""event"",""trial"",""time""
""fullscreenenter"",""5"",""25899""
","
","310.90000000596046","","49","","","3000","1","","","images/tutgreenplanet.jpg","images/tutalien2","images/tutalien1","images/tutrocket1","images/tutalien1","images/nothing.png","2","practice","false","1","rare","0","2022-12-06 05:20:56.606"
"two-step-fixation","72","475975","0.0-61.0-2.3","2995","4973","16","Female","false","false","true","false","""event"",""trial"",""time""
""fullscreenenter"",""5"",""25899""
""blur"",""18"",""146260""
""focus"",""18"",""148288""
""blur"",""48"",""345089""
""focus"",""48"",""350160""
","""event"",""trial"",""time""
""blur"",""18"",""146260""
""blur"",""48"",""345089""
","""event"",""trial"",""time""
""focus"",""18"",""148288""
""focus"",""48"",""350160""
","""event"",""trial"",""time""
""fullscreenenter"",""5"",""25899""
","
","","images/earth.jpg","","","","","","","","","","","","","","fixation","","","","","",""
"d3-animate-choice","73","478213","0.0-61.0-0.4","2995","4973","16","Female","false","false","true","false","""event"",""trial"",""time""
""fullscreenenter"",""5"",""25899""
""blur"",""18"",""146260""
""focus"",""18"",""148288""
""blur"",""48"",""345089""
""focus"",""48"",""350160""
","""event"",""trial"",""time""
""blur"",""18"",""146260""
""blur"",""48"",""345089""
","""event"",""trial"",""time""
""focus"",""18"",""148288""
""focus"",""48"",""350160""
","""event"",""trial"",""time""
""fullscreenenter"",""5"",""25899""
","
","234","","49","","","3000","1","","","images/earth.jpg","images/tutrocket1","images/tutrocket2","null","images/tutrocket2","","1","practice","null","1","","",""
"d3-animate-choice","74","480258","0.0-61.0-1.4","2995","4973","16","Female","false","false","true","false","""event"",""trial"",""time""
""fullscreenenter"",""5"",""25899""
""blur"",""18"",""146260""
""focus"",""18"",""148288""
""blur"",""48"",""345089""
""focus"",""48"",""350160""
","""event"",""trial"",""time""
""blur"",""18"",""146260""
""blur"",""48"",""345089""
","""event"",""trial"",""time""
""focus"",""18"",""148288""
""focus"",""48"",""350160""
","""event"",""trial"",""time""
""fullscreenenter"",""5"",""25899""
","
","43.29999999701977","","49","","","3000","1","229.90000000596046","49","images/tutgreenplanet.jpg","images/tutalien2","images/tutalien1","images/tutrocket2","images/tutalien1","images/nothing.png","2","practice","true","1","common","0","2022-12-06 05:21:01.896"
"two-step-fixation","75","481261","0.0-61.0-2.4","2995","4973","16","Female","false","false","true","false","""event"",""trial"",""time""
""fullscreenenter"",""5"",""25899""
""blur"",""18"",""146260""
""focus"",""18"",""148288""
""blur"",""48"",""345089""
""focus"",""48"",""350160""
","""event"",""trial"",""time""
""blur"",""18"",""146260""
""blur"",""48"",""345089""
","""event"",""trial"",""time""
""focus"",""18"",""148288""
""focus"",""48"",""350160""
","""event"",""trial"",""time""
""fullscreenenter"",""5"",""25899""
","
","","images/earth.jpg","","","","","","","","","","","","","","fixation","","","","","",""
"d3-animate-choice","76","483498","0.0-61.0-0.5","2995","4973","16","Female","false","false","true","false","""event"",""trial"",""time""
""fullscreenenter"",""5"",""25899""
""blur"",""18"",""146260""
""focus"",""18"",""148288""
""blur"",""48"",""345089""
""focus"",""48"",""350160""
","""event"",""trial"",""time""
""blur"",""18"",""146260""
""blur"",""48"",""345089""
","""event"",""trial"",""time""
""focus"",""18"",""148288""
""focus"",""48"",""350160""
","""event"",""trial"",""time""
""fullscreenenter"",""5"",""25899""
","
","231.19999998807907","","49","","","3000","1","","","images/earth.jpg","images/tutrocket1","images/tutrocket2","null","images/tutrocket2","","1","practice","null","1","","",""
"d3-animate-choice","77","485821","0.0-61.0-1.5","2995","4973","16","Female","false","false","true","false","""event"",""trial"",""time""
""fullscreenenter"",""5"",""25899""
""blur"",""18"",""146260""
""focus"",""18"",""148288""
""blur"",""48"",""345089""
""focus"",""48"",""350160""
","""event"",""trial"",""time""
""blur"",""18"",""146260""
""blur"",""48"",""345089""
","""event"",""trial"",""time""
""focus"",""18"",""148288""
""focus"",""48"",""350160""
","""event"",""trial"",""time""
""fullscreenenter"",""5"",""25899""
","
","317.29999999701977","","48","","","3000","1","","","images/tutgreenplanet.jpg","images/tutalien2","images/tutalien1","images/tutrocket2","images/tutalien2","images/nothing.png","2","practice","true","2","common","0","2022-12-06 05:21:07.459"
"two-step-fixation","78","486825","0.0-61.0-2.5","2995","4973","16","Female","false","false","true","false","""event"",""trial"",""time""
""fullscreenenter"",""5"",""25899""
""blur"",""18"",""146260""
""focus"",""18"",""148288""
""blur"",""48"",""345089""
""focus"",""48"",""350160""
","""event"",""trial"",""time""
""blur"",""18"",""146260""
""blur"",""48"",""345089""
","""event"",""trial"",""time""
""focus"",""18"",""148288""
""focus"",""48"",""350160""
","""event"",""trial"",""time""
""fullscreenenter"",""5"",""25899""
","
","","images/earth.jpg","","","","","","","","","","","","","","fixation","","","","","",""
"d3-animate-choice","79","488944","0.0-61.0-0.6","2995","4973","16","Female","false","false","true","false","""event"",""trial"",""time""
""fullscreenenter"",""5"",""25899""
""blur"",""18"",""146260""
""focus"",""18"",""148288""
""blur"",""48"",""345089""
""focus"",""48"",""350160""
","""event"",""trial"",""time""
""blur"",""18"",""146260""
""blur"",""48"",""345089""
","""event"",""trial"",""time""
""focus"",""18"",""148288""
""focus"",""48"",""350160""
","""event"",""trial"",""time""
""fullscreenenter"",""5"",""25899""
","
","114.1000000089407","","48","","","3000","1","314.70000000298023,1927.9000000059605","48,48","images/earth.jpg","images/tutrocket1","images/tutrocket2","null","images/tutrocket1","","1","practice","null","2","","",""
"d3-animate-choice","80","491028","0.0-61.0-1.6","2995","4973","16","Female","false","false","true","false","""event"",""trial"",""time""
""fullscreenenter"",""5"",""25899""
""blur"",""18"",""146260""
""focus"",""18"",""148288""
""blur"",""48"",""345089""
""focus"",""48"",""350160""
","""event"",""trial"",""time""
""blur"",""18"",""146260""
""blur"",""48"",""345089""
","""event"",""trial"",""time""
""focus"",""18"",""148288""
""focus"",""48"",""350160""
","""event"",""trial"",""time""
""fullscreenenter"",""5"",""25899""
","
","80.5","","48","","","3000","1","274.59999999403954","48","images/tutyellowplanet.jpg","images/tutalien4","images/tutalien3","images/tutrocket1","images/tutalien4","images/t.png","2","practice","true","2","common","1","2022-12-06 05:21:12.666"
"two-step-fixation","81","492030","0.0-61.0-2.6","2995","4973","16","Female","false","false","true","false","""event"",""trial"",""time""
""fullscreenenter"",""5"",""25899""
""blur"",""18"",""146260""
""focus"",""18"",""148288""
""blur"",""48"",""345089""
""focus"",""48"",""350160""
","""event"",""trial"",""time""
""blur"",""18"",""146260""
""blur"",""48"",""345089""
","""event"",""trial"",""time""
""focus"",""18"",""148288""
""focus"",""48"",""350160""
","""event"",""trial"",""time""
""fullscreenenter"",""5"",""25899""
","
","","images/earth.jpg","","","","","","","","","","","","","","fixation","","","","","",""
"d3-animate-choice","82","494051","0.0-61.0-0.7","2995","4973","16","Female","false","false","true","false","""event"",""trial"",""time""
""fullscreenenter"",""5"",""25899""
""blur"",""18"",""146260""
""focus"",""18"",""148288""
""blur"",""48"",""345089""
""focus"",""48"",""350160""
","""event"",""trial"",""time""
""blur"",""18"",""146260""
""blur"",""48"",""345089""
","""event"",""trial"",""time""
""focus"",""18"",""148288""
""focus"",""48"",""350160""
","""event"",""trial"",""time""
""fullscreenenter"",""5"",""25899""
","
","17.900000005960464","","48","","","3000","1","224.40000000596046,500.70000000298023,673.7000000029802,856.7000000029802,1042,1225.5,1398.4000000059605,1591.300000011921,1771.6000000089407,1969.6000000089407","48,48,48,48,48,48,48,48,48,48","images/earth.jpg","images/tutrocket1","images/tutrocket2","null","images/tutrocket1","","1","practice","null","2","","",""
"d3-animate-choice","83","496153","0.0-61.0-1.7","2995","4973","16","Female","false","false","true","false","""event"",""trial"",""time""
""fullscreenenter"",""5"",""25899""
""blur"",""18"",""146260""
""focus"",""18"",""148288""
""blur"",""48"",""345089""
""focus"",""48"",""350160""
","""event"",""trial"",""time""
""blur"",""18"",""146260""
""blur"",""48"",""345089""
","""event"",""trial"",""time""
""focus"",""18"",""148288""
""focus"",""48"",""350160""
","""event"",""trial"",""time""
""fullscreenenter"",""5"",""25899""
","
","98.40000000596046","","48","","","3000","1","261.20000000298023,2022.4000000059605","48,49","images/tutyellowplanet.jpg","images/tutalien4","images/tutalien3","images/tutrocket1","images/tutalien4","images/nothing.png","2","practice","true","2","common","0","2022-12-06 05:21:17.791"
"two-step-fixation","84","497156","0.0-61.0-2.7","2995","4973","16","Female","false","false","true","false","""event"",""trial"",""time""
""fullscreenenter"",""5"",""25899""
""blur"",""18"",""146260""
""focus"",""18"",""148288""
""blur"",""48"",""345089""
""focus"",""48"",""350160""
","""event"",""trial"",""time""
""blur"",""18"",""146260""
""blur"",""48"",""345089""
","""event"",""trial"",""time""
""focus"",""18"",""148288""
""focus"",""48"",""350160""
","""event"",""trial"",""time""
""fullscreenenter"",""5"",""25899""
","
","","images/earth.jpg","","","","","","","","","","","","","","fixation","","","","","",""
"d3-animate-choice","85","499398","0.0-61.0-0.8","2995","4973","16","Female","false","false","true","false","""event"",""trial"",""time""
""fullscreenenter"",""5"",""25899""
""blur"",""18"",""146260""
""focus"",""18"",""148288""
""blur"",""48"",""345089""
""focus"",""48"",""350160""
","""event"",""trial"",""time""
""blur"",""18"",""146260""
""blur"",""48"",""345089""
","""event"",""trial"",""time""
""focus"",""18"",""148288""
""focus"",""48"",""350160""
","""event"",""trial"",""time""
""fullscreenenter"",""5"",""25899""
","
","235.90000000596046","","49","","","3000","1","855.7999999970198,1161.5,1467.2999999970198,1685.2000000029802,1887.5,2094.9000000059605","49,49,49,49,49,49","images/earth.jpg","images/tutrocket1","images/tutrocket2","null","images/tutrocket2","","1","practice","null","1","","",""
"d3-animate-choice","86","501503","0.0-61.0-1.8","2995","4973","16","Female","false","false","true","false","""event"",""trial"",""time""
""fullscreenenter"",""5"",""25899""
""blur"",""18"",""146260""
""focus"",""18"",""148288""
""blur"",""48"",""345089""
""focus"",""48"",""350160""
","""event"",""trial"",""time""
""blur"",""18"",""146260""
""blur"",""48"",""345089""
","""event"",""trial"",""time""
""focus"",""18"",""148288""
""focus"",""48"",""350160""
","""event"",""trial"",""time""
""fullscreenenter"",""5"",""25899""
","
","102.40000000596046","","49","","","3000","1","375.80000001192093,578.3000000119209","49,49","images/tutgreenplanet.jpg","images/tutalien2","images/tutalien1","images/tutrocket2","images/tutalien1","images/nothing.png","2","practice","true","1","common","0","2022-12-06 05:21:23.141"
"two-step-fixation","87","502507","0.0-61.0-2.8","2995","4973","16","Female","false","false","true","false","""event"",""trial"",""time""
""fullscreenenter"",""5"",""25899""
""blur"",""18"",""146260""
""focus"",""18"",""148288""
""blur"",""48"",""345089""
""focus"",""48"",""350160""
","""event"",""trial"",""time""
""blur"",""18"",""146260""
""blur"",""48"",""345089""
","""event"",""trial"",""time""
""focus"",""18"",""148288""
""focus"",""48"",""350160""
","""event"",""trial"",""time""
""fullscreenenter"",""5"",""25899""
","
","","images/earth.jpg","","","","","","","","","","","","","","fixation","","","","","",""
"d3-animate-choice","88","504542","0.0-61.0-0.9","2995","4973","16","Female","false","false","true","false","""event"",""trial"",""time""
""fullscreenenter"",""5"",""25899""
""blur"",""18"",""146260""
""focus"",""18"",""148288""
""blur"",""48"",""345089""
""focus"",""48"",""350160""
","""event"",""trial"",""time""
""blur"",""18"",""146260""
""blur"",""48"",""345089""
","""event"",""trial"",""time""
""focus"",""18"",""148288""
""focus"",""48"",""350160""
","""event"",""trial"",""time""
""fullscreenenter"",""5"",""25899""
","
","31.5","","49","","","3000","1","257.3999999910593,1193.2999999970198,1397.199999988079,1564.8999999910593,1727.3999999910593,1885.8999999910593","49,48,48,48,48,48","images/earth.jpg","images/tutrocket1","images/tutrocket2","null","images/tutrocket2","","1","practice","null","1","","",""
"d3-animate-choice","89","506567","0.0-61.0-1.9","2995","4973","16","Female","false","false","true","false","""event"",""trial"",""time""
""fullscreenenter"",""5"",""25899""
""blur"",""18"",""146260""
""focus"",""18"",""148288""
""blur"",""48"",""345089""
""focus"",""48"",""350160""
","""event"",""trial"",""time""
""blur"",""18"",""146260""
""blur"",""48"",""345089""
","""event"",""trial"",""time""
""focus"",""18"",""148288""
""focus"",""48"",""350160""
","""event"",""trial"",""time""
""fullscreenenter"",""5"",""25899""
","
","22.799999997019768","","48","","","3000","1","190.70000000298023,372,529.5,718.4000000059605,890.6000000089407,1063.6000000089407,1230.2000000029802,1389,1577.5,1742.2000000029802,2002.5","48,48,48,48,48,48,48,48,48,49,49","images/tutyellowplanet.jpg","images/tutalien4","images/tutalien3","images/tutrocket2","images/tutalien4","images/t.png","2","practice","false","2","rare","1","2022-12-06 05:21:28.205"
"two-step-fixation","90","507571","0.0-61.0-2.9","2995","4973","16","Female","false","false","true","false","""event"",""trial"",""time""
""fullscreenenter"",""5"",""25899""
""blur"",""18"",""146260""
""focus"",""18"",""148288""
""blur"",""48"",""345089""
""focus"",""48"",""350160""
","""event"",""trial"",""time""
""blur"",""18"",""146260""
""blur"",""48"",""345089""
","""event"",""trial"",""time""
""focus"",""18"",""148288""
""focus"",""48"",""350160""
","""event"",""trial"",""time""
""fullscreenenter"",""5"",""25899""
","
","","images/earth.jpg","","","","","","","","","","","","","","fixation","","","","","",""
"d3-animate-choice","91","509678","0.0-61.0-0.10","2995","4973","16","Female","false","false","true","false","""event"",""trial"",""time""
""fullscreenenter"",""5"",""25899""
""blur"",""18"",""146260""
""focus"",""18"",""148288""
""blur"",""48"",""345089""
""focus"",""48"",""350160""
","""event"",""trial"",""time""
""blur"",""18"",""146260""
""blur"",""48"",""345089""
","""event"",""trial"",""time""
""focus"",""18"",""148288""
""focus"",""48"",""350160""
","""event"",""trial"",""time""
""fullscreenenter"",""5"",""25899""
","
","103.70000000298023","","49","","","3000","1","1910.5","48","images/earth.jpg","images/tutrocket1","images/tutrocket2","null","images/tutrocket2","","1","practice","null","1","","",""
"d3-animate-choice","92","511690","0.0-61.0-1.10","2995","4973","16","Female","false","false","true","false","""event"",""trial"",""time""
""fullscreenenter"",""5"",""25899""
""blur"",""18"",""146260""
""focus"",""18"",""148288""
""blur"",""48"",""345089""
""focus"",""48"",""350160""
","""event"",""trial"",""time""
""blur"",""18"",""146260""
""blur"",""48"",""345089""
","""event"",""trial"",""time""
""focus"",""18"",""148288""
""focus"",""48"",""350160""
","""event"",""trial"",""time""
""fullscreenenter"",""5"",""25899""
","
","9","","48","","","3000","1","232.8999999910593,366.29999999701977,576.6999999880791,1937.699999988079","48,48,48,48","images/tutgreenplanet.jpg","images/tutalien2","images/tutalien1","images/tutrocket2","images/tutalien2","images/nothing.png","2","practice","true","2","common","0","2022-12-06 05:21:33.328"
"two-step-fixation","93","512695","0.0-61.0-2.10","2995","4973","16","Female","false","false","true","false","""event"",""trial"",""time""
""fullscreenenter"",""5"",""25899""
""blur"",""18"",""146260""
""focus"",""18"",""148288""
""blur"",""48"",""345089""
""focus"",""48"",""350160""
","""event"",""trial"",""time""
""blur"",""18"",""146260""
""blur"",""48"",""345089""
","""event"",""trial"",""time""
""focus"",""18"",""148288""
""focus"",""48"",""350160""
","""event"",""trial"",""time""
""fullscreenenter"",""5"",""25899""
","
","","images/earth.jpg","","","","","","","","","","","","","","fixation","","","","","",""
"d3-animate-choice","94","514773","0.0-61.0-0.11","2995","4973","16","Female","false","false","true","false","""event"",""trial"",""time""
""fullscreenenter"",""5"",""25899""
""blur"",""18"",""146260""
""focus"",""18"",""148288""
""blur"",""48"",""345089""
""focus"",""48"",""350160""
","""event"",""trial"",""time""
""blur"",""18"",""146260""
""blur"",""48"",""345089""
","""event"",""trial"",""time""
""focus"",""18"",""148288""
""focus"",""48"",""350160""
","""event"",""trial"",""time""
""fullscreenenter"",""5"",""25899""
","
","71.29999999701977","","48","","","3000","1","250.5,1644.5,1891.2999999970198","48,49,49","images/earth.jpg","images/tutrocket1","images/tutrocket2","null","images/tutrocket1","","1","practice","null","2","","",""
"d3-animate-choice","95","516842","0.0-61.0-1.11","2995","4973","16","Female","false","false","true","false","""event"",""trial"",""time""
""fullscreenenter"",""5"",""25899""
""blur"",""18"",""146260""
""focus"",""18"",""148288""
""blur"",""48"",""345089""
""focus"",""48"",""350160""
","""event"",""trial"",""time""
""blur"",""18"",""146260""
""blur"",""48"",""345089""
","""event"",""trial"",""time""
""focus"",""18"",""148288""
""focus"",""48"",""350160""
","""event"",""trial"",""time""
""fullscreenenter"",""5"",""25899""
","
","65.90000000596046","","49","","","3000","1","272,584.7999999970198,1575.4000000059605,1961.4000000059605","49,49,48,48","images/tutyellowplanet.jpg","images/tutalien4","images/tutalien3","images/tutrocket1","images/tutalien3","images/t.png","2","practice","true","1","common","1","2022-12-06 05:21:38.480"
"two-step-fixation","96","517846","0.0-61.0-2.11","2995","4973","16","Female","false","false","true","false","""event"",""trial"",""time""
""fullscreenenter"",""5"",""25899""
""blur"",""18"",""146260""
""focus"",""18"",""148288""
""blur"",""48"",""345089""
""focus"",""48"",""350160""
","""event"",""trial"",""time""
""blur"",""18"",""146260""
""blur"",""48"",""345089""
","""event"",""trial"",""time""
""focus"",""18"",""148288""
""focus"",""48"",""350160""
","""event"",""trial"",""time""
""fullscreenenter"",""5"",""25899""
","
","","images/earth.jpg","","","","","","","","","","","","","","fixation","","","","","",""
"d3-animate-choice","97","519997","0.0-61.0-0.12","2995","4973","16","Female","false","false","true","false","""event"",""trial"",""time""
""fullscreenenter"",""5"",""25899""
""blur"",""18"",""146260""
""focus"",""18"",""148288""
""blur"",""48"",""345089""
""focus"",""48"",""350160""
","""event"",""trial"",""time""
""blur"",""18"",""146260""
""blur"",""48"",""345089""
","""event"",""trial"",""time""
""focus"",""18"",""148288""
""focus"",""48"",""350160""
","""event"",""trial"",""time""
""fullscreenenter"",""5"",""25899""
","
","145.40000000596046","","48","","","3000","1","341,564.5","48,48","images/earth.jpg","images/tutrocket1","images/tutrocket2","null","images/tutrocket1","","1","practice","null","2","","",""
"d3-animate-choice","98","522062","0.0-61.0-1.12","2995","4973","16","Female","false","false","true","false","""event"",""trial"",""time""
""fullscreenenter"",""5"",""25899""
""blur"",""18"",""146260""
""focus"",""18"",""148288""
""blur"",""48"",""345089""
""focus"",""48"",""350160""
","""event"",""trial"",""time""
""blur"",""18"",""146260""
""blur"",""48"",""345089""
","""event"",""trial"",""time""
""focus"",""18"",""148288""
""focus"",""48"",""350160""
","""event"",""trial"",""time""
""fullscreenenter"",""5"",""25899""
","
","62.1000000089407","","49","","","3000","1","285.30000001192093,617.2000000029802","49,49","images/tutyellowplanet.jpg","images/tutalien4","images/tutalien3","images/tutrocket1","images/tutalien3","images/nothing.png","2","practice","true","1","common","0","2022-12-06 05:21:43.700"
"two-step-fixation","99","523065","0.0-61.0-2.12","2995","4973","16","Female","false","false","true","false","""event"",""trial"",""time""
""fullscreenenter"",""5"",""25899""
""blur"",""18"",""146260""
""focus"",""18"",""148288""
""blur"",""48"",""345089""
""focus"",""48"",""350160""
","""event"",""trial"",""time""
""blur"",""18"",""146260""
""blur"",""48"",""345089""
","""event"",""trial"",""time""
""focus"",""18"",""148288""
""focus"",""48"",""350160""
","""event"",""trial"",""time""
""fullscreenenter"",""5"",""25899""
","
","","images/earth.jpg","","","","","","","","","","","","","","fixation","","","","","",""
"d3-animate-choice","100","525181","0.0-61.0-0.13","2995","4973","16","Female","false","false","true","false","""event"",""trial"",""time""
""fullscreenenter"",""5"",""25899""
""blur"",""18"",""146260""
""focus"",""18"",""148288""
""blur"",""48"",""345089""
""focus"",""48"",""350160""
","""event"",""trial"",""time""
""blur"",""18"",""146260""
""blur"",""48"",""345089""
","""event"",""trial"",""time""
""focus"",""18"",""148288""
""focus"",""48"",""350160""
","""event"",""trial"",""time""
""fullscreenenter"",""5"",""25899""
","
","112.70000000298023","","49","","","3000","1","330.5,680.7999999970198,917.7000000029802,1188.0999999940395,1371.9000000059605,1616.7999999970198,1911.7999999970198,2104.0999999940395","49,49,49,49,49,49,48,48","images/earth.jpg","images/tutrocket1","images/tutrocket2","null","images/tutrocket2","","1","practice","null","1","","",""
"d3-animate-choice","101","527377","0.0-61.0-1.13","2995","4973","16","Female","false","false","true","false","""event"",""trial"",""time""
""fullscreenenter"",""5"",""25899""
""blur"",""18"",""146260""
""focus"",""18"",""148288""
""blur"",""48"",""345089""
""focus"",""48"",""350160""
","""event"",""trial"",""time""
""blur"",""18"",""146260""
""blur"",""48"",""345089""
","""event"",""trial"",""time""
""focus"",""18"",""148288""
""focus"",""48"",""350160""
","""event"",""trial"",""time""
""fullscreenenter"",""5"",""25899""
","
","190.59999999403954","","48","","","3000","1","360.3999999910593,554.5999999940395,788.5","48,48,48","images/tutgreenplanet.jpg","images/tutalien2","images/tutalien1","images/tutrocket2","images/tutalien2","images/nothing.png","2","practice","true","2","common","0","2022-12-06 05:21:49.015"
"two-step-fixation","102","528381","0.0-61.0-2.13","2995","4973","16","Female","false","false","true","false","""event"",""trial"",""time""
""fullscreenenter"",""5"",""25899""
""blur"",""18"",""146260""
""focus"",""18"",""148288""
""blur"",""48"",""345089""
""focus"",""48"",""350160""
","""event"",""trial"",""time""
""blur"",""18"",""146260""
""blur"",""48"",""345089""
","""event"",""trial"",""time""
""focus"",""18"",""148288""
""focus"",""48"",""350160""
","""event"",""trial"",""time""
""fullscreenenter"",""5"",""25899""
","
","","images/earth.jpg","","","","","","","","","","","","","","fixation","","","","","",""
"d3-animate-choice","103","530628","0.0-61.0-0.14","2995","4973","16","Female","false","false","true","false","""event"",""trial"",""time""
""fullscreenenter"",""5"",""25899""
""blur"",""18"",""146260""
""focus"",""18"",""148288""
""blur"",""48"",""345089""
""focus"",""48"",""350160""
","""event"",""trial"",""time""
""blur"",""18"",""146260""
""blur"",""48"",""345089""
","""event"",""trial"",""time""
""focus"",""18"",""148288""
""focus"",""48"",""350160""
","""event"",""trial"",""time""
""fullscreenenter"",""5"",""25899""
","
","245.20000000298023","","49","","","3000","1","460,677.2000000029802,888.7000000029802,1098.7000000029802,1225.5,1423.7000000029802,1710.5999999940395,1855.5,2069.2999999970198,2175.2000000029802","49,49,49,49,49,49,49,49,49,49","images/earth.jpg","images/tutrocket1","images/tutrocket2","null","images/tutrocket2","","1","practice","null","1","","",""
"d3-animate-choice","104","532781","0.0-61.0-1.14","2995","4973","16","Female","false","false","true","false","""event"",""trial"",""time""
""fullscreenenter"",""5"",""25899""
""blur"",""18"",""146260""
""focus"",""18"",""148288""
""blur"",""48"",""345089""
""focus"",""48"",""350160""
","""event"",""trial"",""time""
""blur"",""18"",""146260""
""blur"",""48"",""345089""
","""event"",""trial"",""time""
""focus"",""18"",""148288""
""focus"",""48"",""350160""
","""event"",""trial"",""time""
""fullscreenenter"",""5"",""25899""
","
","150.09999999403954","","49","","","3000","1","348.19999998807907,603.0999999940395","49,49","images/tutgreenplanet.jpg","images/tutalien2","images/tutalien1","images/tutrocket2","images/tutalien1","images/t.png","2","practice","true","1","common","1","2022-12-06 05:21:54.419"
"two-step-fixation","105","533786","0.0-61.0-2.14","2995","4973","16","Female","false","false","true","false","""event"",""trial"",""time""
""fullscreenenter"",""5"",""25899""
""blur"",""18"",""146260""
""focus"",""18"",""148288""
""blur"",""48"",""345089""
""focus"",""48"",""350160""
","""event"",""trial"",""time""
""blur"",""18"",""146260""
""blur"",""48"",""345089""
","""event"",""trial"",""time""
""focus"",""18"",""148288""
""focus"",""48"",""350160""
","""event"",""trial"",""time""
""fullscreenenter"",""5"",""25899""
","
","","images/earth.jpg","","","","","","","","","","","","","","fixation","","","","","",""
"d3-animate-choice","106","535858","0.0-61.0-0.15","2995","4973","16","Female","false","false","true","false","""event"",""trial"",""time""
""fullscreenenter"",""5"",""25899""
""blur"",""18"",""146260""
""focus"",""18"",""148288""
""blur"",""48"",""345089""
""focus"",""48"",""350160""
","""event"",""trial"",""time""
""blur"",""18"",""146260""
""blur"",""48"",""345089""
","""event"",""trial"",""time""
""focus"",""18"",""148288""
""focus"",""48"",""350160""
","""event"",""trial"",""time""
""fullscreenenter"",""5"",""25899""
","
","68.90000000596046","","48","","","3000","1","270.30000001192093,1791.4000000059605","48,48","images/earth.jpg","images/tutrocket1","images/tutrocket2","null","images/tutrocket1","","1","practice","null","2","","",""
"d3-animate-choice","107","537936","0.0-61.0-1.15","2995","4973","16","Female","false","false","true","false","""event"",""trial"",""time""
""fullscreenenter"",""5"",""25899""
""blur"",""18"",""146260""
""focus"",""18"",""148288""
""blur"",""48"",""345089""
""focus"",""48"",""350160""
","""event"",""trial"",""time""
""blur"",""18"",""146260""
""blur"",""48"",""345089""
","""event"",""trial"",""time""
""focus"",""18"",""148288""
""focus"",""48"",""350160""
","""event"",""trial"",""time""
""fullscreenenter"",""5"",""25899""
","
","74.40000000596046","","48","","","3000","1","211.90000000596046","49","images/tutgreenplanet.jpg","images/tutalien2","images/tutalien1","images/tutrocket1","images/tutalien2","images/nothing.png","2","practice","false","2","rare","0","2022-12-06 05:21:59.574"
"two-step-fixation","108","538940","0.0-61.0-2.15","2995","4973","16","Female","false","false","true","false","""event"",""trial"",""time""
""fullscreenenter"",""5"",""25899""
""blur"",""18"",""146260""
""focus"",""18"",""148288""
""blur"",""48"",""345089""
""focus"",""48"",""350160""
","""event"",""trial"",""time""
""blur"",""18"",""146260""
""blur"",""48"",""345089""
","""event"",""trial"",""time""
""focus"",""18"",""148288""
""focus"",""48"",""350160""
","""event"",""trial"",""time""
""fullscreenenter"",""5"",""25899""
","
","","images/earth.jpg","","","","","","","","","","","","","","fixation","","","","","",""
"d3-animate-choice","109","541016","0.0-61.0-0.16","2995","4973","16","Female","false","false","true","false","""event"",""trial"",""time""
""fullscreenenter"",""5"",""25899""
""blur"",""18"",""146260""
""focus"",""18"",""148288""
""blur"",""48"",""345089""
""focus"",""48"",""350160""
","""event"",""trial"",""time""
""blur"",""18"",""146260""
""blur"",""48"",""345089""
","""event"",""trial"",""time""
""focus"",""18"",""148288""
""focus"",""48"",""350160""
","""event"",""trial"",""time""
""fullscreenenter"",""5"",""25899""
","
","73.20000000298023","","48","","","3000","1","236.20000000298023,1011","48,192","images/earth.jpg","images/tutrocket1","images/tutrocket2","null","images/tutrocket1","","1","practice","null","2","","",""
"d3-animate-choice","110","543344","0.0-61.0-1.16","2995","4973","16","Female","false","false","true","false","""event"",""trial"",""time""
""fullscreenenter"",""5"",""25899""
""blur"",""18"",""146260""
""focus"",""18"",""148288""
""blur"",""48"",""345089""
""focus"",""48"",""350160""
","""event"",""trial"",""time""
""blur"",""18"",""146260""
""blur"",""48"",""345089""
","""event"",""trial"",""time""
""focus"",""18"",""148288""
""focus"",""48"",""350160""
","""event"",""trial"",""time""
""fullscreenenter"",""5"",""25899""
","
","324.3999999910593","","49","","","3000","1","","","images/tutyellowplanet.jpg","images/tutalien4","images/tutalien3","images/tutrocket1","images/tutalien3","images/nothing.png","2","practice","true","1","common","0","2022-12-06 05:22:04.982"
"two-step-fixation","111","544347","0.0-61.0-2.16","2995","4973","16","Female","false","false","true","false","""event"",""trial"",""time""
""fullscreenenter"",""5"",""25899""
""blur"",""18"",""146260""
""focus"",""18"",""148288""
""blur"",""48"",""345089""
""focus"",""48"",""350160""
","""event"",""trial"",""time""
""blur"",""18"",""146260""
""blur"",""48"",""345089""
","""event"",""trial"",""time""
""focus"",""18"",""148288""
""focus"",""48"",""350160""
","""event"",""trial"",""time""
""fullscreenenter"",""5"",""25899""
","
","","images/earth.jpg","","","","","","","","","","","","","","fixation","","","","","",""
"d3-animate-choice","112","546665","0.0-61.0-0.17","2995","4973","16","Female","false","false","true","false","""event"",""trial"",""time""
""fullscreenenter"",""5"",""25899""
""blur"",""18"",""146260""
""focus"",""18"",""148288""
""blur"",""48"",""345089""
""focus"",""48"",""350160""
","""event"",""trial"",""time""
""blur"",""18"",""146260""
""blur"",""48"",""345089""
","""event"",""trial"",""time""
""focus"",""18"",""148288""
""focus"",""48"",""350160""
","""event"",""trial"",""time""
""fullscreenenter"",""5"",""25899""
","
","311.20000000298023","","49","","","3000","1","","","images/earth.jpg","images/tutrocket1","images/tutrocket2","null","images/tutrocket2","","1","practice","null","1","","",""
"d3-animate-choice","113","548947","0.0-61.0-1.17","2995","4973","16","Female","false","false","true","false","""event"",""trial"",""time""
""fullscreenenter"",""5"",""25899""
""blur"",""18"",""146260""
""focus"",""18"",""148288""
""blur"",""48"",""345089""
""focus"",""48"",""350160""
","""event"",""trial"",""time""
""blur"",""18"",""146260""
""blur"",""48"",""345089""
","""event"",""trial"",""time""
""focus"",""18"",""148288""
""focus"",""48"",""350160""
","""event"",""trial"",""time""
""fullscreenenter"",""5"",""25899""
","
","278.8999999910593","","49","","","3000","1","697.2999999970198","49","images/tutgreenplanet.jpg","images/tutalien2","images/tutalien1","images/tutrocket2","images/tutalien1","images/t.png","2","practice","true","1","common","1","2022-12-06 05:22:10.585"
"two-step-fixation","114","549950","0.0-61.0-2.17","2995","4973","16","Female","false","false","true","false","""event"",""trial"",""time""
""fullscreenenter"",""5"",""25899""
""blur"",""18"",""146260""
""focus"",""18"",""148288""
""blur"",""48"",""345089""
""focus"",""48"",""350160""
","""event"",""trial"",""time""
""blur"",""18"",""146260""
""blur"",""48"",""345089""
","""event"",""trial"",""time""
""focus"",""18"",""148288""
""focus"",""48"",""350160""
","""event"",""trial"",""time""
""fullscreenenter"",""5"",""25899""
","
","","images/earth.jpg","","","","","","","","","","","","","","fixation","","","","","",""
"d3-animate-choice","115","552279","0.0-61.0-0.18","2995","4973","16","Female","false","false","true","false","""event"",""trial"",""time""
""fullscreenenter"",""5"",""25899""
""blur"",""18"",""146260""
""focus"",""18"",""148288""
""blur"",""48"",""345089""
""focus"",""48"",""350160""
","""event"",""trial"",""time""
""blur"",""18"",""146260""
""blur"",""48"",""345089""
","""event"",""trial"",""time""
""focus"",""18"",""148288""
""focus"",""48"",""350160""
","""event"",""trial"",""time""
""fullscreenenter"",""5"",""25899""
","
","321.6000000089407","","48","","","3000","1","","","images/earth.jpg","images/tutrocket1","images/tutrocket2","null","images/tutrocket1","","1","practice","null","2","","",""
"d3-animate-choice","116","554553","0.0-61.0-1.18","2995","4973","16","Female","false","false","true","false","""event"",""trial"",""time""
""fullscreenenter"",""5"",""25899""
""blur"",""18"",""146260""
""focus"",""18"",""148288""
""blur"",""48"",""345089""
""focus"",""48"",""350160""
","""event"",""trial"",""time""
""blur"",""18"",""146260""
""blur"",""48"",""345089""
","""event"",""trial"",""time""
""focus"",""18"",""148288""
""focus"",""48"",""350160""
","""event"",""trial"",""time""
""fullscreenenter"",""5"",""25899""
","
","271.5","","48","","","3000","1","","","images/tutyellowplanet.jpg","images/tutalien4","images/tutalien3","images/tutrocket1","images/tutalien4","images/nothing.png","2","practice","true","2","common","0","2022-12-06 05:22:16.191"
"two-step-fixation","117","555556","0.0-61.0-2.18","2995","4973","16","Female","false","false","true","false","""event"",""trial"",""time""
""fullscreenenter"",""5"",""25899""
""blur"",""18"",""146260""
""focus"",""18"",""148288""
""blur"",""48"",""345089""
""focus"",""48"",""350160""
","""event"",""trial"",""time""
""blur"",""18"",""146260""
""blur"",""48"",""345089""
","""event"",""trial"",""time""
""focus"",""18"",""148288""
""focus"",""48"",""350160""
","""event"",""trial"",""time""
""fullscreenenter"",""5"",""25899""
","
","","images/earth.jpg","","","","","","","","","","","","","","fixation","","","","","",""
"d3-animate-choice","118","557625","0.0-61.0-0.19","2995","4973","16","Female","false","false","true","false","""event"",""trial"",""time""
""fullscreenenter"",""5"",""25899""
""blur"",""18"",""146260""
""focus"",""18"",""148288""
""blur"",""48"",""345089""
""focus"",""48"",""350160""
","""event"",""trial"",""time""
""blur"",""18"",""146260""
""blur"",""48"",""345089""
","""event"",""trial"",""time""
""focus"",""18"",""148288""
""focus"",""48"",""350160""
","""event"",""trial"",""time""
""fullscreenenter"",""5"",""25899""
","
","64.20000000298023","","49","","","3000","1","","","images/earth.jpg","images/tutrocket1","images/tutrocket2","null","images/tutrocket2","","1","practice","null","1","","",""
"d3-animate-choice","119","559879","0.0-61.0-1.19","2995","4973","16","Female","false","false","true","false","""event"",""trial"",""time""
""fullscreenenter"",""5"",""25899""
""blur"",""18"",""146260""
""focus"",""18"",""148288""
""blur"",""48"",""345089""
""focus"",""48"",""350160""
","""event"",""trial"",""time""
""blur"",""18"",""146260""
""blur"",""48"",""345089""
","""event"",""trial"",""time""
""focus"",""18"",""148288""
""focus"",""48"",""350160""
","""event"",""trial"",""time""
""fullscreenenter"",""5"",""25899""
","
","251.5","","49","","","3000","1","","","images/tutgreenplanet.jpg","images/tutalien2","images/tutalien1","images/tutrocket2","images/tutalien1","images/nothing.png","2","practice","true","1","common","0","2022-12-06 05:22:21.517"
"two-step-fixation","120","560882","0.0-61.0-2.19","2995","4973","16","Female","false","false","true","false","""event"",""trial"",""time""
""fullscreenenter"",""5"",""25899""
""blur"",""18"",""146260""
""focus"",""18"",""148288""
""blur"",""48"",""345089""
""focus"",""48"",""350160""
","""event"",""trial"",""time""
""blur"",""18"",""146260""
""blur"",""48"",""345089""
","""event"",""trial"",""time""
""focus"",""18"",""148288""
""focus"",""48"",""350160""
","""event"",""trial"",""time""
""fullscreenenter"",""5"",""25899""
","
","","images/earth.jpg","","","","","","","","","","","","","","fixation","","","","","",""
"d3-instructions","121","565032","0.0-62.0","2995","4973","16","Female","false","false","true","false","""event"",""trial"",""time""
""fullscreenenter"",""5"",""25899""
""blur"",""18"",""146260""
""focus"",""18"",""148288""
""blur"",""48"",""345089""
""focus"",""48"",""350160""
","""event"",""trial"",""time""
""blur"",""18"",""146260""
""blur"",""48"",""345089""
","""event"",""trial"",""time""
""focus"",""18"",""148288""
""focus"",""48"",""350160""
","""event"",""trial"",""time""
""fullscreenenter"",""5"",""25899""
","
","","","","","","","","","","","","","","","","","","","","","",""
"audio-keyboard-response","122","567961","0.0-63.0","2995","4973","16","Female","false","false","true","false","""event"",""trial"",""time""
""fullscreenenter"",""5"",""25899""
""blur"",""18"",""146260""
""focus"",""18"",""148288""
""blur"",""48"",""345089""
""focus"",""48"",""350160""
","""event"",""trial"",""time""
""blur"",""18"",""146260""
""blur"",""48"",""345089""
","""event"",""trial"",""time""
""focus"",""18"",""148288""
""focus"",""48"",""350160""
","""event"",""trial"",""time""
""fullscreenenter"",""5"",""25899""
","
","2926","audio/instructions/treasure_feedback.wav","32","","","","","","","","","","","","","","","","","","",""
"d3-instructions","123","574634","0.0-64.0","2995","4973","16","Female","false","false","true","false","""event"",""trial"",""time""
""fullscreenenter"",""5"",""25899""
""blur"",""18"",""146260""
""focus"",""18"",""148288""
""blur"",""48"",""345089""
""focus"",""48"",""350160""
""blur"",""124"",""712302""
""focus"",""124"",""838107""
","""event"",""trial"",""time""
""blur"",""18"",""146260""
""blur"",""48"",""345089""
""blur"",""124"",""712302""
","""event"",""trial"",""time""
""focus"",""18"",""148288""
""focus"",""48"",""350160""
""focus"",""124"",""838107""
","""event"",""trial"",""time""
""fullscreenenter"",""5"",""25899""
","
","","","","","","","","","","","","","","","","","","","","","",""
"d3-instructions","124","871195","0.0-65.0","2995","4973","16","Female","false","false","true","false","""event"",""trial"",""time""
""fullscreenenter"",""5"",""25899""
""blur"",""18"",""146260""
""focus"",""18"",""148288""
""blur"",""48"",""345089""
""focus"",""48"",""350160""
""blur"",""124"",""712302""
""focus"",""124"",""838107""
","""event"",""trial"",""time""
""blur"",""18"",""146260""
""blur"",""48"",""345089""
""blur"",""124"",""712302""
","""event"",""trial"",""time""
""focus"",""18"",""148288""
""focus"",""48"",""350160""
""focus"",""124"",""838107""
","""event"",""trial"",""time""
""fullscreenenter"",""5"",""25899""
","
","","","","","","","","","","","","","","","","","","","","","",""
"d3-instructions","125","1052194","0.0-66.0","2995","4973","16","Female","false","false","true","false","""event"",""trial"",""time""
""fullscreenenter"",""5"",""25899""
""blur"",""18"",""146260""
""focus"",""18"",""148288""
""blur"",""48"",""345089""
""focus"",""48"",""350160""
""blur"",""124"",""712302""
""focus"",""124"",""838107""
","""event"",""trial"",""time""
""blur"",""18"",""146260""
""blur"",""48"",""345089""
""blur"",""124"",""712302""
","""event"",""trial"",""time""
""focus"",""18"",""148288""
""focus"",""48"",""350160""
""focus"",""124"",""838107""
","""event"",""trial"",""time""
""fullscreenenter"",""5"",""25899""
","
","","","","","","","","","","","","","","","","","","","","","",""
"d3-instructions","126","1070124","0.0-67.0","2995","4973","16","Female","false","false","true","false","""event"",""trial"",""time""
""fullscreenenter"",""5"",""25899""
""blur"",""18"",""146260""
""focus"",""18"",""148288""
""blur"",""48"",""345089""
""focus"",""48"",""350160""
""blur"",""124"",""712302""
""focus"",""124"",""838107""
","""event"",""trial"",""time""
""blur"",""18"",""146260""
""blur"",""48"",""345089""
""blur"",""124"",""712302""
","""event"",""trial"",""time""
""focus"",""18"",""148288""
""focus"",""48"",""350160""
""focus"",""124"",""838107""
","""event"",""trial"",""time""
""fullscreenenter"",""5"",""25899""
","
","","","","","","","","","","","","","","","","","","","","","",""
"d3-instructions","127","1156520","0.0-68.0","2995","4973","16","Female","false","false","true","false","""event"",""trial"",""time""
""fullscreenenter"",""5"",""25899""
""blur"",""18"",""146260""
""focus"",""18"",""148288""
""blur"",""48"",""345089""
""focus"",""48"",""350160""
""blur"",""124"",""712302""
""focus"",""124"",""838107""
","""event"",""trial"",""time""
""blur"",""18"",""146260""
""blur"",""48"",""345089""
""blur"",""124"",""712302""
","""event"",""trial"",""time""
""focus"",""18"",""148288""
""focus"",""48"",""350160""
""focus"",""124"",""838107""
","""event"",""trial"",""time""
""fullscreenenter"",""5"",""25899""
","
","","","","","","","","","","","","","","","","","","","","","",""
"instructions-quiz","128","1160417","0.0-69.0","2995","4973","16","Female","false","false","true","false","""event"",""trial"",""time""
""fullscreenenter"",""5"",""25899""
""blur"",""18"",""146260""
""focus"",""18"",""148288""
""blur"",""48"",""345089""
""focus"",""48"",""350160""
""blur"",""124"",""712302""
""focus"",""124"",""838107""
","""event"",""trial"",""time""
""blur"",""18"",""146260""
""blur"",""48"",""345089""
""blur"",""124"",""712302""
","""event"",""trial"",""time""
""focus"",""18"",""148288""
""focus"",""48"",""350160""
""focus"",""124"",""838107""
","""event"",""trial"",""time""
""fullscreenenter"",""5"",""25899""
","
","3893.5999999940395","audio/quiz/Q1_Prompt.wav","","1","","","","","","","","","","","","","","","","","",""
"audio-keyboard-response","129","1161247","0.0-70.0","2995","4973","16","Female","false","false","true","false","""event"",""trial"",""time""
""fullscreenenter"",""5"",""25899""
""blur"",""18"",""146260""
""focus"",""18"",""148288""
""blur"",""48"",""345089""
""focus"",""48"",""350160""
""blur"",""124"",""712302""
""focus"",""124"",""838107""
","""event"",""trial"",""time""
""blur"",""18"",""146260""
""blur"",""48"",""345089""
""blur"",""124"",""712302""
","""event"",""trial"",""time""
""focus"",""18"",""148288""
""focus"",""48"",""350160""
""focus"",""124"",""838107""
","""event"",""trial"",""time""
""fullscreenenter"",""5"",""25899""
","
","830","audio/quiz/Q1_Correct.wav","32","","","","","","","","","","","","","","","","","","",""
"instructions-quiz","130","1175370","0.0-71.0","2995","4973","16","Female","false","false","true","false","""event"",""trial"",""time""
""fullscreenenter"",""5"",""25899""
""blur"",""18"",""146260""
""focus"",""18"",""148288""
""blur"",""48"",""345089""
""focus"",""48"",""350160""
""blur"",""124"",""712302""
""focus"",""124"",""838107""
","""event"",""trial"",""time""
""blur"",""18"",""146260""
""blur"",""48"",""345089""
""blur"",""124"",""712302""
","""event"",""trial"",""time""
""focus"",""18"",""148288""
""focus"",""48"",""350160""
""focus"",""124"",""838107""
","""event"",""trial"",""time""
""fullscreenenter"",""5"",""25899""
","
","14122.20000000298","audio/quiz/Q2_Prompt.wav","","1","","","","","","","","","","","","","","","","","",""
"audio-keyboard-response","131","1178879","0.0-72.0","2995","4973","16","Female","false","false","true","false","""event"",""trial"",""time""
""fullscreenenter"",""5"",""25899""
""blur"",""18"",""146260""
""focus"",""18"",""148288""
""blur"",""48"",""345089""
""focus"",""48"",""350160""
""blur"",""124"",""712302""
""focus"",""124"",""838107""
","""event"",""trial"",""time""
""blur"",""18"",""146260""
""blur"",""48"",""345089""
""blur"",""124"",""712302""
","""event"",""trial"",""time""
""focus"",""18"",""148288""
""focus"",""48"",""350160""
""focus"",""124"",""838107""
","""event"",""trial"",""time""
""fullscreenenter"",""5"",""25899""
","
","3506","audio/quiz/Q2_Incorrect.wav","32","","","","","","","","","","","","","","","","","","",""
"instructions-quiz","132","1190311","0.0-73.0","2995","4973","16","Female","false","false","true","false","""event"",""trial"",""time""
""fullscreenenter"",""5"",""25899""
""blur"",""18"",""146260""
""focus"",""18"",""148288""
""blur"",""48"",""345089""
""focus"",""48"",""350160""
""blur"",""124"",""712302""
""focus"",""124"",""838107""
","""event"",""trial"",""time""
""blur"",""18"",""146260""
""blur"",""48"",""345089""
""blur"",""124"",""712302""
","""event"",""trial"",""time""
""focus"",""18"",""148288""
""focus"",""48"",""350160""
""focus"",""124"",""838107""
","""event"",""trial"",""time""
""fullscreenenter"",""5"",""25899""
","
","11430.800000011921","audio/quiz/Q3_Prompt.wav","","1","","","","","","","","","","","","","","","","","",""
"audio-keyboard-response","133","1191490","0.0-74.0","2995","4973","16","Female","false","false","true","false","""event"",""trial"",""time""
""fullscreenenter"",""5"",""25899""
""blur"",""18"",""146260""
""focus"",""18"",""148288""
""blur"",""48"",""345089""
""focus"",""48"",""350160""
""blur"",""124"",""712302""
""focus"",""124"",""838107""
","""event"",""trial"",""time""
""blur"",""18"",""146260""
""blur"",""48"",""345089""
""blur"",""124"",""712302""
","""event"",""trial"",""time""
""focus"",""18"",""148288""
""focus"",""48"",""350160""
""focus"",""124"",""838107""
","""event"",""trial"",""time""
""fullscreenenter"",""5"",""25899""
","
","1178","audio/quiz/Q3_Correct.wav","77","","","","","","","","","","","","","","","","","","",""
"d3-instructions","134","1194010","0.0-75.0","2995","4973","16","Female","false","false","true","false","""event"",""trial"",""time""
""fullscreenenter"",""5"",""25899""
""blur"",""18"",""146260""
""focus"",""18"",""148288""
""blur"",""48"",""345089""
""focus"",""48"",""350160""
""blur"",""124"",""712302""
""focus"",""124"",""838107""
","""event"",""trial"",""time""
""blur"",""18"",""146260""
""blur"",""48"",""345089""
""blur"",""124"",""712302""
","""event"",""trial"",""time""
""focus"",""18"",""148288""
""focus"",""48"",""350160""
""focus"",""124"",""838107""
","""event"",""trial"",""time""
""fullscreenenter"",""5"",""25899""
","
","","","","","","","","","","","","","","","","","","","","","",""
"d3-animate-choice","135","1197355","0.0-76.0-0.0","2995","4973","16","Female","false","false","true","false","""event"",""trial"",""time""
""fullscreenenter"",""5"",""25899""
""blur"",""18"",""146260""
""focus"",""18"",""148288""
""blur"",""48"",""345089""
""focus"",""48"",""350160""
""blur"",""124"",""712302""
""focus"",""124"",""838107""
","""event"",""trial"",""time""
""blur"",""18"",""146260""
""blur"",""48"",""345089""
""blur"",""124"",""712302""
","""event"",""trial"",""time""
""focus"",""18"",""148288""
""focus"",""48"",""350160""
""focus"",""124"",""838107""
","""event"",""trial"",""time""
""fullscreenenter"",""5"",""25899""
","
","1339.4000000059605","","49","","","3000","1","","","images/earth.jpg","images/rocket1","images/rocket2","null","images/rocket2","","1","real","null","1","","",""
"d3-animate-choice","136","1199754","0.0-76.0-1.0","2995","4973","16","Female","false","false","true","false","""event"",""trial"",""time""
""fullscreenenter"",""5"",""25899""
""blur"",""18"",""146260""
""focus"",""18"",""148288""
""blur"",""48"",""345089""
""focus"",""48"",""350160""
""blur"",""124"",""712302""
""focus"",""124"",""838107""
","""event"",""trial"",""time""
""blur"",""18"",""146260""
""blur"",""48"",""345089""
""blur"",""124"",""712302""
","""event"",""trial"",""time""
""focus"",""18"",""148288""
""focus"",""48"",""350160""
""focus"",""124"",""838107""
","""event"",""trial"",""time""
""fullscreenenter"",""5"",""25899""
","
","396.29999999701977","","49","","","3000","1","","","images/redplanet1.jpg","images/alien2","images/alien1","images/rocket2","images/alien1","images/t.png","2","real","true","1","common","1","2022-12-06 05:33:01.392"
"two-step-fixation","137","1200758","0.0-76.0-2.0","2995","4973","16","Female","false","false","true","false","""event"",""trial"",""time""
""fullscreenenter"",""5"",""25899""
""blur"",""18"",""146260""
""focus"",""18"",""148288""
""blur"",""48"",""345089""
""focus"",""48"",""350160""
""blur"",""124"",""712302""
""focus"",""124"",""838107""
","""event"",""trial"",""time""
""blur"",""18"",""146260""
""blur"",""48"",""345089""
""blur"",""124"",""712302""
","""event"",""trial"",""time""
""focus"",""18"",""148288""
""focus"",""48"",""350160""
""focus"",""124"",""838107""
","""event"",""trial"",""time""
""fullscreenenter"",""5"",""25899""
","
","","images/earth.jpg","","","","","","","","","","","","","","fixation","","","","","",""
"d3-animate-choice","138","1202852","0.0-76.0-0.1","2995","4973","16","Female","false","false","true","false","""event"",""trial"",""time""
""fullscreenenter"",""5"",""25899""
""blur"",""18"",""146260""
""focus"",""18"",""148288""
""blur"",""48"",""345089""
""focus"",""48"",""350160""
""blur"",""124"",""712302""
""focus"",""124"",""838107""
","""event"",""trial"",""time""
""blur"",""18"",""146260""
""blur"",""48"",""345089""
""blur"",""124"",""712302""
","""event"",""trial"",""time""
""focus"",""18"",""148288""
""focus"",""48"",""350160""
""focus"",""124"",""838107""
","""event"",""trial"",""time""
""fullscreenenter"",""5"",""25899""
","
","89.29999999701977","","48","","","3000","1","256,1360.0999999940395,1580.5999999940395,1805.2000000029802,1994.5","48,49,49,49,49","images/earth.jpg","images/rocket1","images/rocket2","null","images/rocket1","","1","real","null","2","","",""
"d3-animate-choice","139","1204918","0.0-76.0-1.1","2995","4973","16","Female","false","false","true","false","""event"",""trial"",""time""
""fullscreenenter"",""5"",""25899""
""blur"",""18"",""146260""
""focus"",""18"",""148288""
""blur"",""48"",""345089""
""focus"",""48"",""350160""
""blur"",""124"",""712302""
""focus"",""124"",""838107""
","""event"",""trial"",""time""
""blur"",""18"",""146260""
""blur"",""48"",""345089""
""blur"",""124"",""712302""
","""event"",""trial"",""time""
""focus"",""18"",""148288""
""focus"",""48"",""350160""
""focus"",""124"",""838107""
","""event"",""trial"",""time""
""fullscreenenter"",""5"",""25899""
","
","63.70000000298023","","49","","","3000","1","456","48","images/purpleplanet.jpg","images/alien4","images/alien3","images/rocket1","images/alien3","images/t.png","2","real","true","1","common","1","2022-12-06 05:33:06.556"
"two-step-fixation","140","1205921","0.0-76.0-2.1","2995","4973","16","Female","false","false","true","false","""event"",""trial"",""time""
""fullscreenenter"",""5"",""25899""
""blur"",""18"",""146260""
""focus"",""18"",""148288""
""blur"",""48"",""345089""
""focus"",""48"",""350160""
""blur"",""124"",""712302""
""focus"",""124"",""838107""
","""event"",""trial"",""time""
""blur"",""18"",""146260""
""blur"",""48"",""345089""
""blur"",""124"",""712302""
","""event"",""trial"",""time""
""focus"",""18"",""148288""
""focus"",""48"",""350160""
""focus"",""124"",""838107""
","""event"",""trial"",""time""
""fullscreenenter"",""5"",""25899""
","
","","images/earth.jpg","","","","","","","","","","","","","","fixation","","","","","",""
"d3-animate-choice","141","1207971","0.0-76.0-0.2","2995","4973","16","Female","false","false","true","false","""event"",""trial"",""time""
""fullscreenenter"",""5"",""25899""
""blur"",""18"",""146260""
""focus"",""18"",""148288""
""blur"",""48"",""345089""
""focus"",""48"",""350160""
""blur"",""124"",""712302""
""focus"",""124"",""838107""
","""event"",""trial"",""time""
""blur"",""18"",""146260""
""blur"",""48"",""345089""
""blur"",""124"",""712302""
","""event"",""trial"",""time""
""focus"",""18"",""148288""
""focus"",""48"",""350160""
""focus"",""124"",""838107""
","""event"",""trial"",""time""
""fullscreenenter"",""5"",""25899""
","
","47.400000005960464","","49","","","3000","1","1189.2999999970198,1414,1814.7000000029802,2023.2000000029802","49,49,49,49","images/earth.jpg","images/rocket1","images/rocket2","null","images/rocket2","","1","real","null","1","","",""
"d3-animate-choice","142","1210115","0.0-76.0-1.2","2995","4973","16","Female","false","false","true","false","""event"",""trial"",""time""
""fullscreenenter"",""5"",""25899""
""blur"",""18"",""146260""
""focus"",""18"",""148288""
""blur"",""48"",""345089""
""focus"",""48"",""350160""
""blur"",""124"",""712302""
""focus"",""124"",""838107""
","""event"",""trial"",""time""
""blur"",""18"",""146260""
""blur"",""48"",""345089""
""blur"",""124"",""712302""
","""event"",""trial"",""time""
""focus"",""18"",""148288""
""focus"",""48"",""350160""
""focus"",""124"",""838107""
","""event"",""trial"",""time""
""fullscreenenter"",""5"",""25899""
","
","140.19999998807907","","49","","","3000","1","259.79999999701977,2131.7999999970198","49,49","images/purpleplanet.jpg","images/alien4","images/alien3","images/rocket2","images/alien3","images/t.png","2","real","false","1","rare","1","2022-12-06 05:33:11.753"
"two-step-fixation","143","1211118","0.0-76.0-2.2","2995","4973","16","Female","false","false","true","false","""event"",""trial"",""time""
""fullscreenenter"",""5"",""25899""
""blur"",""18"",""146260""
""focus"",""18"",""148288""
""blur"",""48"",""345089""
""focus"",""48"",""350160""
""blur"",""124"",""712302""
""focus"",""124"",""838107""
","""event"",""trial"",""time""
""blur"",""18"",""146260""
""blur"",""48"",""345089""
""blur"",""124"",""712302""
","""event"",""trial"",""time""
""focus"",""18"",""148288""
""focus"",""48"",""350160""
""focus"",""124"",""838107""
","""event"",""trial"",""time""
""fullscreenenter"",""5"",""25899""
","
","","images/earth.jpg","","","","","","","","","","","","","","fixation","","","","","",""
"d3-animate-choice","144","1213168","0.0-76.0-0.3","2995","4973","16","Female","false","false","true","false","""event"",""trial"",""time""
""fullscreenenter"",""5"",""25899""
""blur"",""18"",""146260""
""focus"",""18"",""148288""
""blur"",""48"",""345089""
""focus"",""48"",""350160""
""blur"",""124"",""712302""
""focus"",""124"",""838107""
","""event"",""trial"",""time""
""blur"",""18"",""146260""
""blur"",""48"",""345089""
""blur"",""124"",""712302""
","""event"",""trial"",""time""
""focus"",""18"",""148288""
""focus"",""48"",""350160""
""focus"",""124"",""838107""
","""event"",""trial"",""time""
""fullscreenenter"",""5"",""25899""
","
","46.20000000298023","","48","","","3000","1","233,420.90000000596046,628.7999999970198,940.5,1126.7000000029802,1707.5,1940,2013.9000000059605","48,48,48,48,48,49,49,49","images/earth.jpg","images/rocket1","images/rocket2","null","images/rocket1","","1","real","null","2","","",""
"d3-animate-choice","145","1215417","0.0-76.0-1.3","2995","4973","16","Female","false","false","true","false","""event"",""trial"",""time""
""fullscreenenter"",""5"",""25899""
""blur"",""18"",""146260""
""focus"",""18"",""148288""
""blur"",""48"",""345089""
""focus"",""48"",""350160""
""blur"",""124"",""712302""
""focus"",""124"",""838107""
","""event"",""trial"",""time""
""blur"",""18"",""146260""
""blur"",""48"",""345089""
""blur"",""124"",""712302""
","""event"",""trial"",""time""
""focus"",""18"",""148288""
""focus"",""48"",""350160""
""focus"",""124"",""838107""
","""event"",""trial"",""time""
""fullscreenenter"",""5"",""25899""
","
","245.09999999403954","","49","","","3000","1","422.09999999403954","49","images/redplanet1.jpg","images/alien2","images/alien1","images/rocket1","images/alien1","images/nothing.png","2","real","false","1","rare","0","2022-12-06 05:33:17.055"
"two-step-fixation","146","1216420","0.0-76.0-2.3","2995","4973","16","Female","false","false","true","false","""event"",""trial"",""time""
""fullscreenenter"",""5"",""25899""
""blur"",""18"",""146260""
""focus"",""18"",""148288""
""blur"",""48"",""345089""
""focus"",""48"",""350160""
""blur"",""124"",""712302""
""focus"",""124"",""838107""
","""event"",""trial"",""time""
""blur"",""18"",""146260""
""blur"",""48"",""345089""
""blur"",""124"",""712302""
","""event"",""trial"",""time""
""focus"",""18"",""148288""
""focus"",""48"",""350160""
""focus"",""124"",""838107""
","""event"",""trial"",""time""
""fullscreenenter"",""5"",""25899""
","
","","images/earth.jpg","","","","","","","","","","","","","","fixation","","","","","",""
"d3-animate-choice","147","1218495","0.0-76.0-0.4","2995","4973","16","Female","false","false","true","false","""event"",""trial"",""time""
""fullscreenenter"",""5"",""25899""
""blur"",""18"",""146260""
""focus"",""18"",""148288""
""blur"",""48"",""345089""
""focus"",""48"",""350160""
""blur"",""124"",""712302""
""focus"",""124"",""838107""
","""event"",""trial"",""time""
""blur"",""18"",""146260""
""blur"",""48"",""345089""
""blur"",""124"",""712302""
","""event"",""trial"",""time""
""focus"",""18"",""148288""
""focus"",""48"",""350160""
""focus"",""124"",""838107""
","""event"",""trial"",""time""
""fullscreenenter"",""5"",""25899""
","
","71.79999999701977","","49","","","3000","1","221.59999999403954,1115.699999988079,1331.7999999970198,1474.0999999940395,1685.699999988079,1874","49,49,49,49,49,49","images/earth.jpg","images/rocket1","images/rocket2","null","images/rocket2","","1","real","null","1","","",""
"d3-animate-choice","148","1220553","0.0-76.0-1.4","2995","4973","16","Female","false","false","true","false","""event"",""trial"",""time""
""fullscreenenter"",""5"",""25899""
""blur"",""18"",""146260""
""focus"",""18"",""148288""
""blur"",""48"",""345089""
""focus"",""48"",""350160""
""blur"",""124"",""712302""
""focus"",""124"",""838107""
","""event"",""trial"",""time""
""blur"",""18"",""146260""
""blur"",""48"",""345089""
""blur"",""124"",""712302""
","""event"",""trial"",""time""
""focus"",""18"",""148288""
""focus"",""48"",""350160""
""focus"",""124"",""838107""
","""event"",""trial"",""time""
""fullscreenenter"",""5"",""25899""
","
","54","","49","","","3000","1","208.5,404.5,1271.9000000059605,1483.6000000089407,1657.7000000029802,1780.2000000029802,2055.6000000089407","49,49,48,48,48,48,48","images/redplanet1.jpg","images/alien2","images/alien1","images/rocket2","images/alien1","images/t.png","2","real","true","1","common","1","2022-12-06 05:33:22.191"
"two-step-fixation","149","1221558","0.0-76.0-2.4","2995","4973","16","Female","false","false","true","false","""event"",""trial"",""time""
""fullscreenenter"",""5"",""25899""
""blur"",""18"",""146260""
""focus"",""18"",""148288""
""blur"",""48"",""345089""
""focus"",""48"",""350160""
""blur"",""124"",""712302""
""focus"",""124"",""838107""
","""event"",""trial"",""time""
""blur"",""18"",""146260""
""blur"",""48"",""345089""
""blur"",""124"",""712302""
","""event"",""trial"",""time""
""focus"",""18"",""148288""
""focus"",""48"",""350160""
""focus"",""124"",""838107""
","""event"",""trial"",""time""
""fullscreenenter"",""5"",""25899""
","
","","images/earth.jpg","","","","","","","","","","","","","","fixation","","","","","",""
"d3-animate-choice","150","1223695","0.0-76.0-0.5","2995","4973","16","Female","false","false","true","false","""event"",""trial"",""time""
