"trial_type","trial_index","time_elapsed","internal_node_id","participant_id","subject_id","age","gender","rocket_sides","red_planet_first_rocket","red_display_order","purple_display_order","interactions","blur_events","focus_events","fullscreenenter_events","fullscreenexit_events","rt","stimulus","key_press","button_pressed","success","duration","valid_pressed","rts","keys","planet_text","right_text","left_text","center_text","chosen_text","reward_text","trial_stage","practice_trial","transition_type","choice","transition","reward","timestamp"
"pavlovia","0","3","0.0-0.0","284","5729","12","Male","true","false","false","true","""event"",""trial"",""time""
""focus"",""0"",""0""
","
","""event"",""trial"",""time""
""focus"",""0"",""0""
","
","
","","","","","","","","","","","","","","","","","","","","","",""
"html-keyboard-response","1","3692","0.0-1.0","284","5729","12","Male","true","false","false","true","""event"",""trial"",""time""
""focus"",""0"",""0""
","
","""event"",""trial"",""time""
""focus"",""0"",""0""
","
","
","3687.7000000476837","Welcome! Press the space bar to begin.","32","","","","","","","","","","","","","","","","","","",""
"audio-keyboard-response","2","10774","0.0-2.0","284","5729","12","Male","true","false","false","true","""event"",""trial"",""time""
""focus"",""0"",""0""
","
","""event"",""trial"",""time""
""focus"",""0"",""0""
","
","
","6611","audio/beep_loop.wav","175","","","","","","","","","","","","","","","","","","",""
"audio-button-response","3","17387","0.0-3.0","284","5729","12","Male","true","false","false","true","""event"",""trial"",""time""
""focus"",""0"",""0""
","
","""event"",""trial"",""time""
""focus"",""0"",""0""
","
","
","NaN","audio/fish.mp3","","1","","","","","","","","","","","","","","","","","",""
"audio-button-response","4","20193","0.0-4.0","284","5729","12","Male","true","false","false","true","""event"",""trial"",""time""
""focus"",""0"",""0""
""fullscreenenter"",""5"",""24511""
","
","""event"",""trial"",""time""
""focus"",""0"",""0""
","""event"",""trial"",""time""
""fullscreenenter"",""5"",""24511""
","
","NaN","audio/tiger.mp3","","4","","","","","","","","","","","","","","","","","",""
"fullscreen","5","25477","0.0-5.0","284","5729","12","Male","true","false","false","true","""event"",""trial"",""time""
""focus"",""0"",""0""
""fullscreenenter"",""5"",""24511""
","
","""event"",""trial"",""time""
""focus"",""0"",""0""
","""event"",""trial"",""time""
""fullscreenenter"",""5"",""24511""
","
","","","","","true","","","","","","","","","","","","","","","","",""
"d3-instructions","6","34597","0.0-6.0","284","5729","12","Male","true","false","false","true","""event"",""trial"",""time""
""focus"",""0"",""0""
""fullscreenenter"",""5"",""24511""
","
","""event"",""trial"",""time""
""focus"",""0"",""0""
","""event"",""trial"",""time""
""fullscreenenter"",""5"",""24511""
","
","","","","","","","","","","","","","","","","","","","","","",""
"d3-instructions","7","41969","0.0-7.0","284","5729","12","Male","true","false","false","true","""event"",""trial"",""time""
""focus"",""0"",""0""
""fullscreenenter"",""5"",""24511""
","
","""event"",""trial"",""time""
""focus"",""0"",""0""
","""event"",""trial"",""time""
""fullscreenenter"",""5"",""24511""
","
","","","","","","","","","","","","","","","","","","","","","",""
"d3-instructions","8","49311","0.0-8.0","284","5729","12","Male","true","false","false","true","""event"",""trial"",""time""
""focus"",""0"",""0""
""fullscreenenter"",""5"",""24511""
","
","""event"",""trial"",""time""
""focus"",""0"",""0""
","""event"",""trial"",""time""
""fullscreenenter"",""5"",""24511""
","
","","","","","","","","","","","","","","","","","","","","","",""
"d3-instructions","9","62963","0.0-9.0","284","5729","12","Male","true","false","false","true","""event"",""trial"",""time""
""focus"",""0"",""0""
""fullscreenenter"",""5"",""24511""
","
","""event"",""trial"",""time""
""focus"",""0"",""0""
","""event"",""trial"",""time""
""fullscreenenter"",""5"",""24511""
","
","","","","","","","","","","","","","","","","","","","","","",""
"d3-instructions","10","80907","0.0-10.0","284","5729","12","Male","true","false","false","true","""event"",""trial"",""time""
""focus"",""0"",""0""
""fullscreenenter"",""5"",""24511""
","
","""event"",""trial"",""time""
""focus"",""0"",""0""
","""event"",""trial"",""time""
""fullscreenenter"",""5"",""24511""
","
","","","","","","","","","","","","","","","","","","","","","",""
"d3-animate-choice","11","86307","0.0-11.0","284","5729","12","Male","true","false","false","true","""event"",""trial"",""time""
""focus"",""0"",""0""
""fullscreenenter"",""5"",""24511""
","
","""event"",""trial"",""time""
""focus"",""0"",""0""
","""event"",""trial"",""time""
""fullscreenenter"",""5"",""24511""
","
","3372.2000000476837","","49","","","3000","1","","","images/tutgreenplanet.jpg","images/tutalien1","images/tutalien2","null","images/tutalien2","","NA","practice","null","","","",""
"d3-animate-choice","12","89811","0.0-12.0","284","5729","12","Male","true","false","false","true","""event"",""trial"",""time""
""focus"",""0"",""0""
""fullscreenenter"",""5"",""24511""
","
","""event"",""trial"",""time""
""focus"",""0"",""0""
","""event"",""trial"",""time""
""fullscreenenter"",""5"",""24511""
","
","1484.1000001430511","","48","","","3000","1","","","images/tutgreenplanet.jpg","images/tutalien1","images/tutalien2","null","images/tutalien1","","NA","practice","null","","","",""
"d3-animate-choice","13","92663","0.0-13.0","284","5729","12","Male","true","false","false","true","""event"",""trial"",""time""
""focus"",""0"",""0""
""fullscreenenter"",""5"",""24511""
","
","""event"",""trial"",""time""
""focus"",""0"",""0""
","""event"",""trial"",""time""
""fullscreenenter"",""5"",""24511""
","
","826","","49","","","3000","1","","","images/tutgreenplanet.jpg","images/tutalien1","images/tutalien2","null","images/tutalien2","","NA","practice","null","","","",""
"d3-animate-choice","14","95260","0.0-14.0","284","5729","12","Male","true","false","false","true","""event"",""trial"",""time""
""focus"",""0"",""0""
""fullscreenenter"",""5"",""24511""
","
","""event"",""trial"",""time""
""focus"",""0"",""0""
","""event"",""trial"",""time""
""fullscreenenter"",""5"",""24511""
","
","583.7000000476837","","48","","","3000","1","1703.6000001430511","48","images/tutgreenplanet.jpg","images/tutalien1","images/tutalien2","null","images/tutalien1","","NA","practice","null","","","",""
"d3-instructions","15","100631","0.0-15.0","284","5729","12","Male","true","false","false","true","""event"",""trial"",""time""
""focus"",""0"",""0""
""fullscreenenter"",""5"",""24511""
","
","""event"",""trial"",""time""
""focus"",""0"",""0""
","""event"",""trial"",""time""
""fullscreenenter"",""5"",""24511""
","
","","","","","","","","","","","","","","","","","","","","","",""
"d3-instructions","16","104688","0.0-16.0","284","5729","12","Male","true","false","false","true","""event"",""trial"",""time""
""focus"",""0"",""0""
""fullscreenenter"",""5"",""24511""
","
","""event"",""trial"",""time""
""focus"",""0"",""0""
","""event"",""trial"",""time""
""fullscreenenter"",""5"",""24511""
","
","","","","","","","","","","","","","","","","","","","","","",""
"d3-instructions","17","112942","0.0-17.0","284","5729","12","Male","true","false","false","true","""event"",""trial"",""time""
""focus"",""0"",""0""
""fullscreenenter"",""5"",""24511""
","
","""event"",""trial"",""time""
""focus"",""0"",""0""
","""event"",""trial"",""time""
""fullscreenenter"",""5"",""24511""
","
","","","","","","","","","","","","","","","","","","","","","",""
"d3-instructions","18","125640","0.0-18.0","284","5729","12","Male","true","false","false","true","""event"",""trial"",""time""
""focus"",""0"",""0""
""fullscreenenter"",""5"",""24511""
","
","""event"",""trial"",""time""
""focus"",""0"",""0""
","""event"",""trial"",""time""
""fullscreenenter"",""5"",""24511""
","
","","","","","","","","","","","","","","","","","","","","","",""
"d3-instructions","19","134309","0.0-19.0","284","5729","12","Male","true","false","false","true","""event"",""trial"",""time""
""focus"",""0"",""0""
""fullscreenenter"",""5"",""24511""
","
","""event"",""trial"",""time""
""focus"",""0"",""0""
","""event"",""trial"",""time""
""fullscreenenter"",""5"",""24511""
","
","","","","","","","","","","","","","","","","","","","","","",""
"d3-animate-choice","20","137345","0.0-20.0","284","5729","12","Male","true","false","false","true","""event"",""trial"",""time""
""focus"",""0"",""0""
""fullscreenenter"",""5"",""24511""
","
","""event"",""trial"",""time""
""focus"",""0"",""0""
","""event"",""trial"",""time""
""fullscreenenter"",""5"",""24511""
","
","1015.8000001907349","","49","","","3000","1","2275.100000143051,2504,2734.600000143051,2928.100000143051","49,49,49,49","images/tutyellowplanet.jpg","null","images/tutalien3","null","images/tutalien3","images/t.png","NA","practice","null","","","",""
"d3-animate-choice","21","139454","0.0-21.0","284","5729","12","Male","true","false","false","true","""event"",""trial"",""time""
""focus"",""0"",""0""
""fullscreenenter"",""5"",""24511""
","
","""event"",""trial"",""time""
""focus"",""0"",""0""
","""event"",""trial"",""time""
""fullscreenenter"",""5"",""24511""
","
","88.5","","49","","","3000","1","266.59999990463257,480.89999985694885,675,880.2999999523163,1067.5999999046326,1244,1430.5999999046326,1628.1999998092651,1821,1986.3999998569489","49,49,49,49,49,49,49,49,49,49","images/tutyellowplanet.jpg","null","images/tutalien3","null","images/tutalien3","images/t.png","NA","practice","null","","","",""
"d3-animate-choice","22","141521","0.0-22.0","284","5729","12","Male","true","false","false","true","""event"",""trial"",""time""
""focus"",""0"",""0""
""fullscreenenter"",""5"",""24511""
","
","""event"",""trial"",""time""
""focus"",""0"",""0""
","""event"",""trial"",""time""
""fullscreenenter"",""5"",""24511""
","
","61.59999990463257","","49","","","3000","1","245.89999985694885,424.7999999523163,655.7000000476837,903.0999999046326,1082.8999998569489,1277.2999999523163,1481.7000000476837,1680.7000000476837,1872.7999999523163,2063.7999999523163","49,49,49,49,49,49,49,49,49,49","images/tutyellowplanet.jpg","null","images/tutalien3","null","images/tutalien3","images/t.png","NA","practice","null","","","",""
"d3-animate-choice","23","143750","0.0-23.0","284","5729","12","Male","true","false","false","true","""event"",""trial"",""time""
""focus"",""0"",""0""
""fullscreenenter"",""5"",""24511""
","
","""event"",""trial"",""time""
""focus"",""0"",""0""
","""event"",""trial"",""time""
""fullscreenenter"",""5"",""24511""
","
","203.70000004768372","","49","","","3000","1","419.89999985694885,614.3999998569489,807.7999999523163,1012.7000000476837,1206.0999999046326,1492.2999999523163,1695.2000000476837,1999.0999999046326,2198.2000000476837","49,49,49,49,49,49,49,49,49","images/tutyellowplanet.jpg","null","images/tutalien3","null","images/tutalien3","images/nothing.png","NA","practice","null","","","",""
"d3-animate-choice","24","145965","0.0-24.0","284","5729","12","Male","true","false","false","true","""event"",""trial"",""time""
""focus"",""0"",""0""
""fullscreenenter"",""5"",""24511""
","
","""event"",""trial"",""time""
""focus"",""0"",""0""
","""event"",""trial"",""time""
""fullscreenenter"",""5"",""24511""
","
","201.90000009536743","","49","","","3000","1","629.6000001430511,872.4000000953674,1110,1319.5,1609.4000000953674,1813.7000000476837,2174.800000190735","49,49,49,49,49,49,49","images/tutyellowplanet.jpg","null","images/tutalien3","null","images/tutalien3","images/t.png","NA","practice","null","","","",""
"d3-animate-choice","25","148119","0.0-25.0","284","5729","12","Male","true","false","false","true","""event"",""trial"",""time""
""focus"",""0"",""0""
""fullscreenenter"",""5"",""24511""
","
","""event"",""trial"",""time""
""focus"",""0"",""0""
","""event"",""trial"",""time""
""fullscreenenter"",""5"",""24511""
","
","136.5","","49","","","3000","1","420.40000009536743,614.1000001430511,839.6000001430511,1074.1000001430511,1344.2000000476837,1552.2000000476837,1763.9000000953674,1987.2999999523163","49,49,49,49,49,49,49,49","images/tutyellowplanet.jpg","null","images/tutalien3","null","images/tutalien3","images/t.png","NA","practice","null","","","",""
"d3-animate-choice","26","150195","0.0-26.0","284","5729","12","Male","true","false","false","true","""event"",""trial"",""time""
""focus"",""0"",""0""
""fullscreenenter"",""5"",""24511""
","
","""event"",""trial"",""time""
""focus"",""0"",""0""
","""event"",""trial"",""time""
""fullscreenenter"",""5"",""24511""
","
","52.90000009536743","","49","","","3000","1","263.40000009536743,479.2999999523163,728.4000000953674,983.2999999523163,1188.1000001430511,1427.2000000476837,1660,1855.6000001430511,2036.7999999523163","49,49,49,49,49,49,49,49,49","images/tutyellowplanet.jpg","null","images/tutalien3","null","images/tutalien3","images/t.png","NA","practice","null","","","",""
"d3-animate-choice","27","152379","0.0-27.0","284","5729","12","Male","true","false","false","true","""event"",""trial"",""time""
""focus"",""0"",""0""
""fullscreenenter"",""5"",""24511""
","
","""event"",""trial"",""time""
""focus"",""0"",""0""
","""event"",""trial"",""time""
""fullscreenenter"",""5"",""24511""
","
","164.59999990463257","","49","","","3000","1","302.40000009536743,481.5,668.7000000476837,869.0999999046326,1074.9000000953674,1269.2999999523163,1482.5,1679.7999999523163,1895.9000000953674,2110.9000000953674","49,49,49,49,49,49,49,49,49,49","images/tutyellowplanet.jpg","null","images/tutalien3","null","images/tutalien3","images/t.png","NA","practice","null","","","",""
"d3-animate-choice","28","154502","0.0-28.0","284","5729","12","Male","true","false","false","true","""event"",""trial"",""time""
""focus"",""0"",""0""
""fullscreenenter"",""5"",""24511""
","
","""event"",""trial"",""time""
""focus"",""0"",""0""
","""event"",""trial"",""time""
""fullscreenenter"",""5"",""24511""
","
","115.90000009536743","","49","","","3000","1","313,509.5,691.2000000476837,918.1000001430511,1169.9000000953674,1429,1589,1799.6000001430511,2014","49,49,49,49,49,49,49,49,49","images/tutyellowplanet.jpg","null","images/tutalien3","null","images/tutalien3","images/t.png","NA","practice","null","","","",""
"d3-animate-choice","29","156596","0.0-29.0","284","5729","12","Male","true","false","false","true","""event"",""trial"",""time""
""focus"",""0"",""0""
""fullscreenenter"",""5"",""24511""
","
","""event"",""trial"",""time""
""focus"",""0"",""0""
","""event"",""trial"",""time""
""fullscreenenter"",""5"",""24511""
","
","78.70000004768372","","49","","","3000","1","276.60000014305115,487,733.6000001430511,907.2999999523163,1091.5,1310.9000000953674,1510,1787","49,49,49,49,49,49,49,49","images/tutyellowplanet.jpg","null","images/tutalien3","null","images/tutalien3","images/nothing.png","NA","practice","null","","","",""
"d3-instructions","30","162242","0.0-30.0","284","5729","12","Male","true","false","false","true","""event"",""trial"",""time""
""focus"",""0"",""0""
""fullscreenenter"",""5"",""24511""
","
","""event"",""trial"",""time""
""focus"",""0"",""0""
","""event"",""trial"",""time""
""fullscreenenter"",""5"",""24511""
","
","","","","","","","","","","","","","","","","","","","","","",""
"d3-instructions","31","170576","0.0-31.0","284","5729","12","Male","true","false","false","true","""event"",""trial"",""time""
""focus"",""0"",""0""
""fullscreenenter"",""5"",""24511""
","
","""event"",""trial"",""time""
""focus"",""0"",""0""
","""event"",""trial"",""time""
""fullscreenenter"",""5"",""24511""
","
","","","","","","","","","","","","","","","","","","","","","",""
"d3-instructions","32","178604","0.0-32.0","284","5729","12","Male","true","false","false","true","""event"",""trial"",""time""
""focus"",""0"",""0""
""fullscreenenter"",""5"",""24511""
","
","""event"",""trial"",""time""
""focus"",""0"",""0""
","""event"",""trial"",""time""
""fullscreenenter"",""5"",""24511""
","
","","","","","","","","","","","","","","","","","","","","","",""
"d3-instructions","33","182732","0.0-33.0","284","5729","12","Male","true","false","false","true","""event"",""trial"",""time""
""focus"",""0"",""0""
""fullscreenenter"",""5"",""24511""
","
","""event"",""trial"",""time""
""focus"",""0"",""0""
","""event"",""trial"",""time""
""fullscreenenter"",""5"",""24511""
","
","","","","","","","","","","","","","","","","","","","","","",""
"d3-animate-choice","34","186665","0.0-34.0","284","5729","12","Male","true","false","false","true","""event"",""trial"",""time""
""focus"",""0"",""0""
""fullscreenenter"",""5"",""24511""
","
","""event"",""trial"",""time""
""focus"",""0"",""0""
","""event"",""trial"",""time""
""fullscreenenter"",""5"",""24511""
","
","1922.6999998092651","","49","","","3000","1","","","images/tutgreenplanet.jpg","images/tutalien1","images/tutalien2","null","images/tutalien2","images/t.png","NA","practice","null","","","",""
"d3-animate-choice","35","189185","0.0-35.0","284","5729","12","Male","true","false","false","true","""event"",""trial"",""time""
""focus"",""0"",""0""
""fullscreenenter"",""5"",""24511""
","
","""event"",""trial"",""time""
""focus"",""0"",""0""
","""event"",""trial"",""time""
""fullscreenenter"",""5"",""24511""
","
","500.09999990463257","","49","","","3000","1","","","images/tutgreenplanet.jpg","images/tutalien1","images/tutalien2","null","images/tutalien2","images/t.png","NA","practice","null","","","",""
"d3-animate-choice","36","191562","0.0-36.0","284","5729","12","Male","true","false","false","true","""event"",""trial"",""time""
""focus"",""0"",""0""
""fullscreenenter"",""5"",""24511""
","
","""event"",""trial"",""time""
""focus"",""0"",""0""
","""event"",""trial"",""time""
""fullscreenenter"",""5"",""24511""
","
","369.5","","49","","","3000","1","1730.5,1972,2165.199999809265,2347.7999999523163","49,49,49,49","images/tutgreenplanet.jpg","images/tutalien1","images/tutalien2","null","images/tutalien2","images/t.png","NA","practice","null","","","",""
"d3-animate-choice","37","193753","0.0-37.0","284","5729","12","Male","true","false","false","true","""event"",""trial"",""time""
""focus"",""0"",""0""
""fullscreenenter"",""5"",""24511""
","
","""event"",""trial"",""time""
""focus"",""0"",""0""
","""event"",""trial"",""time""
""fullscreenenter"",""5"",""24511""
","
","186.10000014305115","","49","","","3000","1","393.60000014305115,603.5,780.7999999523163,973.1000001430511,1219,1432.1000001430511,1667,1848.6000001430511,2048.2999999523163","49,49,49,49,49,49,49,49,49","images/tutgreenplanet.jpg","images/tutalien1","images/tutalien2","null","images/tutalien2","images/t.png","NA","practice","null","","","",""
"d3-animate-choice","38","195817","0.0-38.0","284","5729","12","Male","true","false","false","true","""event"",""trial"",""time""
""focus"",""0"",""0""
""fullscreenenter"",""5"",""24511""
","
","""event"",""trial"",""time""
""focus"",""0"",""0""
","""event"",""trial"",""time""
""fullscreenenter"",""5"",""24511""
","
","57.59999990463257","","49","","","3000","1","254,456.2999999523163,651.7000000476837,841,1025.5,1206,1392.3999998569489,1587.2000000476837,1764.0999999046326,1926.5999999046326","49,49,49,49,49,49,49,49,49,49","images/tutgreenplanet.jpg","images/tutalien1","images/tutalien2","null","images/tutalien2","images/t.png","NA","practice","null","","","",""
"d3-animate-choice","39","197883","0.0-39.0","284","5729","12","Male","true","false","false","true","""event"",""trial"",""time""
""focus"",""0"",""0""
""fullscreenenter"",""5"",""24511""
","
","""event"",""trial"",""time""
""focus"",""0"",""0""
","""event"",""trial"",""time""
""fullscreenenter"",""5"",""24511""
","
","54.40000009536743","","49","","","3000","1","239.10000014305115,445.7999999523163,665.1000001430511,859.2999999523163,1061.5,1279.7000000476837,1486.7999999523163,1688.1000001430511,1906.2999999523163","49,49,49,49,49,49,49,49,49","images/tutgreenplanet.jpg","images/tutalien1","images/tutalien2","null","images/tutalien2","images/t.png","NA","practice","null","","","",""
"d3-animate-choice","40","199947","0.0-40.0","284","5729","12","Male","true","false","false","true","""event"",""trial"",""time""
""focus"",""0"",""0""
""fullscreenenter"",""5"",""24511""
","
","""event"",""trial"",""time""
""focus"",""0"",""0""
","""event"",""trial"",""time""
""fullscreenenter"",""5"",""24511""
","
","50.799999952316284","","49","","","3000","1","253.59999990463257,466.09999990463257,690.0999999046326,965.2000000476837,1181.5,1384.7000000476837,1571,1807.4000000953674,1985.2999999523163","49,49,49,49,49,49,49,49,49","images/tutgreenplanet.jpg","images/tutalien1","images/tutalien2","null","images/tutalien2","images/t.png","NA","practice","null","","","",""
"d3-animate-choice","41","202105","0.0-41.0","284","5729","12","Male","true","false","false","true","""event"",""trial"",""time""
""focus"",""0"",""0""
""fullscreenenter"",""5"",""24511""
","
","""event"",""trial"",""time""
""focus"",""0"",""0""
","""event"",""trial"",""time""
""fullscreenenter"",""5"",""24511""
","
","151.70000004768372","","49","","","3000","1","358.40000009536743,597.2000000476837,845.7000000476837,1157,1451.7999999523163,1655.2000000476837,1980.0999999046326","49,49,49,49,49,49,49","images/tutgreenplanet.jpg","images/tutalien1","images/tutalien2","null","images/tutalien2","images/t.png","NA","practice","null","","","",""
"d3-animate-choice","42","204144","0.0-42.0","284","5729","12","Male","true","false","false","true","""event"",""trial"",""time""
""focus"",""0"",""0""
""fullscreenenter"",""5"",""24511""
","
","""event"",""trial"",""time""
""focus"",""0"",""0""
","""event"",""trial"",""time""
""fullscreenenter"",""5"",""24511""
","
","32.299999952316284","","49","","","3000","1","244,504,674.2000000476837,871.7999999523163,1119.5","49,49,49,49,49","images/tutgreenplanet.jpg","images/tutalien1","images/tutalien2","null","images/tutalien2","images/nothing.png","NA","practice","null","","","",""
"d3-animate-choice","43","206572","0.0-43.0","284","5729","12","Male","true","false","false","true","""event"",""trial"",""time""
""focus"",""0"",""0""
""fullscreenenter"",""5"",""24511""
","
","""event"",""trial"",""time""
""focus"",""0"",""0""
","""event"",""trial"",""time""
""fullscreenenter"",""5"",""24511""
","
","422.60000014305115","","49","","","3000","1","2077.100000143051","49","images/tutgreenplanet.jpg","images/tutalien1","images/tutalien2","null","images/tutalien2","images/t.png","NA","practice","null","","","",""
"d3-instructions","44","214255","0.0-44.0","284","5729","12","Male","true","false","false","true","""event"",""trial"",""time""
""focus"",""0"",""0""
""fullscreenenter"",""5"",""24511""
","
","""event"",""trial"",""time""
""focus"",""0"",""0""
","""event"",""trial"",""time""
""fullscreenenter"",""5"",""24511""
","
","","","","","","","","","","","","","","","","","","","","","",""
"d3-instructions","45","218151","0.0-45.0","284","5729","12","Male","true","false","false","true","""event"",""trial"",""time""
""focus"",""0"",""0""
""fullscreenenter"",""5"",""24511""
","
","""event"",""trial"",""time""
""focus"",""0"",""0""
","""event"",""trial"",""time""
""fullscreenenter"",""5"",""24511""
","
","","","","","","","","","","","","","","","","","","","","","",""
"d3-instructions","46","221641","0.0-46.0","284","5729","12","Male","true","false","false","true","""event"",""trial"",""time""
""focus"",""0"",""0""
""fullscreenenter"",""5"",""24511""
","
","""event"",""trial"",""time""
""focus"",""0"",""0""
","""event"",""trial"",""time""
""fullscreenenter"",""5"",""24511""
","
","","","","","","","","","","","","","","","","","","","","","",""
"d3-instructions","47","257262","0.0-47.0","284","5729","12","Male","true","false","false","true","""event"",""trial"",""time""
""focus"",""0"",""0""
""fullscreenenter"",""5"",""24511""
","
","""event"",""trial"",""time""
""focus"",""0"",""0""
","""event"",""trial"",""time""
""fullscreenenter"",""5"",""24511""
","
","","","","","","","","","","","","","","","","","","","","","",""
"d3-instructions","48","264926","0.0-48.0","284","5729","12","Male","true","false","false","true","""event"",""trial"",""time""
""focus"",""0"",""0""
""fullscreenenter"",""5"",""24511""
","
","""event"",""trial"",""time""
""focus"",""0"",""0""
","""event"",""trial"",""time""
""fullscreenenter"",""5"",""24511""
","
","","","","","","","","","","","","","","","","","","","","","",""
"d3-instructions","49","267498","0.0-49.0","284","5729","12","Male","true","false","false","true","""event"",""trial"",""time""
""focus"",""0"",""0""
""fullscreenenter"",""5"",""24511""
","
","""event"",""trial"",""time""
""focus"",""0"",""0""
","""event"",""trial"",""time""
""fullscreenenter"",""5"",""24511""
","
","","","","","","","","","","","","","","","","","","","","","",""
"d3-instructions","50","272242","0.0-50.0","284","5729","12","Male","true","false","false","true","""event"",""trial"",""time""
""focus"",""0"",""0""
""fullscreenenter"",""5"",""24511""
","
","""event"",""trial"",""time""
""focus"",""0"",""0""
","""event"",""trial"",""time""
""fullscreenenter"",""5"",""24511""
","
","","","","","","","","","","","","","","","","","","","","","",""
"d3-instructions","51","275727","0.0-51.0","284","5729","12","Male","true","false","false","true","""event"",""trial"",""time""
""focus"",""0"",""0""
""fullscreenenter"",""5"",""24511""
","
","""event"",""trial"",""time""
""focus"",""0"",""0""
","""event"",""trial"",""time""
""fullscreenenter"",""5"",""24511""
","
","","","","","","","","","","","","","","","","","","","","","",""
"d3-instructions","52","283180","0.0-52.0","284","5729","12","Male","true","false","false","true","""event"",""trial"",""time""
""focus"",""0"",""0""
""fullscreenenter"",""5"",""24511""
","
","""event"",""trial"",""time""
""focus"",""0"",""0""
","""event"",""trial"",""time""
""fullscreenenter"",""5"",""24511""
","
","","","","","","","","","","","","","","","","","","","","","",""
"d3-instructions","53","292180","0.0-53.0","284","5729","12","Male","true","false","false","true","""event"",""trial"",""time""
""focus"",""0"",""0""
""fullscreenenter"",""5"",""24511""
","
","""event"",""trial"",""time""
""focus"",""0"",""0""
","""event"",""trial"",""time""
""fullscreenenter"",""5"",""24511""
","
","","","","","","","","","","","","","","","","","","","","","",""
"d3-instructions","54","297142","0.0-54.0","284","5729","12","Male","true","false","false","true","""event"",""trial"",""time""
""focus"",""0"",""0""
""fullscreenenter"",""5"",""24511""
","
","""event"",""trial"",""time""
""focus"",""0"",""0""
","""event"",""trial"",""time""
""fullscreenenter"",""5"",""24511""
","
","","","","","","","","","","","","","","","","","","","","","",""
"d3-instructions","55","298214","0.0-55.0","284","5729","12","Male","true","false","false","true","""event"",""trial"",""time""
""focus"",""0"",""0""
""fullscreenenter"",""5"",""24511""
","
","""event"",""trial"",""time""
""focus"",""0"",""0""
","""event"",""trial"",""time""
""fullscreenenter"",""5"",""24511""
","
","","","","","","","","","","","","","","","","","","","","","",""
"d3-instructions","56","299249","0.0-56.0","284","5729","12","Male","true","false","false","true","""event"",""trial"",""time""
""focus"",""0"",""0""
""fullscreenenter"",""5"",""24511""
","
","""event"",""trial"",""time""
""focus"",""0"",""0""
","""event"",""trial"",""time""
""fullscreenenter"",""5"",""24511""
","
","","","","","","","","","","","","","","","","","","","","","",""
"d3-instructions","57","306327","0.0-57.0","284","5729","12","Male","true","false","false","true","""event"",""trial"",""time""
""focus"",""0"",""0""
""fullscreenenter"",""5"",""24511""
","
","""event"",""trial"",""time""
""focus"",""0"",""0""
","""event"",""trial"",""time""
""fullscreenenter"",""5"",""24511""
","
","","","","","","","","","","","","","","","","","","","","","",""
"d3-instructions","58","309326","0.0-58.0","284","5729","12","Male","true","false","false","true","""event"",""trial"",""time""
""focus"",""0"",""0""
""fullscreenenter"",""5"",""24511""
","
","""event"",""trial"",""time""
""focus"",""0"",""0""
","""event"",""trial"",""time""
""fullscreenenter"",""5"",""24511""
","
","","","","","","","","","","","","","","","","","","","","","",""
"d3-instructions","59","313862","0.0-59.0","284","5729","12","Male","true","false","false","true","""event"",""trial"",""time""
""focus"",""0"",""0""
""fullscreenenter"",""5"",""24511""
","
","""event"",""trial"",""time""
""focus"",""0"",""0""
","""event"",""trial"",""time""
""fullscreenenter"",""5"",""24511""
","
","","","","","","","","","","","","","","","","","","","","","",""
"d3-instructions","60","317952","0.0-60.0","284","5729","12","Male","true","false","false","true","""event"",""trial"",""time""
""focus"",""0"",""0""
""fullscreenenter"",""5"",""24511""
","
","""event"",""trial"",""time""
""focus"",""0"",""0""
","""event"",""trial"",""time""
""fullscreenenter"",""5"",""24511""
","
","","","","","","","","","","","","","","","","","","","","","",""
"d3-animate-choice","61","321237","0.0-61.0-0.0","284","5729","12","Male","true","false","false","true","""event"",""trial"",""time""
""focus"",""0"",""0""
""fullscreenenter"",""5"",""24511""
","
","""event"",""trial"",""time""
""focus"",""0"",""0""
","""event"",""trial"",""time""
""fullscreenenter"",""5"",""24511""
","
","1271.2999999523163","","49","","","3000","1","","","images/earth.jpg","images/tutrocket1","images/tutrocket2","null","images/tutrocket2","","1","practice","null","1","","",""
"d3-animate-choice","62","325261","0.0-61.0-1.0","284","5729","12","Male","true","false","false","true","""event"",""trial"",""time""
""focus"",""0"",""0""
""fullscreenenter"",""5"",""24511""
","
","""event"",""trial"",""time""
""focus"",""0"",""0""
","""event"",""trial"",""time""
""fullscreenenter"",""5"",""24511""
","
","null","","null","","","3000","0","","","images/tutgreenplanet.jpg","images/tutalien2","images/tutalien1","images/tutrocket2","","","2","practice","true","","common","0","2023-01-06 18:20:38.356"
"two-step-fixation","63","326279","0.0-61.0-2.0","284","5729","12","Male","true","false","false","true","""event"",""trial"",""time""
""focus"",""0"",""0""
""fullscreenenter"",""5"",""24511""
","
","""event"",""trial"",""time""
""focus"",""0"",""0""
","""event"",""trial"",""time""
""fullscreenenter"",""5"",""24511""
","
","","images/earth.jpg","","","","","","","","","","","","","","fixation","","","","","",""
"d3-animate-choice","64","328907","0.0-61.0-0.1","284","5729","12","Male","true","false","false","true","""event"",""trial"",""time""
""focus"",""0"",""0""
""fullscreenenter"",""5"",""24511""
","
","""event"",""trial"",""time""
""focus"",""0"",""0""
","""event"",""trial"",""time""
""fullscreenenter"",""5"",""24511""
","
","614.5","","49","","","3000","1","","","images/earth.jpg","images/tutrocket1","images/tutrocket2","null","images/tutrocket2","","1","practice","null","1","","",""
"d3-animate-choice","65","331274","0.0-61.0-1.1","284","5729","12","Male","true","false","false","true","""event"",""trial"",""time""
""focus"",""0"",""0""
""fullscreenenter"",""5"",""24511""
","
","""event"",""trial"",""time""
""focus"",""0"",""0""
","""event"",""trial"",""time""
""fullscreenenter"",""5"",""24511""
","
","349.5","","49","","","3000","1","","","images/tutyellowplanet.jpg","images/tutalien4","images/tutalien3","images/tutrocket2","images/tutalien3","images/nothing.png","2","practice","false","1","rare","0","2023-01-06 18:20:44.369"
"two-step-fixation","66","332277","0.0-61.0-2.1","284","5729","12","Male","true","false","false","true","""event"",""trial"",""time""
""focus"",""0"",""0""
""fullscreenenter"",""5"",""24511""
","
","""event"",""trial"",""time""
""focus"",""0"",""0""
","""event"",""trial"",""time""
""fullscreenenter"",""5"",""24511""
","
","","images/earth.jpg","","","","","","","","","","","","","","fixation","","","","","",""
"d3-animate-choice","67","335193","0.0-61.0-0.2","284","5729","12","Male","true","false","false","true","""event"",""trial"",""time""
""focus"",""0"",""0""
""fullscreenenter"",""5"",""24511""
","
","""event"",""trial"",""time""
""focus"",""0"",""0""
","""event"",""trial"",""time""
""fullscreenenter"",""5"",""24511""
","
","888.5","","49","","","3000","1","","","images/earth.jpg","images/tutrocket1","images/tutrocket2","null","images/tutrocket2","","1","practice","null","1","","",""
"d3-animate-choice","68","338005","0.0-61.0-1.2","284","5729","12","Male","true","false","false","true","""event"",""trial"",""time""
""focus"",""0"",""0""
""fullscreenenter"",""5"",""24511""
","
","""event"",""trial"",""time""
""focus"",""0"",""0""
","""event"",""trial"",""time""
""fullscreenenter"",""5"",""24511""
","
","800.9000000953674","","48","","","3000","1","","","images/tutgreenplanet.jpg","images/tutalien2","images/tutalien1","images/tutrocket2","images/tutalien2","images/nothing.png","2","practice","true","2","common","0","2023-01-06 18:20:51.100"
"two-step-fixation","69","339020","0.0-61.0-2.2","284","5729","12","Male","true","false","false","true","""event"",""trial"",""time""
""focus"",""0"",""0""
""fullscreenenter"",""5"",""24511""
","
","""event"",""trial"",""time""
""focus"",""0"",""0""
","""event"",""trial"",""time""
""fullscreenenter"",""5"",""24511""
","
","","images/earth.jpg","","","","","","","","","","","","","","fixation","","","","","",""
"d3-animate-choice","70","342622","0.0-61.0-0.3","284","5729","12","Male","true","false","false","true","""event"",""trial"",""time""
""focus"",""0"",""0""
""fullscreenenter"",""5"",""24511""
","
","""event"",""trial"",""time""
""focus"",""0"",""0""
","""event"",""trial"",""time""
""fullscreenenter"",""5"",""24511""
","
","1579.9000000953674","","49","","","3000","1","","","images/earth.jpg","images/tutrocket1","images/tutrocket2","null","images/tutrocket2","","1","practice","null","1","","",""
"d3-animate-choice","71","346639","0.0-61.0-1.3","284","5729","12","Male","true","false","false","true","""event"",""trial"",""time""
""focus"",""0"",""0""
""fullscreenenter"",""5"",""24511""
","
","""event"",""trial"",""time""
""focus"",""0"",""0""
","""event"",""trial"",""time""
""fullscreenenter"",""5"",""24511""
","
","3293.100000143051","","49","","","3000","0","","","images/tutgreenplanet.jpg","images/tutalien2","images/tutalien1","images/tutrocket2","","","2","practice","true","1","common","0","2023-01-06 18:20:59.734"
"two-step-fixation","72","347649","0.0-61.0-2.3","284","5729","12","Male","true","false","false","true","""event"",""trial"",""time""
""focus"",""0"",""0""
""fullscreenenter"",""5"",""24511""
","
","""event"",""trial"",""time""
""focus"",""0"",""0""
","""event"",""trial"",""time""
""fullscreenenter"",""5"",""24511""
","
","","images/earth.jpg","","","","","","","","","","","","","","fixation","","","","","",""
"d3-animate-choice","73","349790","0.0-61.0-0.4","284","5729","12","Male","true","false","false","true","""event"",""trial"",""time""
""focus"",""0"",""0""
""fullscreenenter"",""5"",""24511""
","
","""event"",""trial"",""time""
""focus"",""0"",""0""
","""event"",""trial"",""time""
""fullscreenenter"",""5"",""24511""
","
","127.39999985694885","","49","","","3000","1","627.2999999523163,948.8999998569489,1234,1485.2999999523163,1702.5999999046326,1990.2999999523163","49,49,49,49,49,49","images/earth.jpg","images/tutrocket1","images/tutrocket2","null","images/tutrocket2","","1","practice","null","1","","",""
"d3-animate-choice","74","351932","0.0-61.0-1.4","284","5729","12","Male","true","false","false","true","""event"",""trial"",""time""
""focus"",""0"",""0""
""fullscreenenter"",""5"",""24511""
","
","""event"",""trial"",""time""
""focus"",""0"",""0""
","""event"",""trial"",""time""
""fullscreenenter"",""5"",""24511""
","
","132.70000004768372","","49","","","3000","1","373.90000009536743,623.2000000476837,1152.1000001430511","49,49,49","images/tutgreenplanet.jpg","images/tutalien2","images/tutalien1","images/tutrocket2","images/tutalien1","images/nothing.png","2","practice","true","1","common","0","2023-01-06 18:21:05.027"
"two-step-fixation","75","352954","0.0-61.0-2.4","284","5729","12","Male","true","false","false","true","""event"",""trial"",""time""
""focus"",""0"",""0""
""fullscreenenter"",""5"",""24511""
","
","""event"",""trial"",""time""
""focus"",""0"",""0""
","""event"",""trial"",""time""
""fullscreenenter"",""5"",""24511""
","
","","images/earth.jpg","","","","","","","","","","","","","","fixation","","","","","",""
"d3-animate-choice","76","355210","0.0-61.0-0.5","284","5729","12","Male","true","false","false","true","""event"",""trial"",""time""
""focus"",""0"",""0""
""fullscreenenter"",""5"",""24511""
","
","""event"",""trial"",""time""
""focus"",""0"",""0""
","""event"",""trial"",""time""
""fullscreenenter"",""5"",""24511""
","
","245.5","","49","","","3000","1","596,827.7000000476837,1013.3000001907349,1175.4000000953674,1375.4000000953674,1587.2000000476837,1807.8000001907349,2018.4000000953674","48,48,48,48,48,48,48,48","images/earth.jpg","images/tutrocket1","images/tutrocket2","null","images/tutrocket2","","1","practice","null","1","","",""
"d3-animate-choice","77","357270","0.0-61.0-1.5","284","5729","12","Male","true","false","false","true","""event"",""trial"",""time""
""focus"",""0"",""0""
""fullscreenenter"",""5"",""24511""
","
","""event"",""trial"",""time""
""focus"",""0"",""0""
","""event"",""trial"",""time""
""fullscreenenter"",""5"",""24511""
","
","54.19999980926514","","48","","","3000","1","283.7999999523163,736.5999999046326","48,48","images/tutgreenplanet.jpg","images/tutalien2","images/tutalien1","images/tutrocket2","images/tutalien2","images/nothing.png","2","practice","true","2","common","0","2023-01-06 18:21:10.365"
"two-step-fixation","78","358287","0.0-61.0-2.5","284","5729","12","Male","true","false","false","true","""event"",""trial"",""time""
""focus"",""0"",""0""
""fullscreenenter"",""5"",""24511""
","
","""event"",""trial"",""time""
""focus"",""0"",""0""
","""event"",""trial"",""time""
""fullscreenenter"",""5"",""24511""
","
","","images/earth.jpg","","","","","","","","","","","","","","fixation","","","","","",""
"d3-animate-choice","79","360966","0.0-61.0-0.6","284","5729","12","Male","true","false","false","true","""event"",""trial"",""time""
""focus"",""0"",""0""
""fullscreenenter"",""5"",""24511""
","
","""event"",""trial"",""time""
""focus"",""0"",""0""
","""event"",""trial"",""time""
""fullscreenenter"",""5"",""24511""
","
","663.2000000476837","","48","","","3000","1","","","images/earth.jpg","images/tutrocket1","images/tutrocket2","null","images/tutrocket1","","1","practice","null","2","","",""
"d3-animate-choice","80","363449","0.0-61.0-1.6","284","5729","12","Male","true","false","false","true","""event"",""trial"",""time""
""focus"",""0"",""0""
""fullscreenenter"",""5"",""24511""
","
","""event"",""trial"",""time""
""focus"",""0"",""0""
","""event"",""trial"",""time""
""fullscreenenter"",""5"",""24511""
","
","453.5","","49","","","3000","1","","","images/tutyellowplanet.jpg","images/tutalien4","images/tutalien3","images/tutrocket1","images/tutalien3","images/t.png","2","practice","true","1","common","1","2023-01-06 18:21:16.544"
"two-step-fixation","81","364460","0.0-61.0-2.6","284","5729","12","Male","true","false","false","true","""event"",""trial"",""time""
""focus"",""0"",""0""
""fullscreenenter"",""5"",""24511""
","
","""event"",""trial"",""time""
""focus"",""0"",""0""
","""event"",""trial"",""time""
""fullscreenenter"",""5"",""24511""
","
","","images/earth.jpg","","","","","","","","","","","","","","fixation","","","","","",""
"d3-animate-choice","82","366602","0.0-61.0-0.7","284","5729","12","Male","true","false","false","true","""event"",""trial"",""time""
""focus"",""0"",""0""
""fullscreenenter"",""5"",""24511""
","
","""event"",""trial"",""time""
""focus"",""0"",""0""
","""event"",""trial"",""time""
""fullscreenenter"",""5"",""24511""
","
","115.90000009536743","","49","","","3000","1","876.2000000476837,1111.8000001907349,1310.1000001430511,1494.7000000476837,1666.3000001907349,1878.6000001430511,2048.300000190735","48,48,48,48,48,48,48","images/earth.jpg","images/tutrocket1","images/tutrocket2","null","images/tutrocket2","","1","practice","null","1","","",""
"d3-animate-choice","83","368720","0.0-61.0-1.7","284","5729","12","Male","true","false","false","true","""event"",""trial"",""time""
""focus"",""0"",""0""
""fullscreenenter"",""5"",""24511""
","
","""event"",""trial"",""time""
""focus"",""0"",""0""
","""event"",""trial"",""time""
""fullscreenenter"",""5"",""24511""
","
","98.40000009536743","","48","","","3000","1","317.7999999523163,514.2000000476837,733.9000000953674,962.9000000953674,1159.2000000476837,1353.2999999523163,1553.9000000953674,1873.2000000476837,2056.7999999523163","48,48,48,48,48,48,48,48,48","images/tutyellowplanet.jpg","images/tutalien4","images/tutalien3","images/tutrocket2","images/tutalien4","images/t.png","2","practice","false","2","rare","1","2023-01-06 18:21:21.815"
"two-step-fixation","84","369731","0.0-61.0-2.7","284","5729","12","Male","true","false","false","true","""event"",""trial"",""time""
""focus"",""0"",""0""
""fullscreenenter"",""5"",""24511""
","
","""event"",""trial"",""time""
""focus"",""0"",""0""
","""event"",""trial"",""time""
""fullscreenenter"",""5"",""24511""
","
","","images/earth.jpg","","","","","","","","","","","","","","fixation","","","","","",""
"d3-animate-choice","85","371881","0.0-61.0-0.8","284","5729","12","Male","true","false","false","true","""event"",""trial"",""time""
""focus"",""0"",""0""
""fullscreenenter"",""5"",""24511""
","
","""event"",""trial"",""time""
""focus"",""0"",""0""
","""event"",""trial"",""time""
""fullscreenenter"",""5"",""24511""
","
","134.59999990463257","","48","","","3000","1","342.89999985694885,538.3999998569489,727.7000000476837,914.8999998569489,1105.7999999523163,1285.7000000476837,1499.8999998569489,1662.3999998569489,1856.5,2062.0999999046326","48,48,48,48,48,48,48,48,48,48","images/earth.jpg","images/tutrocket1","images/tutrocket2","null","images/tutrocket1","","1","practice","null","2","","",""
"d3-animate-choice","86","374042","0.0-61.0-1.8","284","5729","12","Male","true","false","false","true","""event"",""trial"",""time""
""focus"",""0"",""0""
""fullscreenenter"",""5"",""24511""
","
","""event"",""trial"",""time""
""focus"",""0"",""0""
","""event"",""trial"",""time""
""fullscreenenter"",""5"",""24511""
","
","152.5","","48","","","3000","1","405.7999999523163,622.5999999046326,1019.2999999523163,1294.7000000476837,1551.0999999046326,1716.2000000476837,1882.7000000476837,2085","48,48,48,48,48,48,48,48","images/tutyellowplanet.jpg","images/tutalien4","images/tutalien3","images/tutrocket1","images/tutalien4","images/t.png","2","practice","true","2","common","1","2023-01-06 18:21:27.137"
"two-step-fixation","87","375053","0.0-61.0-2.8","284","5729","12","Male","true","false","false","true","""event"",""trial"",""time""
""focus"",""0"",""0""
""fullscreenenter"",""5"",""24511""
","
","""event"",""trial"",""time""
""focus"",""0"",""0""
","""event"",""trial"",""time""
""fullscreenenter"",""5"",""24511""
","
","","images/earth.jpg","","","","","","","","","","","","","","fixation","","","","","",""
"d3-animate-choice","88","377161","0.0-61.0-0.9","284","5729","12","Male","true","false","false","true","""event"",""trial"",""time""
""focus"",""0"",""0""
""fullscreenenter"",""5"",""24511""
","
","""event"",""trial"",""time""
""focus"",""0"",""0""
","""event"",""trial"",""time""
""fullscreenenter"",""5"",""24511""
","
","100.09999990463257","","48","","","3000","1","312.2999999523163,591.2999999523163,747.7999999523163,917.7000000476837,1127.2000000476837,1394.7999999523163,1574.7000000476837,1776.0999999046326,1982.0999999046326","48,48,48,48,48,48,48,48,48","images/earth.jpg","images/tutrocket1","images/tutrocket2","null","images/tutrocket1","","1","practice","null","2","","",""
"d3-animate-choice","89","379249","0.0-61.0-1.9","284","5729","12","Male","true","false","false","true","""event"",""trial"",""time""
""focus"",""0"",""0""
""fullscreenenter"",""5"",""24511""
","
","""event"",""trial"",""time""
""focus"",""0"",""0""
","""event"",""trial"",""time""
""fullscreenenter"",""5"",""24511""
","
","71","","48","","","3000","1","245,464.7000000476837,668.2000000476837,890.2000000476837,1134.8999998569489,1336.7999999523163,1582.5999999046326,1812.0999999046326","48,48,48,48,48,48,48,48","images/tutyellowplanet.jpg","images/tutalien4","images/tutalien3","images/tutrocket1","images/tutalien4","images/t.png","2","practice","true","2","common","1","2023-01-06 18:21:32.344"
"two-step-fixation","90","380262","0.0-61.0-2.9","284","5729","12","Male","true","false","false","true","""event"",""trial"",""time""
""focus"",""0"",""0""
""fullscreenenter"",""5"",""24511""
","
","""event"",""trial"",""time""
""focus"",""0"",""0""
","""event"",""trial"",""time""
""fullscreenenter"",""5"",""24511""
","
","","images/earth.jpg","","","","","","","","","","","","","","fixation","","","","","",""
"d3-animate-choice","91","382356","0.0-61.0-0.10","284","5729","12","Male","true","false","false","true","""event"",""trial"",""time""
""focus"",""0"",""0""
""fullscreenenter"",""5"",""24511""
","
","""event"",""trial"",""time""
""focus"",""0"",""0""
","""event"",""trial"",""time""
""fullscreenenter"",""5"",""24511""
","
","77.60000014305115","","49","","","3000","1","269.5,463.5,684.6000001430511,1364.7999999523163,1570.2000000476837,2038.6000001430511","49,49,49,49,49,49","images/earth.jpg","images/tutrocket1","images/tutrocket2","null","images/tutrocket2","","1","practice","null","1","","",""
"d3-animate-choice","92","384529","0.0-61.0-1.10","284","5729","12","Male","true","false","false","true","""event"",""trial"",""time""
""focus"",""0"",""0""
""fullscreenenter"",""5"",""24511""
","
","""event"",""trial"",""time""
""focus"",""0"",""0""
","""event"",""trial"",""time""
""fullscreenenter"",""5"",""24511""
","
","158.40000009536743","","49","","","3000","1","400.7000000476837,670.7000000476837,921.4000000953674,1159.7999999523163,1578.2000000476837,1971.9000000953674","49,49,49,49,49,49","images/tutgreenplanet.jpg","images/tutalien2","images/tutalien1","images/tutrocket2","images/tutalien1","images/nothing.png","2","practice","true","1","common","0","2023-01-06 18:21:37.624"
"two-step-fixation","93","385542","0.0-61.0-2.10","284","5729","12","Male","true","false","false","true","""event"",""trial"",""time""
""focus"",""0"",""0""
""fullscreenenter"",""5"",""24511""
","
","""event"",""trial"",""time""
""focus"",""0"",""0""
","""event"",""trial"",""time""
""fullscreenenter"",""5"",""24511""
","
","","images/earth.jpg","","","","","","","","","","","","","","fixation","","","","","",""
"d3-animate-choice","94","387685","0.0-61.0-0.11","284","5729","12","Male","true","false","false","true","""event"",""trial"",""time""
""focus"",""0"",""0""
""fullscreenenter"",""5"",""24511""
","
","""event"",""trial"",""time""
""focus"",""0"",""0""
","""event"",""trial"",""time""
""fullscreenenter"",""5"",""24511""
","
","128","","49","","","3000","1","350.2000000476837,661.3000001907349,1271.5,1496.8000001907349,1713.2000000476837,1932.5","49,49,49,49,49,49","images/earth.jpg","images/tutrocket1","images/tutrocket2","null","images/tutrocket2","","1","practice","null","1","","",""
"d3-animate-choice","95","389846","0.0-61.0-1.11","284","5729","12","Male","true","false","false","true","""event"",""trial"",""time""
""focus"",""0"",""0""
""fullscreenenter"",""5"",""24511""
","
","""event"",""trial"",""time""
""focus"",""0"",""0""
","""event"",""trial"",""time""
""fullscreenenter"",""5"",""24511""
","
","153.09999990463257","","49","","","3000","1","417.2000000476837,624,866,1205.7000000476837,1566.0999999046326,1839.9000000953674","49,49,49,49,49,49","images/tutgreenplanet.jpg","images/tutalien2","images/tutalien1","images/tutrocket2","images/tutalien1","images/nothing.png","2","practice","true","1","common","0","2023-01-06 18:21:42.941"
"two-step-fixation","96","390862","0.0-61.0-2.11","284","5729","12","Male","true","false","false","true","""event"",""trial"",""time""
""focus"",""0"",""0""
""fullscreenenter"",""5"",""24511""
","
","""event"",""trial"",""time""
""focus"",""0"",""0""
","""event"",""trial"",""time""
""fullscreenenter"",""5"",""24511""
","
","","images/earth.jpg","","","","","","","","","","","","","","fixation","","","","","",""
"d3-animate-choice","97","393207","0.0-61.0-0.12","284","5729","12","Male","true","false","false","true","""event"",""trial"",""time""
""focus"",""0"",""0""
""fullscreenenter"",""5"",""24511""
","
","""event"",""trial"",""time""
""focus"",""0"",""0""
","""event"",""trial"",""time""
""fullscreenenter"",""5"",""24511""
","
","328.89999985694885","","49","","","3000","1","609.0999999046326,1736.7999999523163,1986.7999999523163,2200.399999856949","49,49,49,49","images/earth.jpg","images/tutrocket1","images/tutrocket2","null","images/tutrocket2","","1","practice","null","1","","",""
"d3-animate-choice","98","395307","0.0-61.0-1.12","284","5729","12","Male","true","false","false","true","""event"",""trial"",""time""
""focus"",""0"",""0""
""fullscreenenter"",""5"",""24511""
","
","""event"",""trial"",""time""
""focus"",""0"",""0""
","""event"",""trial"",""time""
""fullscreenenter"",""5"",""24511""
","
","89","","49","","","3000","1","333.7000000476837,565.5,805.5999999046326,1285.5999999046326,1677.8999998569489,1977.3999998569489","49,49,49,49,49,49","images/tutgreenplanet.jpg","images/tutalien2","images/tutalien1","images/tutrocket2","images/tutalien1","images/t.png","2","practice","true","1","common","1","2023-01-06 18:21:48.403"
"two-step-fixation","99","396325","0.0-61.0-2.12","284","5729","12","Male","true","false","false","true","""event"",""trial"",""time""
""focus"",""0"",""0""
""fullscreenenter"",""5"",""24511""
","
","""event"",""trial"",""time""
""focus"",""0"",""0""
","""event"",""trial"",""time""
""fullscreenenter"",""5"",""24511""
","
","","images/earth.jpg","","","","","","","","","","","","","","fixation","","","","","",""
"d3-animate-choice","100","398510","0.0-61.0-0.13","284","5729","12","Male","true","false","false","true","""event"",""trial"",""time""
""focus"",""0"",""0""
""fullscreenenter"",""5"",""24511""
","
","""event"",""trial"",""time""
""focus"",""0"",""0""
","""event"",""trial"",""time""
""fullscreenenter"",""5"",""24511""
","
","166.5","","49","","","3000","1","665.7999999523163,964.1999998092651,1241.5,1630.5,2138.0999999046326","49,49,49,49,49","images/earth.jpg","images/tutrocket1","images/tutrocket2","null","images/tutrocket2","","1","practice","null","1","","",""
"d3-animate-choice","101","400716","0.0-61.0-1.13","284","5729","12","Male","true","false","false","true","""event"",""trial"",""time""
""focus"",""0"",""0""
""fullscreenenter"",""5"",""24511""
","
","""event"",""trial"",""time""
""focus"",""0"",""0""
","""event"",""trial"",""time""
""fullscreenenter"",""5"",""24511""
","
","193.90000009536743","","49","","","3000","1","455.10000014305115,762.2000000476837,1301.2999999523163,1581.6000001430511,2085.600000143051","49,49,49,49,49","images/tutgreenplanet.jpg","images/tutalien2","images/tutalien1","images/tutrocket2","images/tutalien1","images/t.png","2","practice","true","1","common","1","2023-01-06 18:21:53.811"
"two-step-fixation","102","401736","0.0-61.0-2.13","284","5729","12","Male","true","false","false","true","""event"",""trial"",""time""
""focus"",""0"",""0""
""fullscreenenter"",""5"",""24511""
","
","""event"",""trial"",""time""
""focus"",""0"",""0""
","""event"",""trial"",""time""
""fullscreenenter"",""5"",""24511""
","
","","images/earth.jpg","","","","","","","","","","","","","","fixation","","","","","",""
"d3-animate-choice","103","405047","0.0-61.0-0.14","284","5729","12","Male","true","false","false","true","""event"",""trial"",""time""
""focus"",""0"",""0""
""fullscreenenter"",""5"",""24511""
","
","""event"",""trial"",""time""
""focus"",""0"",""0""
","""event"",""trial"",""time""
""fullscreenenter"",""5"",""24511""
","
","1297.1999998092651","","48","","","3000","1","1486.5999999046326,1686.3999998569489","48,48","images/earth.jpg","images/tutrocket1","images/tutrocket2","null","images/tutrocket1","","1","practice","null","2","","",""
"d3-animate-choice","104","407718","0.0-61.0-1.14","284","5729","12","Male","true","false","false","true","""event"",""trial"",""time""
""focus"",""0"",""0""
""fullscreenenter"",""5"",""24511""
","
","""event"",""trial"",""time""
""focus"",""0"",""0""
","""event"",""trial"",""time""
""fullscreenenter"",""5"",""24511""
","
","658.2000000476837","","48","","","3000","1","","","images/tutyellowplanet.jpg","images/tutalien4","images/tutalien3","images/tutrocket1","images/tutalien4","images/t.png","2","practice","true","2","common","1","2023-01-06 18:22:00.813"
"two-step-fixation","105","408732","0.0-61.0-2.14","284","5729","12","Male","true","false","false","true","""event"",""trial"",""time""
""focus"",""0"",""0""
""fullscreenenter"",""5"",""24511""
","
","""event"",""trial"",""time""
""focus"",""0"",""0""
","""event"",""trial"",""time""
""fullscreenenter"",""5"",""24511""
","
","","images/earth.jpg","","","","","","","","","","","","","","fixation","","","","","",""
"d3-animate-choice","106","410787","0.0-61.0-0.15","284","5729","12","Male","true","false","false","true","""event"",""trial"",""time""
""focus"",""0"",""0""
""fullscreenenter"",""5"",""24511""
","
","""event"",""trial"",""time""
""focus"",""0"",""0""
","""event"",""trial"",""time""
""fullscreenenter"",""5"",""24511""
","
","37.700000047683716","","48","","","3000","1","279.09999990463257,505.2999999523163,723.5999999046326,976.5,1291.7000000476837,1498.4000000953674,1720.9000000953674,1988.2999999523163","48,48,48,48,48,48,48,48","images/earth.jpg","images/tutrocket1","images/tutrocket2","null","images/tutrocket1","","1","practice","null","2","","",""
"d3-animate-choice","107","413042","0.0-61.0-1.15","284","5729","12","Male","true","false","false","true","""event"",""trial"",""time""
""focus"",""0"",""0""
""fullscreenenter"",""5"",""24511""
","
","""event"",""trial"",""time""
""focus"",""0"",""0""
","""event"",""trial"",""time""
""fullscreenenter"",""5"",""24511""
","
","237.5","","48","","","3000","1","537.8999998569489,746.0999999046326,1039.7999999523163,1274.3999998569489,1818.6999998092651","48,48,48,48,48","images/tutyellowplanet.jpg","images/tutalien4","images/tutalien3","images/tutrocket1","images/tutalien4","images/nothing.png","2","practice","true","2","common","0","2023-01-06 18:22:06.137"
"two-step-fixation","108","414058","0.0-61.0-2.15","284","5729","12","Male","true","false","false","true","""event"",""trial"",""time""
""focus"",""0"",""0""
""fullscreenenter"",""5"",""24511""
","
","""event"",""trial"",""time""
""focus"",""0"",""0""
","""event"",""trial"",""time""
""fullscreenenter"",""5"",""24511""
","
","","images/earth.jpg","","","","","","","","","","","","","","fixation","","","","","",""
"d3-animate-choice","109","416687","0.0-61.0-0.16","284","5729","12","Male","true","false","false","true","""event"",""trial"",""time""
""focus"",""0"",""0""
""fullscreenenter"",""5"",""24511""
","
","""event"",""trial"",""time""
""focus"",""0"",""0""
","""event"",""trial"",""time""
""fullscreenenter"",""5"",""24511""
","
","610.5","","48","","","3000","1","850.5,1437.9000000953674,2192.7999999523163,2460.7000000476837","48,48,48,48","images/earth.jpg","images/tutrocket1","images/tutrocket2","null","images/tutrocket1","","1","practice","null","2","","",""
"d3-animate-choice","110","419206","0.0-61.0-1.16","284","5729","12","Male","true","false","false","true","""event"",""trial"",""time""
""focus"",""0"",""0""
""fullscreenenter"",""5"",""24511""
","
","""event"",""trial"",""time""
""focus"",""0"",""0""
","""event"",""trial"",""time""
""fullscreenenter"",""5"",""24511""
","
","503.2999999523163","","48","","","3000","1","845.7000000476837,1144.3999998569489,1389.7999999523163,1749.5","48,48,48,48","images/tutyellowplanet.jpg","images/tutalien4","images/tutalien3","images/tutrocket1","images/tutalien4","images/nothing.png","2","practice","true","2","common","0","2023-01-06 18:22:12.301"
"two-step-fixation","111","420222","0.0-61.0-2.16","284","5729","12","Male","true","false","false","true","""event"",""trial"",""time""
""focus"",""0"",""0""
""fullscreenenter"",""5"",""24511""
","
","""event"",""trial"",""time""
""focus"",""0"",""0""
","""event"",""trial"",""time""
""fullscreenenter"",""5"",""24511""
","
","","images/earth.jpg","","","","","","","","","","","","","","fixation","","","","","",""
"d3-animate-choice","112","424236","0.0-61.0-0.17","284","5729","12","Male","true","false","false","true","""event"",""trial"",""time""
""focus"",""0"",""0""
""fullscreenenter"",""5"",""24511""
","
","""event"",""trial"",""time""
""focus"",""0"",""0""
","""event"",""trial"",""time""
""fullscreenenter"",""5"",""24511""
","
","2490.7000000476837","","48","","","3000","1","2715.2000000476837,2936.800000190735,3145.600000143051,3362.4000000953674,3583.9000000953674,3801.5","48,48,48,48,48,48","images/earth.jpg","images/tutrocket1","images/tutrocket2","null","images/tutrocket1","","1","practice","null","2","","",""
"d3-animate-choice","113","426270","0.0-61.0-1.17","284","5729","12","Male","true","false","false","true","""event"",""trial"",""time""
""focus"",""0"",""0""
""fullscreenenter"",""5"",""24511""
","
","""event"",""trial"",""time""
""focus"",""0"",""0""
","""event"",""trial"",""time""
""fullscreenenter"",""5"",""24511""
","
","27.5","","48","","","3000","1","267,530.5999999046326,763,988.5999999046326,1210.7999999523163,1440.3999998569489,1660.2999999523163,1907.2999999523163","48,48,48,48,48,48,48,48","images/tutgreenplanet.jpg","images/tutalien2","images/tutalien1","images/tutrocket1","images/tutalien2","images/nothing.png","2","practice","false","2","rare","0","2023-01-06 18:22:19.365"
"two-step-fixation","114","427281","0.0-61.0-2.17","284","5729","12","Male","true","false","false","true","""event"",""trial"",""time""
""focus"",""0"",""0""
""fullscreenenter"",""5"",""24511""
","
","""event"",""trial"",""time""
""focus"",""0"",""0""
","""event"",""trial"",""time""
""fullscreenenter"",""5"",""24511""
","
","","images/earth.jpg","","","","","","","","","","","","","","fixation","","","","","",""
"d3-animate-choice","115","429817","0.0-61.0-0.18","284","5729","12","Male","true","false","false","true","""event"",""trial"",""time""
""focus"",""0"",""0""
""fullscreenenter"",""5"",""24511""
","
","""event"",""trial"",""time""
""focus"",""0"",""0""
","""event"",""trial"",""time""
""fullscreenenter"",""5"",""24511""
","
","516.2000000476837","","48","","","3000","1","740.2000000476837,986.6000001430511","48,48","images/earth.jpg","images/tutrocket1","images/tutrocket2","null","images/tutrocket1","","1","practice","null","2","","",""
"d3-animate-choice","116","432878","0.0-61.0-1.18","284","5729","12","Male","true","false","false","true","""event"",""trial"",""time""
""focus"",""0"",""0""
""fullscreenenter"",""5"",""24511""
","
","""event"",""trial"",""time""
""focus"",""0"",""0""
","""event"",""trial"",""time""
""fullscreenenter"",""5"",""24511""
","
","1048.7000000476837","","48","","","3000","1","1243.0999999046326,1506.7000000476837,1792.9000000953674,2060.7999999523163,2379,2615,2927.7000000476837","48,48,48,48,48,48,48","images/tutyellowplanet.jpg","images/tutalien4","images/tutalien3","images/tutrocket1","images/tutalien4","images/t.png","2","practice","true","2","common","1","2023-01-06 18:22:25.973"
"two-step-fixation","117","433891","0.0-61.0-2.18","284","5729","12","Male","true","false","false","true","""event"",""trial"",""time""
""focus"",""0"",""0""
""fullscreenenter"",""5"",""24511""
","
","""event"",""trial"",""time""
""focus"",""0"",""0""
","""event"",""trial"",""time""
""fullscreenenter"",""5"",""24511""
","
","","images/earth.jpg","","","","","","","","","","","","","","fixation","","","","","",""
"d3-animate-choice","118","436101","0.0-61.0-0.19","284","5729","12","Male","true","false","false","true","""event"",""trial"",""time""
""focus"",""0"",""0""
""fullscreenenter"",""5"",""24511""
","
","""event"",""trial"",""time""
""focus"",""0"",""0""
","""event"",""trial"",""time""
""fullscreenenter"",""5"",""24511""
","
","200","","48","","","3000","1","759,974.7999999523163,1344.5999999046326,1744.2999999523163,2026.5999999046326","48,48,48,48,48","images/earth.jpg","images/tutrocket1","images/tutrocket2","null","images/tutrocket1","","1","practice","null","2","","",""
"d3-animate-choice","119","438701","0.0-61.0-1.19","284","5729","12","Male","true","false","false","true","""event"",""trial"",""time""
""focus"",""0"",""0""
""fullscreenenter"",""5"",""24511""
","
","""event"",""trial"",""time""
""focus"",""0"",""0""
","""event"",""trial"",""time""
""fullscreenenter"",""5"",""24511""
","
","585.2999999523163","","48","","","3000","1","870.6000001430511,1154.9000000953674,1445.2999999523163,1770.7999999523163,2057.7000000476837,2433.2000000476837","48,48,48,48,48,48","images/tutyellowplanet.jpg","images/tutalien4","images/tutalien3","images/tutrocket1","images/tutalien4","images/t.png","2","practice","true","2","common","1","2023-01-06 18:22:31.796"
"two-step-fixation","120","439720","0.0-61.0-2.19","284","5729","12","Male","true","false","false","true","""event"",""trial"",""time""
""focus"",""0"",""0""
""fullscreenenter"",""5"",""24511""
","
","""event"",""trial"",""time""
""focus"",""0"",""0""
","""event"",""trial"",""time""
""fullscreenenter"",""5"",""24511""
","
","","images/earth.jpg","","","","","","","","","","","","","","fixation","","","","","",""
"d3-instructions","121","450415","0.0-62.0","284","5729","12","Male","true","false","false","true","""event"",""trial"",""time""
""focus"",""0"",""0""
""fullscreenenter"",""5"",""24511""
","
","""event"",""trial"",""time""
""focus"",""0"",""0""
","""event"",""trial"",""time""
""fullscreenenter"",""5"",""24511""
","
","","","","","","","","","","","","","","","","","","","","","",""
"audio-keyboard-response","122","450423","0.0-63.0","284","5729","12","Male","true","false","false","true","""event"",""trial"",""time""
""focus"",""0"",""0""
""fullscreenenter"",""5"",""24511""
","
","""event"",""trial"",""time""
""focus"",""0"",""0""
","""event"",""trial"",""time""
""fullscreenenter"",""5"",""24511""
","
","0","audio/instructions/treasure_feedback.wav","74","","","","","","","","","","","","","","","","","","",""
"d3-instructions","123","470337","0.0-64.0","284","5729","12","Male","true","false","false","true","""event"",""trial"",""time""
""focus"",""0"",""0""
""fullscreenenter"",""5"",""24511""
","
","""event"",""trial"",""time""
""focus"",""0"",""0""
","""event"",""trial"",""time""
""fullscreenenter"",""5"",""24511""
","
","","","","","","","","","","","","","","","","","","","","","",""
"d3-instructions","124","484694","0.0-65.0","284","5729","12","Male","true","false","false","true","""event"",""trial"",""time""
""focus"",""0"",""0""
""fullscreenenter"",""5"",""24511""
","
","""event"",""trial"",""time""
""focus"",""0"",""0""
","""event"",""trial"",""time""
""fullscreenenter"",""5"",""24511""
","
","","","","","","","","","","","","","","","","","","","","","",""
"d3-instructions","125","509852","0.0-66.0","284","5729","12","Male","true","false","false","true","""event"",""trial"",""time""
""focus"",""0"",""0""
""fullscreenenter"",""5"",""24511""
","
","""event"",""trial"",""time""
""focus"",""0"",""0""
","""event"",""trial"",""time""
""fullscreenenter"",""5"",""24511""
","
","","","","","","","","","","","","","","","","","","","","","",""
"d3-instructions","126","519431","0.0-67.0","284","5729","12","Male","true","false","false","true","""event"",""trial"",""time""
""focus"",""0"",""0""
""fullscreenenter"",""5"",""24511""
","
","""event"",""trial"",""time""
""focus"",""0"",""0""
","""event"",""trial"",""time""
""fullscreenenter"",""5"",""24511""
","
","","","","","","","","","","","","","","","","","","","","","",""
"d3-instructions","127","522538","0.0-68.0","284","5729","12","Male","true","false","false","true","""event"",""trial"",""time""
""focus"",""0"",""0""
""fullscreenenter"",""5"",""24511""
","
","""event"",""trial"",""time""
""focus"",""0"",""0""
","""event"",""trial"",""time""
""fullscreenenter"",""5"",""24511""
","
","","","","","","","","","","","","","","","","","","","","","",""
"instructions-quiz","128","525409","0.0-69.0","284","5729","12","Male","true","false","false","true","""event"",""trial"",""time""
""focus"",""0"",""0""
""fullscreenenter"",""5"",""24511""
","
","""event"",""trial"",""time""
""focus"",""0"",""0""
","""event"",""trial"",""time""
""fullscreenenter"",""5"",""24511""
","
","2864.5","audio/quiz/Q1_Prompt.wav","","1","","","","","","","","","","","","","","","","","",""
"audio-keyboard-response","129","530626","0.0-70.0","284","5729","12","Male","true","false","false","true","""event"",""trial"",""time""
""focus"",""0"",""0""
""fullscreenenter"",""5"",""24511""
","
","""event"",""trial"",""time""
""focus"",""0"",""0""
","""event"",""trial"",""time""
""fullscreenenter"",""5"",""24511""
","
","5211","audio/quiz/Q1_Correct.wav","174","","","","","","","","","","","","","","","","","","",""
"instructions-quiz","130","537464","0.0-71.0","284","5729","12","Male","true","false","false","true","""event"",""trial"",""time""
""focus"",""0"",""0""
""fullscreenenter"",""5"",""24511""
","
","""event"",""trial"",""time""
""focus"",""0"",""0""
","""event"",""trial"",""time""
""fullscreenenter"",""5"",""24511""
","
","6833.399999856949","audio/quiz/Q2_Prompt.wav","","0","","","","","","","","","","","","","","","","","",""
"audio-keyboard-response","131","538802","0.0-72.0","284","5729","12","Male","true","false","false","true","""event"",""trial"",""time""
""focus"",""0"",""0""
""fullscreenenter"",""5"",""24511""
","
","""event"",""trial"",""time""
""focus"",""0"",""0""
","""event"",""trial"",""time""
""fullscreenenter"",""5"",""24511""
","
","1331","audio/quiz/Q2_Correct.wav","32","","","","","","","","","","","","","","","","","","",""
"instructions-quiz","132","542404","0.0-73.0","284","5729","12","Male","true","false","false","true","""event"",""trial"",""time""
""focus"",""0"",""0""
""fullscreenenter"",""5"",""24511""
","
","""event"",""trial"",""time""
""focus"",""0"",""0""
","""event"",""trial"",""time""
""fullscreenenter"",""5"",""24511""
","
","3596.5999999046326","audio/quiz/Q3_Prompt.wav","","1","","","","","","","","","","","","","","","","","",""
"audio-keyboard-response","133","543229","0.0-74.0","284","5729","12","Male","true","false","false","true","""event"",""trial"",""time""
""focus"",""0"",""0""
""fullscreenenter"",""5"",""24511""
","
","""event"",""trial"",""time""
""focus"",""0"",""0""
","""event"",""trial"",""time""
""fullscreenenter"",""5"",""24511""
","
","819","audio/quiz/Q3_Correct.wav","32","","","","","","","","","","","","","","","","","","",""
"d3-instructions","134","545412","0.0-75.0","284","5729","12","Male","true","false","false","true","""event"",""trial"",""time""
""focus"",""0"",""0""
""fullscreenenter"",""5"",""24511""
","
","""event"",""trial"",""time""
""focus"",""0"",""0""
","""event"",""trial"",""time""
""fullscreenenter"",""5"",""24511""
","
","","","","","","","","","","","","","","","","","","","","","",""
"pavlovia","135","545416","0.0-76.0","284","5729","12","Male","true","false","false","true","""event"",""trial"",""time""
""focus"",""0"",""0""
""fullscreenenter"",""5"",""24511""
","
","""event"",""trial"",""time""
""focus"",""0"",""0""
","""event"",""trial"",""time""
""fullscreenenter"",""5"",""24511""
","
","","","","","","","","","","","","","","","","","","","","","",""
"d3-animate-choice","136","549431","0.0-77.0-0.0","284","5729","12","Male","true","false","false","true","""event"",""trial"",""time""
""focus"",""0"",""0""
""fullscreenenter"",""5"",""24511""
","
","""event"",""trial"",""time""
""focus"",""0"",""0""
","""event"",""trial"",""time""
""fullscreenenter"",""5"",""24511""
","
","2034.4000000953674","","49","","","3000","1","","","images/earth.jpg","images/rocket2","images/rocket1","null","images/rocket1","","1","real","null","1","","",""
"d3-animate-choice","137","552661","0.0-77.0-1.0","284","5729","12","Male","true","false","false","true","""event"",""trial"",""time""
""focus"",""0"",""0""
""fullscreenenter"",""5"",""24511""
","
","""event"",""trial"",""time""
""focus"",""0"",""0""
","""event"",""trial"",""time""
""fullscreenenter"",""5"",""24511""
","
","1213.8999998569489","","48","","","3000","1","","","images/redplanet1.jpg","images/alien2","images/alien1","images/rocket1","images/alien2","images/t.png","2","real","false","2","rare","1","2023-01-06 18:24:25.756"
"two-step-fixation","138","553684","0.0-77.0-2.0","284","5729","12","Male","true","false","false","true","""event"",""trial"",""time""
""focus"",""0"",""0""
""fullscreenenter"",""5"",""24511""
","
","""event"",""trial"",""time""
""focus"",""0"",""0""
","""event"",""trial"",""time""
""fullscreenenter"",""5"",""24511""
","
","","images/earth.jpg","","","","","","","","","","","","","","fixation","","","","","",""
"d3-animate-choice","139","556148","0.0-77.0-0.1","284","5729","12","Male","true","false","false","true","""event"",""trial"",""time""
""focus"",""0"",""0""
""fullscreenenter"",""5"",""24511""
","
","""event"",""trial"",""time""
""focus"",""0"",""0""
","""event"",""trial"",""time""
""fullscreenenter"",""5"",""24511""
","
","447.09999990463257","","49","","","3000","1","","","images/earth.jpg","images/rocket2","images/rocket1","null","images/rocket1","","1","real","null","1","","",""
"d3-animate-choice","140","558574","0.0-77.0-1.1","284","5729","12","Male","true","false","false","true","""event"",""trial"",""time""
""focus"",""0"",""0""
""fullscreenenter"",""5"",""24511""
","
","""event"",""trial"",""time""
""focus"",""0"",""0""
","""event"",""trial"",""time""
""fullscreenenter"",""5"",""24511""
","
","412.2000000476837","","48","","","3000","1","","","images/redplanet1.jpg","images/alien2","images/alien1","images/rocket1","images/alien2","images/nothing.png","2","real","false","2","rare","0","2023-01-06 18:24:31.669"
"two-step-fixation","141","559582","0.0-77.0-2.1","284","5729","12","Male","true","false","false","true","""event"",""trial"",""time""
""focus"",""0"",""0""
""fullscreenenter"",""5"",""24511""
","
","""event"",""trial"",""time""
""focus"",""0"",""0""
","""event"",""trial"",""time""
""fullscreenenter"",""5"",""24511""
","
","","images/earth.jpg","","","","","","","","","","","","","","fixation","","","","","",""
"d3-animate-choice","142","561694","0.0-77.0-0.2","284","5729","12","Male","true","false","false","true","""event"",""trial"",""time""
""focus"",""0"",""0""
""fullscreenenter"",""5"",""24511""
","
","""event"",""trial"",""time""
""focus"",""0"",""0""
","""event"",""trial"",""time""
""fullscreenenter"",""5"",""24511""
","
","89","","49","","","3000","1","1055.1000001430511,1284.7000000476837,1455,1626.9000000953674,1811.6000001430511,1983.9000000953674","48,48,48,48,48,48","images/earth.jpg","images/rocket2","images/rocket1","null","images/rocket1","","1","real","null","1","","",""
"d3-animate-choice","143","563779","0.0-77.0-1.2","284","5729","12","Male","true","false","false","true","""event"",""trial"",""time""
""focus"",""0"",""0""
""fullscreenenter"",""5"",""24511""
","
","""event"",""trial"",""time""
""focus"",""0"",""0""
","""event"",""trial"",""time""
""fullscreenenter"",""5"",""24511""
","
","64.29999995231628","","48","","","3000","1","380.89999985694885","48","images/purpleplanet.jpg","images/alien4","images/alien3","images/rocket1","images/alien4","images/nothing.png","2","real","true","2","common","0","2023-01-06 18:24:36.874"
"two-step-fixation","144","564796","0.0-77.0-2.2","284","5729","12","Male","true","false","false","true","""event"",""trial"",""time""
""focus"",""0"",""0""
""fullscreenenter"",""5"",""24511""
","
","""event"",""trial"",""time""
""focus"",""0"",""0""
","""event"",""trial"",""time""
""fullscreenenter"",""5"",""24511""
","
","","images/earth.jpg","","","","","","","","","","","","","","fixation","","","","","",""
"d3-animate-choice","145","567128","0.0-77.0-0.3","284","5729","12","Male","true","false","false","true","""event"",""trial"",""time""
""focus"",""0"",""0""
""fullscreenenter"",""5"",""24511""
","
","""event"",""trial"",""time""
""focus"",""0"",""0""
","""event"",""trial"",""time""
""fullscreenenter"",""5"",""24511""
","
","323.7999999523163","","49","","","3000","1","","","images/earth.jpg","images/rocket2","images/rocket1","null","images/rocket1","","1","real","null","1","","",""
"d3-animate-choice","146","569799","0.0-77.0-1.3","284","5729","12","Male","true","false","false","true","""event"",""trial"",""time""
""focus"",""0"",""0""
""fullscreenenter"",""5"",""24511""
","
","""event"",""trial"",""time""
""focus"",""0"",""0""
","""event"",""trial"",""time""
""fullscreenenter"",""5"",""24511""
","
","646.0999999046326","","48","","","3000","1","","","images/redplanet1.jpg","images/alien2","images/alien1","images/rocket1","images/alien2","images/nothing.png","2","real","false","2","rare","0","2023-01-06 18:24:42.894"
"two-step-fixation","147","570812","0.0-77.0-2.3","284","5729","12","Male","true","false","false","true","""event"",""trial"",""time""
""focus"",""0"",""0""
""fullscreenenter"",""5"",""24511""
","
","""event"",""trial"",""time""
""focus"",""0"",""0""
","""event"",""trial"",""time""
""fullscreenenter"",""5"",""24511""
","
","","images/earth.jpg","","","","","","","","","","","","","","fixation","","","","","",""
"d3-animate-choice","148","573256","0.0-77.0-0.4","284","5729","12","Male","true","false","false","true","""event"",""trial"",""time""
""focus"",""0"",""0""
""fullscreenenter"",""5"",""24511""
","
","""event"",""trial"",""time""
""focus"",""0"",""0""
","""event"",""trial"",""time""
""fullscreenenter"",""5"",""24511""
","
","437.10000014305115","","49","","","3000","1","","","images/earth.jpg","images/rocket2","images/rocket1","null","images/rocket1","","1","real","null","1","","",""
"d3-animate-choice","149","576214","0.0-77.0-1.4","284","5729","12","Male","true","false","false","true","""event"",""trial"",""time""
""focus"",""0"",""0""
""fullscreenenter"",""5"",""24511""
","
","""event"",""trial"",""time""
""focus"",""0"",""0""
","""event"",""trial"",""time""
""fullscreenenter"",""5"",""24511""
","
","950.6000001430511","","49","","","3000","1","","","images/purpleplanet.jpg","images/alien4","images/alien3","images/rocket1","images/alien3","images/nothing.png","2","real","true","1","common","0","2023-01-06 18:24:49.310"
"two-step-fixation","150","577230","0.0-77.0-2.4","284","5729","12","Male","true","false","false","true","""event"",""trial"",""time""
""focus"",""0"",""0""
""fullscreenenter"",""5"",""24511""
","
","""event"",""trial"",""time""
""focus"",""0"",""0""
","""event"",""trial"",""time""
""fullscreenenter"",""5"",""24511""
","
","","images/earth.jpg","","","","","","","","","","","","","","fixation","","","","","",""
"d3-animate-choice","151","579472","0.0-77.0-0.5","284","5729","12","Male","true","false","false","true","""event"",""trial"",""time""
""focus"",""0"",""0""
""fullscreenenter"",""5"",""24511""
","
","""event"",""trial"",""time""
""focus"",""0"",""0""
","""event"",""trial"",""time""
""fullscreenenter"",""5"",""24511""
","
","233.40000009536743","","49","","","3000","1","1172.2000000476837,1436.9000000953674,2189.5","49,49,49","images/earth.jpg","images/rocket2","images/rocket1","null","images/rocket1","","1","real","null","1","","",""
"d3-animate-choice","152","581981","0.0-77.0-1.5","284","5729","12","Male","true","false","false","true","""event"",""trial"",""time""
""focus"",""0"",""0""
""fullscreenenter"",""5"",""24511""
","
","""event"",""trial"",""time""
""focus"",""0"",""0""
","""event"",""trial"",""time""
""fullscreenenter"",""5"",""24511""
","
","481.5","","49","","","3000","1","","","images/purpleplanet.jpg","images/alien4","images/alien3","images/rocket1","images/alien3","images/t.png","2","real","true","1","common","1","2023-01-06 18:24:55.077"
"two-step-fixation","153","582991","0.0-77.0-2.5","284","5729","12","Male","true","false","false","true","""event"",""trial"",""time""
""focus"",""0"",""0""
""fullscreenenter"",""5"",""24511""
","
","""event"",""trial"",""time""
""focus"",""0"",""0""
","""event"",""trial"",""time""
""fullscreenenter"",""5"",""24511""
","
","","images/earth.jpg","","","","","","","","","","","","","","fixation","","","","","",""
"d3-animate-choice","154","585254","0.0-77.0-0.6","284","5729","12","Male","true","false","false","true","""event"",""trial"",""time""
""focus"",""0"",""0""
""fullscreenenter"",""5"",""24511""
","
","""event"",""trial"",""time""
""focus"",""0"",""0""
","""event"",""trial"",""time""
""fullscreenenter"",""5"",""24511""
","
","256","","49","","","3000","1","","","images/earth.jpg","images/rocket2","images/rocket1","null","images/rocket1","","1","real","null","1","","",""
"d3-animate-choice","155","588185","0.0-77.0-1.6","284","5729","12","Male","true","false","false","true","""event"",""trial"",""time""
""focus"",""0"",""0""
""fullscreenenter"",""5"",""24511""
","
","""event"",""trial"",""time""
""focus"",""0"",""0""
","""event"",""trial"",""time""
""fullscreenenter"",""5"",""24511""
","
","919.7999999523163","","48","","","3000","1","","","images/purpleplanet.jpg","images/alien4","images/alien3","images/rocket1","images/alien4","images/t.png","2","real","true","2","common","1","2023-01-06 18:25:01.280"
"two-step-fixation","156","589203","0.0-77.0-2.6","284","5729","12","Male","true","false","false","true","""event"",""trial"",""time""
""focus"",""0"",""0""
""fullscreenenter"",""5"",""24511""
","
","""event"",""trial"",""time""
""focus"",""0"",""0""
","""event"",""trial"",""time""
""fullscreenenter"",""5"",""24511""
","
","","images/earth.jpg","","","","","","","","","","","","","","fixation","","","","","",""
"d3-animate-choice","157","591510","0.0-77.0-0.7","284","5729","12","Male","true","false","false","true","""event"",""trial"",""time""
""focus"",""0"",""0""
""fullscreenenter"",""5"",""24511""
","
","""event"",""trial"",""time""
""focus"",""0"",""0""
","""event"",""trial"",""time""
""fullscreenenter"",""5"",""24511""
","
","292.10000014305115","","49","","","3000","1","","","images/earth.jpg","images/rocket2","images/rocket1","null","images/rocket1","","1","real","null","1","","",""
"d3-animate-choice","158","594643","0.0-77.0-1.7","284","5729","12","Male","true","false","false","true","""event"",""trial"",""time""
""focus"",""0"",""0""
""fullscreenenter"",""5"",""24511""
","
","""event"",""trial"",""time""
""focus"",""0"",""0""
","""event"",""trial"",""time""
""fullscreenenter"",""5"",""24511""
","
","1119.2000000476837","","48","","","3000","1","","","images/purpleplanet.jpg","images/alien4","images/alien3","images/rocket1","images/alien4","images/t.png","2","real","true","2","common","1","2023-01-06 18:25:07.739"
"two-step-fixation","159","595658","0.0-77.0-2.7","284","5729","12","Male","true","false","false","true","""event"",""trial"",""time""
""focus"",""0"",""0""
""fullscreenenter"",""5"",""24511""
","
","""event"",""trial"",""time""
""focus"",""0"",""0""
","""event"",""trial"",""time""
""fullscreenenter"",""5"",""24511""
","
","","images/earth.jpg","","","","","","","","","","","","","","fixation","","","","","",""
"d3-animate-choice","160","598269","0.0-77.0-0.8","284","5729","12","Male","true","false","false","true","""event"",""trial"",""time""
""focus"",""0"",""0""
""fullscreenenter"",""5"",""24511""
","
","""event"",""trial"",""time""
""focus"",""0"",""0""
","""event"",""trial"",""time""
""fullscreenenter"",""5"",""24511""
","
","595.7000000476837","","48","","","3000","1","","","images/earth.jpg","images/rocket2","images/rocket1","null","images/rocket2","","1","real","null","2","","",""
"d3-animate-choice","161","601128","0.0-77.0-1.8","284","5729","12","Male","true","false","false","true","""event"",""trial"",""time""
""focus"",""0"",""0""
""fullscreenenter"",""5"",""24511""
","
","""event"",""trial"",""time""
""focus"",""0"",""0""
","""event"",""trial"",""time""
""fullscreenenter"",""5"",""24511""
","
","844.6000001430511","","48","","","3000","1","2841","48","images/purpleplanet.jpg","images/alien4","images/alien3","images/rocket2","images/alien4","images/t.png","2","real","false","2","rare","1","2023-01-06 18:25:14.224"
"two-step-fixation","162","602141","0.0-77.0-2.8","284","5729","12","Male","true","false","false","true","""event"",""trial"",""time""
""focus"",""0"",""0""
""fullscreenenter"",""5"",""24511""
","
","""event"",""trial"",""time""
""focus"",""0"",""0""
","""event"",""trial"",""time""
""fullscreenenter"",""5"",""24511""
","
","","images/earth.jpg","","","","","","","","","","","","","","fixation","","","","","",""
"d3-animate-choice","163","604158","0.0-77.0-0.9","284","5729","12","Male","true","false","false","true","""event"",""trial"",""time""
""focus"",""0"",""0""
""fullscreenenter"",""5"",""24511""
","
","""event"",""trial"",""time""
""focus"",""0"",""0""
","""event"",""trial"",""time""
""fullscreenenter"",""5"",""24511""
","
","1.9000000953674316","","48","","","3000","1","171.10000014305115,368.40000009536743,553.9000000953674,726.2000000476837,890.2999999523163,1063.4000000953674,1237.9000000953674,1411.1000001430511,1597.7000000476837,1769.9000000953674,1958.2999999523163","48,48,48,48,48,48,48,48,48,48,48","images/earth.jpg","images/rocket2","images/rocket1","null","images/rocket2","","1","real","null","2","","",""
"d3-animate-choice","164","606307","0.0-77.0-1.9","284","5729","12","Male","true","false","false","true","""event"",""trial"",""time""
""focus"",""0"",""0""
""fullscreenenter"",""5"",""24511""
","
","""event"",""trial"",""time""
""focus"",""0"",""0""
","""event"",""trial"",""time""
""fullscreenenter"",""5"",""24511""
","
","134.59999990463257","","48","","","3000","1","319.5,488.59999990463257,673.3999998569489,856.2999999523163,1034.2999999523163,1220.0999999046326","48,48,48,48,48,48","images/redplanet1.jpg","images/alien2","images/alien1","images/rocket2","images/alien2","images/t.png","2","real","true","2","common","1","2023-01-06 18:25:19.402"
"two-step-fixation","165","607320","0.0-77.0-2.9","284","5729","12","Male","true","false","false","true","""event"",""trial"",""time""
""focus"",""0"",""0""
""fullscreenenter"",""5"",""24511""
","
","""event"",""trial"",""time""
""focus"",""0"",""0""
","""event"",""trial"",""time""
""fullscreenenter"",""5"",""24511""
","
","","images/earth.jpg","","","","","","","","","","","","","","fixation","","","","","",""
"d3-animate-choice","166","609763","0.0-77.0-0.10","284","5729","12","Male","true","false","false","true","""event"",""trial"",""time""
""focus"",""0"",""0""
""fullscreenenter"",""5"",""24511""
","
","""event"",""trial"",""time""
""focus"",""0"",""0""
","""event"",""trial"",""time""
""fullscreenenter"",""5"",""24511""
","
","424.2999999523163","","48","","","3000","1","","","images/earth.jpg","images/rocket2","images/rocket1","null","images/rocket2","","1","real","null","2","","",""
"d3-animate-choice","167","612538","0.0-77.0-1.10","284","5729","12","Male","true","false","false","true","""event"",""trial"",""time""
""focus"",""0"",""0""
""fullscreenenter"",""5"",""24511""
","
","""event"",""trial"",""time""
""focus"",""0"",""0""
","""event"",""trial"",""time""
""fullscreenenter"",""5"",""24511""
","
","763.6000001430511","","49","","","3000","1","","","images/redplanet1.jpg","images/alien2","images/alien1","images/rocket2","images/alien1","images/t.png","2","real","true","1","common","1","2023-01-06 18:25:25.633"
"two-step-fixation","168","613554","0.0-77.0-2.10","284","5729","12","Male","true","false","false","true","""event"",""trial"",""time""
""focus"",""0"",""0""
""fullscreenenter"",""5"",""24511""
","
","""event"",""trial"",""time""
""focus"",""0"",""0""
","""event"",""trial"",""time""
""fullscreenenter"",""5"",""24511""
","
","","images/earth.jpg","","","","","","","","","","","","","","fixation","","","","","",""
"d3-animate-choice","169","616133","0.0-77.0-0.11","284","5729","12","Male","true","false","false","true","""event"",""trial"",""time""
""focus"",""0"",""0""
""fullscreenenter"",""5"",""24511""
","
","""event"",""trial"",""time""
""focus"",""0"",""0""
","""event"",""trial"",""time""
""fullscreenenter"",""5"",""24511""
","
","557.6000001430511","","49","","","3000","1","","","images/earth.jpg","images/rocket2","images/rocket1","null","images/rocket1","","1","real","null","1","","",""
"d3-animate-choice","170","618739","0.0-77.0-1.11","284","5729","12","Male","true","false","false","true","""event"",""trial"",""time""
""focus"",""0"",""0""
""fullscreenenter"",""5"",""24511""
","
","""event"",""trial"",""time""
""focus"",""0"",""0""
","""event"",""trial"",""time""
""fullscreenenter"",""5"",""24511""
","
","593.4000000953674","","49","","","3000","1","","","images/redplanet1.jpg","images/alien2","images/alien1","images/rocket1","images/alien1","images/nothing.png","2","real","false","1","rare","0","2023-01-06 18:25:31.834"
"two-step-fixation","171","619753","0.0-77.0-2.11","284","5729","12","Male","true","false","false","true","""event"",""trial"",""time""
""focus"",""0"",""0""
""fullscreenenter"",""5"",""24511""
","
","""event"",""trial"",""time""
""focus"",""0"",""0""
","""event"",""trial"",""time""
""fullscreenenter"",""5"",""24511""
","
","","images/earth.jpg","","","","","","","","","","","","","","fixation","","","","","",""
"d3-animate-choice","172","622830","0.0-77.0-0.12","284","5729","12","Male","true","false","false","true","""event"",""trial"",""time""
""focus"",""0"",""0""
""fullscreenenter"",""5"",""24511""
","
","""event"",""trial"",""time""
""focus"",""0"",""0""
","""event"",""trial"",""time""
""fullscreenenter"",""5"",""24511""
","
","1058.3999998569489","","48","","","3000","1","","","images/earth.jpg","images/rocket2","images/rocket1","null","images/rocket2","","1","real","null","2","","",""
"d3-animate-choice","173","625896","0.0-77.0-1.12","284","5729","12","Male","true","false","false","true","""event"",""trial"",""time""
""focus"",""0"",""0""
""fullscreenenter"",""5"",""24511""
","
","""event"",""trial"",""time""
""focus"",""0"",""0""
","""event"",""trial"",""time""
""fullscreenenter"",""5"",""24511""
","
","1055.2000000476837","","49","","","3000","1","","","images/redplanet1.jpg","images/alien2","images/alien1","images/rocket2","images/alien1","images/t.png","2","real","true","1","common","1","2023-01-06 18:25:38.991"
"two-step-fixation","174","626915","0.0-77.0-2.12","284","5729","12","Male","true","false","false","true","""event"",""trial"",""time""
""focus"",""0"",""0""
""fullscreenenter"",""5"",""24511""
","
","""event"",""trial"",""time""
""focus"",""0"",""0""
","""event"",""trial"",""time""
""fullscreenenter"",""5"",""24511""
","
","","images/earth.jpg","","","","","","","","","","","","","","fixation","","","","","",""
"d3-animate-choice","175","629364","0.0-77.0-0.13","284","5729","12","Male","true","false","false","true","""event"",""trial"",""time""
""focus"",""0"",""0""
""fullscreenenter"",""5"",""24511""
","
","""event"",""trial"",""time""
""focus"",""0"",""0""
","""event"",""trial"",""time""
""fullscreenenter"",""5"",""24511""
","
","434.5","","48","","","3000","1","2142.2000000476837","48","images/earth.jpg","images/rocket2","images/rocket1","null","images/rocket2","","1","real","null","2","","",""
"d3-animate-choice","176","631375","0.0-77.0-1.13","284","5729","12","Male","true","false","false","true","""event"",""trial"",""time""
""focus"",""0"",""0""
""fullscreenenter"",""5"",""24511""
","
","""event"",""trial"",""time""
""focus"",""0"",""0""
","""event"",""trial"",""time""
""fullscreenenter"",""5"",""24511""
","
","1.4000000953674316","","48","","","3000","1","556.5999999046326,816.4000000953674,1383,1632.7999999523163","48,48,48,48","images/purpleplanet.jpg","images/alien4","images/alien3","images/rocket2","images/alien4","images/t.png","2","real","false","2","rare","1","2023-01-06 18:25:44.470"
"two-step-fixation","177","632390","0.0-77.0-2.13","284","5729","12","Male","true","false","false","true","""event"",""trial"",""time""
""focus"",""0"",""0""
""fullscreenenter"",""5"",""24511""
","
","""event"",""trial"",""time""
""focus"",""0"",""0""
","""event"",""trial"",""time""
""fullscreenenter"",""5"",""24511""
","
","","images/earth.jpg","","","","","","","","","","","","","","fixation","","","","","",""
"d3-animate-choice","178","634526","0.0-77.0-0.14","284","5729","12","Male","true","false","false","true","""event"",""trial"",""time""
""focus"",""0"",""0""
""fullscreenenter"",""5"",""24511""
","
","""event"",""trial"",""time""
""focus"",""0"",""0""
","""event"",""trial"",""time""
""fullscreenenter"",""5"",""24511""
","
","122.70000004768372","","48","","","3000","1","657.1000001430511,902.2000000476837,1509.1000001430511,1740.7000000476837","48,48,48,48","images/earth.jpg","images/rocket2","images/rocket1","null","images/rocket2","","1","real","null","2","","",""
"d3-animate-choice","179","636865","0.0-77.0-1.14","284","5729","12","Male","true","false","false","true","""event"",""trial"",""time""
""focus"",""0"",""0""
""fullscreenenter"",""5"",""24511""
","
","""event"",""trial"",""time""
""focus"",""0"",""0""
","""event"",""trial"",""time""
""fullscreenenter"",""5"",""24511""
","
","323.40000009536743","","48","","","3000","1","841.2999999523163,1098.9000000953674,1676.9000000953674,1950.2000000476837","49,48,49,48","images/redplanet1.jpg","images/alien2","images/alien1","images/rocket2","images/alien2","images/t.png","2","real","true","2","common","1","2023-01-06 18:25:49.960"
"two-step-fixation","180","637879","0.0-77.0-2.14","284","5729","12","Male","true","false","false","true","""event"",""trial"",""time""
""focus"",""0"",""0""
""fullscreenenter"",""5"",""24511""
","
","""event"",""trial"",""time""
""focus"",""0"",""0""
","""event"",""trial"",""time""
""fullscreenenter"",""5"",""24511""
","
","","images/earth.jpg","","","","","","","","","","","","","","fixation","","","","","",""
"d3-animate-choice","181","639946","0.0-77.0-0.15","284","5729","12","Male","true","false","false","true","""event"",""trial"",""time""
""focus"",""0"",""0""
""fullscreenenter"",""5"",""24511""
","
","""event"",""trial"",""time""
""focus"",""0"",""0""
","""event"",""trial"",""time""
""fullscreenenter"",""5"",""24511""
","
","55.700000047683716","","49","","","3000","1","323.7000000476837,866.1000001430511,1112.2999999523163,1689.4000000953674,1921.5","48,49,48,49,48","images/earth.jpg","images/rocket2","images/rocket1","null","images/rocket1","","1","real","null","1","","",""
"d3-animate-choice","182","642361","0.0-77.0-1.15","284","5729","12","Male","true","false","false","true","""event"",""trial"",""time""
""focus"",""0"",""0""
""fullscreenenter"",""5"",""24511""
","
","""event"",""trial"",""time""
""focus"",""0"",""0""
","""event"",""trial"",""time""
""fullscreenenter"",""5"",""24511""
","
","404.39999985694885","","49","","","3000","1","1005.2000000476837,1459.2000000476837,1779.0999999046326","48,49,48","images/redplanet1.jpg","images/alien2","images/alien1","images/rocket1","images/alien1","images/nothing.png","2","real","false","1","rare","0","2023-01-06 18:25:55.457"
"two-step-fixation","183","643376","0.0-77.0-2.15","284","5729","12","Male","true","false","false","true","""event"",""trial"",""time""
""focus"",""0"",""0""
""fullscreenenter"",""5"",""24511""
","
","""event"",""trial"",""time""
""focus"",""0"",""0""
","""event"",""trial"",""time""
""fullscreenenter"",""5"",""24511""
","
","","images/earth.jpg","","","","","","","","","","","","","","fixation","","","","","",""
"d3-animate-choice","184","646073","0.0-77.0-0.16","284","5729","12","Male","true","false","false","true","""event"",""trial"",""time""
""focus"",""0"",""0""
""fullscreenenter"",""5"",""24511""
","
","""event"",""trial"",""time""
""focus"",""0"",""0""
","""event"",""trial"",""time""
""fullscreenenter"",""5"",""24511""
","
","677.3000001907349","","49","","","3000","1","953.4000000953674,1455.1000001430511,1690,1889.4000000953674,2099.300000190735,2265.800000190735,2492.100000143051","57,49,48,49,48,49,48","images/earth.jpg","images/rocket2","images/rocket1","null","images/rocket1","","1","real","null","1","","",""
"d3-animate-choice","185","648083","0.0-77.0-1.16","284","5729","12","Male","true","false","false","true","""event"",""trial"",""time""
""focus"",""0"",""0""
""fullscreenenter"",""5"",""24511""
","
","""event"",""trial"",""time""
""focus"",""0"",""0""
","""event"",""trial"",""time""
""fullscreenenter"",""5"",""24511""
","
","0.19999980926513672","","49","","","3000","1","182.79999995231628,390.5,573.7999999523163,743.0999999046326,958.7999999523163,1148.8999998569489,1340.0999999046326,1500.5,1703.0999999046326,1863.6999998092651","48,49,48,49,48,49,48,49,48,49","images/redplanet1.jpg","images/alien2","images/alien1","images/rocket1","images/alien1","images/t.png","2","real","false","1","rare","1","2023-01-06 18:26:01.178"
"two-step-fixation","186","649091","0.0-77.0-2.16","284","5729","12","Male","true","false","false","true","""event"",""trial"",""time""
""focus"",""0"",""0""
""fullscreenenter"",""5"",""24511""
","
","""event"",""trial"",""time""
""focus"",""0"",""0""
","""event"",""trial"",""time""
""fullscreenenter"",""5"",""24511""
","
","","images/earth.jpg","","","","","","","","","","","","","","fixation","","","","","",""
"d3-animate-choice","187","651294","0.0-77.0-0.17","284","5729","12","Male","true","false","false","true","""event"",""trial"",""time""
""focus"",""0"",""0""
""fullscreenenter"",""5"",""24511""
","
","""event"",""trial"",""time""
""focus"",""0"",""0""
","""event"",""trial"",""time""
""fullscreenenter"",""5"",""24511""
","
","187.10000014305115","","48","","","3000","1","503,588.5,813,979.7000000476837,1210,1364.7999999523163,1653.7000000476837,2166.600000143051,2198.100000143051","48,49,48,49,48,49,48,48,49","images/earth.jpg","images/rocket2","images/rocket1","null","images/rocket2","","1","real","null","2","","",""
"d3-animate-choice","188","654448","0.0-77.0-1.17","284","5729","12","Male","true","false","false","true","""event"",""trial"",""time""
""focus"",""0"",""0""
""fullscreenenter"",""5"",""24511""
","
","""event"",""trial"",""time""
""focus"",""0"",""0""
","""event"",""trial"",""time""
""fullscreenenter"",""5"",""24511""
","
","1145.5","","48","","","3000","1","1748.2999999523163,1984.7999999523163,2588.2999999523163,2627.899999856949,2767.2000000476837,2930.399999856949,2939.7999999523163,3126.399999856949,3145","48,49,48,57,49,48,57,49,50","images/purpleplanet.jpg","images/alien4","images/alien3","images/rocket2","images/alien4","images/t.png","2","real","false","2","rare","1","2023-01-06 18:26:07.543"
"two-step-fixation","189","655461","0.0-77.0-2.17","284","5729","12","Male","true","false","false","true","""event"",""trial"",""time""
""focus"",""0"",""0""
""fullscreenenter"",""5"",""24511""
","
","""event"",""trial"",""time""
""focus"",""0"",""0""
","""event"",""trial"",""time""
""fullscreenenter"",""5"",""24511""
","
","","images/earth.jpg","","","","","","","","","","","","","","fixation","","","","","",""
"d3-animate-choice","190","657480","0.0-77.0-0.18","284","5729","12","Male","true","false","false","true","""event"",""trial"",""time""
""focus"",""0"",""0""
""fullscreenenter"",""5"",""24511""
","
","""event"",""trial"",""time""
""focus"",""0"",""0""
","""event"",""trial"",""time""
""fullscreenenter"",""5"",""24511""
","
","5.5","","57","","","3000","1","6.300000190734863,256.80000019073486,840.2000000476837,1058.2000000476837,1497.6000001430511,1660,1839.8000001907349","48,48,48,48,48,48,48","images/earth.jpg","images/rocket2","images/rocket1","null","images/rocket2","","1","real","null","","","",""
"d3-animate-choice","191","659499","0.0-77.0-1.18","284","5729","12","Male","true","false","false","true","""event"",""trial"",""time""
""focus"",""0"",""0""
""fullscreenenter"",""5"",""24511""
","
","""event"",""trial"",""time""
""focus"",""0"",""0""
","""event"",""trial"",""time""
""fullscreenenter"",""5"",""24511""
","
","11.5","","48","","","3000","1","211.59999990463257,406.7000000476837,607,989.7999999523163,1398.8999998569489,1941.2000000476837","48,48,48,48,48,48","images/redplanet1.jpg","images/alien2","images/alien1","images/rocket2","images/alien2","images/t.png","2","real","true","2","common","1","2023-01-06 18:26:12.594"
"two-step-fixation","192","660512","0.0-77.0-2.18","284","5729","12","Male","true","false","false","true","""event"",""trial"",""time""
""focus"",""0"",""0""
""fullscreenenter"",""5"",""24511""
","
","""event"",""trial"",""time""
""focus"",""0"",""0""
","""event"",""trial"",""time""
""fullscreenenter"",""5"",""24511""
","
","","images/earth.jpg","","","","","","","","","","","","","","fixation","","","","","",""
"d3-animate-choice","193","662525","0.0-77.0-0.19","284","5729","12","Male","true","false","false","true","""event"",""trial"",""time""
""focus"",""0"",""0""
""fullscreenenter"",""5"",""24511""
","
","""event"",""trial"",""time""
""focus"",""0"",""0""
","""event"",""trial"",""time""
""fullscreenenter"",""5"",""24511""
","
","8","","48","","","3000","1","204.70000004768372,431.90000009536743,629,1013.7000000476837,1394.6000001430511","48,48,48,48,48","images/earth.jpg","images/rocket2","images/rocket1","null","images/rocket2","","1","real","null","2","","",""
"d3-animate-choice","194","664578","0.0-77.0-1.19","284","5729","12","Male","true","false","false","true","""event"",""trial"",""time""
""focus"",""0"",""0""
""fullscreenenter"",""5"",""24511""
","
","""event"",""trial"",""time""
""focus"",""0"",""0""
","""event"",""trial"",""time""
""fullscreenenter"",""5"",""24511""
","
