"trial_type","trial_index","time_elapsed","internal_node_id","participant_id","subject_id","age","gender","rocket_sides","red_planet_first_rocket","red_display_order","purple_display_order","interactions","blur_events","focus_events","fullscreenenter_events","fullscreenexit_events","rt","stimulus","key_press","button_pressed","success","duration","valid_pressed","rts","keys","planet_text","right_text","left_text","center_text","chosen_text","reward_text","trial_stage","practice_trial","transition_type","choice","transition","reward","timestamp"
"pavlovia","0","5","0.0-0.0","481","5227","24","Female","true","false","false","true","""event"",""trial"",""time""
""blur"",""0"",""0""
""focus"",""1"",""3178""
","""event"",""trial"",""time""
""blur"",""0"",""0""
","""event"",""trial"",""time""
""focus"",""1"",""3178""
","
","
","","","","","","","","","","","","","","","","","","","","","",""
"html-keyboard-response","1","4426","0.0-1.0","481","5227","24","Female","true","false","false","true","""event"",""trial"",""time""
""blur"",""0"",""0""
""focus"",""1"",""3178""
","""event"",""trial"",""time""
""blur"",""0"",""0""
","""event"",""trial"",""time""
""focus"",""1"",""3178""
","
","
","4420.200000286102","Welcome! Press the space bar to begin.","32","","","","","","","","","","","","","","","","","","",""
"audio-keyboard-response","2","10233","0.0-2.0","481","5227","24","Female","true","false","false","true","""event"",""trial"",""time""
""blur"",""0"",""0""
""focus"",""1"",""3178""
","""event"",""trial"",""time""
""blur"",""0"",""0""
","""event"",""trial"",""time""
""focus"",""1"",""3178""
","
","
","5750","audio/beep_loop.wav","32","","","","","","","","","","","","","","","","","","",""
"audio-button-response","3","11965","0.0-3.0","481","5227","24","Female","true","false","false","true","""event"",""trial"",""time""
""blur"",""0"",""0""
""focus"",""1"",""3178""
","""event"",""trial"",""time""
""blur"",""0"",""0""
","""event"",""trial"",""time""
""focus"",""1"",""3178""
","
","
","NaN","audio/fish.mp3","","1","","","","","","","","","","","","","","","","","",""
"audio-button-response","4","14687","0.0-4.0","481","5227","24","Female","true","false","false","true","""event"",""trial"",""time""
""blur"",""0"",""0""
""focus"",""1"",""3178""
""fullscreenenter"",""5"",""17723""
","""event"",""trial"",""time""
""blur"",""0"",""0""
","""event"",""trial"",""time""
""focus"",""1"",""3178""
","""event"",""trial"",""time""
""fullscreenenter"",""5"",""17723""
","
","NaN","audio/tiger.mp3","","4","","","","","","","","","","","","","","","","","",""
"fullscreen","5","18712","0.0-5.0","481","5227","24","Female","true","false","false","true","""event"",""trial"",""time""
""blur"",""0"",""0""
""focus"",""1"",""3178""
""fullscreenenter"",""5"",""17723""
","""event"",""trial"",""time""
""blur"",""0"",""0""
","""event"",""trial"",""time""
""focus"",""1"",""3178""
","""event"",""trial"",""time""
""fullscreenenter"",""5"",""17723""
","
","","","","","true","","","","","","","","","","","","","","","","",""
"d3-instructions","6","32833","0.0-6.0","481","5227","24","Female","true","false","false","true","""event"",""trial"",""time""
""blur"",""0"",""0""
""focus"",""1"",""3178""
""fullscreenenter"",""5"",""17723""
","""event"",""trial"",""time""
""blur"",""0"",""0""
","""event"",""trial"",""time""
""focus"",""1"",""3178""
","""event"",""trial"",""time""
""fullscreenenter"",""5"",""17723""
","
","","","","","","","","","","","","","","","","","","","","","",""
"d3-instructions","7","37812","0.0-7.0","481","5227","24","Female","true","false","false","true","""event"",""trial"",""time""
""blur"",""0"",""0""
""focus"",""1"",""3178""
""fullscreenenter"",""5"",""17723""
","""event"",""trial"",""time""
""blur"",""0"",""0""
","""event"",""trial"",""time""
""focus"",""1"",""3178""
","""event"",""trial"",""time""
""fullscreenenter"",""5"",""17723""
","
","","","","","","","","","","","","","","","","","","","","","",""
"d3-instructions","8","43893","0.0-8.0","481","5227","24","Female","true","false","false","true","""event"",""trial"",""time""
""blur"",""0"",""0""
""focus"",""1"",""3178""
""fullscreenenter"",""5"",""17723""
","""event"",""trial"",""time""
""blur"",""0"",""0""
","""event"",""trial"",""time""
""focus"",""1"",""3178""
","""event"",""trial"",""time""
""fullscreenenter"",""5"",""17723""
","
","","","","","","","","","","","","","","","","","","","","","",""
"d3-instructions","9","54377","0.0-9.0","481","5227","24","Female","true","false","false","true","""event"",""trial"",""time""
""blur"",""0"",""0""
""focus"",""1"",""3178""
""fullscreenenter"",""5"",""17723""
","""event"",""trial"",""time""
""blur"",""0"",""0""
","""event"",""trial"",""time""
""focus"",""1"",""3178""
","""event"",""trial"",""time""
""fullscreenenter"",""5"",""17723""
","
","","","","","","","","","","","","","","","","","","","","","",""
"d3-instructions","10","73171","0.0-10.0","481","5227","24","Female","true","false","false","true","""event"",""trial"",""time""
""blur"",""0"",""0""
""focus"",""1"",""3178""
""fullscreenenter"",""5"",""17723""
","""event"",""trial"",""time""
""blur"",""0"",""0""
","""event"",""trial"",""time""
""focus"",""1"",""3178""
","""event"",""trial"",""time""
""fullscreenenter"",""5"",""17723""
","
","","","","","","","","","","","","","","","","","","","","","",""
"d3-animate-choice","11","75736","0.0-11.0","481","5227","24","Female","true","false","false","true","""event"",""trial"",""time""
""blur"",""0"",""0""
""focus"",""1"",""3178""
""fullscreenenter"",""5"",""17723""
","""event"",""trial"",""time""
""blur"",""0"",""0""
","""event"",""trial"",""time""
""focus"",""1"",""3178""
","""event"",""trial"",""time""
""fullscreenenter"",""5"",""17723""
","
","550","","49","","","3000","1","","","images/tutgreenplanet.jpg","images/tutalien1","images/tutalien2","null","images/tutalien2","","NA","practice","null","","","",""
"d3-animate-choice","12","78223","0.0-12.0","481","5227","24","Female","true","false","false","true","""event"",""trial"",""time""
""blur"",""0"",""0""
""focus"",""1"",""3178""
""fullscreenenter"",""5"",""17723""
","""event"",""trial"",""time""
""blur"",""0"",""0""
","""event"",""trial"",""time""
""focus"",""1"",""3178""
","""event"",""trial"",""time""
""fullscreenenter"",""5"",""17723""
","
","468.5","","49","","","3000","1","","","images/tutgreenplanet.jpg","images/tutalien1","images/tutalien2","null","images/tutalien2","","NA","practice","null","","","",""
"d3-animate-choice","13","80615","0.0-13.0","481","5227","24","Female","true","false","false","true","""event"",""trial"",""time""
""blur"",""0"",""0""
""focus"",""1"",""3178""
""fullscreenenter"",""5"",""17723""
","""event"",""trial"",""time""
""blur"",""0"",""0""
","""event"",""trial"",""time""
""focus"",""1"",""3178""
","""event"",""trial"",""time""
""fullscreenenter"",""5"",""17723""
","
","379.2999997138977","","48","","","3000","1","1838.6999998092651","49","images/tutgreenplanet.jpg","images/tutalien1","images/tutalien2","null","images/tutalien1","","NA","practice","null","","","",""
"d3-animate-choice","14","83034","0.0-14.0","481","5227","24","Female","true","false","false","true","""event"",""trial"",""time""
""blur"",""0"",""0""
""focus"",""1"",""3178""
""fullscreenenter"",""5"",""17723""
","""event"",""trial"",""time""
""blur"",""0"",""0""
","""event"",""trial"",""time""
""focus"",""1"",""3178""
","""event"",""trial"",""time""
""fullscreenenter"",""5"",""17723""
","
","405.40000009536743","","49","","","3000","1","","","images/tutgreenplanet.jpg","images/tutalien1","images/tutalien2","null","images/tutalien2","","NA","practice","null","","","",""
"d3-instructions","15","89775","0.0-15.0","481","5227","24","Female","true","false","false","true","""event"",""trial"",""time""
""blur"",""0"",""0""
""focus"",""1"",""3178""
""fullscreenenter"",""5"",""17723""
","""event"",""trial"",""time""
""blur"",""0"",""0""
","""event"",""trial"",""time""
""focus"",""1"",""3178""
","""event"",""trial"",""time""
""fullscreenenter"",""5"",""17723""
","
","","","","","","","","","","","","","","","","","","","","","",""
"d3-instructions","16","94994","0.0-16.0","481","5227","24","Female","true","false","false","true","""event"",""trial"",""time""
""blur"",""0"",""0""
""focus"",""1"",""3178""
""fullscreenenter"",""5"",""17723""
","""event"",""trial"",""time""
""blur"",""0"",""0""
","""event"",""trial"",""time""
""focus"",""1"",""3178""
","""event"",""trial"",""time""
""fullscreenenter"",""5"",""17723""
","
","","","","","","","","","","","","","","","","","","","","","",""
"d3-instructions","17","100372","0.0-17.0","481","5227","24","Female","true","false","false","true","""event"",""trial"",""time""
""blur"",""0"",""0""
""focus"",""1"",""3178""
""fullscreenenter"",""5"",""17723""
","""event"",""trial"",""time""
""blur"",""0"",""0""
","""event"",""trial"",""time""
""focus"",""1"",""3178""
","""event"",""trial"",""time""
""fullscreenenter"",""5"",""17723""
","
","","","","","","","","","","","","","","","","","","","","","",""
"d3-instructions","18","112579","0.0-18.0","481","5227","24","Female","true","false","false","true","""event"",""trial"",""time""
""blur"",""0"",""0""
""focus"",""1"",""3178""
""fullscreenenter"",""5"",""17723""
","""event"",""trial"",""time""
""blur"",""0"",""0""
","""event"",""trial"",""time""
""focus"",""1"",""3178""
","""event"",""trial"",""time""
""fullscreenenter"",""5"",""17723""
","
","","","","","","","","","","","","","","","","","","","","","",""
"d3-instructions","19","122399","0.0-19.0","481","5227","24","Female","true","false","false","true","""event"",""trial"",""time""
""blur"",""0"",""0""
""focus"",""1"",""3178""
""fullscreenenter"",""5"",""17723""
","""event"",""trial"",""time""
""blur"",""0"",""0""
","""event"",""trial"",""time""
""focus"",""1"",""3178""
","""event"",""trial"",""time""
""fullscreenenter"",""5"",""17723""
","
","","","","","","","","","","","","","","","","","","","","","",""
"d3-animate-choice","20","124968","0.0-20.0","481","5227","24","Female","true","false","false","true","""event"",""trial"",""time""
""blur"",""0"",""0""
""focus"",""1"",""3178""
""fullscreenenter"",""5"",""17723""
","""event"",""trial"",""time""
""blur"",""0"",""0""
","""event"",""trial"",""time""
""focus"",""1"",""3178""
","""event"",""trial"",""time""
""fullscreenenter"",""5"",""17723""
","
","553.6000003814697","","49","","","3000","1","","","images/tutyellowplanet.jpg","null","images/tutalien3","null","images/tutalien3","images/t.png","NA","practice","null","","","",""
"d3-animate-choice","21","127281","0.0-21.0","481","5227","24","Female","true","false","false","true","""event"",""trial"",""time""
""blur"",""0"",""0""
""focus"",""1"",""3178""
""fullscreenenter"",""5"",""17723""
","""event"",""trial"",""time""
""blur"",""0"",""0""
","""event"",""trial"",""time""
""focus"",""1"",""3178""
","""event"",""trial"",""time""
""fullscreenenter"",""5"",""17723""
","
","295.5","","49","","","3000","1","1779.0999999046326","49","images/tutyellowplanet.jpg","null","images/tutalien3","null","images/tutalien3","images/t.png","NA","practice","null","","","",""
"d3-animate-choice","22","129542","0.0-22.0","481","5227","24","Female","true","false","false","true","""event"",""trial"",""time""
""blur"",""0"",""0""
""focus"",""1"",""3178""
""fullscreenenter"",""5"",""17723""
","""event"",""trial"",""time""
""blur"",""0"",""0""
","""event"",""trial"",""time""
""focus"",""1"",""3178""
","""event"",""trial"",""time""
""fullscreenenter"",""5"",""17723""
","
","241.7999997138977","","49","","","3000","1","","","images/tutyellowplanet.jpg","null","images/tutalien3","null","images/tutalien3","images/t.png","NA","practice","null","","","",""
"d3-animate-choice","23","131853","0.0-23.0","481","5227","24","Female","true","false","false","true","""event"",""trial"",""time""
""blur"",""0"",""0""
""focus"",""1"",""3178""
""fullscreenenter"",""5"",""17723""
","""event"",""trial"",""time""
""blur"",""0"",""0""
","""event"",""trial"",""time""
""focus"",""1"",""3178""
","""event"",""trial"",""time""
""fullscreenenter"",""5"",""17723""
","
","300","","49","","","3000","1","","","images/tutyellowplanet.jpg","null","images/tutalien3","null","images/tutalien3","images/nothing.png","NA","practice","null","","","",""
"d3-animate-choice","24","134452","0.0-24.0","481","5227","24","Female","true","false","false","true","""event"",""trial"",""time""
""blur"",""0"",""0""
""focus"",""1"",""3178""
""fullscreenenter"",""5"",""17723""
","""event"",""trial"",""time""
""blur"",""0"",""0""
","""event"",""trial"",""time""
""focus"",""1"",""3178""
","""event"",""trial"",""time""
""fullscreenenter"",""5"",""17723""
","
","594.2999997138977","","49","","","3000","1","","","images/tutyellowplanet.jpg","null","images/tutalien3","null","images/tutalien3","images/nothing.png","NA","practice","null","","","",""
"d3-animate-choice","25","136843","0.0-25.0","481","5227","24","Female","true","false","false","true","""event"",""trial"",""time""
""blur"",""0"",""0""
""focus"",""1"",""3178""
""fullscreenenter"",""5"",""17723""
","""event"",""trial"",""time""
""blur"",""0"",""0""
","""event"",""trial"",""time""
""focus"",""1"",""3178""
","""event"",""trial"",""time""
""fullscreenenter"",""5"",""17723""
","
","371.6000003814697","","49","","","3000","1","","","images/tutyellowplanet.jpg","null","images/tutalien3","null","images/tutalien3","images/t.png","NA","practice","null","","","",""
"d3-animate-choice","26","139178","0.0-26.0","481","5227","24","Female","true","false","false","true","""event"",""trial"",""time""
""blur"",""0"",""0""
""focus"",""1"",""3178""
""fullscreenenter"",""5"",""17723""
","""event"",""trial"",""time""
""blur"",""0"",""0""
","""event"",""trial"",""time""
""focus"",""1"",""3178""
","""event"",""trial"",""time""
""fullscreenenter"",""5"",""17723""
","
","318.5","","49","","","3000","1","","","images/tutyellowplanet.jpg","null","images/tutalien3","null","images/tutalien3","images/t.png","NA","practice","null","","","",""
"d3-animate-choice","27","141542","0.0-27.0","481","5227","24","Female","true","false","false","true","""event"",""trial"",""time""
""blur"",""0"",""0""
""focus"",""1"",""3178""
""fullscreenenter"",""5"",""17723""
","""event"",""trial"",""time""
""blur"",""0"",""0""
","""event"",""trial"",""time""
""focus"",""1"",""3178""
","""event"",""trial"",""time""
""fullscreenenter"",""5"",""17723""
","
","353.59999990463257","","49","","","3000","1","","","images/tutyellowplanet.jpg","null","images/tutalien3","null","images/tutalien3","images/nothing.png","NA","practice","null","","","",""
"d3-animate-choice","28","143949","0.0-28.0","481","5227","24","Female","true","false","false","true","""event"",""trial"",""time""
""blur"",""0"",""0""
""focus"",""1"",""3178""
""fullscreenenter"",""5"",""17723""
","""event"",""trial"",""time""
""blur"",""0"",""0""
","""event"",""trial"",""time""
""focus"",""1"",""3178""
","""event"",""trial"",""time""
""fullscreenenter"",""5"",""17723""
","
","400.3999996185303","","49","","","3000","1","","","images/tutyellowplanet.jpg","null","images/tutalien3","null","images/tutalien3","images/t.png","NA","practice","null","","","",""
"d3-animate-choice","29","146332","0.0-29.0","481","5227","24","Female","true","false","false","true","""event"",""trial"",""time""
""blur"",""0"",""0""
""focus"",""1"",""3178""
""fullscreenenter"",""5"",""17723""
","""event"",""trial"",""time""
""blur"",""0"",""0""
","""event"",""trial"",""time""
""focus"",""1"",""3178""
","""event"",""trial"",""time""
""fullscreenenter"",""5"",""17723""
","
","366.69999980926514","","49","","","3000","1","","","images/tutyellowplanet.jpg","null","images/tutalien3","null","images/tutalien3","images/t.png","NA","practice","null","","","",""
"d3-instructions","30","149248","0.0-30.0","481","5227","24","Female","true","false","false","true","""event"",""trial"",""time""
""blur"",""0"",""0""
""focus"",""1"",""3178""
""fullscreenenter"",""5"",""17723""
","""event"",""trial"",""time""
""blur"",""0"",""0""
","""event"",""trial"",""time""
""focus"",""1"",""3178""
","""event"",""trial"",""time""
""fullscreenenter"",""5"",""17723""
","
","","","","","","","","","","","","","","","","","","","","","",""
"d3-instructions","31","158596","0.0-31.0","481","5227","24","Female","true","false","false","true","""event"",""trial"",""time""
""blur"",""0"",""0""
""focus"",""1"",""3178""
""fullscreenenter"",""5"",""17723""
","""event"",""trial"",""time""
""blur"",""0"",""0""
","""event"",""trial"",""time""
""focus"",""1"",""3178""
","""event"",""trial"",""time""
""fullscreenenter"",""5"",""17723""
","
","","","","","","","","","","","","","","","","","","","","","",""
"d3-instructions","32","163239","0.0-32.0","481","5227","24","Female","true","false","false","true","""event"",""trial"",""time""
""blur"",""0"",""0""
""focus"",""1"",""3178""
""fullscreenenter"",""5"",""17723""
","""event"",""trial"",""time""
""blur"",""0"",""0""
","""event"",""trial"",""time""
""focus"",""1"",""3178""
","""event"",""trial"",""time""
""fullscreenenter"",""5"",""17723""
","
","","","","","","","","","","","","","","","","","","","","","",""
"d3-instructions","33","169657","0.0-33.0","481","5227","24","Female","true","false","false","true","""event"",""trial"",""time""
""blur"",""0"",""0""
""focus"",""1"",""3178""
""fullscreenenter"",""5"",""17723""
","""event"",""trial"",""time""
""blur"",""0"",""0""
","""event"",""trial"",""time""
""focus"",""1"",""3178""
","""event"",""trial"",""time""
""fullscreenenter"",""5"",""17723""
","
","","","","","","","","","","","","","","","","","","","","","",""
"d3-animate-choice","34","172296","0.0-34.0","481","5227","24","Female","true","false","false","true","""event"",""trial"",""time""
""blur"",""0"",""0""
""focus"",""1"",""3178""
""fullscreenenter"",""5"",""17723""
","""event"",""trial"",""time""
""blur"",""0"",""0""
","""event"",""trial"",""time""
""focus"",""1"",""3178""
","""event"",""trial"",""time""
""fullscreenenter"",""5"",""17723""
","
","624.6999998092651","","49","","","3000","1","","","images/tutgreenplanet.jpg","images/tutalien1","images/tutalien2","null","images/tutalien2","images/t.png","NA","practice","null","","","",""
"d3-animate-choice","35","174752","0.0-35.0","481","5227","24","Female","true","false","false","true","""event"",""trial"",""time""
""blur"",""0"",""0""
""focus"",""1"",""3178""
""fullscreenenter"",""5"",""17723""
","""event"",""trial"",""time""
""blur"",""0"",""0""
","""event"",""trial"",""time""
""focus"",""1"",""3178""
","""event"",""trial"",""time""
""fullscreenenter"",""5"",""17723""
","
","448.5","","49","","","3000","1","","","images/tutgreenplanet.jpg","images/tutalien1","images/tutalien2","null","images/tutalien2","images/t.png","NA","practice","null","","","",""
"d3-animate-choice","36","177063","0.0-36.0","481","5227","24","Female","true","false","false","true","""event"",""trial"",""time""
""blur"",""0"",""0""
""focus"",""1"",""3178""
""fullscreenenter"",""5"",""17723""
","""event"",""trial"",""time""
""blur"",""0"",""0""
","""event"",""trial"",""time""
""focus"",""1"",""3178""
","""event"",""trial"",""time""
""fullscreenenter"",""5"",""17723""
","
","295.7000002861023","","49","","","3000","1","","","images/tutgreenplanet.jpg","images/tutalien1","images/tutalien2","null","images/tutalien2","images/t.png","NA","practice","null","","","",""
"d3-animate-choice","37","179372","0.0-37.0","481","5227","24","Female","true","false","false","true","""event"",""trial"",""time""
""blur"",""0"",""0""
""focus"",""1"",""3178""
""fullscreenenter"",""5"",""17723""
","""event"",""trial"",""time""
""blur"",""0"",""0""
","""event"",""trial"",""time""
""focus"",""1"",""3178""
","""event"",""trial"",""time""
""fullscreenenter"",""5"",""17723""
","
","289","","49","","","3000","1","1771.9000000953674","49","images/tutgreenplanet.jpg","images/tutalien1","images/tutalien2","null","images/tutalien2","images/t.png","NA","practice","null","","","",""
"d3-animate-choice","38","181748","0.0-38.0","481","5227","24","Female","true","false","false","true","""event"",""trial"",""time""
""blur"",""0"",""0""
""focus"",""1"",""3178""
""fullscreenenter"",""5"",""17723""
","""event"",""trial"",""time""
""blur"",""0"",""0""
","""event"",""trial"",""time""
""focus"",""1"",""3178""
","""event"",""trial"",""time""
""fullscreenenter"",""5"",""17723""
","
","361.8999996185303","","49","","","3000","1","","","images/tutgreenplanet.jpg","images/tutalien1","images/tutalien2","null","images/tutalien2","images/t.png","NA","practice","null","","","",""
"d3-animate-choice","39","184199","0.0-39.0","481","5227","24","Female","true","false","false","true","""event"",""trial"",""time""
""blur"",""0"",""0""
""focus"",""1"",""3178""
""fullscreenenter"",""5"",""17723""
","""event"",""trial"",""time""
""blur"",""0"",""0""
","""event"",""trial"",""time""
""focus"",""1"",""3178""
","""event"",""trial"",""time""
""fullscreenenter"",""5"",""17723""
","
","436","","49","","","3000","1","","","images/tutgreenplanet.jpg","images/tutalien1","images/tutalien2","null","images/tutalien2","images/t.png","NA","practice","null","","","",""
"d3-animate-choice","40","186563","0.0-40.0","481","5227","24","Female","true","false","false","true","""event"",""trial"",""time""
""blur"",""0"",""0""
""focus"",""1"",""3178""
""fullscreenenter"",""5"",""17723""
","""event"",""trial"",""time""
""blur"",""0"",""0""
","""event"",""trial"",""time""
""focus"",""1"",""3178""
","""event"",""trial"",""time""
""fullscreenenter"",""5"",""17723""
","
","334","","49","","","3000","1","1807.1999998092651","49","images/tutgreenplanet.jpg","images/tutalien1","images/tutalien2","null","images/tutalien2","images/t.png","NA","practice","null","","","",""
"d3-animate-choice","41","188864","0.0-41.0","481","5227","24","Female","true","false","false","true","""event"",""trial"",""time""
""blur"",""0"",""0""
""focus"",""1"",""3178""
""fullscreenenter"",""5"",""17723""
","""event"",""trial"",""time""
""blur"",""0"",""0""
","""event"",""trial"",""time""
""focus"",""1"",""3178""
","""event"",""trial"",""time""
""fullscreenenter"",""5"",""17723""
","
","294.09999990463257","","49","","","3000","1","","","images/tutgreenplanet.jpg","images/tutalien1","images/tutalien2","null","images/tutalien2","images/t.png","NA","practice","null","","","",""
"d3-animate-choice","42","191212","0.0-42.0","481","5227","24","Female","true","false","false","true","""event"",""trial"",""time""
""blur"",""0"",""0""
""focus"",""1"",""3178""
""fullscreenenter"",""5"",""17723""
","""event"",""trial"",""time""
""blur"",""0"",""0""
","""event"",""trial"",""time""
""focus"",""1"",""3178""
","""event"",""trial"",""time""
""fullscreenenter"",""5"",""17723""
","
","339.69999980926514","","49","","","3000","1","","","images/tutgreenplanet.jpg","images/tutalien1","images/tutalien2","null","images/tutalien2","images/nothing.png","NA","practice","null","","","",""
"d3-animate-choice","43","193511","0.0-43.0","481","5227","24","Female","true","false","false","true","""event"",""trial"",""time""
""blur"",""0"",""0""
""focus"",""1"",""3178""
""fullscreenenter"",""5"",""17723""
","""event"",""trial"",""time""
""blur"",""0"",""0""
","""event"",""trial"",""time""
""focus"",""1"",""3178""
","""event"",""trial"",""time""
""fullscreenenter"",""5"",""17723""
","
","290.6000003814697","","49","","","3000","1","","","images/tutgreenplanet.jpg","images/tutalien1","images/tutalien2","null","images/tutalien2","images/t.png","NA","practice","null","","","",""
"d3-instructions","44","201355","0.0-44.0","481","5227","24","Female","true","false","false","true","""event"",""trial"",""time""
""blur"",""0"",""0""
""focus"",""1"",""3178""
""fullscreenenter"",""5"",""17723""
","""event"",""trial"",""time""
""blur"",""0"",""0""
","""event"",""trial"",""time""
""focus"",""1"",""3178""
","""event"",""trial"",""time""
""fullscreenenter"",""5"",""17723""
","
","","","","","","","","","","","","","","","","","","","","","",""
"d3-instructions","45","207014","0.0-45.0","481","5227","24","Female","true","false","false","true","""event"",""trial"",""time""
""blur"",""0"",""0""
""focus"",""1"",""3178""
""fullscreenenter"",""5"",""17723""
","""event"",""trial"",""time""
""blur"",""0"",""0""
","""event"",""trial"",""time""
""focus"",""1"",""3178""
","""event"",""trial"",""time""
""fullscreenenter"",""5"",""17723""
","
","","","","","","","","","","","","","","","","","","","","","",""
"d3-instructions","46","211353","0.0-46.0","481","5227","24","Female","true","false","false","true","""event"",""trial"",""time""
""blur"",""0"",""0""
""focus"",""1"",""3178""
""fullscreenenter"",""5"",""17723""
","""event"",""trial"",""time""
""blur"",""0"",""0""
","""event"",""trial"",""time""
""focus"",""1"",""3178""
","""event"",""trial"",""time""
""fullscreenenter"",""5"",""17723""
","
","","","","","","","","","","","","","","","","","","","","","",""
"d3-instructions","47","227784","0.0-47.0","481","5227","24","Female","true","false","false","true","""event"",""trial"",""time""
""blur"",""0"",""0""
""focus"",""1"",""3178""
""fullscreenenter"",""5"",""17723""
","""event"",""trial"",""time""
""blur"",""0"",""0""
","""event"",""trial"",""time""
""focus"",""1"",""3178""
","""event"",""trial"",""time""
""fullscreenenter"",""5"",""17723""
","
","","","","","","","","","","","","","","","","","","","","","",""
"d3-instructions","48","235703","0.0-48.0","481","5227","24","Female","true","false","false","true","""event"",""trial"",""time""
""blur"",""0"",""0""
""focus"",""1"",""3178""
""fullscreenenter"",""5"",""17723""
","""event"",""trial"",""time""
""blur"",""0"",""0""
","""event"",""trial"",""time""
""focus"",""1"",""3178""
","""event"",""trial"",""time""
""fullscreenenter"",""5"",""17723""
","
","","","","","","","","","","","","","","","","","","","","","",""
"d3-instructions","49","246394","0.0-49.0","481","5227","24","Female","true","false","false","true","""event"",""trial"",""time""
""blur"",""0"",""0""
""focus"",""1"",""3178""
""fullscreenenter"",""5"",""17723""
","""event"",""trial"",""time""
""blur"",""0"",""0""
","""event"",""trial"",""time""
""focus"",""1"",""3178""
","""event"",""trial"",""time""
""fullscreenenter"",""5"",""17723""
","
","","","","","","","","","","","","","","","","","","","","","",""
"d3-instructions","50","252352","0.0-50.0","481","5227","24","Female","true","false","false","true","""event"",""trial"",""time""
""blur"",""0"",""0""
""focus"",""1"",""3178""
""fullscreenenter"",""5"",""17723""
","""event"",""trial"",""time""
""blur"",""0"",""0""
","""event"",""trial"",""time""
""focus"",""1"",""3178""
","""event"",""trial"",""time""
""fullscreenenter"",""5"",""17723""
","
","","","","","","","","","","","","","","","","","","","","","",""
"d3-instructions","51","254793","0.0-51.0","481","5227","24","Female","true","false","false","true","""event"",""trial"",""time""
""blur"",""0"",""0""
""focus"",""1"",""3178""
""fullscreenenter"",""5"",""17723""
","""event"",""trial"",""time""
""blur"",""0"",""0""
","""event"",""trial"",""time""
""focus"",""1"",""3178""
","""event"",""trial"",""time""
""fullscreenenter"",""5"",""17723""
","
","","","","","","","","","","","","","","","","","","","","","",""
"d3-instructions","52","256963","0.0-52.0","481","5227","24","Female","true","false","false","true","""event"",""trial"",""time""
""blur"",""0"",""0""
""focus"",""1"",""3178""
""fullscreenenter"",""5"",""17723""
","""event"",""trial"",""time""
""blur"",""0"",""0""
","""event"",""trial"",""time""
""focus"",""1"",""3178""
","""event"",""trial"",""time""
""fullscreenenter"",""5"",""17723""
","
","","","","","","","","","","","","","","","","","","","","","",""
"d3-instructions","53","264152","0.0-53.0","481","5227","24","Female","true","false","false","true","""event"",""trial"",""time""
""blur"",""0"",""0""
""focus"",""1"",""3178""
""fullscreenenter"",""5"",""17723""
","""event"",""trial"",""time""
""blur"",""0"",""0""
","""event"",""trial"",""time""
""focus"",""1"",""3178""
","""event"",""trial"",""time""
""fullscreenenter"",""5"",""17723""
","
","","","","","","","","","","","","","","","","","","","","","",""
"d3-instructions","54","274882","0.0-54.0","481","5227","24","Female","true","false","false","true","""event"",""trial"",""time""
""blur"",""0"",""0""
""focus"",""1"",""3178""
""fullscreenenter"",""5"",""17723""
","""event"",""trial"",""time""
""blur"",""0"",""0""
","""event"",""trial"",""time""
""focus"",""1"",""3178""
","""event"",""trial"",""time""
""fullscreenenter"",""5"",""17723""
","
","","","","","","","","","","","","","","","","","","","","","",""
"d3-instructions","55","278616","0.0-55.0","481","5227","24","Female","true","false","false","true","""event"",""trial"",""time""
""blur"",""0"",""0""
""focus"",""1"",""3178""
""fullscreenenter"",""5"",""17723""
","""event"",""trial"",""time""
""blur"",""0"",""0""
","""event"",""trial"",""time""
""focus"",""1"",""3178""
","""event"",""trial"",""time""
""fullscreenenter"",""5"",""17723""
","
","","","","","","","","","","","","","","","","","","","","","",""
"d3-instructions","56","284759","0.0-56.0","481","5227","24","Female","true","false","false","true","""event"",""trial"",""time""
""blur"",""0"",""0""
""focus"",""1"",""3178""
""fullscreenenter"",""5"",""17723""
","""event"",""trial"",""time""
""blur"",""0"",""0""
","""event"",""trial"",""time""
""focus"",""1"",""3178""
","""event"",""trial"",""time""
""fullscreenenter"",""5"",""17723""
","
","","","","","","","","","","","","","","","","","","","","","",""
"d3-instructions","57","288962","0.0-57.0","481","5227","24","Female","true","false","false","true","""event"",""trial"",""time""
""blur"",""0"",""0""
""focus"",""1"",""3178""
""fullscreenenter"",""5"",""17723""
","""event"",""trial"",""time""
""blur"",""0"",""0""
","""event"",""trial"",""time""
""focus"",""1"",""3178""
","""event"",""trial"",""time""
""fullscreenenter"",""5"",""17723""
","
","","","","","","","","","","","","","","","","","","","","","",""
"d3-instructions","58","298705","0.0-58.0","481","5227","24","Female","true","false","false","true","""event"",""trial"",""time""
""blur"",""0"",""0""
""focus"",""1"",""3178""
""fullscreenenter"",""5"",""17723""
","""event"",""trial"",""time""
""blur"",""0"",""0""
","""event"",""trial"",""time""
""focus"",""1"",""3178""
","""event"",""trial"",""time""
""fullscreenenter"",""5"",""17723""
","
","","","","","","","","","","","","","","","","","","","","","",""
"d3-instructions","59","303062","0.0-59.0","481","5227","24","Female","true","false","false","true","""event"",""trial"",""time""
""blur"",""0"",""0""
""focus"",""1"",""3178""
""fullscreenenter"",""5"",""17723""
","""event"",""trial"",""time""
""blur"",""0"",""0""
","""event"",""trial"",""time""
""focus"",""1"",""3178""
","""event"",""trial"",""time""
""fullscreenenter"",""5"",""17723""
","
","","","","","","","","","","","","","","","","","","","","","",""
"d3-instructions","60","309464","0.0-60.0","481","5227","24","Female","true","false","false","true","""event"",""trial"",""time""
""blur"",""0"",""0""
""focus"",""1"",""3178""
""fullscreenenter"",""5"",""17723""
","""event"",""trial"",""time""
""blur"",""0"",""0""
","""event"",""trial"",""time""
""focus"",""1"",""3178""
","""event"",""trial"",""time""
""fullscreenenter"",""5"",""17723""
","
","","","","","","","","","","","","","","","","","","","","","",""
"d3-animate-choice","61","312113","0.0-61.0-0.0","481","5227","24","Female","true","false","false","true","""event"",""trial"",""time""
""blur"",""0"",""0""
""focus"",""1"",""3178""
""fullscreenenter"",""5"",""17723""
","""event"",""trial"",""time""
""blur"",""0"",""0""
","""event"",""trial"",""time""
""focus"",""1"",""3178""
","""event"",""trial"",""time""
""fullscreenenter"",""5"",""17723""
","
","623.3000001907349","","49","","","3000","1","","","images/earth.jpg","images/tutrocket2","images/tutrocket1","null","images/tutrocket1","","1","practice","null","1","","",""
"d3-animate-choice","62","314884","0.0-61.0-1.0","481","5227","24","Female","true","false","false","true","""event"",""trial"",""time""
""blur"",""0"",""0""
""focus"",""1"",""3178""
""fullscreenenter"",""5"",""17723""
","""event"",""trial"",""time""
""blur"",""0"",""0""
","""event"",""trial"",""time""
""focus"",""1"",""3178""
","""event"",""trial"",""time""
""fullscreenenter"",""5"",""17723""
","
","750.4000000953674","","49","","","3000","1","","","images/tutgreenplanet.jpg","images/tutalien2","images/tutalien1","images/tutrocket1","images/tutalien1","images/t.png","2","practice","false","1","rare","1","2022-12-14 01:01:54.194"
"two-step-fixation","63","315903","0.0-61.0-2.0","481","5227","24","Female","true","false","false","true","""event"",""trial"",""time""
""blur"",""0"",""0""
""focus"",""1"",""3178""
""fullscreenenter"",""5"",""17723""
","""event"",""trial"",""time""
""blur"",""0"",""0""
","""event"",""trial"",""time""
""focus"",""1"",""3178""
","""event"",""trial"",""time""
""fullscreenenter"",""5"",""17723""
","
","","images/earth.jpg","","","","","","","","","","","","","","fixation","","","","","",""
"d3-animate-choice","64","318383","0.0-61.0-0.1","481","5227","24","Female","true","false","false","true","""event"",""trial"",""time""
""blur"",""0"",""0""
""focus"",""1"",""3178""
""fullscreenenter"",""5"",""17723""
","""event"",""trial"",""time""
""blur"",""0"",""0""
","""event"",""trial"",""time""
""focus"",""1"",""3178""
","""event"",""trial"",""time""
""fullscreenenter"",""5"",""17723""
","
","460.5","","49","","","3000","1","","","images/earth.jpg","images/tutrocket2","images/tutrocket1","null","images/tutrocket1","","1","practice","null","1","","",""
"d3-animate-choice","65","321043","0.0-61.0-1.1","481","5227","24","Female","true","false","false","true","""event"",""trial"",""time""
""blur"",""0"",""0""
""focus"",""1"",""3178""
""fullscreenenter"",""5"",""17723""
","""event"",""trial"",""time""
""blur"",""0"",""0""
","""event"",""trial"",""time""
""focus"",""1"",""3178""
","""event"",""trial"",""time""
""fullscreenenter"",""5"",""17723""
","
","651.3000001907349","","49","","","3000","1","","","images/tutgreenplanet.jpg","images/tutalien2","images/tutalien1","images/tutrocket1","images/tutalien1","images/nothing.png","2","practice","false","1","rare","0","2022-12-14 01:02:00.353"
"two-step-fixation","66","322068","0.0-61.0-2.1","481","5227","24","Female","true","false","false","true","""event"",""trial"",""time""
""blur"",""0"",""0""
""focus"",""1"",""3178""
""fullscreenenter"",""5"",""17723""
","""event"",""trial"",""time""
""blur"",""0"",""0""
","""event"",""trial"",""time""
""focus"",""1"",""3178""
","""event"",""trial"",""time""
""fullscreenenter"",""5"",""17723""
","
","","images/earth.jpg","","","","","","","","","","","","","","fixation","","","","","",""
"d3-animate-choice","67","324465","0.0-61.0-0.2","481","5227","24","Female","true","false","false","true","""event"",""trial"",""time""
""blur"",""0"",""0""
""focus"",""1"",""3178""
""fullscreenenter"",""5"",""17723""
","""event"",""trial"",""time""
""blur"",""0"",""0""
","""event"",""trial"",""time""
""focus"",""1"",""3178""
","""event"",""trial"",""time""
""fullscreenenter"",""5"",""17723""
","
","384.19999980926514","","49","","","3000","1","","","images/earth.jpg","images/tutrocket2","images/tutrocket1","null","images/tutrocket1","","1","practice","null","1","","",""
"d3-animate-choice","68","327423","0.0-61.0-1.2","481","5227","24","Female","true","false","false","true","""event"",""trial"",""time""
""blur"",""0"",""0""
""focus"",""1"",""3178""
""fullscreenenter"",""5"",""17723""
","""event"",""trial"",""time""
""blur"",""0"",""0""
","""event"",""trial"",""time""
""focus"",""1"",""3178""
","""event"",""trial"",""time""
""fullscreenenter"",""5"",""17723""
","
","950.2999997138977","","49","","","3000","1","","","images/tutyellowplanet.jpg","images/tutalien4","images/tutalien3","images/tutrocket1","images/tutalien3","images/t.png","2","practice","true","1","common","1","2022-12-14 01:02:06.733"
"two-step-fixation","69","328434","0.0-61.0-2.2","481","5227","24","Female","true","false","false","true","""event"",""trial"",""time""
""blur"",""0"",""0""
""focus"",""1"",""3178""
""fullscreenenter"",""5"",""17723""
","""event"",""trial"",""time""
""blur"",""0"",""0""
","""event"",""trial"",""time""
""focus"",""1"",""3178""
","""event"",""trial"",""time""
""fullscreenenter"",""5"",""17723""
","
","","images/earth.jpg","","","","","","","","","","","","","","fixation","","","","","",""
"d3-animate-choice","70","330804","0.0-61.0-0.3","481","5227","24","Female","true","false","false","true","""event"",""trial"",""time""
""blur"",""0"",""0""
""focus"",""1"",""3178""
""fullscreenenter"",""5"",""17723""
","""event"",""trial"",""time""
""blur"",""0"",""0""
","""event"",""trial"",""time""
""focus"",""1"",""3178""
","""event"",""trial"",""time""
""fullscreenenter"",""5"",""17723""
","
","341","","49","","","3000","1","","","images/earth.jpg","images/tutrocket2","images/tutrocket1","null","images/tutrocket1","","1","practice","null","1","","",""
"d3-animate-choice","71","333673","0.0-61.0-1.3","481","5227","24","Female","true","false","false","true","""event"",""trial"",""time""
""blur"",""0"",""0""
""focus"",""1"",""3178""
""fullscreenenter"",""5"",""17723""
","""event"",""trial"",""time""
""blur"",""0"",""0""
","""event"",""trial"",""time""
""focus"",""1"",""3178""
","""event"",""trial"",""time""
""fullscreenenter"",""5"",""17723""
","
","850.1999998092651","","49","","","3000","1","","","images/tutgreenplanet.jpg","images/tutalien2","images/tutalien1","images/tutrocket1","images/tutalien1","images/t.png","2","practice","false","1","rare","1","2022-12-14 01:02:12.984"
"two-step-fixation","72","334693","0.0-61.0-2.3","481","5227","24","Female","true","false","false","true","""event"",""trial"",""time""
""blur"",""0"",""0""
""focus"",""1"",""3178""
""fullscreenenter"",""5"",""17723""
","""event"",""trial"",""time""
""blur"",""0"",""0""
","""event"",""trial"",""time""
""focus"",""1"",""3178""
","""event"",""trial"",""time""
""fullscreenenter"",""5"",""17723""
","
","","images/earth.jpg","","","","","","","","","","","","","","fixation","","","","","",""
"d3-animate-choice","73","337223","0.0-61.0-0.4","481","5227","24","Female","true","false","false","true","""event"",""trial"",""time""
""blur"",""0"",""0""
""focus"",""1"",""3178""
""fullscreenenter"",""5"",""17723""
","""event"",""trial"",""time""
""blur"",""0"",""0""
","""event"",""trial"",""time""
""focus"",""1"",""3178""
","""event"",""trial"",""time""
""fullscreenenter"",""5"",""17723""
","
","499.19999980926514","","49","","","3000","1","","","images/earth.jpg","images/tutrocket2","images/tutrocket1","null","images/tutrocket1","","1","practice","null","1","","",""
"d3-animate-choice","74","339714","0.0-61.0-1.4","481","5227","24","Female","true","false","false","true","""event"",""trial"",""time""
""blur"",""0"",""0""
""focus"",""1"",""3178""
""fullscreenenter"",""5"",""17723""
","""event"",""trial"",""time""
""blur"",""0"",""0""
","""event"",""trial"",""time""
""focus"",""1"",""3178""
","""event"",""trial"",""time""
""fullscreenenter"",""5"",""17723""
","
","467.7000002861023","","49","","","3000","1","","","images/tutyellowplanet.jpg","images/tutalien4","images/tutalien3","images/tutrocket1","images/tutalien3","images/t.png","2","practice","true","1","common","1","2022-12-14 01:02:19.024"
"two-step-fixation","75","340734","0.0-61.0-2.4","481","5227","24","Female","true","false","false","true","""event"",""trial"",""time""
""blur"",""0"",""0""
""focus"",""1"",""3178""
""fullscreenenter"",""5"",""17723""
","""event"",""trial"",""time""
""blur"",""0"",""0""
","""event"",""trial"",""time""
""focus"",""1"",""3178""
","""event"",""trial"",""time""
""fullscreenenter"",""5"",""17723""
","
","","images/earth.jpg","","","","","","","","","","","","","","fixation","","","","","",""
"d3-animate-choice","76","343237","0.0-61.0-0.5","481","5227","24","Female","true","false","false","true","""event"",""trial"",""time""
""blur"",""0"",""0""
""focus"",""1"",""3178""
""fullscreenenter"",""5"",""17723""
","""event"",""trial"",""time""
""blur"",""0"",""0""
","""event"",""trial"",""time""
""focus"",""1"",""3178""
","""event"",""trial"",""time""
""fullscreenenter"",""5"",""17723""
","
","488.19999980926514","","49","","","3000","1","","","images/earth.jpg","images/tutrocket2","images/tutrocket1","null","images/tutrocket1","","1","practice","null","1","","",""
"d3-animate-choice","77","345776","0.0-61.0-1.5","481","5227","24","Female","true","false","false","true","""event"",""trial"",""time""
""blur"",""0"",""0""
""focus"",""1"",""3178""
""fullscreenenter"",""5"",""17723""
","""event"",""trial"",""time""
""blur"",""0"",""0""
","""event"",""trial"",""time""
""focus"",""1"",""3178""
","""event"",""trial"",""time""
""fullscreenenter"",""5"",""17723""
","
","530.4000000953674","","49","","","3000","1","","","images/tutyellowplanet.jpg","images/tutalien4","images/tutalien3","images/tutrocket1","images/tutalien3","images/nothing.png","2","practice","true","1","common","0","2022-12-14 01:02:25.086"
"two-step-fixation","78","346785","0.0-61.0-2.5","481","5227","24","Female","true","false","false","true","""event"",""trial"",""time""
""blur"",""0"",""0""
""focus"",""1"",""3178""
""fullscreenenter"",""5"",""17723""
","""event"",""trial"",""time""
""blur"",""0"",""0""
","""event"",""trial"",""time""
""focus"",""1"",""3178""
","""event"",""trial"",""time""
""fullscreenenter"",""5"",""17723""
","
","","images/earth.jpg","","","","","","","","","","","","","","fixation","","","","","",""
"d3-animate-choice","79","349204","0.0-61.0-0.6","481","5227","24","Female","true","false","false","true","""event"",""trial"",""time""
""blur"",""0"",""0""
""focus"",""1"",""3178""
""fullscreenenter"",""5"",""17723""
","""event"",""trial"",""time""
""blur"",""0"",""0""
","""event"",""trial"",""time""
""focus"",""1"",""3178""
","""event"",""trial"",""time""
""fullscreenenter"",""5"",""17723""
","
","404.8999996185303","","49","","","3000","1","","","images/earth.jpg","images/tutrocket2","images/tutrocket1","null","images/tutrocket1","","1","practice","null","1","","",""
"d3-animate-choice","80","351629","0.0-61.0-1.6","481","5227","24","Female","true","false","false","true","""event"",""trial"",""time""
""blur"",""0"",""0""
""focus"",""1"",""3178""
""fullscreenenter"",""5"",""17723""
","""event"",""trial"",""time""
""blur"",""0"",""0""
","""event"",""trial"",""time""
""focus"",""1"",""3178""
","""event"",""trial"",""time""
""fullscreenenter"",""5"",""17723""
","
","413.69999980926514","","49","","","3000","1","","","images/tutyellowplanet.jpg","images/tutalien4","images/tutalien3","images/tutrocket1","images/tutalien3","images/nothing.png","2","practice","true","1","common","0","2022-12-14 01:02:30.939"
"two-step-fixation","81","352637","0.0-61.0-2.6","481","5227","24","Female","true","false","false","true","""event"",""trial"",""time""
""blur"",""0"",""0""
""focus"",""1"",""3178""
""fullscreenenter"",""5"",""17723""
","""event"",""trial"",""time""
""blur"",""0"",""0""
","""event"",""trial"",""time""
""focus"",""1"",""3178""
","""event"",""trial"",""time""
""fullscreenenter"",""5"",""17723""
","
","","images/earth.jpg","","","","","","","","","","","","","","fixation","","","","","",""
"d3-animate-choice","82","355089","0.0-61.0-0.7","481","5227","24","Female","true","false","false","true","""event"",""trial"",""time""
""blur"",""0"",""0""
""focus"",""1"",""3178""
""fullscreenenter"",""5"",""17723""
","""event"",""trial"",""time""
""blur"",""0"",""0""
","""event"",""trial"",""time""
""focus"",""1"",""3178""
","""event"",""trial"",""time""
""fullscreenenter"",""5"",""17723""
","
","428.90000009536743","","49","","","3000","1","","","images/earth.jpg","images/tutrocket2","images/tutrocket1","null","images/tutrocket1","","1","practice","null","1","","",""
"d3-animate-choice","83","359104","0.0-61.0-1.7","481","5227","24","Female","true","false","false","true","""event"",""trial"",""time""
""blur"",""0"",""0""
""focus"",""1"",""3178""
""fullscreenenter"",""5"",""17723""
","""event"",""trial"",""time""
""blur"",""0"",""0""
","""event"",""trial"",""time""
""focus"",""1"",""3178""
","""event"",""trial"",""time""
""fullscreenenter"",""5"",""17723""
","
","509.5","","50","","","3000","1","2142.2000002861023","48","images/tutyellowplanet.jpg","images/tutalien4","images/tutalien3","images/tutrocket1","images/tutalien4","images/nothing.png","2","practice","true","","common","0","2022-12-14 01:02:38.414"
"two-step-fixation","84","360126","0.0-61.0-2.7","481","5227","24","Female","true","false","false","true","""event"",""trial"",""time""
""blur"",""0"",""0""
""focus"",""1"",""3178""
""fullscreenenter"",""5"",""17723""
","""event"",""trial"",""time""
""blur"",""0"",""0""
","""event"",""trial"",""time""
""focus"",""1"",""3178""
","""event"",""trial"",""time""
""fullscreenenter"",""5"",""17723""
","
","","images/earth.jpg","","","","","","","","","","","","","","fixation","","","","","",""
"d3-animate-choice","85","363223","0.0-61.0-0.8","481","5227","24","Female","true","false","false","true","""event"",""trial"",""time""
""blur"",""0"",""0""
""focus"",""1"",""3178""
""fullscreenenter"",""5"",""17723""
","""event"",""trial"",""time""
""blur"",""0"",""0""
","""event"",""trial"",""time""
""focus"",""1"",""3178""
","""event"",""trial"",""time""
""fullscreenenter"",""5"",""17723""
","
","1075.9000000953674","","48","","","3000","1","","","images/earth.jpg","images/tutrocket2","images/tutrocket1","null","images/tutrocket2","","1","practice","null","2","","",""
"d3-animate-choice","86","365589","0.0-61.0-1.8","481","5227","24","Female","true","false","false","true","""event"",""trial"",""time""
""blur"",""0"",""0""
""focus"",""1"",""3178""
""fullscreenenter"",""5"",""17723""
","""event"",""trial"",""time""
""blur"",""0"",""0""
","""event"",""trial"",""time""
""focus"",""1"",""3178""
","""event"",""trial"",""time""
""fullscreenenter"",""5"",""17723""
","
","350.5","","49","","","3000","1","","","images/tutgreenplanet.jpg","images/tutalien2","images/tutalien1","images/tutrocket2","images/tutalien1","images/nothing.png","2","practice","true","1","common","0","2022-12-14 01:02:44.899"
"two-step-fixation","87","366601","0.0-61.0-2.8","481","5227","24","Female","true","false","false","true","""event"",""trial"",""time""
""blur"",""0"",""0""
""focus"",""1"",""3178""
""fullscreenenter"",""5"",""17723""
","""event"",""trial"",""time""
""blur"",""0"",""0""
","""event"",""trial"",""time""
""focus"",""1"",""3178""
","""event"",""trial"",""time""
""fullscreenenter"",""5"",""17723""
","
","","images/earth.jpg","","","","","","","","","","","","","","fixation","","","","","",""
"d3-animate-choice","88","368975","0.0-61.0-0.9","481","5227","24","Female","true","false","false","true","""event"",""trial"",""time""
""blur"",""0"",""0""
""focus"",""1"",""3178""
""fullscreenenter"",""5"",""17723""
","""event"",""trial"",""time""
""blur"",""0"",""0""
","""event"",""trial"",""time""
""focus"",""1"",""3178""
","""event"",""trial"",""time""
""fullscreenenter"",""5"",""17723""
","
","362.7000002861023","","48","","","3000","1","","","images/earth.jpg","images/tutrocket2","images/tutrocket1","null","images/tutrocket2","","1","practice","null","2","","",""
"d3-animate-choice","89","371373","0.0-61.0-1.9","481","5227","24","Female","true","false","false","true","""event"",""trial"",""time""
""blur"",""0"",""0""
""focus"",""1"",""3178""
""fullscreenenter"",""5"",""17723""
","""event"",""trial"",""time""
""blur"",""0"",""0""
","""event"",""trial"",""time""
""focus"",""1"",""3178""
","""event"",""trial"",""time""
""fullscreenenter"",""5"",""17723""
","
","372.69999980926514","","49","","","3000","1","","","images/tutyellowplanet.jpg","images/tutalien4","images/tutalien3","images/tutrocket2","images/tutalien3","images/nothing.png","2","practice","false","1","rare","0","2022-12-14 01:02:50.683"
"two-step-fixation","90","372392","0.0-61.0-2.9","481","5227","24","Female","true","false","false","true","""event"",""trial"",""time""
""blur"",""0"",""0""
""focus"",""1"",""3178""
""fullscreenenter"",""5"",""17723""
","""event"",""trial"",""time""
""blur"",""0"",""0""
","""event"",""trial"",""time""
""focus"",""1"",""3178""
","""event"",""trial"",""time""
""fullscreenenter"",""5"",""17723""
","
","","images/earth.jpg","","","","","","","","","","","","","","fixation","","","","","",""
"d3-animate-choice","91","374860","0.0-61.0-0.10","481","5227","24","Female","true","false","false","true","""event"",""trial"",""time""
""blur"",""0"",""0""
""focus"",""1"",""3178""
""fullscreenenter"",""5"",""17723""
","""event"",""trial"",""time""
""blur"",""0"",""0""
","""event"",""trial"",""time""
""focus"",""1"",""3178""
","""event"",""trial"",""time""
""fullscreenenter"",""5"",""17723""
","
","447.80000019073486","","48","","","3000","1","","","images/earth.jpg","images/tutrocket2","images/tutrocket1","null","images/tutrocket2","","1","practice","null","2","","",""
"d3-animate-choice","92","377626","0.0-61.0-1.10","481","5227","24","Female","true","false","false","true","""event"",""trial"",""time""
""blur"",""0"",""0""
""focus"",""1"",""3178""
""fullscreenenter"",""5"",""17723""
","""event"",""trial"",""time""
""blur"",""0"",""0""
","""event"",""trial"",""time""
""focus"",""1"",""3178""
","""event"",""trial"",""time""
""fullscreenenter"",""5"",""17723""
","
","755.8000001907349","","48","","","3000","1","","","images/tutyellowplanet.jpg","images/tutalien4","images/tutalien3","images/tutrocket2","images/tutalien4","images/t.png","2","practice","false","2","rare","1","2022-12-14 01:02:56.936"
"two-step-fixation","93","378636","0.0-61.0-2.10","481","5227","24","Female","true","false","false","true","""event"",""trial"",""time""
""blur"",""0"",""0""
""focus"",""1"",""3178""
""fullscreenenter"",""5"",""17723""
","""event"",""trial"",""time""
""blur"",""0"",""0""
","""event"",""trial"",""time""
""focus"",""1"",""3178""
","""event"",""trial"",""time""
""fullscreenenter"",""5"",""17723""
","
","","images/earth.jpg","","","","","","","","","","","","","","fixation","","","","","",""
"d3-animate-choice","94","381083","0.0-61.0-0.11","481","5227","24","Female","true","false","false","true","""event"",""trial"",""time""
""blur"",""0"",""0""
""focus"",""1"",""3178""
""fullscreenenter"",""5"",""17723""
","""event"",""trial"",""time""
""blur"",""0"",""0""
","""event"",""trial"",""time""
""focus"",""1"",""3178""
","""event"",""trial"",""time""
""fullscreenenter"",""5"",""17723""
","
","435.3999996185303","","48","","","3000","1","","","images/earth.jpg","images/tutrocket2","images/tutrocket1","null","images/tutrocket2","","1","practice","null","2","","",""
"d3-animate-choice","95","383678","0.0-61.0-1.11","481","5227","24","Female","true","false","false","true","""event"",""trial"",""time""
""blur"",""0"",""0""
""focus"",""1"",""3178""
""fullscreenenter"",""5"",""17723""
","""event"",""trial"",""time""
""blur"",""0"",""0""
","""event"",""trial"",""time""
""focus"",""1"",""3178""
","""event"",""trial"",""time""
""fullscreenenter"",""5"",""17723""
","
","576.2999997138977","","48","","","3000","1","","","images/tutyellowplanet.jpg","images/tutalien4","images/tutalien3","images/tutrocket2","images/tutalien4","images/t.png","2","practice","false","2","rare","1","2022-12-14 01:03:02.988"
"two-step-fixation","96","384698","0.0-61.0-2.11","481","5227","24","Female","true","false","false","true","""event"",""trial"",""time""
""blur"",""0"",""0""
""focus"",""1"",""3178""
""fullscreenenter"",""5"",""17723""
","""event"",""trial"",""time""
""blur"",""0"",""0""
","""event"",""trial"",""time""
""focus"",""1"",""3178""
","""event"",""trial"",""time""
""fullscreenenter"",""5"",""17723""
","
","","images/earth.jpg","","","","","","","","","","","","","","fixation","","","","","",""
"d3-animate-choice","97","387653","0.0-61.0-0.12","481","5227","24","Female","true","false","false","true","""event"",""trial"",""time""
""blur"",""0"",""0""
""focus"",""1"",""3178""
""fullscreenenter"",""5"",""17723""
","""event"",""trial"",""time""
""blur"",""0"",""0""
","""event"",""trial"",""time""
""focus"",""1"",""3178""
","""event"",""trial"",""time""
""fullscreenenter"",""5"",""17723""
","
","349","","32","","","3000","1","939.8000001907349","48","images/earth.jpg","images/tutrocket2","images/tutrocket1","null","images/tutrocket2","","1","practice","null","","","",""
"d3-animate-choice","98","391285","0.0-61.0-1.12","481","5227","24","Female","true","false","false","true","""event"",""trial"",""time""
""blur"",""0"",""0""
""focus"",""1"",""3178""
""fullscreenenter"",""5"",""17723""
","""event"",""trial"",""time""
""blur"",""0"",""0""
","""event"",""trial"",""time""
""focus"",""1"",""3178""
","""event"",""trial"",""time""
""fullscreenenter"",""5"",""17723""
","
","1617.5","","49","","","3000","1","","","images/tutgreenplanet.jpg","images/tutalien2","images/tutalien1","images/tutrocket2","images/tutalien1","images/t.png","2","practice","true","1","common","1","2022-12-14 01:03:10.595"
"two-step-fixation","99","392292","0.0-61.0-2.12","481","5227","24","Female","true","false","false","true","""event"",""trial"",""time""
""blur"",""0"",""0""
""focus"",""1"",""3178""
""fullscreenenter"",""5"",""17723""
","""event"",""trial"",""time""
""blur"",""0"",""0""
","""event"",""trial"",""time""
""focus"",""1"",""3178""
","""event"",""trial"",""time""
""fullscreenenter"",""5"",""17723""
","
","","images/earth.jpg","","","","","","","","","","","","","","fixation","","","","","",""
"d3-animate-choice","100","394739","0.0-61.0-0.13","481","5227","24","Female","true","false","false","true","""event"",""trial"",""time""
""blur"",""0"",""0""
""focus"",""1"",""3178""
""fullscreenenter"",""5"",""17723""
","""event"",""trial"",""time""
""blur"",""0"",""0""
","""event"",""trial"",""time""
""focus"",""1"",""3178""
","""event"",""trial"",""time""
""fullscreenenter"",""5"",""17723""
","
","434.5","","48","","","3000","1","","","images/earth.jpg","images/tutrocket2","images/tutrocket1","null","images/tutrocket2","","1","practice","null","2","","",""
"d3-animate-choice","101","397235","0.0-61.0-1.13","481","5227","24","Female","true","false","false","true","""event"",""trial"",""time""
""blur"",""0"",""0""
""focus"",""1"",""3178""
""fullscreenenter"",""5"",""17723""
","""event"",""trial"",""time""
""blur"",""0"",""0""
","""event"",""trial"",""time""
""focus"",""1"",""3178""
","""event"",""trial"",""time""
""fullscreenenter"",""5"",""17723""
","
","481.6000003814697","","49","","","3000","1","","","images/tutgreenplanet.jpg","images/tutalien2","images/tutalien1","images/tutrocket2","images/tutalien1","images/nothing.png","2","practice","true","1","common","0","2022-12-14 01:03:16.545"
"two-step-fixation","102","398249","0.0-61.0-2.13","481","5227","24","Female","true","false","false","true","""event"",""trial"",""time""
""blur"",""0"",""0""
""focus"",""1"",""3178""
""fullscreenenter"",""5"",""17723""
","""event"",""trial"",""time""
""blur"",""0"",""0""
","""event"",""trial"",""time""
""focus"",""1"",""3178""
","""event"",""trial"",""time""
""fullscreenenter"",""5"",""17723""
","
","","images/earth.jpg","","","","","","","","","","","","","","fixation","","","","","",""
"d3-animate-choice","103","400696","0.0-61.0-0.14","481","5227","24","Female","true","false","false","true","""event"",""trial"",""time""
""blur"",""0"",""0""
""focus"",""1"",""3178""
""fullscreenenter"",""5"",""17723""
","""event"",""trial"",""time""
""blur"",""0"",""0""
","""event"",""trial"",""time""
""focus"",""1"",""3178""
","""event"",""trial"",""time""
""fullscreenenter"",""5"",""17723""
","
","431.09999990463257","","48","","","3000","1","","","images/earth.jpg","images/tutrocket2","images/tutrocket1","null","images/tutrocket2","","1","practice","null","2","","",""
"d3-animate-choice","104","403395","0.0-61.0-1.14","481","5227","24","Female","true","false","false","true","""event"",""trial"",""time""
""blur"",""0"",""0""
""focus"",""1"",""3178""
""fullscreenenter"",""5"",""17723""
","""event"",""trial"",""time""
""blur"",""0"",""0""
","""event"",""trial"",""time""
""focus"",""1"",""3178""
","""event"",""trial"",""time""
""fullscreenenter"",""5"",""17723""
","
","688.5","","48","","","3000","1","","","images/tutgreenplanet.jpg","images/tutalien2","images/tutalien1","images/tutrocket2","images/tutalien2","images/t.png","2","practice","true","2","common","1","2022-12-14 01:03:22.705"
"two-step-fixation","105","404401","0.0-61.0-2.14","481","5227","24","Female","true","false","false","true","""event"",""trial"",""time""
""blur"",""0"",""0""
""focus"",""1"",""3178""
""fullscreenenter"",""5"",""17723""
","""event"",""trial"",""time""
""blur"",""0"",""0""
","""event"",""trial"",""time""
""focus"",""1"",""3178""
","""event"",""trial"",""time""
""fullscreenenter"",""5"",""17723""
","
","","images/earth.jpg","","","","","","","","","","","","","","fixation","","","","","",""
"d3-animate-choice","106","406711","0.0-61.0-0.15","481","5227","24","Female","true","false","false","true","""event"",""trial"",""time""
""blur"",""0"",""0""
""focus"",""1"",""3178""
""fullscreenenter"",""5"",""17723""
","""event"",""trial"",""time""
""blur"",""0"",""0""
","""event"",""trial"",""time""
""focus"",""1"",""3178""
","""event"",""trial"",""time""
""fullscreenenter"",""5"",""17723""
","
","290.7000002861023","","48","","","3000","1","","","images/earth.jpg","images/tutrocket2","images/tutrocket1","null","images/tutrocket2","","1","practice","null","2","","",""
"d3-animate-choice","107","409170","0.0-61.0-1.15","481","5227","24","Female","true","false","false","true","""event"",""trial"",""time""
""blur"",""0"",""0""
""focus"",""1"",""3178""
""fullscreenenter"",""5"",""17723""
","""event"",""trial"",""time""
""blur"",""0"",""0""
","""event"",""trial"",""time""
""focus"",""1"",""3178""
","""event"",""trial"",""time""
""fullscreenenter"",""5"",""17723""
","
","446.09999990463257","","48","","","3000","1","","","images/tutgreenplanet.jpg","images/tutalien2","images/tutalien1","images/tutrocket2","images/tutalien2","images/t.png","2","practice","true","2","common","1","2022-12-14 01:03:28.480"
"two-step-fixation","108","410177","0.0-61.0-2.15","481","5227","24","Female","true","false","false","true","""event"",""trial"",""time""
""blur"",""0"",""0""
""focus"",""1"",""3178""
""fullscreenenter"",""5"",""17723""
","""event"",""trial"",""time""
""blur"",""0"",""0""
","""event"",""trial"",""time""
""focus"",""1"",""3178""
","""event"",""trial"",""time""
""fullscreenenter"",""5"",""17723""
","
","","images/earth.jpg","","","","","","","","","","","","","","fixation","","","","","",""
"d3-animate-choice","109","412573","0.0-61.0-0.16","481","5227","24","Female","true","false","false","true","""event"",""trial"",""time""
""blur"",""0"",""0""
""focus"",""1"",""3178""
""fullscreenenter"",""5"",""17723""
","""event"",""trial"",""time""
""blur"",""0"",""0""
","""event"",""trial"",""time""
""focus"",""1"",""3178""
","""event"",""trial"",""time""
""fullscreenenter"",""5"",""17723""
","
","387.59999990463257","","48","","","3000","1","","","images/earth.jpg","images/tutrocket2","images/tutrocket1","null","images/tutrocket2","","1","practice","null","2","","",""
"d3-animate-choice","110","414951","0.0-61.0-1.16","481","5227","24","Female","true","false","false","true","""event"",""trial"",""time""
""blur"",""0"",""0""
""focus"",""1"",""3178""
""fullscreenenter"",""5"",""17723""
","""event"",""trial"",""time""
""blur"",""0"",""0""
","""event"",""trial"",""time""
""focus"",""1"",""3178""
","""event"",""trial"",""time""
""fullscreenenter"",""5"",""17723""
","
","366.30000019073486","","48","","","3000","1","","","images/tutgreenplanet.jpg","images/tutalien2","images/tutalien1","images/tutrocket2","images/tutalien2","images/nothing.png","2","practice","true","2","common","0","2022-12-14 01:03:34.261"
"two-step-fixation","111","415960","0.0-61.0-2.16","481","5227","24","Female","true","false","false","true","""event"",""trial"",""time""
""blur"",""0"",""0""
""focus"",""1"",""3178""
""fullscreenenter"",""5"",""17723""
","""event"",""trial"",""time""
""blur"",""0"",""0""
","""event"",""trial"",""time""
""focus"",""1"",""3178""
","""event"",""trial"",""time""
""fullscreenenter"",""5"",""17723""
","
","","images/earth.jpg","","","","","","","","","","","","","","fixation","","","","","",""
"d3-animate-choice","112","418298","0.0-61.0-0.17","481","5227","24","Female","true","false","false","true","""event"",""trial"",""time""
""blur"",""0"",""0""
""focus"",""1"",""3178""
""fullscreenenter"",""5"",""17723""
","""event"",""trial"",""time""
""blur"",""0"",""0""
","""event"",""trial"",""time""
""focus"",""1"",""3178""
","""event"",""trial"",""time""
""fullscreenenter"",""5"",""17723""
","
","323.7000002861023","","49","","","3000","1","","","images/earth.jpg","images/tutrocket2","images/tutrocket1","null","images/tutrocket1","","1","practice","null","1","","",""
"d3-animate-choice","113","420697","0.0-61.0-1.17","481","5227","24","Female","true","false","false","true","""event"",""trial"",""time""
""blur"",""0"",""0""
""focus"",""1"",""3178""
""fullscreenenter"",""5"",""17723""
","""event"",""trial"",""time""
""blur"",""0"",""0""
","""event"",""trial"",""time""
""focus"",""1"",""3178""
","""event"",""trial"",""time""
""fullscreenenter"",""5"",""17723""
","
","378.5","","48","","","3000","1","","","images/tutgreenplanet.jpg","images/tutalien2","images/tutalien1","images/tutrocket1","images/tutalien2","images/t.png","2","practice","false","2","rare","1","2022-12-14 01:03:40.008"
"two-step-fixation","114","421714","0.0-61.0-2.17","481","5227","24","Female","true","false","false","true","""event"",""trial"",""time""
""blur"",""0"",""0""
""focus"",""1"",""3178""
""fullscreenenter"",""5"",""17723""
","""event"",""trial"",""time""
""blur"",""0"",""0""
","""event"",""trial"",""time""
""focus"",""1"",""3178""
","""event"",""trial"",""time""
""fullscreenenter"",""5"",""17723""
","
","","images/earth.jpg","","","","","","","","","","","","","","fixation","","","","","",""
"d3-animate-choice","115","424048","0.0-61.0-0.18","481","5227","24","Female","true","false","false","true","""event"",""trial"",""time""
""blur"",""0"",""0""
""focus"",""1"",""3178""
""fullscreenenter"",""5"",""17723""
","""event"",""trial"",""time""
""blur"",""0"",""0""
","""event"",""trial"",""time""
""focus"",""1"",""3178""
","""event"",""trial"",""time""
""fullscreenenter"",""5"",""17723""
","
","317.30000019073486","","49","","","3000","1","","","images/earth.jpg","images/tutrocket2","images/tutrocket1","null","images/tutrocket1","","1","practice","null","1","","",""
"d3-animate-choice","116","426729","0.0-61.0-1.18","481","5227","24","Female","true","false","false","true","""event"",""trial"",""time""
""blur"",""0"",""0""
""focus"",""1"",""3178""
""fullscreenenter"",""5"",""17723""
","""event"",""trial"",""time""
""blur"",""0"",""0""
","""event"",""trial"",""time""
""focus"",""1"",""3178""
","""event"",""trial"",""time""
""fullscreenenter"",""5"",""17723""
","
","663.8000001907349","","48","","","3000","1","","","images/tutgreenplanet.jpg","images/tutalien2","images/tutalien1","images/tutrocket1","images/tutalien2","images/nothing.png","2","practice","false","2","rare","0","2022-12-14 01:03:46.040"
"two-step-fixation","117","427737","0.0-61.0-2.18","481","5227","24","Female","true","false","false","true","""event"",""trial"",""time""
""blur"",""0"",""0""
""focus"",""1"",""3178""
""fullscreenenter"",""5"",""17723""
","""event"",""trial"",""time""
""blur"",""0"",""0""
","""event"",""trial"",""time""
""focus"",""1"",""3178""
","""event"",""trial"",""time""
""fullscreenenter"",""5"",""17723""
","
","","images/earth.jpg","","","","","","","","","","","","","","fixation","","","","","",""
"d3-animate-choice","118","430020","0.0-61.0-0.19","481","5227","24","Female","true","false","false","true","""event"",""trial"",""time""
""blur"",""0"",""0""
""focus"",""1"",""3178""
""fullscreenenter"",""5"",""17723""
","""event"",""trial"",""time""
""blur"",""0"",""0""
","""event"",""trial"",""time""
""focus"",""1"",""3178""
","""event"",""trial"",""time""
""fullscreenenter"",""5"",""17723""
","
","268.40000009536743","","48","","","3000","1","","","images/earth.jpg","images/tutrocket2","images/tutrocket1","null","images/tutrocket2","","1","practice","null","2","","",""
"d3-animate-choice","119","432440","0.0-61.0-1.19","481","5227","24","Female","true","false","false","true","""event"",""trial"",""time""
""blur"",""0"",""0""
""focus"",""1"",""3178""
""fullscreenenter"",""5"",""17723""
","""event"",""trial"",""time""
""blur"",""0"",""0""
","""event"",""trial"",""time""
""focus"",""1"",""3178""
","""event"",""trial"",""time""
""fullscreenenter"",""5"",""17723""
","
","409.90000009536743","","48","","","3000","1","","","images/tutgreenplanet.jpg","images/tutalien2","images/tutalien1","images/tutrocket2","images/tutalien2","images/t.png","2","practice","true","2","common","1","2022-12-14 01:03:51.750"
"two-step-fixation","120","433449","0.0-61.0-2.19","481","5227","24","Female","true","false","false","true","""event"",""trial"",""time""
""blur"",""0"",""0""
""focus"",""1"",""3178""
""fullscreenenter"",""5"",""17723""
","""event"",""trial"",""time""
""blur"",""0"",""0""
","""event"",""trial"",""time""
""focus"",""1"",""3178""
","""event"",""trial"",""time""
""fullscreenenter"",""5"",""17723""
","
","","images/earth.jpg","","","","","","","","","","","","","","fixation","","","","","",""
"d3-instructions","121","438470","0.0-62.0","481","5227","24","Female","true","false","false","true","""event"",""trial"",""time""
""blur"",""0"",""0""
""focus"",""1"",""3178""
""fullscreenenter"",""5"",""17723""
","""event"",""trial"",""time""
""blur"",""0"",""0""
","""event"",""trial"",""time""
""focus"",""1"",""3178""
","""event"",""trial"",""time""
""fullscreenenter"",""5"",""17723""
","
","","","","","","","","","","","","","","","","","","","","","",""
"audio-keyboard-response","122","442426","0.0-63.0","481","5227","24","Female","true","false","false","true","""event"",""trial"",""time""
""blur"",""0"",""0""
""focus"",""1"",""3178""
""fullscreenenter"",""5"",""17723""
","""event"",""trial"",""time""
""blur"",""0"",""0""
","""event"",""trial"",""time""
""focus"",""1"",""3178""
","""event"",""trial"",""time""
""fullscreenenter"",""5"",""17723""
","
","3950","audio/instructions/treasure_feedback.wav","32","","","","","","","","","","","","","","","","","","",""
"d3-instructions","123","451702","0.0-64.0","481","5227","24","Female","true","false","false","true","""event"",""trial"",""time""
""blur"",""0"",""0""
""focus"",""1"",""3178""
""fullscreenenter"",""5"",""17723""
","""event"",""trial"",""time""
""blur"",""0"",""0""
","""event"",""trial"",""time""
""focus"",""1"",""3178""
","""event"",""trial"",""time""
""fullscreenenter"",""5"",""17723""
","
","","","","","","","","","","","","","","","","","","","","","",""
"d3-instructions","124","462775","0.0-65.0","481","5227","24","Female","true","false","false","true","""event"",""trial"",""time""
""blur"",""0"",""0""
""focus"",""1"",""3178""
""fullscreenenter"",""5"",""17723""
","""event"",""trial"",""time""
""blur"",""0"",""0""
","""event"",""trial"",""time""
""focus"",""1"",""3178""
","""event"",""trial"",""time""
""fullscreenenter"",""5"",""17723""
","
","","","","","","","","","","","","","","","","","","","","","",""
"d3-instructions","125","475708","0.0-66.0","481","5227","24","Female","true","false","false","true","""event"",""trial"",""time""
""blur"",""0"",""0""
""focus"",""1"",""3178""
""fullscreenenter"",""5"",""17723""
","""event"",""trial"",""time""
""blur"",""0"",""0""
","""event"",""trial"",""time""
""focus"",""1"",""3178""
","""event"",""trial"",""time""
""fullscreenenter"",""5"",""17723""
","
","","","","","","","","","","","","","","","","","","","","","",""
"d3-instructions","126","481544","0.0-67.0","481","5227","24","Female","true","false","false","true","""event"",""trial"",""time""
""blur"",""0"",""0""
""focus"",""1"",""3178""
""fullscreenenter"",""5"",""17723""
","""event"",""trial"",""time""
""blur"",""0"",""0""
","""event"",""trial"",""time""
""focus"",""1"",""3178""
","""event"",""trial"",""time""
""fullscreenenter"",""5"",""17723""
","
","","","","","","","","","","","","","","","","","","","","","",""
"d3-instructions","127","483545","0.0-68.0","481","5227","24","Female","true","false","false","true","""event"",""trial"",""time""
""blur"",""0"",""0""
""focus"",""1"",""3178""
""fullscreenenter"",""5"",""17723""
","""event"",""trial"",""time""
""blur"",""0"",""0""
","""event"",""trial"",""time""
""focus"",""1"",""3178""
","""event"",""trial"",""time""
""fullscreenenter"",""5"",""17723""
","
","","","","","","","","","","","","","","","","","","","","","",""
"instructions-quiz","128","486603","0.0-69.0","481","5227","24","Female","true","false","false","true","""event"",""trial"",""time""
""blur"",""0"",""0""
""focus"",""1"",""3178""
""fullscreenenter"",""5"",""17723""
","""event"",""trial"",""time""
""blur"",""0"",""0""
","""event"",""trial"",""time""
""focus"",""1"",""3178""
","""event"",""trial"",""time""
""fullscreenenter"",""5"",""17723""
","
","3055.5999999046326","audio/quiz/Q1_Prompt.wav","","1","","","","","","","","","","","","","","","","","",""
"audio-keyboard-response","129","488132","0.0-70.0","481","5227","24","Female","true","false","false","true","""event"",""trial"",""time""
""blur"",""0"",""0""
""focus"",""1"",""3178""
""fullscreenenter"",""5"",""17723""
","""event"",""trial"",""time""
""blur"",""0"",""0""
","""event"",""trial"",""time""
""focus"",""1"",""3178""
","""event"",""trial"",""time""
""fullscreenenter"",""5"",""17723""
","
","1530","audio/quiz/Q1_Correct.wav","32","","","","","","","","","","","","","","","","","","",""
"instructions-quiz","130","491854","0.0-71.0","481","5227","24","Female","true","false","false","true","""event"",""trial"",""time""
""blur"",""0"",""0""
""focus"",""1"",""3178""
""fullscreenenter"",""5"",""17723""
","""event"",""trial"",""time""
""blur"",""0"",""0""
","""event"",""trial"",""time""
""focus"",""1"",""3178""
","""event"",""trial"",""time""
""fullscreenenter"",""5"",""17723""
","
","3718.2999997138977","audio/quiz/Q2_Prompt.wav","","0","","","","","","","","","","","","","","","","","",""
"audio-keyboard-response","131","492984","0.0-72.0","481","5227","24","Female","true","false","false","true","""event"",""trial"",""time""
""blur"",""0"",""0""
""focus"",""1"",""3178""
""fullscreenenter"",""5"",""17723""
","""event"",""trial"",""time""
""blur"",""0"",""0""
","""event"",""trial"",""time""
""focus"",""1"",""3178""
","""event"",""trial"",""time""
""fullscreenenter"",""5"",""17723""
","
","1132","audio/quiz/Q2_Correct.wav","32","","","","","","","","","","","","","","","","","","",""
"instructions-quiz","132","495797","0.0-73.0","481","5227","24","Female","true","false","false","true","""event"",""trial"",""time""
""blur"",""0"",""0""
""focus"",""1"",""3178""
""fullscreenenter"",""5"",""17723""
","""event"",""trial"",""time""
""blur"",""0"",""0""
","""event"",""trial"",""time""
""focus"",""1"",""3178""
","""event"",""trial"",""time""
""fullscreenenter"",""5"",""17723""
","
","2809.300000190735","audio/quiz/Q3_Prompt.wav","","1","","","","","","","","","","","","","","","","","",""
"audio-keyboard-response","133","496224","0.0-74.0","481","5227","24","Female","true","false","false","true","""event"",""trial"",""time""
""blur"",""0"",""0""
""focus"",""1"",""3178""
""fullscreenenter"",""5"",""17723""
","""event"",""trial"",""time""
""blur"",""0"",""0""
","""event"",""trial"",""time""
""focus"",""1"",""3178""
","""event"",""trial"",""time""
""fullscreenenter"",""5"",""17723""
","
","430","audio/quiz/Q3_Correct.wav","32","","","","","","","","","","","","","","","","","","",""
"d3-instructions","134","503450","0.0-75.0","481","5227","24","Female","true","false","false","true","""event"",""trial"",""time""
""blur"",""0"",""0""
""focus"",""1"",""3178""
""fullscreenenter"",""5"",""17723""
","""event"",""trial"",""time""
""blur"",""0"",""0""
","""event"",""trial"",""time""
""focus"",""1"",""3178""
","""event"",""trial"",""time""
""fullscreenenter"",""5"",""17723""
","
","","","","","","","","","","","","","","","","","","","","","",""
"d3-animate-choice","135","506465","0.0-76.0-0.0","481","5227","24","Female","true","false","false","true","""event"",""trial"",""time""
""blur"",""0"",""0""
""focus"",""1"",""3178""
""fullscreenenter"",""5"",""17723""
","""event"",""trial"",""time""
""blur"",""0"",""0""
","""event"",""trial"",""time""
""focus"",""1"",""3178""
","""event"",""trial"",""time""
""fullscreenenter"",""5"",""17723""
","
","1004.0999999046326","","49","","","3000","1","","","images/earth.jpg","images/rocket2","images/rocket1","null","images/rocket1","","1","real","null","1","","",""
"d3-animate-choice","136","508900","0.0-76.0-1.0","481","5227","24","Female","true","false","false","true","""event"",""trial"",""time""
""blur"",""0"",""0""
""focus"",""1"",""3178""
""fullscreenenter"",""5"",""17723""
","""event"",""trial"",""time""
""blur"",""0"",""0""
","""event"",""trial"",""time""
""focus"",""1"",""3178""
","""event"",""trial"",""time""
""fullscreenenter"",""5"",""17723""
","
","423.19999980926514","","49","","","3000","1","","","images/purpleplanet.jpg","images/alien4","images/alien3","images/rocket1","images/alien3","images/nothing.png","2","real","true","1","common","0","2022-12-14 01:05:08.210"
"two-step-fixation","137","509920","0.0-76.0-2.0","481","5227","24","Female","true","false","false","true","""event"",""trial"",""time""
""blur"",""0"",""0""
""focus"",""1"",""3178""
""fullscreenenter"",""5"",""17723""
","""event"",""trial"",""time""
""blur"",""0"",""0""
","""event"",""trial"",""time""
""focus"",""1"",""3178""
","""event"",""trial"",""time""
""fullscreenenter"",""5"",""17723""
","
","","images/earth.jpg","","","","","","","","","","","","","","fixation","","","","","",""
"d3-animate-choice","138","512272","0.0-76.0-0.1","481","5227","24","Female","true","false","false","true","""event"",""trial"",""time""
""blur"",""0"",""0""
""focus"",""1"",""3178""
""fullscreenenter"",""5"",""17723""
","""event"",""trial"",""time""
""blur"",""0"",""0""
","""event"",""trial"",""time""
""focus"",""1"",""3178""
","""event"",""trial"",""time""
""fullscreenenter"",""5"",""17723""
","
","337.19999980926514","","49","","","3000","1","","","images/earth.jpg","images/rocket2","images/rocket1","null","images/rocket1","","1","real","null","1","","",""
"d3-animate-choice","139","515010","0.0-76.0-1.1","481","5227","24","Female","true","false","false","true","""event"",""trial"",""time""
""blur"",""0"",""0""
""focus"",""1"",""3178""
""fullscreenenter"",""5"",""17723""
","""event"",""trial"",""time""
""blur"",""0"",""0""
","""event"",""trial"",""time""
""focus"",""1"",""3178""
","""event"",""trial"",""time""
""fullscreenenter"",""5"",""17723""
","
","727","","49","","","3000","1","","","images/redplanet1.jpg","images/alien2","images/alien1","images/rocket1","images/alien1","images/nothing.png","2","real","false","1","rare","0","2022-12-14 01:05:14.320"
"two-step-fixation","140","516020","0.0-76.0-2.1","481","5227","24","Female","true","false","false","true","""event"",""trial"",""time""
""blur"",""0"",""0""
""focus"",""1"",""3178""
""fullscreenenter"",""5"",""17723""
","""event"",""trial"",""time""
""blur"",""0"",""0""
","""event"",""trial"",""time""
""focus"",""1"",""3178""
","""event"",""trial"",""time""
""fullscreenenter"",""5"",""17723""
","
","","images/earth.jpg","","","","","","","","","","","","","","fixation","","","","","",""
"d3-animate-choice","141","518460","0.0-76.0-0.2","481","5227","24","Female","true","false","false","true","""event"",""trial"",""time""
""blur"",""0"",""0""
""focus"",""1"",""3178""
""fullscreenenter"",""5"",""17723""
","""event"",""trial"",""time""
""blur"",""0"",""0""
","""event"",""trial"",""time""
""focus"",""1"",""3178""
","""event"",""trial"",""time""
""fullscreenenter"",""5"",""17723""
","
","420.7999997138977","","49","","","3000","1","","","images/earth.jpg","images/rocket2","images/rocket1","null","images/rocket1","","1","real","null","1","","",""
"d3-animate-choice","142","521086","0.0-76.0-1.2","481","5227","24","Female","true","false","false","true","""event"",""trial"",""time""
""blur"",""0"",""0""
""focus"",""1"",""3178""
""fullscreenenter"",""5"",""17723""
","""event"",""trial"",""time""
""blur"",""0"",""0""
","""event"",""trial"",""time""
""focus"",""1"",""3178""
","""event"",""trial"",""time""
""fullscreenenter"",""5"",""17723""
","
","606.5999999046326","","49","","","3000","1","","","images/redplanet1.jpg","images/alien2","images/alien1","images/rocket1","images/alien1","images/t.png","2","real","false","1","rare","1","2022-12-14 01:05:20.396"
"two-step-fixation","143","522100","0.0-76.0-2.2","481","5227","24","Female","true","false","false","true","""event"",""trial"",""time""
""blur"",""0"",""0""
""focus"",""1"",""3178""
""fullscreenenter"",""5"",""17723""
","""event"",""trial"",""time""
""blur"",""0"",""0""
","""event"",""trial"",""time""
""focus"",""1"",""3178""
","""event"",""trial"",""time""
""fullscreenenter"",""5"",""17723""
","
","","images/earth.jpg","","","","","","","","","","","","","","fixation","","","","","",""
"d3-animate-choice","144","524452","0.0-76.0-0.3","481","5227","24","Female","true","false","false","true","""event"",""trial"",""time""
""blur"",""0"",""0""
""focus"",""1"",""3178""
""fullscreenenter"",""5"",""17723""
","""event"",""trial"",""time""
""blur"",""0"",""0""
","""event"",""trial"",""time""
""focus"",""1"",""3178""
","""event"",""trial"",""time""
""fullscreenenter"",""5"",""17723""
","
","339.2999997138977","","49","","","3000","1","","","images/earth.jpg","images/rocket2","images/rocket1","null","images/rocket1","","1","real","null","1","","",""
"d3-animate-choice","145","526890","0.0-76.0-1.3","481","5227","24","Female","true","false","false","true","""event"",""trial"",""time""
""blur"",""0"",""0""
""focus"",""1"",""3178""
""fullscreenenter"",""5"",""17723""
","""event"",""trial"",""time""
""blur"",""0"",""0""
","""event"",""trial"",""time""
""focus"",""1"",""3178""
","""event"",""trial"",""time""
""fullscreenenter"",""5"",""17723""
","
","419.69999980926514","","49","","","3000","1","","","images/redplanet1.jpg","images/alien2","images/alien1","images/rocket1","images/alien1","images/nothing.png","2","real","false","1","rare","0","2022-12-14 01:05:26.200"
"two-step-fixation","146","527910","0.0-76.0-2.3","481","5227","24","Female","true","false","false","true","""event"",""trial"",""time""
""blur"",""0"",""0""
""focus"",""1"",""3178""
""fullscreenenter"",""5"",""17723""
","""event"",""trial"",""time""
""blur"",""0"",""0""
","""event"",""trial"",""time""
""focus"",""1"",""3178""
","""event"",""trial"",""time""
""fullscreenenter"",""5"",""17723""
","
","","images/earth.jpg","","","","","","","","","","","","","","fixation","","","","","",""
"d3-animate-choice","147","530210","0.0-76.0-0.4","481","5227","24","Female","true","false","false","true","""event"",""trial"",""time""
""blur"",""0"",""0""
""focus"",""1"",""3178""
""fullscreenenter"",""5"",""17723""
","""event"",""trial"",""time""
""blur"",""0"",""0""
","""event"",""trial"",""time""
""focus"",""1"",""3178""
","""event"",""trial"",""time""
""fullscreenenter"",""5"",""17723""
","
","287.7000002861023","","49","","","3000","1","","","images/earth.jpg","images/rocket2","images/rocket1","null","images/rocket1","","1","real","null","1","","",""
"d3-animate-choice","148","532600","0.0-76.0-1.4","481","5227","24","Female","true","false","false","true","""event"",""trial"",""time""
""blur"",""0"",""0""
""focus"",""1"",""3178""
""fullscreenenter"",""5"",""17723""
","""event"",""trial"",""time""
""blur"",""0"",""0""
","""event"",""trial"",""time""
""focus"",""1"",""3178""
","""event"",""trial"",""time""
""fullscreenenter"",""5"",""17723""
","
","374.3999996185303","","48","","","3000","1","","","images/redplanet1.jpg","images/alien2","images/alien1","images/rocket1","images/alien2","images/t.png","2","real","false","2","rare","1","2022-12-14 01:05:31.910"
"two-step-fixation","149","533610","0.0-76.0-2.4","481","5227","24","Female","true","false","false","true","""event"",""trial"",""time""
""blur"",""0"",""0""
""focus"",""1"",""3178""
""fullscreenenter"",""5"",""17723""
","""event"",""trial"",""time""
""blur"",""0"",""0""
","""event"",""trial"",""time""
""focus"",""1"",""3178""
","""event"",""trial"",""time""
""fullscreenenter"",""5"",""17723""
","
","","images/earth.jpg","","","","","","","","","","","","","","fixation","","","","","",""
"d3-animate-choice","150","535895","0.0-76.0-0.5","481","5227","24","Female","true","false","false","true","""event"",""trial"",""time""
""blur"",""0"",""0""
""focus"",""1"",""3178""
""fullscreenenter"",""5"",""17723""
","""event"",""trial"",""time""
""blur"",""0"",""0""
","""event"",""trial"",""time""
""focus"",""1"",""3178""
","""event"",""trial"",""time""
""fullscreenenter"",""5"",""17723""
","
","271.40000009536743","","49","","","3000","1","","","images/earth.jpg","images/rocket2","images/rocket1","null","images/rocket1","","1","real","null","1","","",""
"d3-animate-choice","151","538331","0.0-76.0-1.5","481","5227","24","Female","true","false","false","true","""event"",""trial"",""time""
""blur"",""0"",""0""
""focus"",""1"",""3178""
""fullscreenenter"",""5"",""17723""
","""event"",""trial"",""time""
""blur"",""0"",""0""
","""event"",""trial"",""time""
""focus"",""1"",""3178""
","""event"",""trial"",""time""
""fullscreenenter"",""5"",""17723""
","
","425.80000019073486","","48","","","3000","1","","","images/purpleplanet.jpg","images/alien4","images/alien3","images/rocket1","images/alien4","images/nothing.png","2","real","true","2","common","0","2022-12-14 01:05:37.641"
"two-step-fixation","152","539344","0.0-76.0-2.5","481","5227","24","Female","true","false","false","true","""event"",""trial"",""time""
""blur"",""0"",""0""
""focus"",""1"",""3178""
""fullscreenenter"",""5"",""17723""
","""event"",""trial"",""time""
""blur"",""0"",""0""
","""event"",""trial"",""time""
""focus"",""1"",""3178""
","""event"",""trial"",""time""
""fullscreenenter"",""5"",""17723""
","
","","images/earth.jpg","","","","","","","","","","","","","","fixation","","","","","",""
"d3-animate-choice","153","541703","0.0-76.0-0.6","481","5227","24","Female","true","false","false","true","""event"",""trial"",""time""
""blur"",""0"",""0""
""focus"",""1"",""3178""
""fullscreenenter"",""5"",""17723""
","""event"",""trial"",""time""
""blur"",""0"",""0""
","""event"",""trial"",""time""
""focus"",""1"",""3178""
","""event"",""trial"",""time""
""fullscreenenter"",""5"",""17723""
","
","339.5","","49","","","3000","1","","","images/earth.jpg","images/rocket2","images/rocket1","null","images/rocket1","","1","real","null","1","","",""
"d3-animate-choice","154","544459","0.0-76.0-1.6","481","5227","24","Female","true","false","false","true","""event"",""trial"",""time""
""blur"",""0"",""0""
""focus"",""1"",""3178""
""fullscreenenter"",""5"",""17723""
","""event"",""trial"",""time""
""blur"",""0"",""0""
","""event"",""trial"",""time""
""focus"",""1"",""3178""
","""event"",""trial"",""time""
""fullscreenenter"",""5"",""17723""
","
","738.0999999046326","","49","","","3000","1","","","images/purpleplanet.jpg","images/alien4","images/alien3","images/rocket1","images/alien3","images/nothing.png","2","real","true","1","common","0","2022-12-14 01:05:43.769"
"two-step-fixation","155","545477","0.0-76.0-2.6","481","5227","24","Female","true","false","false","true","""event"",""trial"",""time""
""blur"",""0"",""0""
""focus"",""1"",""3178""
""fullscreenenter"",""5"",""17723""
","""event"",""trial"",""time""
""blur"",""0"",""0""
","""event"",""trial"",""time""
""focus"",""1"",""3178""
","""event"",""trial"",""time""
""fullscreenenter"",""5"",""17723""
","
","","images/earth.jpg","","","","","","","","","","","","","","fixation","","","","","",""
"d3-animate-choice","156","548013","0.0-76.0-0.7","481","5227","24","Female","true","false","false","true","""event"",""trial"",""time""
""blur"",""0"",""0""
""focus"",""1"",""3178""
""fullscreenenter"",""5"",""17723""
","""event"",""trial"",""time""
""blur"",""0"",""0""
","""event"",""trial"",""time""
""focus"",""1"",""3178""
","""event"",""trial"",""time""
""fullscreenenter"",""5"",""17723""
","
","516.3999996185303","","49","","","3000","1","","","images/earth.jpg","images/rocket2","images/rocket1","null","images/rocket1","","1","real","null","1","","",""
"d3-animate-choice","157","550932","0.0-76.0-1.7","481","5227","24","Female","true","false","false","true","""event"",""trial"",""time""
""blur"",""0"",""0""
""focus"",""1"",""3178""
""fullscreenenter"",""5"",""17723""
","""event"",""trial"",""time""
""blur"",""0"",""0""
","""event"",""trial"",""time""
""focus"",""1"",""3178""
","""event"",""trial"",""time""
""fullscreenenter"",""5"",""17723""
","
","906.4000000953674","","48","","","3000","1","","","images/purpleplanet.jpg","images/alien4","images/alien3","images/rocket1","images/alien4","images/t.png","2","real","true","2","common","1","2022-12-14 01:05:50.242"
"two-step-fixation","158","551946","0.0-76.0-2.7","481","5227","24","Female","true","false","false","true","""event"",""trial"",""time""
""blur"",""0"",""0""
""focus"",""1"",""3178""
""fullscreenenter"",""5"",""17723""
","""event"",""trial"",""time""
""blur"",""0"",""0""
","""event"",""trial"",""time""
""focus"",""1"",""3178""
","""event"",""trial"",""time""
""fullscreenenter"",""5"",""17723""
","
","","images/earth.jpg","","","","","","","","","","","","","","fixation","","","","","",""
"d3-animate-choice","159","554249","0.0-76.0-0.8","481","5227","24","Female","true","false","false","true","""event"",""trial"",""time""
""blur"",""0"",""0""
""focus"",""1"",""3178""
""fullscreenenter"",""5"",""17723""
","""event"",""trial"",""time""
""blur"",""0"",""0""
","""event"",""trial"",""time""
""focus"",""1"",""3178""
","""event"",""trial"",""time""
""fullscreenenter"",""5"",""17723""
","
","286.19999980926514","","49","","","3000","1","","","images/earth.jpg","images/rocket2","images/rocket1","null","images/rocket1","","1","real","null","1","","",""
"d3-animate-choice","160","556986","0.0-76.0-1.8","481","5227","24","Female","true","false","false","true","""event"",""trial"",""time""
""blur"",""0"",""0""
""focus"",""1"",""3178""
""fullscreenenter"",""5"",""17723""
","""event"",""trial"",""time""
""blur"",""0"",""0""
","""event"",""trial"",""time""
""focus"",""1"",""3178""
","""event"",""trial"",""time""
""fullscreenenter"",""5"",""17723""
","
","718.1999998092651","","48","","","3000","1","","","images/redplanet1.jpg","images/alien2","images/alien1","images/rocket1","images/alien2","images/nothing.png","2","real","false","2","rare","0","2022-12-14 01:05:56.296"
"two-step-fixation","161","557996","0.0-76.0-2.8","481","5227","24","Female","true","false","false","true","""event"",""trial"",""time""
""blur"",""0"",""0""
""focus"",""1"",""3178""
""fullscreenenter"",""5"",""17723""
","""event"",""trial"",""time""
""blur"",""0"",""0""
","""event"",""trial"",""time""
""focus"",""1"",""3178""
","""event"",""trial"",""time""
""fullscreenenter"",""5"",""17723""
","
","","images/earth.jpg","","","","","","","","","","","","","","fixation","","","","","",""
"d3-animate-choice","162","560271","0.0-76.0-0.9","481","5227","24","Female","true","false","false","true","""event"",""trial"",""time""
""blur"",""0"",""0""
""focus"",""1"",""3178""
""fullscreenenter"",""5"",""17723""
","""event"",""trial"",""time""
""blur"",""0"",""0""
","""event"",""trial"",""time""
""focus"",""1"",""3178""
","""event"",""trial"",""time""
""fullscreenenter"",""5"",""17723""
","
","257.5","","49","","","3000","1","","","images/earth.jpg","images/rocket2","images/rocket1","null","images/rocket1","","1","real","null","1","","",""
"d3-animate-choice","163","562650","0.0-76.0-1.9","481","5227","24","Female","true","false","false","true","""event"",""trial"",""time""
""blur"",""0"",""0""
""focus"",""1"",""3178""
""fullscreenenter"",""5"",""17723""
","""event"",""trial"",""time""
""blur"",""0"",""0""
","""event"",""trial"",""time""
""focus"",""1"",""3178""
","""event"",""trial"",""time""
""fullscreenenter"",""5"",""17723""
","
","369.5","","48","","","3000","1","","","images/purpleplanet.jpg","images/alien4","images/alien3","images/rocket1","images/alien4","images/nothing.png","2","real","true","2","common","0","2022-12-14 01:06:01.960"
"two-step-fixation","164","563665","0.0-76.0-2.9","481","5227","24","Female","true","false","false","true","""event"",""trial"",""time""
""blur"",""0"",""0""
""focus"",""1"",""3178""
""fullscreenenter"",""5"",""17723""
","""event"",""trial"",""time""
""blur"",""0"",""0""
","""event"",""trial"",""time""
""focus"",""1"",""3178""
","""event"",""trial"",""time""
""fullscreenenter"",""5"",""17723""
","
","","images/earth.jpg","","","","","","","","","","","","","","fixation","","","","","",""
"d3-animate-choice","165","566722","0.0-76.0-0.10","481","5227","24","Female","true","false","false","true","""event"",""trial"",""time""
""blur"",""0"",""0""
""focus"",""1"",""3178""
""fullscreenenter"",""5"",""17723""
","""event"",""trial"",""time""
""blur"",""0"",""0""
","""event"",""trial"",""time""
""focus"",""1"",""3178""
","""event"",""trial"",""time""
""fullscreenenter"",""5"",""17723""
","
","1034.5","","48","","","3000","1","","","images/earth.jpg","images/rocket2","images/rocket1","null","images/rocket2","","1","real","null","2","","",""
"d3-animate-choice","166","569005","0.0-76.0-1.10","481","5227","24","Female","true","false","false","true","""event"",""trial"",""time""
""blur"",""0"",""0""
""focus"",""1"",""3178""
""fullscreenenter"",""5"",""17723""
","""event"",""trial"",""time""
""blur"",""0"",""0""
","""event"",""trial"",""time""
""focus"",""1"",""3178""
","""event"",""trial"",""time""
""fullscreenenter"",""5"",""17723""
","
","264.59999990463257","","49","","","3000","1","","","images/redplanet1.jpg","images/alien2","images/alien1","images/rocket2","images/alien1","images/nothing.png","2","real","true","1","common","0","2022-12-14 01:06:08.316"
"two-step-fixation","167","570021","0.0-76.0-2.10","481","5227","24","Female","true","false","false","true","""event"",""trial"",""time""
""blur"",""0"",""0""
""focus"",""1"",""3178""
""fullscreenenter"",""5"",""17723""
","""event"",""trial"",""time""
""blur"",""0"",""0""
","""event"",""trial"",""time""
""focus"",""1"",""3178""
","""event"",""trial"",""time""
""fullscreenenter"",""5"",""17723""
","
","","images/earth.jpg","","","","","","","","","","","","","","fixation","","","","","",""
"d3-animate-choice","168","572327","0.0-76.0-0.11","481","5227","24","Female","true","false","false","true","""event"",""trial"",""time""
""blur"",""0"",""0""
""focus"",""1"",""3178""
""fullscreenenter"",""5"",""17723""
","""event"",""trial"",""time""
""blur"",""0"",""0""
","""event"",""trial"",""time""
""focus"",""1"",""3178""
","""event"",""trial"",""time""
""fullscreenenter"",""5"",""17723""
","
","295.59999990463257","","49","","","3000","1","","","images/earth.jpg","images/rocket2","images/rocket1","null","images/rocket1","","1","real","null","1","","",""
"d3-animate-choice","169","575312","0.0-76.0-1.11","481","5227","24","Female","true","false","false","true","""event"",""trial"",""time""
""blur"",""0"",""0""
""focus"",""1"",""3178""
""fullscreenenter"",""5"",""17723""
","""event"",""trial"",""time""
""blur"",""0"",""0""
","""event"",""trial"",""time""
""focus"",""1"",""3178""
","""event"",""trial"",""time""
""fullscreenenter"",""5"",""17723""
","
","973.2999997138977","","49","","","3000","1","","","images/purpleplanet.jpg","images/alien4","images/alien3","images/rocket1","images/alien3","images/nothing.png","2","real","true","1","common","0","2022-12-14 01:06:14.622"
"two-step-fixation","170","576322","0.0-76.0-2.11","481","5227","24","Female","true","false","false","true","""event"",""trial"",""time""
""blur"",""0"",""0""
""focus"",""1"",""3178""
""fullscreenenter"",""5"",""17723""
","""event"",""trial"",""time""
""blur"",""0"",""0""
","""event"",""trial"",""time""
""focus"",""1"",""3178""
","""event"",""trial"",""time""
""fullscreenenter"",""5"",""17723""
","
","","images/earth.jpg","","","","","","","","","","","","","","fixation","","","","","",""
"d3-animate-choice","171","578695","0.0-76.0-0.12","481","5227","24","Female","true","false","false","true","""event"",""trial"",""time""
""blur"",""0"",""0""
""focus"",""1"",""3178""
""fullscreenenter"",""5"",""17723""
","""event"",""trial"",""time""
""blur"",""0"",""0""
","""event"",""trial"",""time""
""focus"",""1"",""3178""
","""event"",""trial"",""time""
""fullscreenenter"",""5"",""17723""
","
","356.8999996185303","","49","","","3000","1","","","images/earth.jpg","images/rocket2","images/rocket1","null","images/rocket1","","1","real","null","1","","",""
"d3-animate-choice","172","581122","0.0-76.0-1.12","481","5227","24","Female","true","false","false","true","""event"",""trial"",""time""
""blur"",""0"",""0""
""focus"",""1"",""3178""
""fullscreenenter"",""5"",""17723""
","""event"",""trial"",""time""
""blur"",""0"",""0""
","""event"",""trial"",""time""
""focus"",""1"",""3178""
","""event"",""trial"",""time""
""fullscreenenter"",""5"",""17723""
","
","410.2999997138977","","48","","","3000","1","","","images/purpleplanet.jpg","images/alien4","images/alien3","images/rocket1","images/alien4","images/t.png","2","real","true","2","common","1","2022-12-14 01:06:20.432"
"two-step-fixation","173","582130","0.0-76.0-2.12","481","5227","24","Female","true","false","false","true","""event"",""trial"",""time""
""blur"",""0"",""0""
""focus"",""1"",""3178""
""fullscreenenter"",""5"",""17723""
","""event"",""trial"",""time""
""blur"",""0"",""0""
","""event"",""trial"",""time""
""focus"",""1"",""3178""
","""event"",""trial"",""time""
""fullscreenenter"",""5"",""17723""
","
","","images/earth.jpg","","","","","","","","","","","","","","fixation","","","","","",""
"d3-animate-choice","174","584454","0.0-76.0-0.13","481","5227","24","Female","true","false","false","true","""event"",""trial"",""time""
""blur"",""0"",""0""
""focus"",""1"",""3178""
""fullscreenenter"",""5"",""17723""
","""event"",""trial"",""time""
""blur"",""0"",""0""
","""event"",""trial"",""time""
""focus"",""1"",""3178""
","""event"",""trial"",""time""
""fullscreenenter"",""5"",""17723""
","
","312.30000019073486","","49","","","3000","1","","","images/earth.jpg","images/rocket2","images/rocket1","null","images/rocket1","","1","real","null","1","","",""
"d3-animate-choice","175","586881","0.0-76.0-1.13","481","5227","24","Female","true","false","false","true","""event"",""trial"",""time""
""blur"",""0"",""0""
""focus"",""1"",""3178""
""fullscreenenter"",""5"",""17723""
","""event"",""trial"",""time""
""blur"",""0"",""0""
","""event"",""trial"",""time""
""focus"",""1"",""3178""
","""event"",""trial"",""time""
""fullscreenenter"",""5"",""17723""
","
","407.69999980926514","","48","","","3000","1","","","images/redplanet1.jpg","images/alien2","images/alien1","images/rocket1","images/alien2","images/t.png","2","real","false","2","rare","1","2022-12-14 01:06:26.191"
"two-step-fixation","176","587895","0.0-76.0-2.13","481","5227","24","Female","true","false","false","true","""event"",""trial"",""time""
""blur"",""0"",""0""
""focus"",""1"",""3178""
""fullscreenenter"",""5"",""17723""
","""event"",""trial"",""time""
""blur"",""0"",""0""
","""event"",""trial"",""time""
""focus"",""1"",""3178""
","""event"",""trial"",""time""
""fullscreenenter"",""5"",""17723""
","
","","images/earth.jpg","","","","","","","","","","","","","","fixation","","","","","",""
"d3-animate-choice","177","590203","0.0-76.0-0.14","481","5227","24","Female","true","false","false","true","""event"",""trial"",""time""
""blur"",""0"",""0""
""focus"",""1"",""3178""
""fullscreenenter"",""5"",""17723""
","""event"",""trial"",""time""
""blur"",""0"",""0""
","""event"",""trial"",""time""
""focus"",""1"",""3178""
","""event"",""trial"",""time""
""fullscreenenter"",""5"",""17723""
","
","284.5","","49","","","3000","1","","","images/earth.jpg","images/rocket2","images/rocket1","null","images/rocket1","","1","real","null","1","","",""
"d3-animate-choice","178","592505","0.0-76.0-1.14","481","5227","24","Female","true","false","false","true","""event"",""trial"",""time""
""blur"",""0"",""0""
""focus"",""1"",""3178""
""fullscreenenter"",""5"",""17723""
","""event"",""trial"",""time""
""blur"",""0"",""0""
","""event"",""trial"",""time""
""focus"",""1"",""3178""
","""event"",""trial"",""time""
""fullscreenenter"",""5"",""17723""
","
","294.2999997138977","","48","","","3000","1","","","images/purpleplanet.jpg","images/alien4","images/alien3","images/rocket1","images/alien4","images/t.png","2","real","true","2","common","1","2022-12-14 01:06:31.815"
"two-step-fixation","179","593520","0.0-76.0-2.14","481","5227","24","Female","true","false","false","true","""event"",""trial"",""time""
""blur"",""0"",""0""
""focus"",""1"",""3178""
""fullscreenenter"",""5"",""17723""
","""event"",""trial"",""time""
""blur"",""0"",""0""
","""event"",""trial"",""time""
""focus"",""1"",""3178""
","""event"",""trial"",""time""
""fullscreenenter"",""5"",""17723""
","
","","images/earth.jpg","","","","","","","","","","","","","","fixation","","","","","",""
"d3-animate-choice","180","595798","0.0-76.0-0.15","481","5227","24","Female","true","false","false","true","""event"",""trial"",""time""
""blur"",""0"",""0""
""focus"",""1"",""3178""
""fullscreenenter"",""5"",""17723""
","""event"",""trial"",""time""
""blur"",""0"",""0""
","""event"",""trial"",""time""
""focus"",""1"",""3178""
