"trial_type","trial_index","time_elapsed","internal_node_id","participant_id","subject_id","age","gender","rocket_sides","red_planet_first_rocket","red_display_order","purple_display_order","interactions","blur_events","focus_events","fullscreenenter_events","fullscreenexit_events","rt","stimulus","key_press","button_pressed","success","duration","valid_pressed","rts","keys","planet_text","right_text","left_text","center_text","chosen_text","reward_text","trial_stage","practice_trial","transition_type","choice","transition","reward","timestamp"
"pavlovia","0","6","0.0-0.0","1183","1125","15","Female","true","false","true","true","
","
","
","
","
","","","","","","","","","","","","","","","","","","","","","",""
"html-keyboard-response","1","819","0.0-1.0","1183","1125","15","Female","true","false","true","true","
","
","
","
","
","811.2999999988824","Welcome! Press the space bar to begin.","32","","","","","","","","","","","","","","","","","","",""
"audio-keyboard-response","2","4625","0.0-2.0","1183","1125","15","Female","true","false","true","true","
","
","
","
","
","3797","audio/beep_loop.wav","32","","","","","","","","","","","","","","","","","","",""
"audio-button-response","3","7505","0.0-3.0","1183","1125","15","Female","true","false","true","true","
","
","
","
","
","NaN","audio/fish.mp3","","1","","","","","","","","","","","","","","","","","",""
"audio-button-response","4","11008","0.0-4.0","1183","1125","15","Female","true","false","true","true","""event"",""trial"",""time""
""fullscreenenter"",""5"",""19185""
","
","
","""event"",""trial"",""time""
""fullscreenenter"",""5"",""19185""
","
","NaN","audio/tiger.mp3","","4","","","","","","","","","","","","","","","","","",""
"fullscreen","5","20175","0.0-5.0","1183","1125","15","Female","true","false","true","true","""event"",""trial"",""time""
""fullscreenenter"",""5"",""19185""
""fullscreenexit"",""6"",""374203""
""blur"",""6"",""374223""
""focus"",""6"",""979503""
","""event"",""trial"",""time""
""blur"",""6"",""374223""
","""event"",""trial"",""time""
""focus"",""6"",""979503""
","""event"",""trial"",""time""
""fullscreenenter"",""5"",""19185""
","""event"",""trial"",""time""
""fullscreenexit"",""6"",""374203""
","","","","","true","","","","","","","","","","","","","","","","",""
"d3-instructions","6","983289","0.0-6.0","1183","1125","15","Female","true","false","true","true","""event"",""trial"",""time""
""fullscreenenter"",""5"",""19185""
""fullscreenexit"",""6"",""374203""
""blur"",""6"",""374223""
""focus"",""6"",""979503""
","""event"",""trial"",""time""
""blur"",""6"",""374223""
","""event"",""trial"",""time""
""focus"",""6"",""979503""
","""event"",""trial"",""time""
""fullscreenenter"",""5"",""19185""
","""event"",""trial"",""time""
""fullscreenexit"",""6"",""374203""
","","","","","","","","","","","","","","","","","","","","","",""
"d3-instructions","7","989426","0.0-7.0","1183","1125","15","Female","true","false","true","true","""event"",""trial"",""time""
""fullscreenenter"",""5"",""19185""
""fullscreenexit"",""6"",""374203""
""blur"",""6"",""374223""
""focus"",""6"",""979503""
","""event"",""trial"",""time""
""blur"",""6"",""374223""
","""event"",""trial"",""time""
""focus"",""6"",""979503""
","""event"",""trial"",""time""
""fullscreenenter"",""5"",""19185""
","""event"",""trial"",""time""
""fullscreenexit"",""6"",""374203""
","","","","","","","","","","","","","","","","","","","","","",""
"d3-instructions","8","996670","0.0-8.0","1183","1125","15","Female","true","false","true","true","""event"",""trial"",""time""
""fullscreenenter"",""5"",""19185""
""fullscreenexit"",""6"",""374203""
""blur"",""6"",""374223""
""focus"",""6"",""979503""
","""event"",""trial"",""time""
""blur"",""6"",""374223""
","""event"",""trial"",""time""
""focus"",""6"",""979503""
","""event"",""trial"",""time""
""fullscreenenter"",""5"",""19185""
","""event"",""trial"",""time""
""fullscreenexit"",""6"",""374203""
","","","","","","","","","","","","","","","","","","","","","",""
"d3-instructions","9","1007397","0.0-9.0","1183","1125","15","Female","true","false","true","true","""event"",""trial"",""time""
""fullscreenenter"",""5"",""19185""
""fullscreenexit"",""6"",""374203""
""blur"",""6"",""374223""
""focus"",""6"",""979503""
""blur"",""10"",""1080619""
""focus"",""10"",""1111160""
","""event"",""trial"",""time""
""blur"",""6"",""374223""
""blur"",""10"",""1080619""
","""event"",""trial"",""time""
""focus"",""6"",""979503""
""focus"",""10"",""1111160""
","""event"",""trial"",""time""
""fullscreenenter"",""5"",""19185""
","""event"",""trial"",""time""
""fullscreenexit"",""6"",""374203""
","","","","","","","","","","","","","","","","","","","","","",""
"d3-instructions","10","1115587","0.0-10.0","1183","1125","15","Female","true","false","true","true","""event"",""trial"",""time""
""fullscreenenter"",""5"",""19185""
""fullscreenexit"",""6"",""374203""
""blur"",""6"",""374223""
""focus"",""6"",""979503""
""blur"",""10"",""1080619""
""focus"",""10"",""1111160""
","""event"",""trial"",""time""
""blur"",""6"",""374223""
""blur"",""10"",""1080619""
","""event"",""trial"",""time""
""focus"",""6"",""979503""
""focus"",""10"",""1111160""
","""event"",""trial"",""time""
""fullscreenenter"",""5"",""19185""
","""event"",""trial"",""time""
""fullscreenexit"",""6"",""374203""
","","","","","","","","","","","","","","","","","","","","","",""
"d3-animate-choice","11","1128127","0.0-11.0","1183","1125","15","Female","true","false","true","true","""event"",""trial"",""time""
""fullscreenenter"",""5"",""19185""
""fullscreenexit"",""6"",""374203""
""blur"",""6"",""374223""
""focus"",""6"",""979503""
""blur"",""10"",""1080619""
""focus"",""10"",""1111160""
","""event"",""trial"",""time""
""blur"",""6"",""374223""
""blur"",""10"",""1080619""
","""event"",""trial"",""time""
""focus"",""6"",""979503""
""focus"",""10"",""1111160""
","""event"",""trial"",""time""
""fullscreenenter"",""5"",""19185""
","""event"",""trial"",""time""
""fullscreenexit"",""6"",""374203""
","10530.599999999627","","49","","","3000","1","12457.099999999627","48","images/tutgreenplanet.jpg","images/tutalien1","images/tutalien2","null","images/tutalien2","","NA","practice","null","","","",""
"d3-animate-choice","12","1131835","0.0-12.0","1183","1125","15","Female","true","false","true","true","""event"",""trial"",""time""
""fullscreenenter"",""5"",""19185""
""fullscreenexit"",""6"",""374203""
""blur"",""6"",""374223""
""focus"",""6"",""979503""
""blur"",""10"",""1080619""
""focus"",""10"",""1111160""
","""event"",""trial"",""time""
""blur"",""6"",""374223""
""blur"",""10"",""1080619""
","""event"",""trial"",""time""
""focus"",""6"",""979503""
""focus"",""10"",""1111160""
","""event"",""trial"",""time""
""fullscreenenter"",""5"",""19185""
","""event"",""trial"",""time""
""fullscreenexit"",""6"",""374203""
","1703.199999999255","","48","","","3000","1","","","images/tutgreenplanet.jpg","images/tutalien1","images/tutalien2","null","images/tutalien1","","NA","practice","null","","","",""
"d3-animate-choice","13","1142713","0.0-13.0","1183","1125","15","Female","true","false","true","true","""event"",""trial"",""time""
""fullscreenenter"",""5"",""19185""
""fullscreenexit"",""6"",""374203""
""blur"",""6"",""374223""
""focus"",""6"",""979503""
""blur"",""10"",""1080619""
""focus"",""10"",""1111160""
","""event"",""trial"",""time""
""blur"",""6"",""374223""
""blur"",""10"",""1080619""
","""event"",""trial"",""time""
""focus"",""6"",""979503""
""focus"",""10"",""1111160""
","""event"",""trial"",""time""
""fullscreenenter"",""5"",""19185""
","""event"",""trial"",""time""
""fullscreenexit"",""6"",""374203""
","8872.699999999255","","49","","","3000","1","","","images/tutgreenplanet.jpg","images/tutalien1","images/tutalien2","null","images/tutalien2","","NA","practice","null","","","",""
"d3-animate-choice","14","1146919","0.0-14.0","1183","1125","15","Female","true","false","true","true","""event"",""trial"",""time""
""fullscreenenter"",""5"",""19185""
""fullscreenexit"",""6"",""374203""
""blur"",""6"",""374223""
""focus"",""6"",""979503""
""blur"",""10"",""1080619""
""focus"",""10"",""1111160""
","""event"",""trial"",""time""
""blur"",""6"",""374223""
""blur"",""10"",""1080619""
","""event"",""trial"",""time""
""focus"",""6"",""979503""
""focus"",""10"",""1111160""
","""event"",""trial"",""time""
""fullscreenenter"",""5"",""19185""
","""event"",""trial"",""time""
""fullscreenexit"",""6"",""374203""
","2200.39999999851","","49","","","3000","1","2823","49","images/tutgreenplanet.jpg","images/tutalien1","images/tutalien2","null","images/tutalien2","","NA","practice","null","","","",""
"d3-instructions","15","1157252","0.0-15.0","1183","1125","15","Female","true","false","true","true","""event"",""trial"",""time""
""fullscreenenter"",""5"",""19185""
""fullscreenexit"",""6"",""374203""
""blur"",""6"",""374223""
""focus"",""6"",""979503""
""blur"",""10"",""1080619""
""focus"",""10"",""1111160""
","""event"",""trial"",""time""
""blur"",""6"",""374223""
""blur"",""10"",""1080619""
","""event"",""trial"",""time""
""focus"",""6"",""979503""
""focus"",""10"",""1111160""
","""event"",""trial"",""time""
""fullscreenenter"",""5"",""19185""
","""event"",""trial"",""time""
""fullscreenexit"",""6"",""374203""
","","","","","","","","","","","","","","","","","","","","","",""
"d3-instructions","16","1165652","0.0-16.0","1183","1125","15","Female","true","false","true","true","""event"",""trial"",""time""
""fullscreenenter"",""5"",""19185""
""fullscreenexit"",""6"",""374203""
""blur"",""6"",""374223""
""focus"",""6"",""979503""
""blur"",""10"",""1080619""
""focus"",""10"",""1111160""
","""event"",""trial"",""time""
""blur"",""6"",""374223""
""blur"",""10"",""1080619""
","""event"",""trial"",""time""
""focus"",""6"",""979503""
""focus"",""10"",""1111160""
","""event"",""trial"",""time""
""fullscreenenter"",""5"",""19185""
","""event"",""trial"",""time""
""fullscreenexit"",""6"",""374203""
","","","","","","","","","","","","","","","","","","","","","",""
"d3-instructions","17","1176725","0.0-17.0","1183","1125","15","Female","true","false","true","true","""event"",""trial"",""time""
""fullscreenenter"",""5"",""19185""
""fullscreenexit"",""6"",""374203""
""blur"",""6"",""374223""
""focus"",""6"",""979503""
""blur"",""10"",""1080619""
""focus"",""10"",""1111160""
","""event"",""trial"",""time""
""blur"",""6"",""374223""
""blur"",""10"",""1080619""
","""event"",""trial"",""time""
""focus"",""6"",""979503""
""focus"",""10"",""1111160""
","""event"",""trial"",""time""
""fullscreenenter"",""5"",""19185""
","""event"",""trial"",""time""
""fullscreenexit"",""6"",""374203""
","","","","","","","","","","","","","","","","","","","","","",""
"d3-instructions","18","1183966","0.0-18.0","1183","1125","15","Female","true","false","true","true","""event"",""trial"",""time""
""fullscreenenter"",""5"",""19185""
""fullscreenexit"",""6"",""374203""
""blur"",""6"",""374223""
""focus"",""6"",""979503""
""blur"",""10"",""1080619""
""focus"",""10"",""1111160""
","""event"",""trial"",""time""
""blur"",""6"",""374223""
""blur"",""10"",""1080619""
","""event"",""trial"",""time""
""focus"",""6"",""979503""
""focus"",""10"",""1111160""
","""event"",""trial"",""time""
""fullscreenenter"",""5"",""19185""
","""event"",""trial"",""time""
""fullscreenexit"",""6"",""374203""
","","","","","","","","","","","","","","","","","","","","","",""
"d3-instructions","19","1191881","0.0-19.0","1183","1125","15","Female","true","false","true","true","""event"",""trial"",""time""
""fullscreenenter"",""5"",""19185""
""fullscreenexit"",""6"",""374203""
""blur"",""6"",""374223""
""focus"",""6"",""979503""
""blur"",""10"",""1080619""
""focus"",""10"",""1111160""
","""event"",""trial"",""time""
""blur"",""6"",""374223""
""blur"",""10"",""1080619""
","""event"",""trial"",""time""
""focus"",""6"",""979503""
""focus"",""10"",""1111160""
","""event"",""trial"",""time""
""fullscreenenter"",""5"",""19185""
","""event"",""trial"",""time""
""fullscreenexit"",""6"",""374203""
","","","","","","","","","","","","","","","","","","","","","",""
"d3-animate-choice","20","1197255","0.0-20.0","1183","1125","15","Female","true","false","true","true","""event"",""trial"",""time""
""fullscreenenter"",""5"",""19185""
""fullscreenexit"",""6"",""374203""
""blur"",""6"",""374223""
""focus"",""6"",""979503""
""blur"",""10"",""1080619""
""focus"",""10"",""1111160""
","""event"",""trial"",""time""
""blur"",""6"",""374223""
""blur"",""10"",""1080619""
","""event"",""trial"",""time""
""focus"",""6"",""979503""
""focus"",""10"",""1111160""
","""event"",""trial"",""time""
""fullscreenenter"",""5"",""19185""
","""event"",""trial"",""time""
""fullscreenexit"",""6"",""374203""
","3369.60000000149","","49","","","3000","1","4528.5","13","images/tutyellowplanet.jpg","null","images/tutalien3","null","images/tutalien3","images/t.png","NA","practice","null","","","",""
"d3-animate-choice","21","1199946","0.0-21.0","1183","1125","15","Female","true","false","true","true","""event"",""trial"",""time""
""fullscreenenter"",""5"",""19185""
""fullscreenexit"",""6"",""374203""
""blur"",""6"",""374223""
""focus"",""6"",""979503""
""blur"",""10"",""1080619""
""focus"",""10"",""1111160""
","""event"",""trial"",""time""
""blur"",""6"",""374223""
""blur"",""10"",""1080619""
","""event"",""trial"",""time""
""focus"",""6"",""979503""
""focus"",""10"",""1111160""
","""event"",""trial"",""time""
""fullscreenenter"",""5"",""19185""
","""event"",""trial"",""time""
""fullscreenexit"",""6"",""374203""
","687.1999999992549","","49","","","3000","1","1165.800000000745","13","images/tutyellowplanet.jpg","null","images/tutalien3","null","images/tutalien3","images/nothing.png","NA","practice","null","","","",""
"d3-animate-choice","22","1203553","0.0-22.0","1183","1125","15","Female","true","false","true","true","""event"",""trial"",""time""
""fullscreenenter"",""5"",""19185""
""fullscreenexit"",""6"",""374203""
""blur"",""6"",""374223""
""focus"",""6"",""979503""
""blur"",""10"",""1080619""
""focus"",""10"",""1111160""
","""event"",""trial"",""time""
""blur"",""6"",""374223""
""blur"",""10"",""1080619""
","""event"",""trial"",""time""
""focus"",""6"",""979503""
""focus"",""10"",""1111160""
","""event"",""trial"",""time""
""fullscreenenter"",""5"",""19185""
","""event"",""trial"",""time""
""fullscreenexit"",""6"",""374203""
","1247.5999999996275","","32","","","3000","1","1600.300000000745,2000.300000000745","49,32","images/tutyellowplanet.jpg","null","images/tutalien3","null","images/tutalien3","images/t.png","NA","practice","null","","","",""
"d3-animate-choice","23","1206171","0.0-23.0","1183","1125","15","Female","true","false","true","true","""event"",""trial"",""time""
""fullscreenenter"",""5"",""19185""
""fullscreenexit"",""6"",""374203""
""blur"",""6"",""374223""
""focus"",""6"",""979503""
""blur"",""10"",""1080619""
""focus"",""10"",""1111160""
","""event"",""trial"",""time""
""blur"",""6"",""374223""
""blur"",""10"",""1080619""
","""event"",""trial"",""time""
""focus"",""6"",""979503""
""focus"",""10"",""1111160""
","""event"",""trial"",""time""
""fullscreenenter"",""5"",""19185""
","""event"",""trial"",""time""
""fullscreenexit"",""6"",""374203""
","613.7999999988824","","49","","","3000","1","","","images/tutyellowplanet.jpg","null","images/tutalien3","null","images/tutalien3","images/t.png","NA","practice","null","","","",""
"d3-animate-choice","24","1209060","0.0-24.0","1183","1125","15","Female","true","false","true","true","""event"",""trial"",""time""
""fullscreenenter"",""5"",""19185""
""fullscreenexit"",""6"",""374203""
""blur"",""6"",""374223""
""focus"",""6"",""979503""
""blur"",""10"",""1080619""
""focus"",""10"",""1111160""
","""event"",""trial"",""time""
""blur"",""6"",""374223""
""blur"",""10"",""1080619""
","""event"",""trial"",""time""
""focus"",""6"",""979503""
""focus"",""10"",""1111160""
","""event"",""trial"",""time""
""fullscreenenter"",""5"",""19185""
","""event"",""trial"",""time""
""fullscreenexit"",""6"",""374203""
","303.2999999988824","","48","","","3000","1","885","49","images/tutyellowplanet.jpg","null","images/tutalien3","null","images/tutalien3","images/t.png","NA","practice","null","","","",""
"d3-animate-choice","25","1213035","0.0-25.0","1183","1125","15","Female","true","false","true","true","""event"",""trial"",""time""
""fullscreenenter"",""5"",""19185""
""fullscreenexit"",""6"",""374203""
""blur"",""6"",""374223""
""focus"",""6"",""979503""
""blur"",""10"",""1080619""
""focus"",""10"",""1111160""
","""event"",""trial"",""time""
""blur"",""6"",""374223""
""blur"",""10"",""1080619""
","""event"",""trial"",""time""
""focus"",""6"",""979503""
""focus"",""10"",""1111160""
","""event"",""trial"",""time""
""fullscreenenter"",""5"",""19185""
","""event"",""trial"",""time""
""fullscreenexit"",""6"",""374203""
","1970.5","","49","","","3000","1","","","images/tutyellowplanet.jpg","null","images/tutalien3","null","images/tutalien3","images/t.png","NA","practice","null","","","",""
"d3-animate-choice","26","1215488","0.0-26.0","1183","1125","15","Female","true","false","true","true","""event"",""trial"",""time""
""fullscreenenter"",""5"",""19185""
""fullscreenexit"",""6"",""374203""
""blur"",""6"",""374223""
""focus"",""6"",""979503""
""blur"",""10"",""1080619""
""focus"",""10"",""1111160""
","""event"",""trial"",""time""
""blur"",""6"",""374223""
""blur"",""10"",""1080619""
","""event"",""trial"",""time""
""focus"",""6"",""979503""
""focus"",""10"",""1111160""
","""event"",""trial"",""time""
""fullscreenenter"",""5"",""19185""
","""event"",""trial"",""time""
""fullscreenexit"",""6"",""374203""
","449.5","","49","","","3000","1","","","images/tutyellowplanet.jpg","null","images/tutalien3","null","images/tutalien3","images/nothing.png","NA","practice","null","","","",""
"d3-animate-choice","27","1218203","0.0-27.0","1183","1125","15","Female","true","false","true","true","""event"",""trial"",""time""
""fullscreenenter"",""5"",""19185""
""fullscreenexit"",""6"",""374203""
""blur"",""6"",""374223""
""focus"",""6"",""979503""
""blur"",""10"",""1080619""
""focus"",""10"",""1111160""
","""event"",""trial"",""time""
""blur"",""6"",""374223""
""blur"",""10"",""1080619""
","""event"",""trial"",""time""
""focus"",""6"",""979503""
""focus"",""10"",""1111160""
","""event"",""trial"",""time""
""fullscreenenter"",""5"",""19185""
","""event"",""trial"",""time""
""fullscreenexit"",""6"",""374203""
","711.0999999996275","","49","","","3000","1","","","images/tutyellowplanet.jpg","null","images/tutalien3","null","images/tutalien3","images/nothing.png","NA","practice","null","","","",""
"d3-animate-choice","28","1220613","0.0-28.0","1183","1125","15","Female","true","false","true","true","""event"",""trial"",""time""
""fullscreenenter"",""5"",""19185""
""fullscreenexit"",""6"",""374203""
""blur"",""6"",""374223""
""focus"",""6"",""979503""
""blur"",""10"",""1080619""
""focus"",""10"",""1111160""
","""event"",""trial"",""time""
""blur"",""6"",""374223""
""blur"",""10"",""1080619""
","""event"",""trial"",""time""
""focus"",""6"",""979503""
""focus"",""10"",""1111160""
","""event"",""trial"",""time""
""fullscreenenter"",""5"",""19185""
","""event"",""trial"",""time""
""fullscreenexit"",""6"",""374203""
","406.80000000074506","","49","","","3000","1","","","images/tutyellowplanet.jpg","null","images/tutalien3","null","images/tutalien3","images/t.png","NA","practice","null","","","",""
"d3-animate-choice","29","1223292","0.0-29.0","1183","1125","15","Female","true","false","true","true","""event"",""trial"",""time""
""fullscreenenter"",""5"",""19185""
""fullscreenexit"",""6"",""374203""
""blur"",""6"",""374223""
""focus"",""6"",""979503""
""blur"",""10"",""1080619""
""focus"",""10"",""1111160""
","""event"",""trial"",""time""
""blur"",""6"",""374223""
""blur"",""10"",""1080619""
","""event"",""trial"",""time""
""focus"",""6"",""979503""
""focus"",""10"",""1111160""
","""event"",""trial"",""time""
""fullscreenenter"",""5"",""19185""
","""event"",""trial"",""time""
""fullscreenexit"",""6"",""374203""
","674.8000000007451","","49","","","3000","1","","","images/tutyellowplanet.jpg","null","images/tutalien3","null","images/tutalien3","images/t.png","NA","practice","null","","","",""
"d3-instructions","30","1232987","0.0-30.0","1183","1125","15","Female","true","false","true","true","""event"",""trial"",""time""
""fullscreenenter"",""5"",""19185""
""fullscreenexit"",""6"",""374203""
""blur"",""6"",""374223""
""focus"",""6"",""979503""
""blur"",""10"",""1080619""
""focus"",""10"",""1111160""
","""event"",""trial"",""time""
""blur"",""6"",""374223""
""blur"",""10"",""1080619""
","""event"",""trial"",""time""
""focus"",""6"",""979503""
""focus"",""10"",""1111160""
","""event"",""trial"",""time""
""fullscreenenter"",""5"",""19185""
","""event"",""trial"",""time""
""fullscreenexit"",""6"",""374203""
","","","","","","","","","","","","","","","","","","","","","",""
"d3-instructions","31","1243416","0.0-31.0","1183","1125","15","Female","true","false","true","true","""event"",""trial"",""time""
""fullscreenenter"",""5"",""19185""
""fullscreenexit"",""6"",""374203""
""blur"",""6"",""374223""
""focus"",""6"",""979503""
""blur"",""10"",""1080619""
""focus"",""10"",""1111160""
","""event"",""trial"",""time""
""blur"",""6"",""374223""
""blur"",""10"",""1080619""
","""event"",""trial"",""time""
""focus"",""6"",""979503""
""focus"",""10"",""1111160""
","""event"",""trial"",""time""
""fullscreenenter"",""5"",""19185""
","""event"",""trial"",""time""
""fullscreenexit"",""6"",""374203""
","","","","","","","","","","","","","","","","","","","","","",""
"d3-instructions","32","1252338","0.0-32.0","1183","1125","15","Female","true","false","true","true","""event"",""trial"",""time""
""fullscreenenter"",""5"",""19185""
""fullscreenexit"",""6"",""374203""
""blur"",""6"",""374223""
""focus"",""6"",""979503""
""blur"",""10"",""1080619""
""focus"",""10"",""1111160""
","""event"",""trial"",""time""
""blur"",""6"",""374223""
""blur"",""10"",""1080619""
","""event"",""trial"",""time""
""focus"",""6"",""979503""
""focus"",""10"",""1111160""
","""event"",""trial"",""time""
""fullscreenenter"",""5"",""19185""
","""event"",""trial"",""time""
""fullscreenexit"",""6"",""374203""
","","","","","","","","","","","","","","","","","","","","","",""
"d3-instructions","33","1260506","0.0-33.0","1183","1125","15","Female","true","false","true","true","""event"",""trial"",""time""
""fullscreenenter"",""5"",""19185""
""fullscreenexit"",""6"",""374203""
""blur"",""6"",""374223""
""focus"",""6"",""979503""
""blur"",""10"",""1080619""
""focus"",""10"",""1111160""
","""event"",""trial"",""time""
""blur"",""6"",""374223""
""blur"",""10"",""1080619""
","""event"",""trial"",""time""
""focus"",""6"",""979503""
""focus"",""10"",""1111160""
","""event"",""trial"",""time""
""fullscreenenter"",""5"",""19185""
","""event"",""trial"",""time""
""fullscreenexit"",""6"",""374203""
","","","","","","","","","","","","","","","","","","","","","",""
"d3-animate-choice","34","1263851","0.0-34.0","1183","1125","15","Female","true","false","true","true","""event"",""trial"",""time""
""fullscreenenter"",""5"",""19185""
""fullscreenexit"",""6"",""374203""
""blur"",""6"",""374223""
""focus"",""6"",""979503""
""blur"",""10"",""1080619""
""focus"",""10"",""1111160""
","""event"",""trial"",""time""
""blur"",""6"",""374223""
""blur"",""10"",""1080619""
","""event"",""trial"",""time""
""focus"",""6"",""979503""
""focus"",""10"",""1111160""
","""event"",""trial"",""time""
""fullscreenenter"",""5"",""19185""
","""event"",""trial"",""time""
""fullscreenexit"",""6"",""374203""
","1340.9000000003725","","48","","","3000","1","","","images/tutgreenplanet.jpg","images/tutalien1","images/tutalien2","null","images/tutalien1","images/nothing.png","NA","practice","null","","","",""
"d3-animate-choice","35","1266563","0.0-35.0","1183","1125","15","Female","true","false","true","true","""event"",""trial"",""time""
""fullscreenenter"",""5"",""19185""
""fullscreenexit"",""6"",""374203""
""blur"",""6"",""374223""
""focus"",""6"",""979503""
""blur"",""10"",""1080619""
""focus"",""10"",""1111160""
","""event"",""trial"",""time""
""blur"",""6"",""374223""
""blur"",""10"",""1080619""
","""event"",""trial"",""time""
""focus"",""6"",""979503""
""focus"",""10"",""1111160""
","""event"",""trial"",""time""
""fullscreenenter"",""5"",""19185""
","""event"",""trial"",""time""
""fullscreenexit"",""6"",""374203""
","706.9000000003725","","48","","","3000","1","","","images/tutgreenplanet.jpg","images/tutalien1","images/tutalien2","null","images/tutalien1","images/nothing.png","NA","practice","null","","","",""
"d3-animate-choice","36","1268915","0.0-36.0","1183","1125","15","Female","true","false","true","true","""event"",""trial"",""time""
""fullscreenenter"",""5"",""19185""
""fullscreenexit"",""6"",""374203""
""blur"",""6"",""374223""
""focus"",""6"",""979503""
""blur"",""10"",""1080619""
""focus"",""10"",""1111160""
","""event"",""trial"",""time""
""blur"",""6"",""374223""
""blur"",""10"",""1080619""
","""event"",""trial"",""time""
""focus"",""6"",""979503""
""focus"",""10"",""1111160""
","""event"",""trial"",""time""
""fullscreenenter"",""5"",""19185""
","""event"",""trial"",""time""
""fullscreenexit"",""6"",""374203""
","346.40000000037253","","49","","","3000","1","","","images/tutgreenplanet.jpg","images/tutalien1","images/tutalien2","null","images/tutalien2","images/t.png","NA","practice","null","","","",""
"d3-animate-choice","37","1271298","0.0-37.0","1183","1125","15","Female","true","false","true","true","""event"",""trial"",""time""
""fullscreenenter"",""5"",""19185""
""fullscreenexit"",""6"",""374203""
""blur"",""6"",""374223""
""focus"",""6"",""979503""
""blur"",""10"",""1080619""
""focus"",""10"",""1111160""
","""event"",""trial"",""time""
""blur"",""6"",""374223""
""blur"",""10"",""1080619""
","""event"",""trial"",""time""
""focus"",""6"",""979503""
""focus"",""10"",""1111160""
","""event"",""trial"",""time""
""fullscreenenter"",""5"",""19185""
","""event"",""trial"",""time""
""fullscreenexit"",""6"",""374203""
","379.09999999962747","","49","","","3000","1","","","images/tutgreenplanet.jpg","images/tutalien1","images/tutalien2","null","images/tutalien2","images/t.png","NA","practice","null","","","",""
"d3-animate-choice","38","1273605","0.0-38.0","1183","1125","15","Female","true","false","true","true","""event"",""trial"",""time""
""fullscreenenter"",""5"",""19185""
""fullscreenexit"",""6"",""374203""
""blur"",""6"",""374223""
""focus"",""6"",""979503""
""blur"",""10"",""1080619""
""focus"",""10"",""1111160""
","""event"",""trial"",""time""
""blur"",""6"",""374223""
""blur"",""10"",""1080619""
","""event"",""trial"",""time""
""focus"",""6"",""979503""
""focus"",""10"",""1111160""
","""event"",""trial"",""time""
""fullscreenenter"",""5"",""19185""
","""event"",""trial"",""time""
""fullscreenexit"",""6"",""374203""
","301.7999999988824","","49","","","3000","1","","","images/tutgreenplanet.jpg","images/tutalien1","images/tutalien2","null","images/tutalien2","images/t.png","NA","practice","null","","","",""
"d3-animate-choice","39","1275953","0.0-39.0","1183","1125","15","Female","true","false","true","true","""event"",""trial"",""time""
""fullscreenenter"",""5"",""19185""
""fullscreenexit"",""6"",""374203""
""blur"",""6"",""374223""
""focus"",""6"",""979503""
""blur"",""10"",""1080619""
""focus"",""10"",""1111160""
","""event"",""trial"",""time""
""blur"",""6"",""374223""
""blur"",""10"",""1080619""
","""event"",""trial"",""time""
""focus"",""6"",""979503""
""focus"",""10"",""1111160""
","""event"",""trial"",""time""
""fullscreenenter"",""5"",""19185""
","""event"",""trial"",""time""
""fullscreenexit"",""6"",""374203""
","341.3999999985099","","49","","","3000","1","2000.5","49","images/tutgreenplanet.jpg","images/tutalien1","images/tutalien2","null","images/tutalien2","images/t.png","NA","practice","null","","","",""
"d3-animate-choice","40","1279546","0.0-40.0","1183","1125","15","Female","true","false","true","true","""event"",""trial"",""time""
""fullscreenenter"",""5"",""19185""
""fullscreenexit"",""6"",""374203""
""blur"",""6"",""374223""
""focus"",""6"",""979503""
""blur"",""10"",""1080619""
""focus"",""10"",""1111160""
","""event"",""trial"",""time""
""blur"",""6"",""374223""
""blur"",""10"",""1080619""
","""event"",""trial"",""time""
""focus"",""6"",""979503""
""focus"",""10"",""1111160""
","""event"",""trial"",""time""
""fullscreenenter"",""5"",""19185""
","""event"",""trial"",""time""
""fullscreenexit"",""6"",""374203""
","1588.5999999996275","","49","","","3000","1","","","images/tutgreenplanet.jpg","images/tutalien1","images/tutalien2","null","images/tutalien2","images/t.png","NA","practice","null","","","",""
"d3-animate-choice","41","1282017","0.0-41.0","1183","1125","15","Female","true","false","true","true","""event"",""trial"",""time""
""fullscreenenter"",""5"",""19185""
""fullscreenexit"",""6"",""374203""
""blur"",""6"",""374223""
""focus"",""6"",""979503""
""blur"",""10"",""1080619""
""focus"",""10"",""1111160""
","""event"",""trial"",""time""
""blur"",""6"",""374223""
""blur"",""10"",""1080619""
","""event"",""trial"",""time""
""focus"",""6"",""979503""
""focus"",""10"",""1111160""
","""event"",""trial"",""time""
""fullscreenenter"",""5"",""19185""
","""event"",""trial"",""time""
""fullscreenexit"",""6"",""374203""
","466.69999999925494","","49","","","3000","1","2214","49","images/tutgreenplanet.jpg","images/tutalien1","images/tutalien2","null","images/tutalien2","images/t.png","NA","practice","null","","","",""
"d3-animate-choice","42","1284397","0.0-42.0","1183","1125","15","Female","true","false","true","true","""event"",""trial"",""time""
""fullscreenenter"",""5"",""19185""
""fullscreenexit"",""6"",""374203""
""blur"",""6"",""374223""
""focus"",""6"",""979503""
""blur"",""10"",""1080619""
""focus"",""10"",""1111160""
","""event"",""trial"",""time""
""blur"",""6"",""374223""
""blur"",""10"",""1080619""
","""event"",""trial"",""time""
""focus"",""6"",""979503""
""focus"",""10"",""1111160""
","""event"",""trial"",""time""
""fullscreenenter"",""5"",""19185""
","""event"",""trial"",""time""
""fullscreenexit"",""6"",""374203""
","375.2999999988824","","49","","","3000","1","","","images/tutgreenplanet.jpg","images/tutalien1","images/tutalien2","null","images/tutalien2","images/t.png","NA","practice","null","","","",""
"d3-animate-choice","43","1286885","0.0-43.0","1183","1125","15","Female","true","false","true","true","""event"",""trial"",""time""
""fullscreenenter"",""5"",""19185""
""fullscreenexit"",""6"",""374203""
""blur"",""6"",""374223""
""focus"",""6"",""979503""
""blur"",""10"",""1080619""
""focus"",""10"",""1111160""
","""event"",""trial"",""time""
""blur"",""6"",""374223""
""blur"",""10"",""1080619""
","""event"",""trial"",""time""
""focus"",""6"",""979503""
""focus"",""10"",""1111160""
","""event"",""trial"",""time""
""fullscreenenter"",""5"",""19185""
","""event"",""trial"",""time""
""fullscreenexit"",""6"",""374203""
","483.1000000014901","","49","","","3000","1","","","images/tutgreenplanet.jpg","images/tutalien1","images/tutalien2","null","images/tutalien2","images/t.png","NA","practice","null","","","",""
"d3-instructions","44","1295561","0.0-44.0","1183","1125","15","Female","true","false","true","true","""event"",""trial"",""time""
""fullscreenenter"",""5"",""19185""
""fullscreenexit"",""6"",""374203""
""blur"",""6"",""374223""
""focus"",""6"",""979503""
""blur"",""10"",""1080619""
""focus"",""10"",""1111160""
","""event"",""trial"",""time""
""blur"",""6"",""374223""
""blur"",""10"",""1080619""
","""event"",""trial"",""time""
""focus"",""6"",""979503""
""focus"",""10"",""1111160""
","""event"",""trial"",""time""
""fullscreenenter"",""5"",""19185""
","""event"",""trial"",""time""
""fullscreenexit"",""6"",""374203""
","","","","","","","","","","","","","","","","","","","","","",""
"d3-instructions","45","1297768","0.0-45.0","1183","1125","15","Female","true","false","true","true","""event"",""trial"",""time""
""fullscreenenter"",""5"",""19185""
""fullscreenexit"",""6"",""374203""
""blur"",""6"",""374223""
""focus"",""6"",""979503""
""blur"",""10"",""1080619""
""focus"",""10"",""1111160""
","""event"",""trial"",""time""
""blur"",""6"",""374223""
""blur"",""10"",""1080619""
","""event"",""trial"",""time""
""focus"",""6"",""979503""
""focus"",""10"",""1111160""
","""event"",""trial"",""time""
""fullscreenenter"",""5"",""19185""
","""event"",""trial"",""time""
""fullscreenexit"",""6"",""374203""
","","","","","","","","","","","","","","","","","","","","","",""
"d3-instructions","46","1298946","0.0-46.0","1183","1125","15","Female","true","false","true","true","""event"",""trial"",""time""
""fullscreenenter"",""5"",""19185""
""fullscreenexit"",""6"",""374203""
""blur"",""6"",""374223""
""focus"",""6"",""979503""
""blur"",""10"",""1080619""
""focus"",""10"",""1111160""
","""event"",""trial"",""time""
""blur"",""6"",""374223""
""blur"",""10"",""1080619""
","""event"",""trial"",""time""
""focus"",""6"",""979503""
""focus"",""10"",""1111160""
","""event"",""trial"",""time""
""fullscreenenter"",""5"",""19185""
","""event"",""trial"",""time""
""fullscreenexit"",""6"",""374203""
","","","","","","","","","","","","","","","","","","","","","",""
"d3-instructions","47","1311081","0.0-47.0","1183","1125","15","Female","true","false","true","true","""event"",""trial"",""time""
""fullscreenenter"",""5"",""19185""
""fullscreenexit"",""6"",""374203""
""blur"",""6"",""374223""
""focus"",""6"",""979503""
""blur"",""10"",""1080619""
""focus"",""10"",""1111160""
","""event"",""trial"",""time""
""blur"",""6"",""374223""
""blur"",""10"",""1080619""
","""event"",""trial"",""time""
""focus"",""6"",""979503""
""focus"",""10"",""1111160""
","""event"",""trial"",""time""
""fullscreenenter"",""5"",""19185""
","""event"",""trial"",""time""
""fullscreenexit"",""6"",""374203""
","","","","","","","","","","","","","","","","","","","","","",""
"d3-instructions","48","1314310","0.0-48.0","1183","1125","15","Female","true","false","true","true","""event"",""trial"",""time""
""fullscreenenter"",""5"",""19185""
""fullscreenexit"",""6"",""374203""
""blur"",""6"",""374223""
""focus"",""6"",""979503""
""blur"",""10"",""1080619""
""focus"",""10"",""1111160""
","""event"",""trial"",""time""
""blur"",""6"",""374223""
""blur"",""10"",""1080619""
","""event"",""trial"",""time""
""focus"",""6"",""979503""
""focus"",""10"",""1111160""
","""event"",""trial"",""time""
""fullscreenenter"",""5"",""19185""
","""event"",""trial"",""time""
""fullscreenexit"",""6"",""374203""
","","","","","","","","","","","","","","","","","","","","","",""
"d3-instructions","49","1316996","0.0-49.0","1183","1125","15","Female","true","false","true","true","""event"",""trial"",""time""
""fullscreenenter"",""5"",""19185""
""fullscreenexit"",""6"",""374203""
""blur"",""6"",""374223""
""focus"",""6"",""979503""
""blur"",""10"",""1080619""
""focus"",""10"",""1111160""
","""event"",""trial"",""time""
""blur"",""6"",""374223""
""blur"",""10"",""1080619""
","""event"",""trial"",""time""
""focus"",""6"",""979503""
""focus"",""10"",""1111160""
","""event"",""trial"",""time""
""fullscreenenter"",""5"",""19185""
","""event"",""trial"",""time""
""fullscreenexit"",""6"",""374203""
","","","","","","","","","","","","","","","","","","","","","",""
"d3-instructions","50","1319290","0.0-50.0","1183","1125","15","Female","true","false","true","true","""event"",""trial"",""time""
""fullscreenenter"",""5"",""19185""
""fullscreenexit"",""6"",""374203""
""blur"",""6"",""374223""
""focus"",""6"",""979503""
""blur"",""10"",""1080619""
""focus"",""10"",""1111160""
","""event"",""trial"",""time""
""blur"",""6"",""374223""
""blur"",""10"",""1080619""
","""event"",""trial"",""time""
""focus"",""6"",""979503""
""focus"",""10"",""1111160""
","""event"",""trial"",""time""
""fullscreenenter"",""5"",""19185""
","""event"",""trial"",""time""
""fullscreenexit"",""6"",""374203""
","","","","","","","","","","","","","","","","","","","","","",""
"d3-instructions","51","1321113","0.0-51.0","1183","1125","15","Female","true","false","true","true","""event"",""trial"",""time""
""fullscreenenter"",""5"",""19185""
""fullscreenexit"",""6"",""374203""
""blur"",""6"",""374223""
""focus"",""6"",""979503""
""blur"",""10"",""1080619""
""focus"",""10"",""1111160""
","""event"",""trial"",""time""
""blur"",""6"",""374223""
""blur"",""10"",""1080619""
","""event"",""trial"",""time""
""focus"",""6"",""979503""
""focus"",""10"",""1111160""
","""event"",""trial"",""time""
""fullscreenenter"",""5"",""19185""
","""event"",""trial"",""time""
""fullscreenexit"",""6"",""374203""
","","","","","","","","","","","","","","","","","","","","","",""
"d3-instructions","52","1323030","0.0-52.0","1183","1125","15","Female","true","false","true","true","""event"",""trial"",""time""
""fullscreenenter"",""5"",""19185""
""fullscreenexit"",""6"",""374203""
""blur"",""6"",""374223""
""focus"",""6"",""979503""
""blur"",""10"",""1080619""
""focus"",""10"",""1111160""
","""event"",""trial"",""time""
""blur"",""6"",""374223""
""blur"",""10"",""1080619""
","""event"",""trial"",""time""
""focus"",""6"",""979503""
""focus"",""10"",""1111160""
","""event"",""trial"",""time""
""fullscreenenter"",""5"",""19185""
","""event"",""trial"",""time""
""fullscreenexit"",""6"",""374203""
","","","","","","","","","","","","","","","","","","","","","",""
"d3-instructions","53","1336319","0.0-53.0","1183","1125","15","Female","true","false","true","true","""event"",""trial"",""time""
""fullscreenenter"",""5"",""19185""
""fullscreenexit"",""6"",""374203""
""blur"",""6"",""374223""
""focus"",""6"",""979503""
""blur"",""10"",""1080619""
""focus"",""10"",""1111160""
","""event"",""trial"",""time""
""blur"",""6"",""374223""
""blur"",""10"",""1080619""
","""event"",""trial"",""time""
""focus"",""6"",""979503""
""focus"",""10"",""1111160""
","""event"",""trial"",""time""
""fullscreenenter"",""5"",""19185""
","""event"",""trial"",""time""
""fullscreenexit"",""6"",""374203""
","","","","","","","","","","","","","","","","","","","","","",""
"d3-instructions","54","1354716","0.0-54.0","1183","1125","15","Female","true","false","true","true","""event"",""trial"",""time""
""fullscreenenter"",""5"",""19185""
""fullscreenexit"",""6"",""374203""
""blur"",""6"",""374223""
""focus"",""6"",""979503""
""blur"",""10"",""1080619""
""focus"",""10"",""1111160""
","""event"",""trial"",""time""
""blur"",""6"",""374223""
""blur"",""10"",""1080619""
","""event"",""trial"",""time""
""focus"",""6"",""979503""
""focus"",""10"",""1111160""
","""event"",""trial"",""time""
""fullscreenenter"",""5"",""19185""
","""event"",""trial"",""time""
""fullscreenexit"",""6"",""374203""
","","","","","","","","","","","","","","","","","","","","","",""
"d3-instructions","55","1370107","0.0-55.0","1183","1125","15","Female","true","false","true","true","""event"",""trial"",""time""
""fullscreenenter"",""5"",""19185""
""fullscreenexit"",""6"",""374203""
""blur"",""6"",""374223""
""focus"",""6"",""979503""
""blur"",""10"",""1080619""
""focus"",""10"",""1111160""
","""event"",""trial"",""time""
""blur"",""6"",""374223""
""blur"",""10"",""1080619""
","""event"",""trial"",""time""
""focus"",""6"",""979503""
""focus"",""10"",""1111160""
","""event"",""trial"",""time""
""fullscreenenter"",""5"",""19185""
","""event"",""trial"",""time""
""fullscreenexit"",""6"",""374203""
","","","","","","","","","","","","","","","","","","","","","",""
"d3-instructions","56","1372585","0.0-56.0","1183","1125","15","Female","true","false","true","true","""event"",""trial"",""time""
""fullscreenenter"",""5"",""19185""
""fullscreenexit"",""6"",""374203""
""blur"",""6"",""374223""
""focus"",""6"",""979503""
""blur"",""10"",""1080619""
""focus"",""10"",""1111160""
","""event"",""trial"",""time""
""blur"",""6"",""374223""
""blur"",""10"",""1080619""
","""event"",""trial"",""time""
""focus"",""6"",""979503""
""focus"",""10"",""1111160""
","""event"",""trial"",""time""
""fullscreenenter"",""5"",""19185""
","""event"",""trial"",""time""
""fullscreenexit"",""6"",""374203""
","","","","","","","","","","","","","","","","","","","","","",""
"d3-instructions","57","1383261","0.0-57.0","1183","1125","15","Female","true","false","true","true","""event"",""trial"",""time""
""fullscreenenter"",""5"",""19185""
""fullscreenexit"",""6"",""374203""
""blur"",""6"",""374223""
""focus"",""6"",""979503""
""blur"",""10"",""1080619""
""focus"",""10"",""1111160""
","""event"",""trial"",""time""
""blur"",""6"",""374223""
""blur"",""10"",""1080619""
","""event"",""trial"",""time""
""focus"",""6"",""979503""
""focus"",""10"",""1111160""
","""event"",""trial"",""time""
""fullscreenenter"",""5"",""19185""
","""event"",""trial"",""time""
""fullscreenexit"",""6"",""374203""
","","","","","","","","","","","","","","","","","","","","","",""
"d3-instructions","58","1386608","0.0-58.0","1183","1125","15","Female","true","false","true","true","""event"",""trial"",""time""
""fullscreenenter"",""5"",""19185""
""fullscreenexit"",""6"",""374203""
""blur"",""6"",""374223""
""focus"",""6"",""979503""
""blur"",""10"",""1080619""
""focus"",""10"",""1111160""
","""event"",""trial"",""time""
""blur"",""6"",""374223""
""blur"",""10"",""1080619""
","""event"",""trial"",""time""
""focus"",""6"",""979503""
""focus"",""10"",""1111160""
","""event"",""trial"",""time""
""fullscreenenter"",""5"",""19185""
","""event"",""trial"",""time""
""fullscreenexit"",""6"",""374203""
","","","","","","","","","","","","","","","","","","","","","",""
"d3-instructions","59","1389143","0.0-59.0","1183","1125","15","Female","true","false","true","true","""event"",""trial"",""time""
""fullscreenenter"",""5"",""19185""
""fullscreenexit"",""6"",""374203""
""blur"",""6"",""374223""
""focus"",""6"",""979503""
""blur"",""10"",""1080619""
""focus"",""10"",""1111160""
","""event"",""trial"",""time""
""blur"",""6"",""374223""
""blur"",""10"",""1080619""
","""event"",""trial"",""time""
""focus"",""6"",""979503""
""focus"",""10"",""1111160""
","""event"",""trial"",""time""
""fullscreenenter"",""5"",""19185""
","""event"",""trial"",""time""
""fullscreenexit"",""6"",""374203""
","","","","","","","","","","","","","","","","","","","","","",""
"d3-instructions","60","1394188","0.0-60.0","1183","1125","15","Female","true","false","true","true","""event"",""trial"",""time""
""fullscreenenter"",""5"",""19185""
""fullscreenexit"",""6"",""374203""
""blur"",""6"",""374223""
""focus"",""6"",""979503""
""blur"",""10"",""1080619""
""focus"",""10"",""1111160""
","""event"",""trial"",""time""
""blur"",""6"",""374223""
""blur"",""10"",""1080619""
","""event"",""trial"",""time""
""focus"",""6"",""979503""
""focus"",""10"",""1111160""
","""event"",""trial"",""time""
""fullscreenenter"",""5"",""19185""
","""event"",""trial"",""time""
""fullscreenexit"",""6"",""374203""
","","","","","","","","","","","","","","","","","","","","","",""
"d3-animate-choice","61","1397215","0.0-61.0-0.0","1183","1125","15","Female","true","false","true","true","""event"",""trial"",""time""
""fullscreenenter"",""5"",""19185""
""fullscreenexit"",""6"",""374203""
""blur"",""6"",""374223""
""focus"",""6"",""979503""
""blur"",""10"",""1080619""
""focus"",""10"",""1111160""
","""event"",""trial"",""time""
""blur"",""6"",""374223""
""blur"",""10"",""1080619""
","""event"",""trial"",""time""
""focus"",""6"",""979503""
""focus"",""10"",""1111160""
","""event"",""trial"",""time""
""fullscreenenter"",""5"",""19185""
","""event"",""trial"",""time""
""fullscreenexit"",""6"",""374203""
","1020.8000000007451","","48","","","3000","1","","","images/earth.jpg","images/tutrocket2","images/tutrocket1","null","images/tutrocket2","","1","practice","null","2","","",""
"d3-animate-choice","62","1400997","0.0-61.0-1.0","1183","1125","15","Female","true","false","true","true","""event"",""trial"",""time""
""fullscreenenter"",""5"",""19185""
""fullscreenexit"",""6"",""374203""
""blur"",""6"",""374223""
""focus"",""6"",""979503""
""blur"",""10"",""1080619""
""focus"",""10"",""1111160""
","""event"",""trial"",""time""
""blur"",""6"",""374223""
""blur"",""10"",""1080619""
","""event"",""trial"",""time""
""focus"",""6"",""979503""
""focus"",""10"",""1111160""
","""event"",""trial"",""time""
""fullscreenenter"",""5"",""19185""
","""event"",""trial"",""time""
""fullscreenexit"",""6"",""374203""
","1237.300000000745","","192","","","3000","1","1773.0999999996275","49","images/tutyellowplanet.jpg","images/tutalien4","images/tutalien3","images/tutrocket2","images/tutalien3","images/nothing.png","2","practice","false","","rare","0","2022-03-22 18:41:51.806"
"two-step-fixation","63","1402002","0.0-61.0-2.0","1183","1125","15","Female","true","false","true","true","""event"",""trial"",""time""
""fullscreenenter"",""5"",""19185""
""fullscreenexit"",""6"",""374203""
""blur"",""6"",""374223""
""focus"",""6"",""979503""
""blur"",""10"",""1080619""
""focus"",""10"",""1111160""
","""event"",""trial"",""time""
""blur"",""6"",""374223""
""blur"",""10"",""1080619""
","""event"",""trial"",""time""
""focus"",""6"",""979503""
""focus"",""10"",""1111160""
","""event"",""trial"",""time""
""fullscreenenter"",""5"",""19185""
","""event"",""trial"",""time""
""fullscreenexit"",""6"",""374203""
","","images/earth.jpg","","","","","","","","","","","","","","fixation","","","","","",""
"d3-animate-choice","64","1404797","0.0-61.0-0.1","1183","1125","15","Female","true","false","true","true","""event"",""trial"",""time""
""fullscreenenter"",""5"",""19185""
""fullscreenexit"",""6"",""374203""
""blur"",""6"",""374223""
""focus"",""6"",""979503""
""blur"",""10"",""1080619""
""focus"",""10"",""1111160""
","""event"",""trial"",""time""
""blur"",""6"",""374223""
""blur"",""10"",""1080619""
","""event"",""trial"",""time""
""focus"",""6"",""979503""
""focus"",""10"",""1111160""
","""event"",""trial"",""time""
""fullscreenenter"",""5"",""19185""
","""event"",""trial"",""time""
""fullscreenexit"",""6"",""374203""
","791.3000000007451","","48","","","3000","1","","","images/earth.jpg","images/tutrocket2","images/tutrocket1","null","images/tutrocket2","","1","practice","null","2","","",""
"d3-animate-choice","65","1407275","0.0-61.0-1.1","1183","1125","15","Female","true","false","true","true","""event"",""trial"",""time""
""fullscreenenter"",""5"",""19185""
""fullscreenexit"",""6"",""374203""
""blur"",""6"",""374223""
""focus"",""6"",""979503""
""blur"",""10"",""1080619""
""focus"",""10"",""1111160""
","""event"",""trial"",""time""
""blur"",""6"",""374223""
""blur"",""10"",""1080619""
","""event"",""trial"",""time""
""focus"",""6"",""979503""
""focus"",""10"",""1111160""
","""event"",""trial"",""time""
""fullscreenenter"",""5"",""19185""
","""event"",""trial"",""time""
""fullscreenexit"",""6"",""374203""
","473","","48","","","3000","1","","","images/tutgreenplanet.jpg","images/tutalien2","images/tutalien1","images/tutrocket2","images/tutalien2","images/nothing.png","2","practice","true","2","common","0","2022-03-22 18:41:58.085"
"two-step-fixation","66","1408280","0.0-61.0-2.1","1183","1125","15","Female","true","false","true","true","""event"",""trial"",""time""
""fullscreenenter"",""5"",""19185""
""fullscreenexit"",""6"",""374203""
""blur"",""6"",""374223""
""focus"",""6"",""979503""
""blur"",""10"",""1080619""
""focus"",""10"",""1111160""
","""event"",""trial"",""time""
""blur"",""6"",""374223""
""blur"",""10"",""1080619""
","""event"",""trial"",""time""
""focus"",""6"",""979503""
""focus"",""10"",""1111160""
","""event"",""trial"",""time""
""fullscreenenter"",""5"",""19185""
","""event"",""trial"",""time""
""fullscreenexit"",""6"",""374203""
","","images/earth.jpg","","","","","","","","","","","","","","fixation","","","","","",""
"d3-animate-choice","67","1410729","0.0-61.0-0.2","1183","1125","15","Female","true","false","true","true","""event"",""trial"",""time""
""fullscreenenter"",""5"",""19185""
""fullscreenexit"",""6"",""374203""
""blur"",""6"",""374223""
""focus"",""6"",""979503""
""blur"",""10"",""1080619""
""focus"",""10"",""1111160""
","""event"",""trial"",""time""
""blur"",""6"",""374223""
""blur"",""10"",""1080619""
","""event"",""trial"",""time""
""focus"",""6"",""979503""
""focus"",""10"",""1111160""
","""event"",""trial"",""time""
""fullscreenenter"",""5"",""19185""
","""event"",""trial"",""time""
""fullscreenexit"",""6"",""374203""
","443.5","","49","","","3000","1","","","images/earth.jpg","images/tutrocket2","images/tutrocket1","null","images/tutrocket1","","1","practice","null","1","","",""
"d3-animate-choice","68","1413204","0.0-61.0-1.2","1183","1125","15","Female","true","false","true","true","""event"",""trial"",""time""
""fullscreenenter"",""5"",""19185""
""fullscreenexit"",""6"",""374203""
""blur"",""6"",""374223""
""focus"",""6"",""979503""
""blur"",""10"",""1080619""
""focus"",""10"",""1111160""
","""event"",""trial"",""time""
""blur"",""6"",""374223""
""blur"",""10"",""1080619""
","""event"",""trial"",""time""
""focus"",""6"",""979503""
""focus"",""10"",""1111160""
","""event"",""trial"",""time""
""fullscreenenter"",""5"",""19185""
","""event"",""trial"",""time""
""fullscreenexit"",""6"",""374203""
","469.40000000037253","","49","","","3000","1","","","images/tutgreenplanet.jpg","images/tutalien2","images/tutalien1","images/tutrocket1","images/tutalien1","images/nothing.png","2","practice","false","1","rare","0","2022-03-22 18:42:04.013"
"two-step-fixation","69","1414209","0.0-61.0-2.2","1183","1125","15","Female","true","false","true","true","""event"",""trial"",""time""
""fullscreenenter"",""5"",""19185""
""fullscreenexit"",""6"",""374203""
""blur"",""6"",""374223""
""focus"",""6"",""979503""
""blur"",""10"",""1080619""
""focus"",""10"",""1111160""
","""event"",""trial"",""time""
""blur"",""6"",""374223""
""blur"",""10"",""1080619""
","""event"",""trial"",""time""
""focus"",""6"",""979503""
""focus"",""10"",""1111160""
","""event"",""trial"",""time""
""fullscreenenter"",""5"",""19185""
","""event"",""trial"",""time""
""fullscreenexit"",""6"",""374203""
","","images/earth.jpg","","","","","","","","","","","","","","fixation","","","","","",""
"d3-animate-choice","70","1416583","0.0-61.0-0.3","1183","1125","15","Female","true","false","true","true","""event"",""trial"",""time""
""fullscreenenter"",""5"",""19185""
""fullscreenexit"",""6"",""374203""
""blur"",""6"",""374223""
""focus"",""6"",""979503""
""blur"",""10"",""1080619""
""focus"",""10"",""1111160""
","""event"",""trial"",""time""
""blur"",""6"",""374223""
""blur"",""10"",""1080619""
","""event"",""trial"",""time""
""focus"",""6"",""979503""
""focus"",""10"",""1111160""
","""event"",""trial"",""time""
""fullscreenenter"",""5"",""19185""
","""event"",""trial"",""time""
""fullscreenexit"",""6"",""374203""
","368.7999999988824","","49","","","3000","1","","","images/earth.jpg","images/tutrocket2","images/tutrocket1","null","images/tutrocket1","","1","practice","null","1","","",""
"d3-animate-choice","71","1419158","0.0-61.0-1.3","1183","1125","15","Female","true","false","true","true","""event"",""trial"",""time""
""fullscreenenter"",""5"",""19185""
""fullscreenexit"",""6"",""374203""
""blur"",""6"",""374223""
""focus"",""6"",""979503""
""blur"",""10"",""1080619""
""focus"",""10"",""1111160""
","""event"",""trial"",""time""
""blur"",""6"",""374223""
""blur"",""10"",""1080619""
","""event"",""trial"",""time""
""focus"",""6"",""979503""
""focus"",""10"",""1111160""
","""event"",""trial"",""time""
""fullscreenenter"",""5"",""19185""
","""event"",""trial"",""time""
""fullscreenexit"",""6"",""374203""
","563.1000000014901","","48","","","3000","1","","","images/tutgreenplanet.jpg","images/tutalien2","images/tutalien1","images/tutrocket1","images/tutalien2","images/t.png","2","practice","false","2","rare","1","2022-03-22 18:42:09.967"
"two-step-fixation","72","1420162","0.0-61.0-2.3","1183","1125","15","Female","true","false","true","true","""event"",""trial"",""time""
""fullscreenenter"",""5"",""19185""
""fullscreenexit"",""6"",""374203""
""blur"",""6"",""374223""
""focus"",""6"",""979503""
""blur"",""10"",""1080619""
""focus"",""10"",""1111160""
","""event"",""trial"",""time""
""blur"",""6"",""374223""
""blur"",""10"",""1080619""
","""event"",""trial"",""time""
""focus"",""6"",""979503""
""focus"",""10"",""1111160""
","""event"",""trial"",""time""
""fullscreenenter"",""5"",""19185""
","""event"",""trial"",""time""
""fullscreenexit"",""6"",""374203""
","","images/earth.jpg","","","","","","","","","","","","","","fixation","","","","","",""
"d3-animate-choice","73","1422531","0.0-61.0-0.4","1183","1125","15","Female","true","false","true","true","""event"",""trial"",""time""
""fullscreenenter"",""5"",""19185""
""fullscreenexit"",""6"",""374203""
""blur"",""6"",""374223""
""focus"",""6"",""979503""
""blur"",""10"",""1080619""
""focus"",""10"",""1111160""
","""event"",""trial"",""time""
""blur"",""6"",""374223""
""blur"",""10"",""1080619""
","""event"",""trial"",""time""
""focus"",""6"",""979503""
""focus"",""10"",""1111160""
","""event"",""trial"",""time""
""fullscreenenter"",""5"",""19185""
","""event"",""trial"",""time""
""fullscreenexit"",""6"",""374203""
","363.69999999925494","","49","","","3000","1","","","images/earth.jpg","images/tutrocket2","images/tutrocket1","null","images/tutrocket1","","1","practice","null","1","","",""
"d3-animate-choice","74","1424942","0.0-61.0-1.4","1183","1125","15","Female","true","false","true","true","""event"",""trial"",""time""
""fullscreenenter"",""5"",""19185""
""fullscreenexit"",""6"",""374203""
""blur"",""6"",""374223""
""focus"",""6"",""979503""
""blur"",""10"",""1080619""
""focus"",""10"",""1111160""
","""event"",""trial"",""time""
""blur"",""6"",""374223""
""blur"",""10"",""1080619""
","""event"",""trial"",""time""
""focus"",""6"",""979503""
""focus"",""10"",""1111160""
","""event"",""trial"",""time""
""fullscreenenter"",""5"",""19185""
","""event"",""trial"",""time""
""fullscreenexit"",""6"",""374203""
","405","","48","","","3000","1","","","images/tutgreenplanet.jpg","images/tutalien2","images/tutalien1","images/tutrocket1","images/tutalien2","images/nothing.png","2","practice","false","2","rare","0","2022-03-22 18:42:15.751"
"two-step-fixation","75","1425948","0.0-61.0-2.4","1183","1125","15","Female","true","false","true","true","""event"",""trial"",""time""
""fullscreenenter"",""5"",""19185""
""fullscreenexit"",""6"",""374203""
""blur"",""6"",""374223""
""focus"",""6"",""979503""
""blur"",""10"",""1080619""
""focus"",""10"",""1111160""
","""event"",""trial"",""time""
""blur"",""6"",""374223""
""blur"",""10"",""1080619""
","""event"",""trial"",""time""
""focus"",""6"",""979503""
""focus"",""10"",""1111160""
","""event"",""trial"",""time""
""fullscreenenter"",""5"",""19185""
","""event"",""trial"",""time""
""fullscreenexit"",""6"",""374203""
","","images/earth.jpg","","","","","","","","","","","","","","fixation","","","","","",""
"d3-animate-choice","76","1428131","0.0-61.0-0.5","1183","1125","15","Female","true","false","true","true","""event"",""trial"",""time""
""fullscreenenter"",""5"",""19185""
""fullscreenexit"",""6"",""374203""
""blur"",""6"",""374223""
""focus"",""6"",""979503""
""blur"",""10"",""1080619""
""focus"",""10"",""1111160""
","""event"",""trial"",""time""
""blur"",""6"",""374223""
""blur"",""10"",""1080619""
","""event"",""trial"",""time""
""focus"",""6"",""979503""
""focus"",""10"",""1111160""
","""event"",""trial"",""time""
""fullscreenenter"",""5"",""19185""
","""event"",""trial"",""time""
""fullscreenexit"",""6"",""374203""
","178.80000000074506","","49","","","3000","1","","","images/earth.jpg","images/tutrocket2","images/tutrocket1","null","images/tutrocket1","","1","practice","null","1","","",""
"d3-animate-choice","77","1430480","0.0-61.0-1.5","1183","1125","15","Female","true","false","true","true","""event"",""trial"",""time""
""fullscreenenter"",""5"",""19185""
""fullscreenexit"",""6"",""374203""
""blur"",""6"",""374223""
""focus"",""6"",""979503""
""blur"",""10"",""1080619""
""focus"",""10"",""1111160""
","""event"",""trial"",""time""
""blur"",""6"",""374223""
""blur"",""10"",""1080619""
","""event"",""trial"",""time""
""focus"",""6"",""979503""
""focus"",""10"",""1111160""
","""event"",""trial"",""time""
""fullscreenenter"",""5"",""19185""
","""event"",""trial"",""time""
""fullscreenexit"",""6"",""374203""
","343.09999999962747","","49","","","3000","1","2223.0999999996275","49","images/tutyellowplanet.jpg","images/tutalien4","images/tutalien3","images/tutrocket1","images/tutalien3","images/nothing.png","2","practice","true","1","common","0","2022-03-22 18:42:21.289"
"two-step-fixation","78","1431484","0.0-61.0-2.5","1183","1125","15","Female","true","false","true","true","""event"",""trial"",""time""
""fullscreenenter"",""5"",""19185""
""fullscreenexit"",""6"",""374203""
""blur"",""6"",""374223""
""focus"",""6"",""979503""
""blur"",""10"",""1080619""
""focus"",""10"",""1111160""
","""event"",""trial"",""time""
""blur"",""6"",""374223""
""blur"",""10"",""1080619""
","""event"",""trial"",""time""
""focus"",""6"",""979503""
""focus"",""10"",""1111160""
","""event"",""trial"",""time""
""fullscreenenter"",""5"",""19185""
","""event"",""trial"",""time""
""fullscreenexit"",""6"",""374203""
","","images/earth.jpg","","","","","","","","","","","","","","fixation","","","","","",""
"d3-animate-choice","79","1433811","0.0-61.0-0.6","1183","1125","15","Female","true","false","true","true","""event"",""trial"",""time""
""fullscreenenter"",""5"",""19185""
""fullscreenexit"",""6"",""374203""
""blur"",""6"",""374223""
""focus"",""6"",""979503""
""blur"",""10"",""1080619""
""focus"",""10"",""1111160""
","""event"",""trial"",""time""
""blur"",""6"",""374223""
""blur"",""10"",""1080619""
","""event"",""trial"",""time""
""focus"",""6"",""979503""
""focus"",""10"",""1111160""
","""event"",""trial"",""time""
""fullscreenenter"",""5"",""19185""
","""event"",""trial"",""time""
""fullscreenexit"",""6"",""374203""
","322.3999999985099","","48","","","3000","1","","","images/earth.jpg","images/tutrocket2","images/tutrocket1","null","images/tutrocket2","","1","practice","null","2","","",""
"d3-animate-choice","80","1436325","0.0-61.0-1.6","1183","1125","15","Female","true","false","true","true","""event"",""trial"",""time""
""fullscreenenter"",""5"",""19185""
""fullscreenexit"",""6"",""374203""
""blur"",""6"",""374223""
""focus"",""6"",""979503""
""blur"",""10"",""1080619""
""focus"",""10"",""1111160""
","""event"",""trial"",""time""
""blur"",""6"",""374223""
""blur"",""10"",""1080619""
","""event"",""trial"",""time""
""focus"",""6"",""979503""
""focus"",""10"",""1111160""
","""event"",""trial"",""time""
""fullscreenenter"",""5"",""19185""
","""event"",""trial"",""time""
""fullscreenexit"",""6"",""374203""
","508.3999999985099","","48","","","3000","1","","","images/tutgreenplanet.jpg","images/tutalien2","images/tutalien1","images/tutrocket2","images/tutalien2","images/nothing.png","2","practice","true","2","common","0","2022-03-22 18:42:27.134"
"two-step-fixation","81","1437329","0.0-61.0-2.6","1183","1125","15","Female","true","false","true","true","""event"",""trial"",""time""
""fullscreenenter"",""5"",""19185""
""fullscreenexit"",""6"",""374203""
""blur"",""6"",""374223""
""focus"",""6"",""979503""
""blur"",""10"",""1080619""
""focus"",""10"",""1111160""
","""event"",""trial"",""time""
""blur"",""6"",""374223""
""blur"",""10"",""1080619""
","""event"",""trial"",""time""
""focus"",""6"",""979503""
""focus"",""10"",""1111160""
","""event"",""trial"",""time""
""fullscreenenter"",""5"",""19185""
","""event"",""trial"",""time""
""fullscreenexit"",""6"",""374203""
","","images/earth.jpg","","","","","","","","","","","","","","fixation","","","","","",""
"d3-animate-choice","82","1439676","0.0-61.0-0.7","1183","1125","15","Female","true","false","true","true","""event"",""trial"",""time""
""fullscreenenter"",""5"",""19185""
""fullscreenexit"",""6"",""374203""
""blur"",""6"",""374223""
""focus"",""6"",""979503""
""blur"",""10"",""1080619""
""focus"",""10"",""1111160""
","""event"",""trial"",""time""
""blur"",""6"",""374223""
""blur"",""10"",""1080619""
","""event"",""trial"",""time""
""focus"",""6"",""979503""
""focus"",""10"",""1111160""
","""event"",""trial"",""time""
""fullscreenenter"",""5"",""19185""
","""event"",""trial"",""time""
""fullscreenexit"",""6"",""374203""
","341.7999999988824","","48","","","3000","1","","","images/earth.jpg","images/tutrocket2","images/tutrocket1","null","images/tutrocket2","","1","practice","null","2","","",""
"d3-animate-choice","83","1442080","0.0-61.0-1.7","1183","1125","15","Female","true","false","true","true","""event"",""trial"",""time""
""fullscreenenter"",""5"",""19185""
""fullscreenexit"",""6"",""374203""
""blur"",""6"",""374223""
""focus"",""6"",""979503""
""blur"",""10"",""1080619""
""focus"",""10"",""1111160""
","""event"",""trial"",""time""
""blur"",""6"",""374223""
""blur"",""10"",""1080619""
","""event"",""trial"",""time""
""focus"",""6"",""979503""
""focus"",""10"",""1111160""
","""event"",""trial"",""time""
""fullscreenenter"",""5"",""19185""
","""event"",""trial"",""time""
""fullscreenexit"",""6"",""374203""
","399.5","","49","","","3000","1","","","images/tutyellowplanet.jpg","images/tutalien4","images/tutalien3","images/tutrocket2","images/tutalien3","images/t.png","2","practice","false","1","rare","1","2022-03-22 18:42:32.890"
"two-step-fixation","84","1443084","0.0-61.0-2.7","1183","1125","15","Female","true","false","true","true","""event"",""trial"",""time""
""fullscreenenter"",""5"",""19185""
""fullscreenexit"",""6"",""374203""
""blur"",""6"",""374223""
""focus"",""6"",""979503""
""blur"",""10"",""1080619""
""focus"",""10"",""1111160""
","""event"",""trial"",""time""
""blur"",""6"",""374223""
""blur"",""10"",""1080619""
","""event"",""trial"",""time""
""focus"",""6"",""979503""
""focus"",""10"",""1111160""
","""event"",""trial"",""time""
""fullscreenenter"",""5"",""19185""
","""event"",""trial"",""time""
""fullscreenexit"",""6"",""374203""
","","images/earth.jpg","","","","","","","","","","","","","","fixation","","","","","",""
"d3-animate-choice","85","1446843","0.0-61.0-0.8","1183","1125","15","Female","true","false","true","true","""event"",""trial"",""time""
""fullscreenenter"",""5"",""19185""
""fullscreenexit"",""6"",""374203""
""blur"",""6"",""374223""
""focus"",""6"",""979503""
""blur"",""10"",""1080619""
""focus"",""10"",""1111160""
","""event"",""trial"",""time""
""blur"",""6"",""374223""
""blur"",""10"",""1080619""
","""event"",""trial"",""time""
""focus"",""6"",""979503""
""focus"",""10"",""1111160""
","""event"",""trial"",""time""
""fullscreenenter"",""5"",""19185""
","""event"",""trial"",""time""
""fullscreenexit"",""6"",""374203""
","1753.9000000003725","","48","","","3000","1","","","images/earth.jpg","images/tutrocket2","images/tutrocket1","null","images/tutrocket2","","1","practice","null","2","","",""
"d3-animate-choice","86","1449614","0.0-61.0-1.8","1183","1125","15","Female","true","false","true","true","""event"",""trial"",""time""
""fullscreenenter"",""5"",""19185""
""fullscreenexit"",""6"",""374203""
""blur"",""6"",""374223""
""focus"",""6"",""979503""
""blur"",""10"",""1080619""
""focus"",""10"",""1111160""
","""event"",""trial"",""time""
""blur"",""6"",""374223""
""blur"",""10"",""1080619""
","""event"",""trial"",""time""
""focus"",""6"",""979503""
""focus"",""10"",""1111160""
","""event"",""trial"",""time""
""fullscreenenter"",""5"",""19185""
","""event"",""trial"",""time""
""fullscreenexit"",""6"",""374203""
","764.5999999996275","","49","","","3000","1","","","images/tutyellowplanet.jpg","images/tutalien4","images/tutalien3","images/tutrocket2","images/tutalien3","images/t.png","2","practice","false","1","rare","1","2022-03-22 18:42:40.423"
"two-step-fixation","87","1450618","0.0-61.0-2.8","1183","1125","15","Female","true","false","true","true","""event"",""trial"",""time""
""fullscreenenter"",""5"",""19185""
""fullscreenexit"",""6"",""374203""
""blur"",""6"",""374223""
""focus"",""6"",""979503""
""blur"",""10"",""1080619""
""focus"",""10"",""1111160""
","""event"",""trial"",""time""
""blur"",""6"",""374223""
""blur"",""10"",""1080619""
","""event"",""trial"",""time""
""focus"",""6"",""979503""
""focus"",""10"",""1111160""
","""event"",""trial"",""time""
""fullscreenenter"",""5"",""19185""
","""event"",""trial"",""time""
""fullscreenexit"",""6"",""374203""
","","images/earth.jpg","","","","","","","","","","","","","","fixation","","","","","",""
"d3-animate-choice","88","1453121","0.0-61.0-0.9","1183","1125","15","Female","true","false","true","true","""event"",""trial"",""time""
""fullscreenenter"",""5"",""19185""
""fullscreenexit"",""6"",""374203""
""blur"",""6"",""374223""
""focus"",""6"",""979503""
""blur"",""10"",""1080619""
""focus"",""10"",""1111160""
","""event"",""trial"",""time""
""blur"",""6"",""374223""
""blur"",""10"",""1080619""
","""event"",""trial"",""time""
""focus"",""6"",""979503""
""focus"",""10"",""1111160""
","""event"",""trial"",""time""
""fullscreenenter"",""5"",""19185""
","""event"",""trial"",""time""
""fullscreenexit"",""6"",""374203""
","497.09999999962747","","48","","","3000","1","2257.199999999255","49","images/earth.jpg","images/tutrocket2","images/tutrocket1","null","images/tutrocket2","","1","practice","null","2","","",""
"d3-animate-choice","89","1455655","0.0-61.0-1.9","1183","1125","15","Female","true","false","true","true","""event"",""trial"",""time""
""fullscreenenter"",""5"",""19185""
""fullscreenexit"",""6"",""374203""
""blur"",""6"",""374223""
""focus"",""6"",""979503""
""blur"",""10"",""1080619""
""focus"",""10"",""1111160""
","""event"",""trial"",""time""
""blur"",""6"",""374223""
""blur"",""10"",""1080619""
","""event"",""trial"",""time""
""focus"",""6"",""979503""
""focus"",""10"",""1111160""
","""event"",""trial"",""time""
""fullscreenenter"",""5"",""19185""
","""event"",""trial"",""time""
""fullscreenexit"",""6"",""374203""
","529.4000000003725","","49","","","3000","1","","","images/tutgreenplanet.jpg","images/tutalien2","images/tutalien1","images/tutrocket2","images/tutalien1","images/nothing.png","2","practice","true","1","common","0","2022-03-22 18:42:46.464"
"two-step-fixation","90","1456659","0.0-61.0-2.9","1183","1125","15","Female","true","false","true","true","""event"",""trial"",""time""
""fullscreenenter"",""5"",""19185""
""fullscreenexit"",""6"",""374203""
""blur"",""6"",""374223""
""focus"",""6"",""979503""
""blur"",""10"",""1080619""
""focus"",""10"",""1111160""
","""event"",""trial"",""time""
""blur"",""6"",""374223""
""blur"",""10"",""1080619""
","""event"",""trial"",""time""
""focus"",""6"",""979503""
""focus"",""10"",""1111160""
","""event"",""trial"",""time""
""fullscreenenter"",""5"",""19185""
","""event"",""trial"",""time""
""fullscreenexit"",""6"",""374203""
","","images/earth.jpg","","","","","","","","","","","","","","fixation","","","","","",""
"d3-animate-choice","91","1458942","0.0-61.0-0.10","1183","1125","15","Female","true","false","true","true","""event"",""trial"",""time""
""fullscreenenter"",""5"",""19185""
""fullscreenexit"",""6"",""374203""
""blur"",""6"",""374223""
""focus"",""6"",""979503""
""blur"",""10"",""1080619""
""focus"",""10"",""1111160""
","""event"",""trial"",""time""
""blur"",""6"",""374223""
""blur"",""10"",""1080619""
","""event"",""trial"",""time""
""focus"",""6"",""979503""
""focus"",""10"",""1111160""
","""event"",""trial"",""time""
""fullscreenenter"",""5"",""19185""
","""event"",""trial"",""time""
""fullscreenexit"",""6"",""374203""
","278.30000000074506","","49","","","3000","1","","","images/earth.jpg","images/tutrocket2","images/tutrocket1","null","images/tutrocket1","","1","practice","null","1","","",""
"d3-animate-choice","92","1462711","0.0-61.0-1.10","1183","1125","15","Female","true","false","true","true","""event"",""trial"",""time""
""fullscreenenter"",""5"",""19185""
""fullscreenexit"",""6"",""374203""
""blur"",""6"",""374223""
""focus"",""6"",""979503""
""blur"",""10"",""1080619""
""focus"",""10"",""1111160""
","""event"",""trial"",""time""
""blur"",""6"",""374223""
""blur"",""10"",""1080619""
","""event"",""trial"",""time""
""focus"",""6"",""979503""
""focus"",""10"",""1111160""
","""event"",""trial"",""time""
""fullscreenenter"",""5"",""19185""
","""event"",""trial"",""time""
""fullscreenexit"",""6"",""374203""
","1760","","48","","","3000","1","2039","48","images/tutgreenplanet.jpg","images/tutalien2","images/tutalien1","images/tutrocket1","images/tutalien2","images/t.png","2","practice","false","2","rare","1","2022-03-22 18:42:53.520"
"two-step-fixation","93","1463715","0.0-61.0-2.10","1183","1125","15","Female","true","false","true","true","""event"",""trial"",""time""
""fullscreenenter"",""5"",""19185""
""fullscreenexit"",""6"",""374203""
""blur"",""6"",""374223""
""focus"",""6"",""979503""
""blur"",""10"",""1080619""
""focus"",""10"",""1111160""
","""event"",""trial"",""time""
""blur"",""6"",""374223""
""blur"",""10"",""1080619""
","""event"",""trial"",""time""
""focus"",""6"",""979503""
""focus"",""10"",""1111160""
","""event"",""trial"",""time""
""fullscreenenter"",""5"",""19185""
","""event"",""trial"",""time""
""fullscreenexit"",""6"",""374203""
","","images/earth.jpg","","","","","","","","","","","","","","fixation","","","","","",""
"d3-animate-choice","94","1466482","0.0-61.0-0.11","1183","1125","15","Female","true","false","true","true","""event"",""trial"",""time""
""fullscreenenter"",""5"",""19185""
""fullscreenexit"",""6"",""374203""
""blur"",""6"",""374223""
""focus"",""6"",""979503""
""blur"",""10"",""1080619""
""focus"",""10"",""1111160""
","""event"",""trial"",""time""
""blur"",""6"",""374223""
""blur"",""10"",""1080619""
","""event"",""trial"",""time""
""focus"",""6"",""979503""
""focus"",""10"",""1111160""
","""event"",""trial"",""time""
""fullscreenenter"",""5"",""19185""
","""event"",""trial"",""time""
""fullscreenexit"",""6"",""374203""
","761.8000000007451","","48","","","3000","1","","","images/earth.jpg","images/tutrocket2","images/tutrocket1","null","images/tutrocket2","","1","practice","null","2","","",""
"d3-animate-choice","95","1468840","0.0-61.0-1.11","1183","1125","15","Female","true","false","true","true","""event"",""trial"",""time""
""fullscreenenter"",""5"",""19185""
""fullscreenexit"",""6"",""374203""
""blur"",""6"",""374223""
""focus"",""6"",""979503""
""blur"",""10"",""1080619""
""focus"",""10"",""1111160""
","""event"",""trial"",""time""
""blur"",""6"",""374223""
""blur"",""10"",""1080619""
","""event"",""trial"",""time""
""focus"",""6"",""979503""
""focus"",""10"",""1111160""
","""event"",""trial"",""time""
""fullscreenenter"",""5"",""19185""
","""event"",""trial"",""time""
""fullscreenexit"",""6"",""374203""
","352.30000000074506","","49","","","3000","1","","","images/tutgreenplanet.jpg","images/tutalien2","images/tutalien1","images/tutrocket2","images/tutalien1","images/nothing.png","2","practice","true","1","common","0","2022-03-22 18:42:59.649"
"two-step-fixation","96","1469844","0.0-61.0-2.11","1183","1125","15","Female","true","false","true","true","""event"",""trial"",""time""
""fullscreenenter"",""5"",""19185""
""fullscreenexit"",""6"",""374203""
""blur"",""6"",""374223""
""focus"",""6"",""979503""
""blur"",""10"",""1080619""
""focus"",""10"",""1111160""
","""event"",""trial"",""time""
""blur"",""6"",""374223""
""blur"",""10"",""1080619""
","""event"",""trial"",""time""
""focus"",""6"",""979503""
""focus"",""10"",""1111160""
","""event"",""trial"",""time""
""fullscreenenter"",""5"",""19185""
","""event"",""trial"",""time""
""fullscreenexit"",""6"",""374203""
","","images/earth.jpg","","","","","","","","","","","","","","fixation","","","","","",""
"d3-animate-choice","97","1472444","0.0-61.0-0.12","1183","1125","15","Female","true","false","true","true","""event"",""trial"",""time""
""fullscreenenter"",""5"",""19185""
""fullscreenexit"",""6"",""374203""
""blur"",""6"",""374223""
""focus"",""6"",""979503""
""blur"",""10"",""1080619""
""focus"",""10"",""1111160""
","""event"",""trial"",""time""
""blur"",""6"",""374223""
""blur"",""10"",""1080619""
","""event"",""trial"",""time""
""focus"",""6"",""979503""
""focus"",""10"",""1111160""
","""event"",""trial"",""time""
""fullscreenenter"",""5"",""19185""
","""event"",""trial"",""time""
""fullscreenexit"",""6"",""374203""
","596","","49","","","3000","1","","","images/earth.jpg","images/tutrocket2","images/tutrocket1","null","images/tutrocket1","","1","practice","null","1","","",""
"d3-animate-choice","98","1474733","0.0-61.0-1.12","1183","1125","15","Female","true","false","true","true","""event"",""trial"",""time""
""fullscreenenter"",""5"",""19185""
""fullscreenexit"",""6"",""374203""
""blur"",""6"",""374223""
""focus"",""6"",""979503""
""blur"",""10"",""1080619""
""focus"",""10"",""1111160""
","""event"",""trial"",""time""
""blur"",""6"",""374223""
""blur"",""10"",""1080619""
","""event"",""trial"",""time""
""focus"",""6"",""979503""
""focus"",""10"",""1111160""
","""event"",""trial"",""time""
""fullscreenenter"",""5"",""19185""
","""event"",""trial"",""time""
""fullscreenexit"",""6"",""374203""
","284.09999999962747","","48","","","3000","1","","","images/tutgreenplanet.jpg","images/tutalien2","images/tutalien1","images/tutrocket1","images/tutalien2","images/nothing.png","2","practice","false","2","rare","0","2022-03-22 18:43:05.543"
"two-step-fixation","99","1475737","0.0-61.0-2.12","1183","1125","15","Female","true","false","true","true","""event"",""trial"",""time""
""fullscreenenter"",""5"",""19185""
""fullscreenexit"",""6"",""374203""
""blur"",""6"",""374223""
""focus"",""6"",""979503""
""blur"",""10"",""1080619""
""focus"",""10"",""1111160""
","""event"",""trial"",""time""
""blur"",""6"",""374223""
""blur"",""10"",""1080619""
","""event"",""trial"",""time""
""focus"",""6"",""979503""
""focus"",""10"",""1111160""
","""event"",""trial"",""time""
""fullscreenenter"",""5"",""19185""
","""event"",""trial"",""time""
""fullscreenexit"",""6"",""374203""
","","images/earth.jpg","","","","","","","","","","","","","","fixation","","","","","",""
"d3-animate-choice","100","1478379","0.0-61.0-0.13","1183","1125","15","Female","true","false","true","true","""event"",""trial"",""time""
""fullscreenenter"",""5"",""19185""
""fullscreenexit"",""6"",""374203""
""blur"",""6"",""374223""
""focus"",""6"",""979503""
""blur"",""10"",""1080619""
""focus"",""10"",""1111160""
","""event"",""trial"",""time""
""blur"",""6"",""374223""
""blur"",""10"",""1080619""
","""event"",""trial"",""time""
""focus"",""6"",""979503""
""focus"",""10"",""1111160""
","""event"",""trial"",""time""
""fullscreenenter"",""5"",""19185""
","""event"",""trial"",""time""
""fullscreenexit"",""6"",""374203""
","637.3000000007451","","49","","","3000","1","","","images/earth.jpg","images/tutrocket2","images/tutrocket1","null","images/tutrocket1","","1","practice","null","1","","",""
"d3-animate-choice","101","1480959","0.0-61.0-1.13","1183","1125","15","Female","true","false","true","true","""event"",""trial"",""time""
""fullscreenenter"",""5"",""19185""
""fullscreenexit"",""6"",""374203""
""blur"",""6"",""374223""
""focus"",""6"",""979503""
""blur"",""10"",""1080619""
""focus"",""10"",""1111160""
","""event"",""trial"",""time""
""blur"",""6"",""374223""
""blur"",""10"",""1080619""
","""event"",""trial"",""time""
""focus"",""6"",""979503""
""focus"",""10"",""1111160""
","""event"",""trial"",""time""
""fullscreenenter"",""5"",""19185""
","""event"",""trial"",""time""
""fullscreenexit"",""6"",""374203""
","574","","49","","","3000","1","","","images/tutyellowplanet.jpg","images/tutalien4","images/tutalien3","images/tutrocket1","images/tutalien3","images/nothing.png","2","practice","true","1","common","0","2022-03-22 18:43:11.768"
"two-step-fixation","102","1481963","0.0-61.0-2.13","1183","1125","15","Female","true","false","true","true","""event"",""trial"",""time""
""fullscreenenter"",""5"",""19185""
""fullscreenexit"",""6"",""374203""
""blur"",""6"",""374223""
""focus"",""6"",""979503""
""blur"",""10"",""1080619""
""focus"",""10"",""1111160""
","""event"",""trial"",""time""
""blur"",""6"",""374223""
""blur"",""10"",""1080619""
","""event"",""trial"",""time""
""focus"",""6"",""979503""
""focus"",""10"",""1111160""
","""event"",""trial"",""time""
""fullscreenenter"",""5"",""19185""
","""event"",""trial"",""time""
""fullscreenexit"",""6"",""374203""
","","images/earth.jpg","","","","","","","","","","","","","","fixation","","","","","",""
"d3-animate-choice","103","1484328","0.0-61.0-0.14","1183","1125","15","Female","true","false","true","true","""event"",""trial"",""time""
""fullscreenenter"",""5"",""19185""
""fullscreenexit"",""6"",""374203""
""blur"",""6"",""374223""
""focus"",""6"",""979503""
""blur"",""10"",""1080619""
""focus"",""10"",""1111160""
","""event"",""trial"",""time""
""blur"",""6"",""374223""
""blur"",""10"",""1080619""
","""event"",""trial"",""time""
""focus"",""6"",""979503""
""focus"",""10"",""1111160""
","""event"",""trial"",""time""
""fullscreenenter"",""5"",""19185""
","""event"",""trial"",""time""
""fullscreenexit"",""6"",""374203""
","360.09999999962747","","48","","","3000","1","","","images/earth.jpg","images/tutrocket2","images/tutrocket1","null","images/tutrocket2","","1","practice","null","2","","",""
"d3-animate-choice","104","1486393","0.0-61.0-1.14","1183","1125","15","Female","true","false","true","true","""event"",""trial"",""time""
""fullscreenenter"",""5"",""19185""
""fullscreenexit"",""6"",""374203""
""blur"",""6"",""374223""
""focus"",""6"",""979503""
""blur"",""10"",""1080619""
""focus"",""10"",""1111160""
","""event"",""trial"",""time""
""blur"",""6"",""374223""
""blur"",""10"",""1080619""
","""event"",""trial"",""time""
""focus"",""6"",""979503""
""focus"",""10"",""1111160""
","""event"",""trial"",""time""
""fullscreenenter"",""5"",""19185""
","""event"",""trial"",""time""
""fullscreenexit"",""6"",""374203""
","59.59999999962747","","48","","","3000","1","433","48","images/tutyellowplanet.jpg","images/tutalien4","images/tutalien3","images/tutrocket2","images/tutalien4","images/nothing.png","2","practice","false","2","rare","0","2022-03-22 18:43:17.202"
"two-step-fixation","105","1487397","0.0-61.0-2.14","1183","1125","15","Female","true","false","true","true","""event"",""trial"",""time""
""fullscreenenter"",""5"",""19185""
""fullscreenexit"",""6"",""374203""
""blur"",""6"",""374223""
""focus"",""6"",""979503""
""blur"",""10"",""1080619""
""focus"",""10"",""1111160""
","""event"",""trial"",""time""
""blur"",""6"",""374223""
""blur"",""10"",""1080619""
","""event"",""trial"",""time""
""focus"",""6"",""979503""
""focus"",""10"",""1111160""
","""event"",""trial"",""time""
""fullscreenenter"",""5"",""19185""
","""event"",""trial"",""time""
""fullscreenexit"",""6"",""374203""
","","images/earth.jpg","","","","","","","","","","","","","","fixation","","","","","",""
"d3-animate-choice","106","1491045","0.0-61.0-0.15","1183","1125","15","Female","true","false","true","true","""event"",""trial"",""time""
""fullscreenenter"",""5"",""19185""
""fullscreenexit"",""6"",""374203""
""blur"",""6"",""374223""
""focus"",""6"",""979503""
""blur"",""10"",""1080619""
""focus"",""10"",""1111160""
","""event"",""trial"",""time""
""blur"",""6"",""374223""
""blur"",""10"",""1080619""
","""event"",""trial"",""time""
""focus"",""6"",""979503""
""focus"",""10"",""1111160""
","""event"",""trial"",""time""
""fullscreenenter"",""5"",""19185""
","""event"",""trial"",""time""
""fullscreenexit"",""6"",""374203""
","1642.5999999996275","","49","","","3000","1","","","images/earth.jpg","images/tutrocket2","images/tutrocket1","null","images/tutrocket1","","1","practice","null","1","","",""
"d3-animate-choice","107","1493795","0.0-61.0-1.15","1183","1125","15","Female","true","false","true","true","""event"",""trial"",""time""
""fullscreenenter"",""5"",""19185""
""fullscreenexit"",""6"",""374203""
""blur"",""6"",""374223""
""focus"",""6"",""979503""
""blur"",""10"",""1080619""
""focus"",""10"",""1111160""
","""event"",""trial"",""time""
""blur"",""6"",""374223""
""blur"",""10"",""1080619""
","""event"",""trial"",""time""
""focus"",""6"",""979503""
""focus"",""10"",""1111160""
","""event"",""trial"",""time""
""fullscreenenter"",""5"",""19185""
","""event"",""trial"",""time""
""fullscreenexit"",""6"",""374203""
","349.2999999988824","","50","","","3000","1","744.4000000003725","49","images/tutyellowplanet.jpg","images/tutalien4","images/tutalien3","images/tutrocket1","images/tutalien3","images/nothing.png","2","practice","true","","common","0","2022-03-22 18:43:24.604"
"two-step-fixation","108","1494799","0.0-61.0-2.15","1183","1125","15","Female","true","false","true","true","""event"",""trial"",""time""
""fullscreenenter"",""5"",""19185""
""fullscreenexit"",""6"",""374203""
""blur"",""6"",""374223""
""focus"",""6"",""979503""
""blur"",""10"",""1080619""
""focus"",""10"",""1111160""
","""event"",""trial"",""time""
""blur"",""6"",""374223""
""blur"",""10"",""1080619""
","""event"",""trial"",""time""
""focus"",""6"",""979503""
""focus"",""10"",""1111160""
","""event"",""trial"",""time""
""fullscreenenter"",""5"",""19185""
","""event"",""trial"",""time""
""fullscreenexit"",""6"",""374203""
","","images/earth.jpg","","","","","","","","","","","","","","fixation","","","","","",""
"d3-animate-choice","109","1497367","0.0-61.0-0.16","1183","1125","15","Female","true","false","true","true","""event"",""trial"",""time""
""fullscreenenter"",""5"",""19185""
""fullscreenexit"",""6"",""374203""
""blur"",""6"",""374223""
""focus"",""6"",""979503""
""blur"",""10"",""1080619""
""focus"",""10"",""1111160""
","""event"",""trial"",""time""
""blur"",""6"",""374223""
""blur"",""10"",""1080619""
","""event"",""trial"",""time""
""focus"",""6"",""979503""
""focus"",""10"",""1111160""
","""event"",""trial"",""time""
""fullscreenenter"",""5"",""19185""
","""event"",""trial"",""time""
""fullscreenexit"",""6"",""374203""
","563","","49","","","3000","1","","","images/earth.jpg","images/tutrocket2","images/tutrocket1","null","images/tutrocket1","","1","practice","null","1","","",""
"d3-animate-choice","110","1499654","0.0-61.0-1.16","1183","1125","15","Female","true","false","true","true","""event"",""trial"",""time""
""fullscreenenter"",""5"",""19185""
""fullscreenexit"",""6"",""374203""
""blur"",""6"",""374223""
""focus"",""6"",""979503""
""blur"",""10"",""1080619""
""focus"",""10"",""1111160""
","""event"",""trial"",""time""
""blur"",""6"",""374223""
""blur"",""10"",""1080619""
","""event"",""trial"",""time""
""focus"",""6"",""979503""
""focus"",""10"",""1111160""
","""event"",""trial"",""time""
""fullscreenenter"",""5"",""19185""
","""event"",""trial"",""time""
""fullscreenexit"",""6"",""374203""
","279.40000000037253","","48","","","3000","1","1255.5,2276.9000000003725","48,48","images/tutgreenplanet.jpg","images/tutalien2","images/tutalien1","images/tutrocket1","images/tutalien2","images/nothing.png","2","practice","false","2","rare","0","2022-03-22 18:43:30.463"
"two-step-fixation","111","1500658","0.0-61.0-2.16","1183","1125","15","Female","true","false","true","true","""event"",""trial"",""time""
""fullscreenenter"",""5"",""19185""
""fullscreenexit"",""6"",""374203""
""blur"",""6"",""374223""
""focus"",""6"",""979503""
""blur"",""10"",""1080619""
""focus"",""10"",""1111160""
","""event"",""trial"",""time""
""blur"",""6"",""374223""
""blur"",""10"",""1080619""
","""event"",""trial"",""time""
""focus"",""6"",""979503""
""focus"",""10"",""1111160""
","""event"",""trial"",""time""
""fullscreenenter"",""5"",""19185""
","""event"",""trial"",""time""
""fullscreenexit"",""6"",""374203""
","","images/earth.jpg","","","","","","","","","","","","","","fixation","","","","","",""
"d3-animate-choice","112","1502924","0.0-61.0-0.17","1183","1125","15","Female","true","false","true","true","""event"",""trial"",""time""
""fullscreenenter"",""5"",""19185""
""fullscreenexit"",""6"",""374203""
""blur"",""6"",""374223""
""focus"",""6"",""979503""
""blur"",""10"",""1080619""
""focus"",""10"",""1111160""
","""event"",""trial"",""time""
""blur"",""6"",""374223""
""blur"",""10"",""1080619""
","""event"",""trial"",""time""
""focus"",""6"",""979503""
""focus"",""10"",""1111160""
","""event"",""trial"",""time""
""fullscreenenter"",""5"",""19185""
","""event"",""trial"",""time""
""fullscreenexit"",""6"",""374203""
","259.09999999962747","","49","","","3000","1","","","images/earth.jpg","images/tutrocket2","images/tutrocket1","null","images/tutrocket1","","1","practice","null","1","","",""
"d3-animate-choice","113","1505358","0.0-61.0-1.17","1183","1125","15","Female","true","false","true","true","""event"",""trial"",""time""
""fullscreenenter"",""5"",""19185""
""fullscreenexit"",""6"",""374203""
""blur"",""6"",""374223""
""focus"",""6"",""979503""
""blur"",""10"",""1080619""
""focus"",""10"",""1111160""
","""event"",""trial"",""time""
""blur"",""6"",""374223""
""blur"",""10"",""1080619""
","""event"",""trial"",""time""
""focus"",""6"",""979503""
""focus"",""10"",""1111160""
","""event"",""trial"",""time""
""fullscreenenter"",""5"",""19185""
","""event"",""trial"",""time""
""fullscreenexit"",""6"",""374203""
","429.30000000074506","","49","","","3000","1","","","images/tutyellowplanet.jpg","images/tutalien4","images/tutalien3","images/tutrocket1","images/tutalien3","images/t.png","2","practice","true","1","common","1","2022-03-22 18:43:36.168"
"two-step-fixation","114","1506363","0.0-61.0-2.17","1183","1125","15","Female","true","false","true","true","""event"",""trial"",""time""
""fullscreenenter"",""5"",""19185""
""fullscreenexit"",""6"",""374203""
""blur"",""6"",""374223""
""focus"",""6"",""979503""
""blur"",""10"",""1080619""
""focus"",""10"",""1111160""
","""event"",""trial"",""time""
""blur"",""6"",""374223""
""blur"",""10"",""1080619""
","""event"",""trial"",""time""
""focus"",""6"",""979503""
""focus"",""10"",""1111160""
","""event"",""trial"",""time""
""fullscreenenter"",""5"",""19185""
","""event"",""trial"",""time""
""fullscreenexit"",""6"",""374203""
","","images/earth.jpg","","","","","","","","","","","","","","fixation","","","","","",""
"d3-animate-choice","115","1508774","0.0-61.0-0.18","1183","1125","15","Female","true","false","true","true","""event"",""trial"",""time""
""fullscreenenter"",""5"",""19185""
""fullscreenexit"",""6"",""374203""
""blur"",""6"",""374223""
""focus"",""6"",""979503""
""blur"",""10"",""1080619""
""focus"",""10"",""1111160""
","""event"",""trial"",""time""
""blur"",""6"",""374223""
""blur"",""10"",""1080619""
","""event"",""trial"",""time""
""focus"",""6"",""979503""
""focus"",""10"",""1111160""
","""event"",""trial"",""time""
""fullscreenenter"",""5"",""19185""
","""event"",""trial"",""time""
""fullscreenexit"",""6"",""374203""
","406.2000000011176","","49","","","3000","1","","","images/earth.jpg","images/tutrocket2","images/tutrocket1","null","images/tutrocket1","","1","practice","null","1","","",""
"d3-animate-choice","116","1511219","0.0-61.0-1.18","1183","1125","15","Female","true","false","true","true","""event"",""trial"",""time""
""fullscreenenter"",""5"",""19185""
""fullscreenexit"",""6"",""374203""
""blur"",""6"",""374223""
""focus"",""6"",""979503""
""blur"",""10"",""1080619""
""focus"",""10"",""1111160""
","""event"",""trial"",""time""
""blur"",""6"",""374223""
""blur"",""10"",""1080619""
","""event"",""trial"",""time""
""focus"",""6"",""979503""
""focus"",""10"",""1111160""
","""event"",""trial"",""time""
""fullscreenenter"",""5"",""19185""
","""event"",""trial"",""time""
""fullscreenexit"",""6"",""374203""
","439.6000000014901","","49","","","3000","1","","","images/tutyellowplanet.jpg","images/tutalien4","images/tutalien3","images/tutrocket1","images/tutalien3","images/t.png","2","practice","true","1","common","1","2022-03-22 18:43:42.028"
"two-step-fixation","117","1512223","0.0-61.0-2.18","1183","1125","15","Female","true","false","true","true","""event"",""trial"",""time""
""fullscreenenter"",""5"",""19185""
""fullscreenexit"",""6"",""374203""
""blur"",""6"",""374223""
""focus"",""6"",""979503""
""blur"",""10"",""1080619""
""focus"",""10"",""1111160""
","""event"",""trial"",""time""
""blur"",""6"",""374223""
""blur"",""10"",""1080619""
","""event"",""trial"",""time""
""focus"",""6"",""979503""
""focus"",""10"",""1111160""
","""event"",""trial"",""time""
""fullscreenenter"",""5"",""19185""
","""event"",""trial"",""time""
""fullscreenexit"",""6"",""374203""
","","images/earth.jpg","","","","","","","","","","","","","","fixation","","","","","",""
"d3-animate-choice","118","1514757","0.0-61.0-0.19","1183","1125","15","Female","true","false","true","true","""event"",""trial"",""time""
""fullscreenenter"",""5"",""19185""
""fullscreenexit"",""6"",""374203""
""blur"",""6"",""374223""
""focus"",""6"",""979503""
""blur"",""10"",""1080619""
""focus"",""10"",""1111160""
","""event"",""trial"",""time""
""blur"",""6"",""374223""
""blur"",""10"",""1080619""
","""event"",""trial"",""time""
""focus"",""6"",""979503""
""focus"",""10"",""1111160""
","""event"",""trial"",""time""
""fullscreenenter"",""5"",""19185""
","""event"",""trial"",""time""
""fullscreenexit"",""6"",""374203""
","528.6999999992549","","49","","","3000","1","","","images/earth.jpg","images/tutrocket2","images/tutrocket1","null","images/tutrocket1","","1","practice","null","1","","",""
"d3-animate-choice","119","1517241","0.0-61.0-1.19","1183","1125","15","Female","true","false","true","true","""event"",""trial"",""time""
""fullscreenenter"",""5"",""19185""
""fullscreenexit"",""6"",""374203""
""blur"",""6"",""374223""
""focus"",""6"",""979503""
""blur"",""10"",""1080619""
""focus"",""10"",""1111160""
","""event"",""trial"",""time""
""blur"",""6"",""374223""
""blur"",""10"",""1080619""
","""event"",""trial"",""time""
""focus"",""6"",""979503""
""focus"",""10"",""1111160""
","""event"",""trial"",""time""
""fullscreenenter"",""5"",""19185""
","""event"",""trial"",""time""
""fullscreenexit"",""6"",""374203""
","478.59999999962747","","49","","","3000","1","","","images/tutyellowplanet.jpg","images/tutalien4","images/tutalien3","images/tutrocket1","images/tutalien3","images/nothing.png","2","practice","true","1","common","0","2022-03-22 18:43:48.050"
"two-step-fixation","120","1518246","0.0-61.0-2.19","1183","1125","15","Female","true","false","true","true","""event"",""trial"",""time""
""fullscreenenter"",""5"",""19185""
""fullscreenexit"",""6"",""374203""
""blur"",""6"",""374223""
""focus"",""6"",""979503""
""blur"",""10"",""1080619""
""focus"",""10"",""1111160""
","""event"",""trial"",""time""
""blur"",""6"",""374223""
""blur"",""10"",""1080619""
","""event"",""trial"",""time""
""focus"",""6"",""979503""
""focus"",""10"",""1111160""
","""event"",""trial"",""time""
""fullscreenenter"",""5"",""19185""
","""event"",""trial"",""time""
""fullscreenexit"",""6"",""374203""
","","images/earth.jpg","","","","","","","","","","","","","","fixation","","","","","",""
"d3-instructions","121","1601294","0.0-62.0","1183","1125","15","Female","true","false","true","true","""event"",""trial"",""time""
""fullscreenenter"",""5"",""19185""
""fullscreenexit"",""6"",""374203""
""blur"",""6"",""374223""
""focus"",""6"",""979503""
""blur"",""10"",""1080619""
""focus"",""10"",""1111160""
","""event"",""trial"",""time""
""blur"",""6"",""374223""
""blur"",""10"",""1080619""
","""event"",""trial"",""time""
""focus"",""6"",""979503""
""focus"",""10"",""1111160""
","""event"",""trial"",""time""
""fullscreenenter"",""5"",""19185""
","""event"",""trial"",""time""
""fullscreenexit"",""6"",""374203""
","","","","","","","","","","","","","","","","","","","","","",""
"audio-keyboard-response","122","1604481","0.0-63.0","1183","1125","15","Female","true","false","true","true","""event"",""trial"",""time""
""fullscreenenter"",""5"",""19185""
""fullscreenexit"",""6"",""374203""
""blur"",""6"",""374223""
""focus"",""6"",""979503""
""blur"",""10"",""1080619""
""focus"",""10"",""1111160""
","""event"",""trial"",""time""
""blur"",""6"",""374223""
""blur"",""10"",""1080619""
","""event"",""trial"",""time""
""focus"",""6"",""979503""
""focus"",""10"",""1111160""
","""event"",""trial"",""time""
""fullscreenenter"",""5"",""19185""
","""event"",""trial"",""time""
""fullscreenexit"",""6"",""374203""
","3104","audio/instructions/treasure_feedback.wav","32","","","","","","","","","","","","","","","","","","",""
"d3-instructions","123","1629645","0.0-64.0","1183","1125","15","Female","true","false","true","true","""event"",""trial"",""time""
""fullscreenenter"",""5"",""19185""
""fullscreenexit"",""6"",""374203""
""blur"",""6"",""374223""
""focus"",""6"",""979503""
""blur"",""10"",""1080619""
""focus"",""10"",""1111160""
","""event"",""trial"",""time""
""blur"",""6"",""374223""
""blur"",""10"",""1080619""
","""event"",""trial"",""time""
""focus"",""6"",""979503""
""focus"",""10"",""1111160""
","""event"",""trial"",""time""
""fullscreenenter"",""5"",""19185""
","""event"",""trial"",""time""
""fullscreenexit"",""6"",""374203""
","","","","","","","","","","","","","","","","","","","","","",""
"d3-instructions","124","1677301","0.0-65.0","1183","1125","15","Female","true","false","true","true","""event"",""trial"",""time""
""fullscreenenter"",""5"",""19185""
""fullscreenexit"",""6"",""374203""
""blur"",""6"",""374223""
""focus"",""6"",""979503""
""blur"",""10"",""1080619""
""focus"",""10"",""1111160""
","""event"",""trial"",""time""
""blur"",""6"",""374223""
""blur"",""10"",""1080619""
","""event"",""trial"",""time""
""focus"",""6"",""979503""
""focus"",""10"",""1111160""
","""event"",""trial"",""time""
""fullscreenenter"",""5"",""19185""
","""event"",""trial"",""time""
""fullscreenexit"",""6"",""374203""
","","","","","","","","","","","","","","","","","","","","","",""
"d3-instructions","125","1700284","0.0-66.0","1183","1125","15","Female","true","false","true","true","""event"",""trial"",""time""
""fullscreenenter"",""5"",""19185""
""fullscreenexit"",""6"",""374203""
""blur"",""6"",""374223""
""focus"",""6"",""979503""
""blur"",""10"",""1080619""
""focus"",""10"",""1111160""
","""event"",""trial"",""time""
""blur"",""6"",""374223""
""blur"",""10"",""1080619""
","""event"",""trial"",""time""
""focus"",""6"",""979503""
""focus"",""10"",""1111160""
","""event"",""trial"",""time""
""fullscreenenter"",""5"",""19185""
","""event"",""trial"",""time""
""fullscreenexit"",""6"",""374203""
","","","","","","","","","","","","","","","","","","","","","",""
"d3-instructions","126","1717503","0.0-67.0","1183","1125","15","Female","true","false","true","true","""event"",""trial"",""time""
""fullscreenenter"",""5"",""19185""
""fullscreenexit"",""6"",""374203""
""blur"",""6"",""374223""
""focus"",""6"",""979503""
""blur"",""10"",""1080619""
""focus"",""10"",""1111160""
","""event"",""trial"",""time""
""blur"",""6"",""374223""
""blur"",""10"",""1080619""
","""event"",""trial"",""time""
""focus"",""6"",""979503""
""focus"",""10"",""1111160""
","""event"",""trial"",""time""
""fullscreenenter"",""5"",""19185""
","""event"",""trial"",""time""
""fullscreenexit"",""6"",""374203""
","","","","","","","","","","","","","","","","","","","","","",""
"d3-instructions","127","1724951","0.0-68.0","1183","1125","15","Female","true","false","true","true","""event"",""trial"",""time""
""fullscreenenter"",""5"",""19185""
""fullscreenexit"",""6"",""374203""
""blur"",""6"",""374223""
""focus"",""6"",""979503""
""blur"",""10"",""1080619""
""focus"",""10"",""1111160""
","""event"",""trial"",""time""
""blur"",""6"",""374223""
""blur"",""10"",""1080619""
","""event"",""trial"",""time""
""focus"",""6"",""979503""
""focus"",""10"",""1111160""
","""event"",""trial"",""time""
""fullscreenenter"",""5"",""19185""
","""event"",""trial"",""time""
""fullscreenexit"",""6"",""374203""
","","","","","","","","","","","","","","","","","","","","","",""
"instructions-quiz","128","1727878","0.0-69.0","1183","1125","15","Female","true","false","true","true","""event"",""trial"",""time""
""fullscreenenter"",""5"",""19185""
""fullscreenexit"",""6"",""374203""
""blur"",""6"",""374223""
""focus"",""6"",""979503""
""blur"",""10"",""1080619""
""focus"",""10"",""1111160""
","""event"",""trial"",""time""
""blur"",""6"",""374223""
""blur"",""10"",""1080619""
","""event"",""trial"",""time""
""focus"",""6"",""979503""
""focus"",""10"",""1111160""
","""event"",""trial"",""time""
""fullscreenenter"",""5"",""19185""
","""event"",""trial"",""time""
""fullscreenexit"",""6"",""374203""
","2924","audio/quiz/Q1_Prompt.wav","","1","","","","","","","","","","","","","","","","","",""
"audio-keyboard-response","129","1737046","0.0-70.0","1183","1125","15","Female","true","false","true","true","""event"",""trial"",""time""
""fullscreenenter"",""5"",""19185""
""fullscreenexit"",""6"",""374203""
""blur"",""6"",""374223""
""focus"",""6"",""979503""
""blur"",""10"",""1080619""
""focus"",""10"",""1111160""
","""event"",""trial"",""time""
""blur"",""6"",""374223""
""blur"",""10"",""1080619""
","""event"",""trial"",""time""
""focus"",""6"",""979503""
""focus"",""10"",""1111160""
","""event"",""trial"",""time""
""fullscreenenter"",""5"",""19185""
","""event"",""trial"",""time""
""fullscreenexit"",""6"",""374203""
","null","audio/quiz/Q1_Correct.wav","null","","","","","","","","","","","","","","","","","","",""
"instructions-quiz","130","1755776","0.0-71.0","1183","1125","15","Female","true","false","true","true","""event"",""trial"",""time""
""fullscreenenter"",""5"",""19185""
""fullscreenexit"",""6"",""374203""
""blur"",""6"",""374223""
""focus"",""6"",""979503""
""blur"",""10"",""1080619""
""focus"",""10"",""1111160""
