"trial_type","trial_index","time_elapsed","internal_node_id","participant_id","subject_id","age","gender","rocket_sides","red_planet_first_rocket","red_display_order","purple_display_order","interactions","blur_events","focus_events","fullscreenenter_events","fullscreenexit_events","rt","stimulus","key_press","button_pressed","success","duration","valid_pressed","rts","keys","planet_text","right_text","left_text","center_text","chosen_text","reward_text","trial_stage","practice_trial","transition_type","choice","transition","reward","timestamp"
"pavlovia","0","3","0.0-0.0","900","655","10","Female","false","true","false","false","
","
","
","
","
","","","","","","","","","","","","","","","","","","","","","",""
"html-keyboard-response","1","1407","0.0-1.0","900","655","10","Female","false","true","false","false","
","
","
","
","
","1403","Welcome! Press the space bar to begin.","32","","","","","","","","","","","","","","","","","","",""
"audio-keyboard-response","2","2580","0.0-2.0","900","655","10","Female","false","true","false","false","
","
","
","
","
","971","audio/beep_loop.wav","175","","","","","","","","","","","","","","","","","","",""
"audio-button-response","3","8398","0.0-3.0","900","655","10","Female","false","true","false","false","
","
","
","
","
","NaN","audio/fish.mp3","","1","","","","","","","","","","","","","","","","","",""
"audio-button-response","4","11303","0.0-4.0","900","655","10","Female","false","true","false","false","""event"",""trial"",""time""
""fullscreenenter"",""5"",""14899""
","
","
","""event"",""trial"",""time""
""fullscreenenter"",""5"",""14899""
","
","NaN","audio/tiger.mp3","","4","","","","","","","","","","","","","","","","","",""
"fullscreen","5","15876","0.0-5.0","900","655","10","Female","false","true","false","false","""event"",""trial"",""time""
""fullscreenenter"",""5"",""14899""
","
","
","""event"",""trial"",""time""
""fullscreenenter"",""5"",""14899""
","
","","","","","true","","","","","","","","","","","","","","","","",""
"d3-instructions","6","22792","0.0-6.0","900","655","10","Female","false","true","false","false","""event"",""trial"",""time""
""fullscreenenter"",""5"",""14899""
","
","
","""event"",""trial"",""time""
""fullscreenenter"",""5"",""14899""
","
","","","","","","","","","","","","","","","","","","","","","",""
"d3-instructions","7","32938","0.0-7.0","900","655","10","Female","false","true","false","false","""event"",""trial"",""time""
""fullscreenenter"",""5"",""14899""
","
","
","""event"",""trial"",""time""
""fullscreenenter"",""5"",""14899""
","
","","","","","","","","","","","","","","","","","","","","","",""
"d3-instructions","8","43170","0.0-8.0","900","655","10","Female","false","true","false","false","""event"",""trial"",""time""
""fullscreenenter"",""5"",""14899""
","
","
","""event"",""trial"",""time""
""fullscreenenter"",""5"",""14899""
","
","","","","","","","","","","","","","","","","","","","","","",""
"d3-instructions","9","53353","0.0-9.0","900","655","10","Female","false","true","false","false","""event"",""trial"",""time""
""fullscreenenter"",""5"",""14899""
","
","
","""event"",""trial"",""time""
""fullscreenenter"",""5"",""14899""
","
","","","","","","","","","","","","","","","","","","","","","",""
"d3-instructions","10","74649","0.0-10.0","900","655","10","Female","false","true","false","false","""event"",""trial"",""time""
""fullscreenenter"",""5"",""14899""
","
","
","""event"",""trial"",""time""
""fullscreenenter"",""5"",""14899""
","
","","","","","","","","","","","","","","","","","","","","","",""
"d3-animate-choice","11","79431","0.0-11.0","900","655","10","Female","false","true","false","false","""event"",""trial"",""time""
""fullscreenenter"",""5"",""14899""
","
","
","""event"",""trial"",""time""
""fullscreenenter"",""5"",""14899""
","
","2769.5","","49","","","3000","1","3464.0999999940395","48","images/tutgreenplanet.jpg","images/tutalien1","images/tutalien2","null","images/tutalien2","","NA","practice","null","","","",""
"d3-animate-choice","12","82273","0.0-12.0","900","655","10","Female","false","true","false","false","""event"",""trial"",""time""
""fullscreenenter"",""5"",""14899""
","
","
","""event"",""trial"",""time""
""fullscreenenter"",""5"",""14899""
","
","833.5","","48","","","3000","1","","","images/tutgreenplanet.jpg","images/tutalien1","images/tutalien2","null","images/tutalien1","","NA","practice","null","","","",""
"d3-animate-choice","13","84727","0.0-13.0","900","655","10","Female","false","true","false","false","""event"",""trial"",""time""
""fullscreenenter"",""5"",""14899""
","
","
","""event"",""trial"",""time""
""fullscreenenter"",""5"",""14899""
","
","439.29999999701977","","49","","","3000","1","","","images/tutgreenplanet.jpg","images/tutalien1","images/tutalien2","null","images/tutalien2","","NA","practice","null","","","",""
"d3-animate-choice","14","87078","0.0-14.0","900","655","10","Female","false","true","false","false","""event"",""trial"",""time""
""fullscreenenter"",""5"",""14899""
","
","
","""event"",""trial"",""time""
""fullscreenenter"",""5"",""14899""
","
","337.8999999910593","","49","","","3000","1","","","images/tutgreenplanet.jpg","images/tutalien1","images/tutalien2","null","images/tutalien2","","NA","practice","null","","","",""
"d3-instructions","15","92349","0.0-15.0","900","655","10","Female","false","true","false","false","""event"",""trial"",""time""
""fullscreenenter"",""5"",""14899""
","
","
","""event"",""trial"",""time""
""fullscreenenter"",""5"",""14899""
","
","","","","","","","","","","","","","","","","","","","","","",""
"d3-instructions","16","96156","0.0-16.0","900","655","10","Female","false","true","false","false","""event"",""trial"",""time""
""fullscreenenter"",""5"",""14899""
","
","
","""event"",""trial"",""time""
""fullscreenenter"",""5"",""14899""
","
","","","","","","","","","","","","","","","","","","","","","",""
"d3-instructions","17","100808","0.0-17.0","900","655","10","Female","false","true","false","false","""event"",""trial"",""time""
""fullscreenenter"",""5"",""14899""
","
","
","""event"",""trial"",""time""
""fullscreenenter"",""5"",""14899""
","
","","","","","","","","","","","","","","","","","","","","","",""
"d3-instructions","18","106410","0.0-18.0","900","655","10","Female","false","true","false","false","""event"",""trial"",""time""
""fullscreenenter"",""5"",""14899""
","
","
","""event"",""trial"",""time""
""fullscreenenter"",""5"",""14899""
","
","","","","","","","","","","","","","","","","","","","","","",""
"d3-instructions","19","115167","0.0-19.0","900","655","10","Female","false","true","false","false","""event"",""trial"",""time""
""fullscreenenter"",""5"",""14899""
","
","
","""event"",""trial"",""time""
""fullscreenenter"",""5"",""14899""
","
","","","","","","","","","","","","","","","","","","","","","",""
"d3-animate-choice","20","118723","0.0-20.0","900","655","10","Female","false","true","false","false","""event"",""trial"",""time""
""fullscreenenter"",""5"",""14899""
","
","
","""event"",""trial"",""time""
""fullscreenenter"",""5"",""14899""
","
","1541","","49","","","3000","1","","","images/tutyellowplanet.jpg","null","images/tutalien3","null","images/tutalien3","images/t.png","NA","practice","null","","","",""
"d3-animate-choice","21","121074","0.0-21.0","900","655","10","Female","false","true","false","false","""event"",""trial"",""time""
""fullscreenenter"",""5"",""14899""
","
","
","""event"",""trial"",""time""
""fullscreenenter"",""5"",""14899""
","
","344.40000000596046","","49","","","3000","1","1748.800000011921","49","images/tutyellowplanet.jpg","null","images/tutalien3","null","images/tutalien3","images/t.png","NA","practice","null","","","",""
"d3-animate-choice","22","123351","0.0-22.0","900","655","10","Female","false","true","false","false","""event"",""trial"",""time""
""fullscreenenter"",""5"",""14899""
","
","
","""event"",""trial"",""time""
""fullscreenenter"",""5"",""14899""
","
","261.69999998807907","","49","","","3000","1","1723.5999999940395","49","images/tutyellowplanet.jpg","null","images/tutalien3","null","images/tutalien3","images/t.png","NA","practice","null","","","",""
"d3-animate-choice","23","125651","0.0-23.0","900","655","10","Female","false","true","false","false","""event"",""trial"",""time""
""fullscreenenter"",""5"",""14899""
","
","
","""event"",""trial"",""time""
""fullscreenenter"",""5"",""14899""
","
","291","","49","","","3000","1","","","images/tutyellowplanet.jpg","null","images/tutalien3","null","images/tutalien3","images/t.png","NA","practice","null","","","",""
"d3-animate-choice","24","127921","0.0-24.0","900","655","10","Female","false","true","false","false","""event"",""trial"",""time""
""fullscreenenter"",""5"",""14899""
","
","
","""event"",""trial"",""time""
""fullscreenenter"",""5"",""14899""
","
","254.8999999910593","","49","","","3000","1","","","images/tutyellowplanet.jpg","null","images/tutalien3","null","images/tutalien3","images/t.png","NA","practice","null","","","",""
"d3-animate-choice","25","130209","0.0-25.0","900","655","10","Female","false","true","false","false","""event"",""trial"",""time""
""fullscreenenter"",""5"",""14899""
","
","
","""event"",""trial"",""time""
""fullscreenenter"",""5"",""14899""
","
","275.5","","49","","","3000","1","","","images/tutyellowplanet.jpg","null","images/tutalien3","null","images/tutalien3","images/t.png","NA","practice","null","","","",""
"d3-animate-choice","26","132500","0.0-26.0","900","655","10","Female","false","true","false","false","""event"",""trial"",""time""
""fullscreenenter"",""5"",""14899""
","
","
","""event"",""trial"",""time""
""fullscreenenter"",""5"",""14899""
","
","282.59999999403954","","49","","","3000","1","","","images/tutyellowplanet.jpg","null","images/tutalien3","null","images/tutalien3","images/t.png","NA","practice","null","","","",""
"d3-animate-choice","27","134778","0.0-27.0","900","655","10","Female","false","true","false","false","""event"",""trial"",""time""
""fullscreenenter"",""5"",""14899""
","
","
","""event"",""trial"",""time""
""fullscreenenter"",""5"",""14899""
","
","274.1000000089407","","49","","","3000","1","","","images/tutyellowplanet.jpg","null","images/tutalien3","null","images/tutalien3","images/t.png","NA","practice","null","","","",""
"d3-animate-choice","28","137064","0.0-28.0","900","655","10","Female","false","true","false","false","""event"",""trial"",""time""
""fullscreenenter"",""5"",""14899""
","
","
","""event"",""trial"",""time""
""fullscreenenter"",""5"",""14899""
","
","271","","49","","","3000","1","","","images/tutyellowplanet.jpg","null","images/tutalien3","null","images/tutalien3","images/t.png","NA","practice","null","","","",""
"d3-animate-choice","29","139327","0.0-29.0","900","655","10","Female","false","true","false","false","""event"",""trial"",""time""
""fullscreenenter"",""5"",""14899""
","
","
","""event"",""trial"",""time""
""fullscreenenter"",""5"",""14899""
","
","256.5","","49","","","3000","1","","","images/tutyellowplanet.jpg","null","images/tutalien3","null","images/tutalien3","images/t.png","NA","practice","null","","","",""
"d3-instructions","30","145418","0.0-30.0","900","655","10","Female","false","true","false","false","""event"",""trial"",""time""
""fullscreenenter"",""5"",""14899""
","
","
","""event"",""trial"",""time""
""fullscreenenter"",""5"",""14899""
","
","","","","","","","","","","","","","","","","","","","","","",""
"d3-instructions","31","150029","0.0-31.0","900","655","10","Female","false","true","false","false","""event"",""trial"",""time""
""fullscreenenter"",""5"",""14899""
","
","
","""event"",""trial"",""time""
""fullscreenenter"",""5"",""14899""
","
","","","","","","","","","","","","","","","","","","","","","",""
"d3-instructions","32","153171","0.0-32.0","900","655","10","Female","false","true","false","false","""event"",""trial"",""time""
""fullscreenenter"",""5"",""14899""
","
","
","""event"",""trial"",""time""
""fullscreenenter"",""5"",""14899""
","
","","","","","","","","","","","","","","","","","","","","","",""
"d3-instructions","33","155695","0.0-33.0","900","655","10","Female","false","true","false","false","""event"",""trial"",""time""
""fullscreenenter"",""5"",""14899""
","
","
","""event"",""trial"",""time""
""fullscreenenter"",""5"",""14899""
","
","","","","","","","","","","","","","","","","","","","","","",""
"d3-animate-choice","34","158805","0.0-34.0","900","655","10","Female","false","true","false","false","""event"",""trial"",""time""
""fullscreenenter"",""5"",""14899""
","
","
","""event"",""trial"",""time""
""fullscreenenter"",""5"",""14899""
","
","1094.5999999940395","","49","","","3000","1","","","images/tutgreenplanet.jpg","images/tutalien1","images/tutalien2","null","images/tutalien2","images/t.png","NA","practice","null","","","",""
"d3-animate-choice","35","161170","0.0-35.0","900","655","10","Female","false","true","false","false","""event"",""trial"",""time""
""fullscreenenter"",""5"",""14899""
","
","
","""event"",""trial"",""time""
""fullscreenenter"",""5"",""14899""
","
","359.5","","49","","","3000","1","","","images/tutgreenplanet.jpg","images/tutalien1","images/tutalien2","null","images/tutalien2","images/t.png","NA","practice","null","","","",""
"d3-animate-choice","36","163434","0.0-36.0","900","655","10","Female","false","true","false","false","""event"",""trial"",""time""
""fullscreenenter"",""5"",""14899""
","
","
","""event"",""trial"",""time""
""fullscreenenter"",""5"",""14899""
","
","259.79999999701977","","49","","","3000","1","","","images/tutgreenplanet.jpg","images/tutalien1","images/tutalien2","null","images/tutalien2","images/t.png","NA","practice","null","","","",""
"d3-animate-choice","37","165650","0.0-37.0","900","655","10","Female","false","true","false","false","""event"",""trial"",""time""
""fullscreenenter"",""5"",""14899""
","
","
","""event"",""trial"",""time""
""fullscreenenter"",""5"",""14899""
","
","206","","49","","","3000","1","","","images/tutgreenplanet.jpg","images/tutalien1","images/tutalien2","null","images/tutalien2","images/t.png","NA","practice","null","","","",""
"d3-animate-choice","38","167868","0.0-38.0","900","655","10","Female","false","true","false","false","""event"",""trial"",""time""
""fullscreenenter"",""5"",""14899""
","
","
","""event"",""trial"",""time""
""fullscreenenter"",""5"",""14899""
","
","204.90000000596046","","49","","","3000","1","","","images/tutgreenplanet.jpg","images/tutalien1","images/tutalien2","null","images/tutalien2","images/t.png","NA","practice","null","","","",""
"d3-animate-choice","39","170149","0.0-39.0","900","655","10","Female","false","true","false","false","""event"",""trial"",""time""
""fullscreenenter"",""5"",""14899""
","
","
","""event"",""trial"",""time""
""fullscreenenter"",""5"",""14899""
","
","271","","49","","","3000","1","","","images/tutgreenplanet.jpg","images/tutalien1","images/tutalien2","null","images/tutalien2","images/t.png","NA","practice","null","","","",""
"d3-animate-choice","40","172404","0.0-40.0","900","655","10","Female","false","true","false","false","""event"",""trial"",""time""
""fullscreenenter"",""5"",""14899""
","
","
","""event"",""trial"",""time""
""fullscreenenter"",""5"",""14899""
","
","247.29999999701977","","49","","","3000","1","","","images/tutgreenplanet.jpg","images/tutalien1","images/tutalien2","null","images/tutalien2","images/t.png","NA","practice","null","","","",""
"d3-animate-choice","41","174689","0.0-41.0","900","655","10","Female","false","true","false","false","""event"",""trial"",""time""
""fullscreenenter"",""5"",""14899""
","
","
","""event"",""trial"",""time""
""fullscreenenter"",""5"",""14899""
","
","268.20000000298023","","49","","","3000","1","","","images/tutgreenplanet.jpg","images/tutalien1","images/tutalien2","null","images/tutalien2","images/t.png","NA","practice","null","","","",""
"d3-animate-choice","42","176958","0.0-42.0","900","655","10","Female","false","true","false","false","""event"",""trial"",""time""
""fullscreenenter"",""5"",""14899""
","
","
","""event"",""trial"",""time""
""fullscreenenter"",""5"",""14899""
","
","259.1000000089407","","49","","","3000","1","","","images/tutgreenplanet.jpg","images/tutalien1","images/tutalien2","null","images/tutalien2","images/t.png","NA","practice","null","","","",""
"d3-animate-choice","43","179205","0.0-43.0","900","655","10","Female","false","true","false","false","""event"",""trial"",""time""
""fullscreenenter"",""5"",""14899""
","
","
","""event"",""trial"",""time""
""fullscreenenter"",""5"",""14899""
","
","240.29999999701977","","49","","","3000","1","1658.8999999910593","49","images/tutgreenplanet.jpg","images/tutalien1","images/tutalien2","null","images/tutalien2","images/t.png","NA","practice","null","","","",""
"d3-instructions","44","186869","0.0-44.0","900","655","10","Female","false","true","false","false","""event"",""trial"",""time""
""fullscreenenter"",""5"",""14899""
","
","
","""event"",""trial"",""time""
""fullscreenenter"",""5"",""14899""
","
","","","","","","","","","","","","","","","","","","","","","",""
"d3-instructions","45","190208","0.0-45.0","900","655","10","Female","false","true","false","false","""event"",""trial"",""time""
""fullscreenenter"",""5"",""14899""
","
","
","""event"",""trial"",""time""
""fullscreenenter"",""5"",""14899""
","
","","","","","","","","","","","","","","","","","","","","","",""
"d3-instructions","46","193241","0.0-46.0","900","655","10","Female","false","true","false","false","""event"",""trial"",""time""
""fullscreenenter"",""5"",""14899""
","
","
","""event"",""trial"",""time""
""fullscreenenter"",""5"",""14899""
","
","","","","","","","","","","","","","","","","","","","","","",""
"d3-instructions","47","207170","0.0-47.0","900","655","10","Female","false","true","false","false","""event"",""trial"",""time""
""fullscreenenter"",""5"",""14899""
","
","
","""event"",""trial"",""time""
""fullscreenenter"",""5"",""14899""
","
","","","","","","","","","","","","","","","","","","","","","",""
"d3-instructions","48","209765","0.0-48.0","900","655","10","Female","false","true","false","false","""event"",""trial"",""time""
""fullscreenenter"",""5"",""14899""
","
","
","""event"",""trial"",""time""
""fullscreenenter"",""5"",""14899""
","
","","","","","","","","","","","","","","","","","","","","","",""
"d3-instructions","49","212693","0.0-49.0","900","655","10","Female","false","true","false","false","""event"",""trial"",""time""
""fullscreenenter"",""5"",""14899""
","
","
","""event"",""trial"",""time""
""fullscreenenter"",""5"",""14899""
","
","","","","","","","","","","","","","","","","","","","","","",""
"d3-instructions","50","217496","0.0-50.0","900","655","10","Female","false","true","false","false","""event"",""trial"",""time""
""fullscreenenter"",""5"",""14899""
","
","
","""event"",""trial"",""time""
""fullscreenenter"",""5"",""14899""
","
","","","","","","","","","","","","","","","","","","","","","",""
"d3-instructions","51","219172","0.0-51.0","900","655","10","Female","false","true","false","false","""event"",""trial"",""time""
""fullscreenenter"",""5"",""14899""
","
","
","""event"",""trial"",""time""
""fullscreenenter"",""5"",""14899""
","
","","","","","","","","","","","","","","","","","","","","","",""
"d3-instructions","52","220919","0.0-52.0","900","655","10","Female","false","true","false","false","""event"",""trial"",""time""
""fullscreenenter"",""5"",""14899""
","
","
","""event"",""trial"",""time""
""fullscreenenter"",""5"",""14899""
","
","","","","","","","","","","","","","","","","","","","","","",""
"d3-instructions","53","230430","0.0-53.0","900","655","10","Female","false","true","false","false","""event"",""trial"",""time""
""fullscreenenter"",""5"",""14899""
","
","
","""event"",""trial"",""time""
""fullscreenenter"",""5"",""14899""
","
","","","","","","","","","","","","","","","","","","","","","",""
"d3-instructions","54","240263","0.0-54.0","900","655","10","Female","false","true","false","false","""event"",""trial"",""time""
""fullscreenenter"",""5"",""14899""
","
","
","""event"",""trial"",""time""
""fullscreenenter"",""5"",""14899""
","
","","","","","","","","","","","","","","","","","","","","","",""
"d3-instructions","55","243704","0.0-55.0","900","655","10","Female","false","true","false","false","""event"",""trial"",""time""
""fullscreenenter"",""5"",""14899""
","
","
","""event"",""trial"",""time""
""fullscreenenter"",""5"",""14899""
","
","","","","","","","","","","","","","","","","","","","","","",""
"d3-instructions","56","248121","0.0-56.0","900","655","10","Female","false","true","false","false","""event"",""trial"",""time""
""fullscreenenter"",""5"",""14899""
","
","
","""event"",""trial"",""time""
""fullscreenenter"",""5"",""14899""
","
","","","","","","","","","","","","","","","","","","","","","",""
"d3-instructions","57","253625","0.0-57.0","900","655","10","Female","false","true","false","false","""event"",""trial"",""time""
""fullscreenenter"",""5"",""14899""
","
","
","""event"",""trial"",""time""
""fullscreenenter"",""5"",""14899""
","
","","","","","","","","","","","","","","","","","","","","","",""
"d3-instructions","58","259936","0.0-58.0","900","655","10","Female","false","true","false","false","""event"",""trial"",""time""
""fullscreenenter"",""5"",""14899""
","
","
","""event"",""trial"",""time""
""fullscreenenter"",""5"",""14899""
","
","","","","","","","","","","","","","","","","","","","","","",""
"d3-instructions","59","267797","0.0-59.0","900","655","10","Female","false","true","false","false","""event"",""trial"",""time""
""fullscreenenter"",""5"",""14899""
","
","
","""event"",""trial"",""time""
""fullscreenenter"",""5"",""14899""
","
","","","","","","","","","","","","","","","","","","","","","",""
"d3-instructions","60","271136","0.0-60.0","900","655","10","Female","false","true","false","false","""event"",""trial"",""time""
""fullscreenenter"",""5"",""14899""
","
","
","""event"",""trial"",""time""
""fullscreenenter"",""5"",""14899""
","
","","","","","","","","","","","","","","","","","","","","","",""
"d3-animate-choice","61","274484","0.0-61.0-0.0","900","655","10","Female","false","true","false","false","""event"",""trial"",""time""
""fullscreenenter"",""5"",""14899""
","
","
","""event"",""trial"",""time""
""fullscreenenter"",""5"",""14899""
","
","1341.0999999940395","","49","","","3000","1","","","images/earth.jpg","images/tutrocket2","images/tutrocket1","null","images/tutrocket1","","1","practice","null","1","","",""
"d3-animate-choice","62","277781","0.0-61.0-1.0","900","655","10","Female","false","true","false","false","""event"",""trial"",""time""
""fullscreenenter"",""5"",""14899""
","
","
","""event"",""trial"",""time""
""fullscreenenter"",""5"",""14899""
","
","1286.199999988079","","49","","","3000","1","","","images/tutgreenplanet.jpg","images/tutalien2","images/tutalien1","images/tutrocket1","images/tutalien1","images/nothing.png","2","practice","true","1","common","0","2022-02-11 04:36:25.374"
"two-step-fixation","63","278787","0.0-61.0-2.0","900","655","10","Female","false","true","false","false","""event"",""trial"",""time""
""fullscreenenter"",""5"",""14899""
","
","
","""event"",""trial"",""time""
""fullscreenenter"",""5"",""14899""
","
","","images/earth.jpg","","","","","","","","","","","","","","fixation","","","","","",""
"d3-animate-choice","64","281919","0.0-61.0-0.1","900","655","10","Female","false","true","false","false","""event"",""trial"",""time""
""fullscreenenter"",""5"",""14899""
","
","
","""event"",""trial"",""time""
""fullscreenenter"",""5"",""14899""
","
","1121.2000000029802","","48","","","3000","1","","","images/earth.jpg","images/tutrocket2","images/tutrocket1","null","images/tutrocket2","","1","practice","null","2","","",""
"d3-animate-choice","65","284777","0.0-61.0-1.1","900","655","10","Female","false","true","false","false","""event"",""trial"",""time""
""fullscreenenter"",""5"",""14899""
","
","
","""event"",""trial"",""time""
""fullscreenenter"",""5"",""14899""
","
","851.6000000089407","","48","","","3000","1","","","images/tutyellowplanet.jpg","images/tutalien4","images/tutalien3","images/tutrocket2","images/tutalien4","images/t.png","2","practice","true","2","common","1","2022-02-11 04:36:32.369"
"two-step-fixation","66","285783","0.0-61.0-2.1","900","655","10","Female","false","true","false","false","""event"",""trial"",""time""
""fullscreenenter"",""5"",""14899""
","
","
","""event"",""trial"",""time""
""fullscreenenter"",""5"",""14899""
","
","","images/earth.jpg","","","","","","","","","","","","","","fixation","","","","","",""
"d3-animate-choice","67","288054","0.0-61.0-0.2","900","655","10","Female","false","true","false","false","""event"",""trial"",""time""
""fullscreenenter"",""5"",""14899""
","
","
","""event"",""trial"",""time""
""fullscreenenter"",""5"",""14899""
","
","264.90000000596046","","48","","","3000","1","","","images/earth.jpg","images/tutrocket2","images/tutrocket1","null","images/tutrocket2","","1","practice","null","2","","",""
"d3-animate-choice","68","290428","0.0-61.0-1.2","900","655","10","Female","false","true","false","false","""event"",""trial"",""time""
""fullscreenenter"",""5"",""14899""
","
","
","""event"",""trial"",""time""
""fullscreenenter"",""5"",""14899""
","
","366.70000000298023","","48","","","3000","1","","","images/tutyellowplanet.jpg","images/tutalien4","images/tutalien3","images/tutrocket2","images/tutalien4","images/nothing.png","2","practice","true","2","common","0","2022-02-11 04:36:38.020"
"two-step-fixation","69","291431","0.0-61.0-2.2","900","655","10","Female","false","true","false","false","""event"",""trial"",""time""
""fullscreenenter"",""5"",""14899""
","
","
","""event"",""trial"",""time""
""fullscreenenter"",""5"",""14899""
","
","","images/earth.jpg","","","","","","","","","","","","","","fixation","","","","","",""
"d3-animate-choice","70","293903","0.0-61.0-0.3","900","655","10","Female","false","true","false","false","""event"",""trial"",""time""
""fullscreenenter"",""5"",""14899""
","
","
","""event"",""trial"",""time""
""fullscreenenter"",""5"",""14899""
","
","457","","49","","","3000","1","","","images/earth.jpg","images/tutrocket2","images/tutrocket1","null","images/tutrocket1","","1","practice","null","1","","",""
"d3-animate-choice","71","296662","0.0-61.0-1.3","900","655","10","Female","false","true","false","false","""event"",""trial"",""time""
""fullscreenenter"",""5"",""14899""
","
","
","""event"",""trial"",""time""
""fullscreenenter"",""5"",""14899""
","
","743.8999999910593","","49","","","3000","1","","","images/tutyellowplanet.jpg","images/tutalien4","images/tutalien3","images/tutrocket1","images/tutalien3","images/nothing.png","2","practice","false","1","rare","0","2022-02-11 04:36:44.254"
"two-step-fixation","72","297674","0.0-61.0-2.3","900","655","10","Female","false","true","false","false","""event"",""trial"",""time""
""fullscreenenter"",""5"",""14899""
","
","
","""event"",""trial"",""time""
""fullscreenenter"",""5"",""14899""
","
","","images/earth.jpg","","","","","","","","","","","","","","fixation","","","","","",""
"d3-animate-choice","73","299695","0.0-61.0-0.4","900","655","10","Female","false","true","false","false","""event"",""trial"",""time""
""fullscreenenter"",""5"",""14899""
","
","
","""event"",""trial"",""time""
""fullscreenenter"",""5"",""14899""
","
","0.29999999701976776","","49","","","3000","1","","","images/earth.jpg","images/tutrocket2","images/tutrocket1","null","images/tutrocket1","","1","practice","null","1","","",""
"d3-animate-choice","74","302152","0.0-61.0-1.4","900","655","10","Female","false","true","false","false","""event"",""trial"",""time""
""fullscreenenter"",""5"",""14899""
","
","
","""event"",""trial"",""time""
""fullscreenenter"",""5"",""14899""
","
","452","","49","","","3000","1","","","images/tutgreenplanet.jpg","images/tutalien2","images/tutalien1","images/tutrocket1","images/tutalien1","images/nothing.png","2","practice","true","1","common","0","2022-02-11 04:36:49.744"
"two-step-fixation","75","303159","0.0-61.0-2.4","900","655","10","Female","false","true","false","false","""event"",""trial"",""time""
""fullscreenenter"",""5"",""14899""
","
","
","""event"",""trial"",""time""
""fullscreenenter"",""5"",""14899""
","
","","images/earth.jpg","","","","","","","","","","","","","","fixation","","","","","",""
"d3-animate-choice","76","305604","0.0-61.0-0.5","900","655","10","Female","false","true","false","false","""event"",""trial"",""time""
""fullscreenenter"",""5"",""14899""
","
","
","""event"",""trial"",""time""
""fullscreenenter"",""5"",""14899""
","
","438.90000000596046","","49","","","3000","1","","","images/earth.jpg","images/tutrocket2","images/tutrocket1","null","images/tutrocket1","","1","practice","null","1","","",""
"d3-animate-choice","77","308645","0.0-61.0-1.5","900","655","10","Female","false","true","false","false","""event"",""trial"",""time""
""fullscreenenter"",""5"",""14899""
","
","
","""event"",""trial"",""time""
""fullscreenenter"",""5"",""14899""
","
","1035.800000011921","","48","","","3000","1","","","images/tutgreenplanet.jpg","images/tutalien2","images/tutalien1","images/tutrocket1","images/tutalien2","images/t.png","2","practice","true","2","common","1","2022-02-11 04:36:56.237"
"two-step-fixation","78","309651","0.0-61.0-2.5","900","655","10","Female","false","true","false","false","""event"",""trial"",""time""
""fullscreenenter"",""5"",""14899""
","
","
","""event"",""trial"",""time""
""fullscreenenter"",""5"",""14899""
","
","","images/earth.jpg","","","","","","","","","","","","","","fixation","","","","","",""
"d3-animate-choice","79","311961","0.0-61.0-0.6","900","655","10","Female","false","true","false","false","""event"",""trial"",""time""
""fullscreenenter"",""5"",""14899""
","
","
","""event"",""trial"",""time""
""fullscreenenter"",""5"",""14899""
","
","303.29999999701977","","49","","","3000","1","","","images/earth.jpg","images/tutrocket2","images/tutrocket1","null","images/tutrocket1","","1","practice","null","1","","",""
"d3-animate-choice","80","314459","0.0-61.0-1.6","900","655","10","Female","false","true","false","false","""event"",""trial"",""time""
""fullscreenenter"",""5"",""14899""
","
","
","""event"",""trial"",""time""
""fullscreenenter"",""5"",""14899""
","
","493.79999999701977","","48","","","3000","1","","","images/tutgreenplanet.jpg","images/tutalien2","images/tutalien1","images/tutrocket1","images/tutalien2","images/nothing.png","2","practice","true","2","common","0","2022-02-11 04:37:02.051"
"two-step-fixation","81","315467","0.0-61.0-2.6","900","655","10","Female","false","true","false","false","""event"",""trial"",""time""
""fullscreenenter"",""5"",""14899""
","
","
","""event"",""trial"",""time""
""fullscreenenter"",""5"",""14899""
","
","","images/earth.jpg","","","","","","","","","","","","","","fixation","","","","","",""
"d3-animate-choice","82","317895","0.0-61.0-0.7","900","655","10","Female","false","true","false","false","""event"",""trial"",""time""
""fullscreenenter"",""5"",""14899""
","
","
","""event"",""trial"",""time""
""fullscreenenter"",""5"",""14899""
","
","421.80000001192093","","48","","","3000","1","","","images/earth.jpg","images/tutrocket2","images/tutrocket1","null","images/tutrocket2","","1","practice","null","2","","",""
"d3-animate-choice","83","320704","0.0-61.0-1.7","900","655","10","Female","false","true","false","false","""event"",""trial"",""time""
""fullscreenenter"",""5"",""14899""
","
","
","""event"",""trial"",""time""
""fullscreenenter"",""5"",""14899""
","
","802.2999999970198","","48","","","3000","1","","","images/tutgreenplanet.jpg","images/tutalien2","images/tutalien1","images/tutrocket2","images/tutalien2","images/t.png","2","practice","false","2","rare","1","2022-02-11 04:37:08.296"
"two-step-fixation","84","321706","0.0-61.0-2.7","900","655","10","Female","false","true","false","false","""event"",""trial"",""time""
""fullscreenenter"",""5"",""14899""
","
","
","""event"",""trial"",""time""
""fullscreenenter"",""5"",""14899""
","
","","images/earth.jpg","","","","","","","","","","","","","","fixation","","","","","",""
"d3-animate-choice","85","324280","0.0-61.0-0.8","900","655","10","Female","false","true","false","false","""event"",""trial"",""time""
""fullscreenenter"",""5"",""14899""
","
","
","""event"",""trial"",""time""
""fullscreenenter"",""5"",""14899""
","
","566.7000000029802","","49","","","3000","1","","","images/earth.jpg","images/tutrocket2","images/tutrocket1","null","images/tutrocket1","","1","practice","null","1","","",""
"d3-animate-choice","86","326725","0.0-61.0-1.8","900","655","10","Female","false","true","false","false","""event"",""trial"",""time""
""fullscreenenter"",""5"",""14899""
","
","
","""event"",""trial"",""time""
""fullscreenenter"",""5"",""14899""
","
","439.8999999910593","","48","","","3000","1","","","images/tutgreenplanet.jpg","images/tutalien2","images/tutalien1","images/tutrocket1","images/tutalien2","images/nothing.png","2","practice","true","2","common","0","2022-02-11 04:37:14.317"
"two-step-fixation","87","327729","0.0-61.0-2.8","900","655","10","Female","false","true","false","false","""event"",""trial"",""time""
""fullscreenenter"",""5"",""14899""
","
","
","""event"",""trial"",""time""
""fullscreenenter"",""5"",""14899""
","
","","images/earth.jpg","","","","","","","","","","","","","","fixation","","","","","",""
"d3-animate-choice","88","330018","0.0-61.0-0.9","900","655","10","Female","false","true","false","false","""event"",""trial"",""time""
""fullscreenenter"",""5"",""14899""
","
","
","""event"",""trial"",""time""
""fullscreenenter"",""5"",""14899""
","
","285.20000000298023","","48","","","3000","1","","","images/earth.jpg","images/tutrocket2","images/tutrocket1","null","images/tutrocket2","","1","practice","null","2","","",""
"d3-animate-choice","89","332377","0.0-61.0-1.9","900","655","10","Female","false","true","false","false","""event"",""trial"",""time""
""fullscreenenter"",""5"",""14899""
","
","
","""event"",""trial"",""time""
""fullscreenenter"",""5"",""14899""
","
","356.30000001192093","","49","","","3000","1","","","images/tutyellowplanet.jpg","images/tutalien4","images/tutalien3","images/tutrocket2","images/tutalien3","images/nothing.png","2","practice","true","1","common","0","2022-02-11 04:37:19.969"
"two-step-fixation","90","333382","0.0-61.0-2.9","900","655","10","Female","false","true","false","false","""event"",""trial"",""time""
""fullscreenenter"",""5"",""14899""
","
","
","""event"",""trial"",""time""
""fullscreenenter"",""5"",""14899""
","
","","images/earth.jpg","","","","","","","","","","","","","","fixation","","","","","",""
"d3-animate-choice","91","335528","0.0-61.0-0.10","900","655","10","Female","false","true","false","false","""event"",""trial"",""time""
""fullscreenenter"",""5"",""14899""
","
","
","""event"",""trial"",""time""
""fullscreenenter"",""5"",""14899""
","
","139.90000000596046","","49","","","3000","1","","","images/earth.jpg","images/tutrocket2","images/tutrocket1","null","images/tutrocket1","","1","practice","null","1","","",""
"d3-animate-choice","92","338010","0.0-61.0-1.10","900","655","10","Female","false","true","false","false","""event"",""trial"",""time""
""fullscreenenter"",""5"",""14899""
","
","
","""event"",""trial"",""time""
""fullscreenenter"",""5"",""14899""
","
","477.20000000298023","","48","","","3000","1","","","images/tutyellowplanet.jpg","images/tutalien4","images/tutalien3","images/tutrocket1","images/tutalien4","images/t.png","2","practice","false","2","rare","1","2022-02-11 04:37:25.602"
"two-step-fixation","93","339016","0.0-61.0-2.10","900","655","10","Female","false","true","false","false","""event"",""trial"",""time""
""fullscreenenter"",""5"",""14899""
","
","
","""event"",""trial"",""time""
""fullscreenenter"",""5"",""14899""
","
","","images/earth.jpg","","","","","","","","","","","","","","fixation","","","","","",""
"d3-animate-choice","94","341445","0.0-61.0-0.11","900","655","10","Female","false","true","false","false","""event"",""trial"",""time""
""fullscreenenter"",""5"",""14899""
","
","
","""event"",""trial"",""time""
""fullscreenenter"",""5"",""14899""
","
","424","","48","","","3000","1","","","images/earth.jpg","images/tutrocket2","images/tutrocket1","null","images/tutrocket2","","1","practice","null","2","","",""
"d3-animate-choice","95","343876","0.0-61.0-1.11","900","655","10","Female","false","true","false","false","""event"",""trial"",""time""
""fullscreenenter"",""5"",""14899""
","
","
","""event"",""trial"",""time""
""fullscreenenter"",""5"",""14899""
","
","425.30000001192093","","48","","","3000","1","","","images/tutyellowplanet.jpg","images/tutalien4","images/tutalien3","images/tutrocket2","images/tutalien4","images/t.png","2","practice","true","2","common","1","2022-02-11 04:37:31.468"
"two-step-fixation","96","344883","0.0-61.0-2.11","900","655","10","Female","false","true","false","false","""event"",""trial"",""time""
""fullscreenenter"",""5"",""14899""
","
","
","""event"",""trial"",""time""
""fullscreenenter"",""5"",""14899""
","
","","images/earth.jpg","","","","","","","","","","","","","","fixation","","","","","",""
"d3-animate-choice","97","347320","0.0-61.0-0.12","900","655","10","Female","false","true","false","false","""event"",""trial"",""time""
""fullscreenenter"",""5"",""14899""
","
","
","""event"",""trial"",""time""
""fullscreenenter"",""5"",""14899""
","
","431.79999999701977","","48","","","3000","1","","","images/earth.jpg","images/tutrocket2","images/tutrocket1","null","images/tutrocket2","","1","practice","null","2","","",""
"d3-animate-choice","98","349790","0.0-61.0-1.12","900","655","10","Female","false","true","false","false","""event"",""trial"",""time""
""fullscreenenter"",""5"",""14899""
","
","
","""event"",""trial"",""time""
""fullscreenenter"",""5"",""14899""
","
","465.20000000298023","","48","","","3000","1","","","images/tutyellowplanet.jpg","images/tutalien4","images/tutalien3","images/tutrocket2","images/tutalien4","images/nothing.png","2","practice","true","2","common","0","2022-02-11 04:37:37.382"
"two-step-fixation","99","350796","0.0-61.0-2.12","900","655","10","Female","false","true","false","false","""event"",""trial"",""time""
""fullscreenenter"",""5"",""14899""
","
","
","""event"",""trial"",""time""
""fullscreenenter"",""5"",""14899""
","
","","images/earth.jpg","","","","","","","","","","","","","","fixation","","","","","",""
"d3-animate-choice","100","352911","0.0-61.0-0.13","900","655","10","Female","false","true","false","false","""event"",""trial"",""time""
""fullscreenenter"",""5"",""14899""
","
","
","""event"",""trial"",""time""
""fullscreenenter"",""5"",""14899""
","
","109.20000000298023","","48","","","3000","1","1643.8999999910593","80","images/earth.jpg","images/tutrocket2","images/tutrocket1","null","images/tutrocket2","","1","practice","null","2","","",""
"d3-animate-choice","101","355250","0.0-61.0-1.13","900","655","10","Female","false","true","false","false","""event"",""trial"",""time""
""fullscreenenter"",""5"",""14899""
","
","
","""event"",""trial"",""time""
""fullscreenenter"",""5"",""14899""
","
","332.79999999701977","","48","","","3000","1","","","images/tutgreenplanet.jpg","images/tutalien2","images/tutalien1","images/tutrocket2","images/tutalien2","images/nothing.png","2","practice","false","2","rare","0","2022-02-11 04:37:42.842"
"two-step-fixation","102","356252","0.0-61.0-2.13","900","655","10","Female","false","true","false","false","""event"",""trial"",""time""
""fullscreenenter"",""5"",""14899""
","
","
","""event"",""trial"",""time""
""fullscreenenter"",""5"",""14899""
","
","","images/earth.jpg","","","","","","","","","","","","","","fixation","","","","","",""
"d3-animate-choice","103","358268","0.0-61.0-0.14","900","655","10","Female","false","true","false","false","""event"",""trial"",""time""
""fullscreenenter"",""5"",""14899""
","
","
","""event"",""trial"",""time""
""fullscreenenter"",""5"",""14899""
","
","12.899999991059303","","49","","","3000","1","","","images/earth.jpg","images/tutrocket2","images/tutrocket1","null","images/tutrocket1","","1","practice","null","1","","",""
"d3-animate-choice","104","360734","0.0-61.0-1.14","900","655","10","Female","false","true","false","false","""event"",""trial"",""time""
""fullscreenenter"",""5"",""14899""
","
","
","""event"",""trial"",""time""
""fullscreenenter"",""5"",""14899""
","
","464.1000000089407","","49","","","3000","1","","","images/tutgreenplanet.jpg","images/tutalien2","images/tutalien1","images/tutrocket1","images/tutalien1","images/nothing.png","2","practice","true","1","common","0","2022-02-11 04:37:48.326"
"two-step-fixation","105","361739","0.0-61.0-2.14","900","655","10","Female","false","true","false","false","""event"",""trial"",""time""
""fullscreenenter"",""5"",""14899""
","
","
","""event"",""trial"",""time""
""fullscreenenter"",""5"",""14899""
","
","","images/earth.jpg","","","","","","","","","","","","","","fixation","","","","","",""
"d3-animate-choice","106","363984","0.0-61.0-0.15","900","655","10","Female","false","true","false","false","""event"",""trial"",""time""
""fullscreenenter"",""5"",""14899""
","
","
","""event"",""trial"",""time""
""fullscreenenter"",""5"",""14899""
","
","238.40000000596046","","49","","","3000","1","","","images/earth.jpg","images/tutrocket2","images/tutrocket1","null","images/tutrocket1","","1","practice","null","1","","",""
"d3-animate-choice","107","366370","0.0-61.0-1.15","900","655","10","Female","false","true","false","false","""event"",""trial"",""time""
""fullscreenenter"",""5"",""14899""
","
","
","""event"",""trial"",""time""
""fullscreenenter"",""5"",""14899""
","
","379.90000000596046","","48","","","3000","1","","","images/tutgreenplanet.jpg","images/tutalien2","images/tutalien1","images/tutrocket1","images/tutalien2","images/nothing.png","2","practice","true","2","common","0","2022-02-11 04:37:53.962"
"two-step-fixation","108","367376","0.0-61.0-2.15","900","655","10","Female","false","true","false","false","""event"",""trial"",""time""
""fullscreenenter"",""5"",""14899""
","
","
","""event"",""trial"",""time""
""fullscreenenter"",""5"",""14899""
","
","","images/earth.jpg","","","","","","","","","","","","","","fixation","","","","","",""
"d3-animate-choice","109","369921","0.0-61.0-0.16","900","655","10","Female","false","true","false","false","""event"",""trial"",""time""
""fullscreenenter"",""5"",""14899""
","
","
","""event"",""trial"",""time""
""fullscreenenter"",""5"",""14899""
","
","539.0999999940395","","48","","","3000","1","","","images/earth.jpg","images/tutrocket2","images/tutrocket1","null","images/tutrocket2","","1","practice","null","2","","",""
"d3-animate-choice","110","372463","0.0-61.0-1.16","900","655","10","Female","false","true","false","false","""event"",""trial"",""time""
""fullscreenenter"",""5"",""14899""
","
","
","""event"",""trial"",""time""
""fullscreenenter"",""5"",""14899""
","
","536.1999999880791","","48","","","3000","1","","","images/tutyellowplanet.jpg","images/tutalien4","images/tutalien3","images/tutrocket2","images/tutalien4","images/t.png","2","practice","true","2","common","1","2022-02-11 04:38:00.055"
"two-step-fixation","111","373466","0.0-61.0-2.16","900","655","10","Female","false","true","false","false","""event"",""trial"",""time""
""fullscreenenter"",""5"",""14899""
","
","
","""event"",""trial"",""time""
""fullscreenenter"",""5"",""14899""
","
","","images/earth.jpg","","","","","","","","","","","","","","fixation","","","","","",""
"d3-animate-choice","112","375720","0.0-61.0-0.17","900","655","10","Female","false","true","false","false","""event"",""trial"",""time""
""fullscreenenter"",""5"",""14899""
","
","
","""event"",""trial"",""time""
""fullscreenenter"",""5"",""14899""
","
","248.79999999701977","","48","","","3000","1","","","images/earth.jpg","images/tutrocket2","images/tutrocket1","null","images/tutrocket2","","1","practice","null","2","","",""
"d3-animate-choice","113","378008","0.0-61.0-1.17","900","655","10","Female","false","true","false","false","""event"",""trial"",""time""
""fullscreenenter"",""5"",""14899""
","
","
","""event"",""trial"",""time""
""fullscreenenter"",""5"",""14899""
","
","281.90000000596046","","48","","","3000","1","","","images/tutyellowplanet.jpg","images/tutalien4","images/tutalien3","images/tutrocket2","images/tutalien4","images/t.png","2","practice","true","2","common","1","2022-02-11 04:38:05.601"
"two-step-fixation","114","379014","0.0-61.0-2.17","900","655","10","Female","false","true","false","false","""event"",""trial"",""time""
""fullscreenenter"",""5"",""14899""
","
","
","""event"",""trial"",""time""
""fullscreenenter"",""5"",""14899""
","
","","images/earth.jpg","","","","","","","","","","","","","","fixation","","","","","",""
"d3-animate-choice","115","381366","0.0-61.0-0.18","900","655","10","Female","false","true","false","false","""event"",""trial"",""time""
""fullscreenenter"",""5"",""14899""
","
","
","""event"",""trial"",""time""
""fullscreenenter"",""5"",""14899""
","
","345.8999999910593","","48","","","3000","1","","","images/earth.jpg","images/tutrocket2","images/tutrocket1","null","images/tutrocket2","","1","practice","null","2","","",""
"d3-animate-choice","116","383751","0.0-61.0-1.18","900","655","10","Female","false","true","false","false","""event"",""trial"",""time""
""fullscreenenter"",""5"",""14899""
","
","
","""event"",""trial"",""time""
""fullscreenenter"",""5"",""14899""
","
","379.5","","48","","","3000","1","","","images/tutyellowplanet.jpg","images/tutalien4","images/tutalien3","images/tutrocket2","images/tutalien4","images/nothing.png","2","practice","true","2","common","0","2022-02-11 04:38:11.343"
"two-step-fixation","117","384757","0.0-61.0-2.18","900","655","10","Female","false","true","false","false","""event"",""trial"",""time""
""fullscreenenter"",""5"",""14899""
","
","
","""event"",""trial"",""time""
""fullscreenenter"",""5"",""14899""
","
","","images/earth.jpg","","","","","","","","","","","","","","fixation","","","","","",""
"d3-animate-choice","118","387057","0.0-61.0-0.19","900","655","10","Female","false","true","false","false","""event"",""trial"",""time""
""fullscreenenter"",""5"",""14899""
","
","
","""event"",""trial"",""time""
""fullscreenenter"",""5"",""14899""
","
","297.5","","48","","","3000","1","","","images/earth.jpg","images/tutrocket2","images/tutrocket1","null","images/tutrocket2","","1","practice","null","2","","",""
"d3-animate-choice","119","389352","0.0-61.0-1.19","900","655","10","Female","false","true","false","false","""event"",""trial"",""time""
""fullscreenenter"",""5"",""14899""
","
","
","""event"",""trial"",""time""
""fullscreenenter"",""5"",""14899""
","
","289.8999999910593","","48","","","3000","1","","","images/tutyellowplanet.jpg","images/tutalien4","images/tutalien3","images/tutrocket2","images/tutalien4","images/nothing.png","2","practice","true","2","common","0","2022-02-11 04:38:16.945"
"two-step-fixation","120","390359","0.0-61.0-2.19","900","655","10","Female","false","true","false","false","""event"",""trial"",""time""
""fullscreenenter"",""5"",""14899""
","
","
","""event"",""trial"",""time""
""fullscreenenter"",""5"",""14899""
","
","","images/earth.jpg","","","","","","","","","","","","","","fixation","","","","","",""
"d3-instructions","121","394017","0.0-62.0","900","655","10","Female","false","true","false","false","""event"",""trial"",""time""
""fullscreenenter"",""5"",""14899""
","
","
","""event"",""trial"",""time""
""fullscreenenter"",""5"",""14899""
","
","","","","","","","","","","","","","","","","","","","","","",""
"audio-keyboard-response","122","395788","0.0-63.0","900","655","10","Female","false","true","false","false","""event"",""trial"",""time""
""fullscreenenter"",""5"",""14899""
","
","
","""event"",""trial"",""time""
""fullscreenenter"",""5"",""14899""
","
","1760","audio/instructions/treasure_feedback.wav","32","","","","","","","","","","","","","","","","","","",""
"d3-instructions","123","400139","0.0-64.0","900","655","10","Female","false","true","false","false","""event"",""trial"",""time""
""fullscreenenter"",""5"",""14899""
","
","
","""event"",""trial"",""time""
""fullscreenenter"",""5"",""14899""
","
","","","","","","","","","","","","","","","","","","","","","",""
"d3-instructions","124","406434","0.0-65.0","900","655","10","Female","false","true","false","false","""event"",""trial"",""time""
""fullscreenenter"",""5"",""14899""
","
","
","""event"",""trial"",""time""
""fullscreenenter"",""5"",""14899""
","
","","","","","","","","","","","","","","","","","","","","","",""
"d3-instructions","125","418720","0.0-66.0","900","655","10","Female","false","true","false","false","""event"",""trial"",""time""
""fullscreenenter"",""5"",""14899""
","
","
","""event"",""trial"",""time""
""fullscreenenter"",""5"",""14899""
","
","","","","","","","","","","","","","","","","","","","","","",""
"d3-instructions","126","430737","0.0-67.0","900","655","10","Female","false","true","false","false","""event"",""trial"",""time""
""fullscreenenter"",""5"",""14899""
","
","
","""event"",""trial"",""time""
""fullscreenenter"",""5"",""14899""
","
","","","","","","","","","","","","","","","","","","","","","",""
"d3-instructions","127","433723","0.0-68.0","900","655","10","Female","false","true","false","false","""event"",""trial"",""time""
""fullscreenenter"",""5"",""14899""
","
","
","""event"",""trial"",""time""
""fullscreenenter"",""5"",""14899""
","
","","","","","","","","","","","","","","","","","","","","","",""
"instructions-quiz","128","437826","0.0-69.0","900","655","10","Female","false","true","false","false","""event"",""trial"",""time""
""fullscreenenter"",""5"",""14899""
","
","
","""event"",""trial"",""time""
""fullscreenenter"",""5"",""14899""
","
","4101","audio/quiz/Q1_Prompt.wav","","1","","","","","","","","","","","","","","","","","",""
"audio-keyboard-response","129","438614","0.0-70.0","900","655","10","Female","false","true","false","false","""event"",""trial"",""time""
""fullscreenenter"",""5"",""14899""
","
","
","""event"",""trial"",""time""
""fullscreenenter"",""5"",""14899""
","
","789","audio/quiz/Q1_Correct.wav","32","","","","","","","","","","","","","","","","","","",""
"instructions-quiz","130","441649","0.0-71.0","900","655","10","Female","false","true","false","false","""event"",""trial"",""time""
""fullscreenenter"",""5"",""14899""
","
","
","""event"",""trial"",""time""
""fullscreenenter"",""5"",""14899""
","
","3033.6000000089407","audio/quiz/Q2_Prompt.wav","","1","","","","","","","","","","","","","","","","","",""
"audio-keyboard-response","131","444140","0.0-72.0","900","655","10","Female","false","true","false","false","""event"",""trial"",""time""
""fullscreenenter"",""5"",""14899""
","
","
","""event"",""trial"",""time""
""fullscreenenter"",""5"",""14899""
","
","2491","audio/quiz/Q2_Incorrect.wav","32","","","","","","","","","","","","","","","","","","",""
"instructions-quiz","132","448329","0.0-73.0","900","655","10","Female","false","true","false","false","""event"",""trial"",""time""
""fullscreenenter"",""5"",""14899""
","
","
","""event"",""trial"",""time""
""fullscreenenter"",""5"",""14899""
","
","4187.20000000298","audio/quiz/Q3_Prompt.wav","","1","","","","","","","","","","","","","","","","","",""
"audio-keyboard-response","133","449035","0.0-74.0","900","655","10","Female","false","true","false","false","""event"",""trial"",""time""
""fullscreenenter"",""5"",""14899""
","
","
","""event"",""trial"",""time""
""fullscreenenter"",""5"",""14899""
","
","699","audio/quiz/Q3_Correct.wav","32","","","","","","","","","","","","","","","","","","",""
"d3-instructions","134","453482","0.0-75.0","900","655","10","Female","false","true","false","false","""event"",""trial"",""time""
""fullscreenenter"",""5"",""14899""
","
","
","""event"",""trial"",""time""
""fullscreenenter"",""5"",""14899""
","
","","","","","","","","","","","","","","","","","","","","","",""
"d3-animate-choice","135","456536","0.0-76.0-0.0","900","655","10","Female","false","true","false","false","""event"",""trial"",""time""
""fullscreenenter"",""5"",""14899""
","
","
","""event"",""trial"",""time""
""fullscreenenter"",""5"",""14899""
","
","1047.0999999940395","","49","","","3000","1","","","images/earth.jpg","images/rocket1","images/rocket2","null","images/rocket2","","1","real","null","1","","",""
"d3-animate-choice","136","459363","0.0-76.0-1.0","900","655","10","Female","false","true","false","false","""event"",""trial"",""time""
""fullscreenenter"",""5"",""14899""
","
","
","""event"",""trial"",""time""
""fullscreenenter"",""5"",""14899""
","
","820.3999999910593","","48","","","3000","1","","","images/purpleplanet.jpg","images/alien4","images/alien3","images/rocket2","images/alien4","images/t.png","2","real","true","2","common","1","2022-02-11 04:39:26.955"
"two-step-fixation","137","460371","0.0-76.0-2.0","900","655","10","Female","false","true","false","false","""event"",""trial"",""time""
""fullscreenenter"",""5"",""14899""
","
","
","""event"",""trial"",""time""
""fullscreenenter"",""5"",""14899""
","
","","images/earth.jpg","","","","","","","","","","","","","","fixation","","","","","",""
"d3-animate-choice","138","462680","0.0-76.0-0.1","900","655","10","Female","false","true","false","false","""event"",""trial"",""time""
""fullscreenenter"",""5"",""14899""
","
","
","""event"",""trial"",""time""
""fullscreenenter"",""5"",""14899""
","
","302.70000000298023","","49","","","3000","1","","","images/earth.jpg","images/rocket1","images/rocket2","null","images/rocket2","","1","real","null","1","","",""
"d3-animate-choice","139","465061","0.0-76.0-1.1","900","655","10","Female","false","true","false","false","""event"",""trial"",""time""
""fullscreenenter"",""5"",""14899""
","
","
","""event"",""trial"",""time""
""fullscreenenter"",""5"",""14899""
","
","375.40000000596046","","48","","","3000","1","","","images/purpleplanet.jpg","images/alien4","images/alien3","images/rocket2","images/alien4","images/t.png","2","real","true","2","common","1","2022-02-11 04:39:32.653"
"two-step-fixation","140","466068","0.0-76.0-2.1","900","655","10","Female","false","true","false","false","""event"",""trial"",""time""
""fullscreenenter"",""5"",""14899""
","
","
","""event"",""trial"",""time""
""fullscreenenter"",""5"",""14899""
","
","","images/earth.jpg","","","","","","","","","","","","","","fixation","","","","","",""
"d3-animate-choice","141","468350","0.0-76.0-0.2","900","655","10","Female","false","true","false","false","""event"",""trial"",""time""
""fullscreenenter"",""5"",""14899""
","
","
","""event"",""trial"",""time""
""fullscreenenter"",""5"",""14899""
","
","276.5","","49","","","3000","1","","","images/earth.jpg","images/rocket1","images/rocket2","null","images/rocket2","","1","real","null","1","","",""
"d3-animate-choice","142","470610","0.0-76.0-1.2","900","655","10","Female","false","true","false","false","""event"",""trial"",""time""
""fullscreenenter"",""5"",""14899""
","
","
","""event"",""trial"",""time""
""fullscreenenter"",""5"",""14899""
","
","255.20000000298023","","48","","","3000","1","","","images/purpleplanet.jpg","images/alien4","images/alien3","images/rocket2","images/alien4","images/t.png","2","real","true","2","common","1","2022-02-11 04:39:38.202"
"two-step-fixation","143","471617","0.0-76.0-2.2","900","655","10","Female","false","true","false","false","""event"",""trial"",""time""
""fullscreenenter"",""5"",""14899""
","
","
","""event"",""trial"",""time""
""fullscreenenter"",""5"",""14899""
","
","","images/earth.jpg","","","","","","","","","","","","","","fixation","","","","","",""
"d3-animate-choice","144","473934","0.0-76.0-0.3","900","655","10","Female","false","true","false","false","""event"",""trial"",""time""
""fullscreenenter"",""5"",""14899""
","
","
","""event"",""trial"",""time""
""fullscreenenter"",""5"",""14899""
","
","302.20000000298023","","49","","","3000","1","","","images/earth.jpg","images/rocket1","images/rocket2","null","images/rocket2","","1","real","null","1","","",""
"d3-animate-choice","145","476338","0.0-76.0-1.3","900","655","10","Female","false","true","false","false","""event"",""trial"",""time""
""fullscreenenter"",""5"",""14899""
","
","
","""event"",""trial"",""time""
""fullscreenenter"",""5"",""14899""
","
","401","","48","","","3000","1","","","images/purpleplanet.jpg","images/alien4","images/alien3","images/rocket2","images/alien4","images/nothing.png","2","real","true","2","common","0","2022-02-11 04:39:43.930"
"two-step-fixation","146","477344","0.0-76.0-2.3","900","655","10","Female","false","true","false","false","""event"",""trial"",""time""
""fullscreenenter"",""5"",""14899""
","
","
","""event"",""trial"",""time""
""fullscreenenter"",""5"",""14899""
","
","","images/earth.jpg","","","","","","","","","","","","","","fixation","","","","","",""
"d3-animate-choice","147","479484","0.0-76.0-0.4","900","655","10","Female","false","true","false","false","""event"",""trial"",""time""
""fullscreenenter"",""5"",""14899""
","
","
","""event"",""trial"",""time""
""fullscreenenter"",""5"",""14899""
","
","133.29999999701977","","48","","","3000","1","","","images/earth.jpg","images/rocket1","images/rocket2","null","images/rocket1","","1","real","null","2","","",""
"d3-animate-choice","148","482063","0.0-76.0-1.4","900","655","10","Female","false","true","false","false","""event"",""trial"",""time""
""fullscreenenter"",""5"",""14899""
","
","
","""event"",""trial"",""time""
""fullscreenenter"",""5"",""14899""
","
","570.2000000029802","","49","","","3000","1","","","images/redplanet1.jpg","images/alien2","images/alien1","images/rocket1","images/alien1","images/t.png","2","real","true","1","common","1","2022-02-11 04:39:49.656"
"two-step-fixation","149","483071","0.0-76.0-2.4","900","655","10","Female","false","true","false","false","""event"",""trial"",""time""
""fullscreenenter"",""5"",""14899""
","
","
","""event"",""trial"",""time""
""fullscreenenter"",""5"",""14899""
","
","","images/earth.jpg","","","","","","","","","","","","","","fixation","","","","","",""
"d3-animate-choice","150","485482","0.0-76.0-0.5","900","655","10","Female","false","true","false","false","""event"",""trial"",""time""
""fullscreenenter"",""5"",""14899""
","
","
","""event"",""trial"",""time""
""fullscreenenter"",""5"",""14899""
","
","404.5","","48","","","3000","1","","","images/earth.jpg","images/rocket1","images/rocket2","null","images/rocket1","","1","real","null","2","","",""
"d3-animate-choice","151","487828","0.0-76.0-1.5","900","655","10","Female","false","true","false","false","""event"",""trial"",""time""
""fullscreenenter"",""5"",""14899""
","
","
","""event"",""trial"",""time""
""fullscreenenter"",""5"",""14899""
","
","339.79999999701977","","49","","","3000","1","","","images/redplanet1.jpg","images/alien2","images/alien1","images/rocket1","images/alien1","images/t.png","2","real","true","1","common","1","2022-02-11 04:39:55.420"
"two-step-fixation","152","488833","0.0-76.0-2.5","900","655","10","Female","false","true","false","false","""event"",""trial"",""time""
""fullscreenenter"",""5"",""14899""
","
","
","""event"",""trial"",""time""
""fullscreenenter"",""5"",""14899""
","
","","images/earth.jpg","","","","","","","","","","","","","","fixation","","","","","",""
"d3-animate-choice","153","491127","0.0-76.0-0.6","900","655","10","Female","false","true","false","false","""event"",""trial"",""time""
""fullscreenenter"",""5"",""14899""
","
","
","""event"",""trial"",""time""
""fullscreenenter"",""5"",""14899""
","
","288.90000000596046","","48","","","3000","1","","","images/earth.jpg","images/rocket1","images/rocket2","null","images/rocket1","","1","real","null","2","","",""
"d3-animate-choice","154","493434","0.0-76.0-1.6","900","655","10","Female","false","true","false","false","""event"",""trial"",""time""
""fullscreenenter"",""5"",""14899""
","
","
","""event"",""trial"",""time""
""fullscreenenter"",""5"",""14899""
","
","301.29999999701977","","49","","","3000","1","","","images/redplanet1.jpg","images/alien2","images/alien1","images/rocket1","images/alien1","images/t.png","2","real","true","1","common","1","2022-02-11 04:40:01.026"
"two-step-fixation","155","494440","0.0-76.0-2.6","900","655","10","Female","false","true","false","false","""event"",""trial"",""time""
""fullscreenenter"",""5"",""14899""
","
","
","""event"",""trial"",""time""
""fullscreenenter"",""5"",""14899""
","
","","images/earth.jpg","","","","","","","","","","","","","","fixation","","","","","",""
"d3-animate-choice","156","496848","0.0-76.0-0.7","900","655","10","Female","false","true","false","false","""event"",""trial"",""time""
""fullscreenenter"",""5"",""14899""
","
","
","""event"",""trial"",""time""
""fullscreenenter"",""5"",""14899""
","
","398.70000000298023","","48","","","3000","1","","","images/earth.jpg","images/rocket1","images/rocket2","null","images/rocket1","","1","real","null","2","","",""
"d3-animate-choice","157","499392","0.0-76.0-1.7","900","655","10","Female","false","true","false","false","""event"",""trial"",""time""
""fullscreenenter"",""5"",""14899""
","
","
","""event"",""trial"",""time""
""fullscreenenter"",""5"",""14899""
","
","539.9000000059605","","49","","","3000","1","","","images/redplanet1.jpg","images/alien2","images/alien1","images/rocket1","images/alien1","images/nothing.png","2","real","true","1","common","0","2022-02-11 04:40:06.985"
"two-step-fixation","158","500398","0.0-76.0-2.7","900","655","10","Female","false","true","false","false","""event"",""trial"",""time""
""fullscreenenter"",""5"",""14899""
","
","
","""event"",""trial"",""time""
""fullscreenenter"",""5"",""14899""
","
","","images/earth.jpg","","","","","","","","","","","","","","fixation","","","","","",""
"d3-animate-choice","159","503066","0.0-76.0-0.8","900","655","10","Female","false","true","false","false","""event"",""trial"",""time""
""fullscreenenter"",""5"",""14899""
","
","
","""event"",""trial"",""time""
""fullscreenenter"",""5"",""14899""
","
","662.2000000029802","","49","","","3000","1","","","images/earth.jpg","images/rocket1","images/rocket2","null","images/rocket2","","1","real","null","1","","",""
"d3-animate-choice","160","505608","0.0-76.0-1.8","900","655","10","Female","false","true","false","false","""event"",""trial"",""time""
""fullscreenenter"",""5"",""14899""
","
","
","""event"",""trial"",""time""
""fullscreenenter"",""5"",""14899""
","
","538.9000000059605","","48","","","3000","1","","","images/purpleplanet.jpg","images/alien4","images/alien3","images/rocket2","images/alien4","images/t.png","2","real","true","2","common","1","2022-02-11 04:40:13.200"
"two-step-fixation","161","506614","0.0-76.0-2.8","900","655","10","Female","false","true","false","false","""event"",""trial"",""time""
""fullscreenenter"",""5"",""14899""
","
","
","""event"",""trial"",""time""
""fullscreenenter"",""5"",""14899""
","
","","images/earth.jpg","","","","","","","","","","","","","","fixation","","","","","",""
"d3-animate-choice","162","508906","0.0-76.0-0.9","900","655","10","Female","false","true","false","false","""event"",""trial"",""time""
""fullscreenenter"",""5"",""14899""
","
","
","""event"",""trial"",""time""
""fullscreenenter"",""5"",""14899""
","
","284.8999999910593","","49","","","3000","1","","","images/earth.jpg","images/rocket1","images/rocket2","null","images/rocket2","","1","real","null","1","","",""
"d3-animate-choice","163","511350","0.0-76.0-1.9","900","655","10","Female","false","true","false","false","""event"",""trial"",""time""
""fullscreenenter"",""5"",""14899""
","
","
","""event"",""trial"",""time""
""fullscreenenter"",""5"",""14899""
","
","438.09999999403954","","48","","","3000","1","","","images/purpleplanet.jpg","images/alien4","images/alien3","images/rocket2","images/alien4","images/t.png","2","real","true","2","common","1","2022-02-11 04:40:18.942"
"two-step-fixation","164","512357","0.0-76.0-2.9","900","655","10","Female","false","true","false","false","""event"",""trial"",""time""
""fullscreenenter"",""5"",""14899""
","
","
","""event"",""trial"",""time""
""fullscreenenter"",""5"",""14899""
","
","","images/earth.jpg","","","","","","","","","","","","","","fixation","","","","","",""
"d3-animate-choice","165","514799","0.0-76.0-0.10","900","655","10","Female","false","true","false","false","""event"",""trial"",""time""
""fullscreenenter"",""5"",""14899""
","
","
","""event"",""trial"",""time""
""fullscreenenter"",""5"",""14899""
","
","436.70000000298023","","49","","","3000","1","","","images/earth.jpg","images/rocket1","images/rocket2","null","images/rocket2","","1","real","null","1","","",""
"d3-animate-choice","166","516963","0.0-76.0-1.10","900","655","10","Female","false","true","false","false","""event"",""trial"",""time""
""fullscreenenter"",""5"",""14899""
","
","
","""event"",""trial"",""time""
""fullscreenenter"",""5"",""14899""
","
","157","","48","","","3000","1","","","images/purpleplanet.jpg","images/alien4","images/alien3","images/rocket2","images/alien4","images/t.png","2","real","true","2","common","1","2022-02-11 04:40:24.555"
"two-step-fixation","167","517968","0.0-76.0-2.10","900","655","10","Female","false","true","false","false","""event"",""trial"",""time""
""fullscreenenter"",""5"",""14899""
","
","
","""event"",""trial"",""time""
""fullscreenenter"",""5"",""14899""
","
","","images/earth.jpg","","","","","","","","","","","","","","fixation","","","","","",""
"d3-animate-choice","168","520375","0.0-76.0-0.11","900","655","10","Female","false","true","false","false","""event"",""trial"",""time""
""fullscreenenter"",""5"",""14899""
","
","
","""event"",""trial"",""time""
""fullscreenenter"",""5"",""14899""
","
","399.29999999701977","","49","","","3000","1","","","images/earth.jpg","images/rocket1","images/rocket2","null","images/rocket2","","1","real","null","1","","",""
"d3-animate-choice","169","522867","0.0-76.0-1.11","900","655","10","Female","false","true","false","false","""event"",""trial"",""time""
""fullscreenenter"",""5"",""14899""
","
","
","""event"",""trial"",""time""
""fullscreenenter"",""5"",""14899""
","
","484.8999999910593","","48","","","3000","1","","","images/redplanet1.jpg","images/alien2","images/alien1","images/rocket2","images/alien2","images/t.png","2","real","false","2","rare","1","2022-02-11 04:40:30.459"
"two-step-fixation","170","523873","0.0-76.0-2.11","900","655","10","Female","false","true","false","false","""event"",""trial"",""time""
""fullscreenenter"",""5"",""14899""
","
","
","""event"",""trial"",""time""
""fullscreenenter"",""5"",""14899""
","
","","images/earth.jpg","","","","","","","","","","","","","","fixation","","","","","",""
"d3-animate-choice","171","526225","0.0-76.0-0.12","900","655","10","Female","false","true","false","false","""event"",""trial"",""time""
""fullscreenenter"",""5"",""14899""
","
","
","""event"",""trial"",""time""
""fullscreenenter"",""5"",""14899""
","
","344.90000000596046","","49","","","3000","1","","","images/earth.jpg","images/rocket1","images/rocket2","null","images/rocket2","","1","real","null","1","","",""
"d3-animate-choice","172","528671","0.0-76.0-1.12","900","655","10","Female","false","true","false","false","""event"",""trial"",""time""
""fullscreenenter"",""5"",""14899""
","
","
","""event"",""trial"",""time""
""fullscreenenter"",""5"",""14899""
","
","440","","48","","","3000","1","","","images/redplanet1.jpg","images/alien2","images/alien1","images/rocket2","images/alien2","images/nothing.png","2","real","false","2","rare","0","2022-02-11 04:40:36.263"
"two-step-fixation","173","529677","0.0-76.0-2.12","900","655","10","Female","false","true","false","false","""event"",""trial"",""time""
""fullscreenenter"",""5"",""14899""
","
","
","""event"",""trial"",""time""
""fullscreenenter"",""5"",""14899""
","
","","images/earth.jpg","","","","","","","","","","","","","","fixation","","","","","",""
"d3-animate-choice","174","532074","0.0-76.0-0.13","900","655","10","Female","false","true","false","false","""event"",""trial"",""time""
""fullscreenenter"",""5"",""14899""
","
","
","""event"",""trial"",""time""
""fullscreenenter"",""5"",""14899""
","
","391.29999999701977","","48","","","3000","1","","","images/earth.jpg","images/rocket1","images/rocket2","null","images/rocket1","","1","real","null","2","","",""
"d3-animate-choice","175","534921","0.0-76.0-1.13","900","655","10","Female","false","true","false","false","""event"",""trial"",""time""
""fullscreenenter"",""5"",""14899""
","
","
","""event"",""trial"",""time""
""fullscreenenter"",""5"",""14899""
","
","840.8000000119209","","48","","","3000","1","","","images/redplanet1.jpg","images/alien2","images/alien1","images/rocket1","images/alien2","images/nothing.png","2","real","true","2","common","0","2022-02-11 04:40:42.513"
"two-step-fixation","176","535928","0.0-76.0-2.13","900","655","10","Female","false","true","false","false","""event"",""trial"",""time""
""fullscreenenter"",""5"",""14899""
","
","
","""event"",""trial"",""time""
""fullscreenenter"",""5"",""14899""
","
","","images/earth.jpg","","","","","","","","","","","","","","fixation","","","","","",""
"d3-animate-choice","177","538192","0.0-76.0-0.14","900","655","10","Female","false","true","false","false","""event"",""trial"",""time""
""fullscreenenter"",""5"",""14899""
","
","
","""event"",""trial"",""time""
""fullscreenenter"",""5"",""14899""
","
","258","","48","","","3000","1","","","images/earth.jpg","images/rocket1","images/rocket2","null","images/rocket1","","1","real","null","2","","",""
"d3-animate-choice","178","540495","0.0-76.0-1.14","900","655","10","Female","false","true","false","false","""event"",""trial"",""time""
""fullscreenenter"",""5"",""14899""
","
","
","""event"",""trial"",""time""
""fullscreenenter"",""5"",""14899""
","
","296.20000000298023","","48","","","3000","1","","","images/purpleplanet.jpg","images/alien4","images/alien3","images/rocket1","images/alien4","images/t.png","2","real","false","2","rare","1","2022-02-11 04:40:48.087"
"two-step-fixation","179","541501","0.0-76.0-2.14","900","655","10","Female","false","true","false","false","""event"",""trial"",""time""
""fullscreenenter"",""5"",""14899""
","
","
","""event"",""trial"",""time""
""fullscreenenter"",""5"",""14899""
","
","","images/earth.jpg","","","","","","","","","","","","","","fixation","","","","","",""
"d3-animate-choice","180","543874","0.0-76.0-0.15","900","655","10","Female","false","true","false","false","""event"",""trial"",""time""
""fullscreenenter"",""5"",""14899""
","
","
","""event"",""trial"",""time""
""fullscreenenter"",""5"",""14899""
","
","364","","48","","","3000","1","","","images/earth.jpg","images/rocket1","images/rocket2","null","images/rocket1","","1","real","null","2","","",""
"d3-animate-choice","181","546432","0.0-76.0-1.15","900","655","10","Female","false","true","false","false","""event"",""trial"",""time""
""fullscreenenter"",""5"",""14899""
","
","
","""event"",""trial"",""time""
""fullscreenenter"",""5"",""14899""
","
","553.3000000119209","","48","","","3000","1","","","images/redplanet1.jpg","images/alien2","images/alien1","images/rocket1","images/alien2","images/t.png","2","real","true","2","common","1","2022-02-11 04:40:54.024"
"two-step-fixation","182","547438","0.0-76.0-2.15","900","655","10","Female","false","true","false","false","""event"",""trial"",""time""
""fullscreenenter"",""5"",""14899""
","
","
","""event"",""trial"",""time""
""fullscreenenter"",""5"",""14899""
","
","","images/earth.jpg","","","","","","","","","","","","","","fixation","","","","","",""
"d3-animate-choice","183","549467","0.0-76.0-0.16","900","655","10","Female","false","true","false","false","""event"",""trial"",""time""
""fullscreenenter"",""5"",""14899""
","
","
","""event"",""trial"",""time""
""fullscreenenter"",""5"",""14899""
","
","23","","48","","","3000","1","1855.7999999970198","48","images/earth.jpg","images/rocket1","images/rocket2","null","images/rocket1","","1","real","null","2","","",""
"d3-animate-choice","184","552154","0.0-76.0-1.16","900","655","10","Female","false","true","false","false","""event"",""trial"",""time""
""fullscreenenter"",""5"",""14899""
","
","
","""event"",""trial"",""time""
""fullscreenenter"",""5"",""14899""
","
","680.5999999940395","","48","","","3000","1","","","images/purpleplanet.jpg","images/alien4","images/alien3","images/rocket1","images/alien4","images/t.png","2","real","false","2","rare","1","2022-02-11 04:40:59.746"
"two-step-fixation","185","553160","0.0-76.0-2.16","900","655","10","Female","false","true","false","false","""event"",""trial"",""time""
""fullscreenenter"",""5"",""14899""
","
","
","""event"",""trial"",""time""
""fullscreenenter"",""5"",""14899""
","
","","images/earth.jpg","","","","","","","","","","","","","","fixation","","","","","",""
"d3-animate-choice","186","555467","0.0-76.0-0.17","900","655","10","Female","false","true","false","false","""event"",""trial"",""time""
""fullscreenenter"",""5"",""14899""
","
","
","""event"",""trial"",""time""
""fullscreenenter"",""5"",""14899""
","
","300.79999999701977","","48","","","3000","1","","","images/earth.jpg","images/rocket1","images/rocket2","null","images/rocket1","","1","real","null","2","","",""
"d3-animate-choice","187","557847","0.0-76.0-1.17","900","655","10","Female","false","true","false","false","""event"",""trial"",""time""
""fullscreenenter"",""5"",""14899""
","
","
","""event"",""trial"",""time""
""fullscreenenter"",""5"",""14899""
","
","376","","48","","","3000","1","","","images/redplanet1.jpg","images/alien2","images/alien1","images/rocket1","images/alien2","images/nothing.png","2","real","true","2","common","0","2022-02-11 04:41:05.439"
"two-step-fixation","188","558853","0.0-76.0-2.17","900","655","10","Female","false","true","false","false","""event"",""trial"",""time""
""fullscreenenter"",""5"",""14899""
","
","
","""event"",""trial"",""time""
""fullscreenenter"",""5"",""14899""
","
","","images/earth.jpg","","","","","","","","","","","","","","fixation","","","","","",""
"d3-animate-choice","189","560892","0.0-76.0-0.18","900","655","10","Female","false","true","false","false","""event"",""trial"",""time""
""fullscreenenter"",""5"",""14899""
","
","
","""event"",""trial"",""time""
""fullscreenenter"",""5"",""14899""
","
","33","","49","","","3000","1","","","images/earth.jpg","images/rocket1","images/rocket2","null","images/rocket2","","1","real","null","1","","",""
"d3-animate-choice","190","563490","0.0-76.0-1.18","900","655","10","Female","false","true","false","false","""event"",""trial"",""time""
""fullscreenenter"",""5"",""14899""
","
","
","""event"",""trial"",""time""
""fullscreenenter"",""5"",""14899""
","
","592","","48","","","3000","1","","","images/redplanet1.jpg","images/alien2","images/alien1","images/rocket2","images/alien2","images/nothing.png","2","real","false","2","rare","0","2022-02-11 04:41:11.082"
"two-step-fixation","191","564497","0.0-76.0-2.18","900","655","10","Female","false","true","false","false","""event"",""trial"",""time""
""fullscreenenter"",""5"",""14899""
","
","
","""event"",""trial"",""time""
""fullscreenenter"",""5"",""14899""
","
","","images/earth.jpg","","","","","","","","","","","","","","fixation","","","","","",""
"d3-animate-choice","192","566868","0.0-76.0-0.19","900","655","10","Female","false","true","false","false","""event"",""trial"",""time""
""fullscreenenter"",""5"",""14899""
","
","
","""event"",""trial"",""time""
""fullscreenenter"",""5"",""14899""
","
","365.1000000089407","","49","","","3000","1","","","images/earth.jpg","images/rocket1","images/rocket2","null","images/rocket2","","1","real","null","1","","",""
"d3-animate-choice","193","569432","0.0-76.0-1.19","900","655","10","Female","false","true","false","false","""event"",""trial"",""time""
""fullscreenenter"",""5"",""14899""
","
","
","""event"",""trial"",""time""
""fullscreenenter"",""5"",""14899""
","
","558","","48","","","3000","1","","","images/purpleplanet.jpg","images/alien4","images/alien3","images/rocket2","images/alien4","images/t.png","2","real","true","2","common","1","2022-02-11 04:41:17.024"
"two-step-fixation","194","570438","0.0-76.0-2.19","900","655","10","Female","false","true","false","false","""event"",""trial"",""time""
""fullscreenenter"",""5"",""14899""
","
","
","""event"",""trial"",""time""
""fullscreenenter"",""5"",""14899""
","
","","images/earth.jpg","","","","","","","","","","","","","","fixation","","","","","",""
"d3-animate-choice","195","572807","0.0-76.0-0.20","900","655","10","Female","false","true","false","false","""event"",""trial"",""time""
""fullscreenenter"",""5"",""14899""
","
","
","""event"",""trial"",""time""
""fullscreenenter"",""5"",""14899""
","
","362.59999999403954","","49","","","3000","1","701.1999999880791,1773.5999999940395","48,48","images/earth.jpg","images/rocket1","images/rocket2","null","images/rocket2","","1","real","null","1","","",""
"d3-animate-choice","196","575299","0.0-76.0-1.20","900","655","10","Female","false","true","false","false","""event"",""trial"",""time""
""fullscreenenter"",""5"",""14899""
","
","
","""event"",""trial"",""time""
""fullscreenenter"",""5"",""14899""
","
","486.8999999910593","","48","","","3000","1","","","images/redplanet1.jpg","images/alien2","images/alien1","images/rocket2","images/alien2","images/nothing.png","2","real","false","2","rare","0","2022-02-11 04:41:22.892"
"two-step-fixation","197","576305","0.0-76.0-2.20","900","655","10","Female","false","true","false","false","""event"",""trial"",""time""
""fullscreenenter"",""5"",""14899""
","
","
","""event"",""trial"",""time""
""fullscreenenter"",""5"",""14899""
","
","","images/earth.jpg","","","","","","","","","","","","","","fixation","","","","","",""
"d3-animate-choice","198","579146","0.0-76.0-0.21","900","655","10","Female","false","true","false","false","""event"",""trial"",""time""
""fullscreenenter"",""5"",""14899""
","
","
","""event"",""trial"",""time""
""fullscreenenter"",""5"",""14899""
","
","835","","48","","","3000","1","","","images/earth.jpg","images/rocket1","images/rocket2","null","images/rocket1","","1","real","null","2","","",""
"d3-animate-choice","199","581768","0.0-76.0-1.21","900","655","10","Female","false","true","false","false","""event"",""trial"",""time""
""fullscreenenter"",""5"",""14899""
","
","
","""event"",""trial"",""time""
""fullscreenenter"",""5"",""14899""
","
","617.4000000059605","","48","","","3000","1","","","images/redplanet1.jpg","images/alien2","images/alien1","images/rocket1","images/alien2","images/t.png","2","real","true","2","common","1","2022-02-11 04:41:29.361"
"two-step-fixation","200","582771","0.0-76.0-2.21","900","655","10","Female","false","true","false","false","""event"",""trial"",""time""
""fullscreenenter"",""5"",""14899""
","
","
","""event"",""trial"",""time""
""fullscreenenter"",""5"",""14899""
","
","","images/earth.jpg","","","","","","","","","","","","","","fixation","","","","","",""
"d3-animate-choice","201","585167","0.0-76.0-0.22","900","655","10","Female","false","true","false","false","""event"",""trial"",""time""
""fullscreenenter"",""5"",""14899""
","
","
","""event"",""trial"",""time""
""fullscreenenter"",""5"",""14899""
","
","391","","48","","","3000","1","","","images/earth.jpg","images/rocket1","images/rocket2","null","images/rocket1","","1","real","null","2","","",""
"d3-animate-choice","202","587776","0.0-76.0-1.22","900","655","10","Female","false","true","false","false","""event"",""trial"",""time""
""fullscreenenter"",""5"",""14899""
","
","
","""event"",""trial"",""time""
""fullscreenenter"",""5"",""14899""
","
","604.0999999940395","","48","","","3000","1","","","images/redplanet1.jpg","images/alien2","images/alien1","images/rocket1","images/alien2","images/t.png","2","real","true","2","common","1","2022-02-11 04:41:35.368"
"two-step-fixation","203","588782","0.0-76.0-2.22","900","655","10","Female","false","true","false","false","""event"",""trial"",""time""
""fullscreenenter"",""5"",""14899""
","
","
","""event"",""trial"",""time""
""fullscreenenter"",""5"",""14899""
","
","","images/earth.jpg","","","","","","","","","","","","","","fixation","","","","","",""
"d3-animate-choice","204","591186","0.0-76.0-0.23","900","655","10","Female","false","true","false","false","""event"",""trial"",""time""
""fullscreenenter"",""5"",""14899""
","
","
","""event"",""trial"",""time""
""fullscreenenter"",""5"",""14899""
","
","399.20000000298023","","48","","","3000","1","","","images/earth.jpg","images/rocket1","images/rocket2","null","images/rocket1","","1","real","null","2","","",""
"d3-animate-choice","205","593542","0.0-76.0-1.23","900","655","10","Female","false","true","false","false","""event"",""trial"",""time""
""fullscreenenter"",""5"",""14899""
","
","
","""event"",""trial"",""time""
""fullscreenenter"",""5"",""14899""
","
","350.79999999701977","","48","","","3000","1","","","images/redplanet1.jpg","images/alien2","images/alien1","images/rocket1","images/alien2","images/t.png","2","real","true","2","common","1","2022-02-11 04:41:41.134"
"two-step-fixation","206","594548","0.0-76.0-2.23","900","655","10","Female","false","true","false","false","""event"",""trial"",""time""
""fullscreenenter"",""5"",""14899""
","
","
","""event"",""trial"",""time""
""fullscreenenter"",""5"",""14899""
","
","","images/earth.jpg","","","","","","","","","","","","","","fixation","","","","","",""
"d3-animate-choice","207","596877","0.0-76.0-0.24","900","655","10","Female","false","true","false","false","""event"",""trial"",""time""
""fullscreenenter"",""5"",""14899""
","
","
","""event"",""trial"",""time""
""fullscreenenter"",""5"",""14899""
","
","323.70000000298023","","48","","","3000","1","","","images/earth.jpg","images/rocket1","images/rocket2","null","images/rocket1","","1","real","null","2","","",""
"d3-animate-choice","208","599157","0.0-76.0-1.24","900","655","10","Female","false","true","false","false","""event"",""trial"",""time""
""fullscreenenter"",""5"",""14899""
","
","
","""event"",""trial"",""time""
""fullscreenenter"",""5"",""14899""
","
","274.8999999910593","","48","","","3000","1","","","images/redplanet1.jpg","images/alien2","images/alien1","images/rocket1","images/alien2","images/t.png","2","real","true","2","common","1","2022-02-11 04:41:46.749"
"two-step-fixation","209","600163","0.0-76.0-2.24","900","655","10","Female","false","true","false","false","""event"",""trial"",""time""
""fullscreenenter"",""5"",""14899""
","
","
","""event"",""trial"",""time""
""fullscreenenter"",""5"",""14899""
","
","","images/earth.jpg","","","","","","","","","","","","","","fixation","","","","","",""
"d3-animate-choice","210","602453","0.0-76.0-0.25","900","655","10","Female","false","true","false","false","""event"",""trial"",""time""
""fullscreenenter"",""5"",""14899""
","
","
","""event"",""trial"",""time""
""fullscreenenter"",""5"",""14899""
","
","284.3999999910593","","48","","","3000","1","","","images/earth.jpg","images/rocket1","images/rocket2","null","images/rocket1","","1","real","null","2","","",""
"d3-animate-choice","211","604958","0.0-76.0-1.25","900","655","10","Female","false","true","false","false","""event"",""trial"",""time""
""fullscreenenter"",""5"",""14899""
","
","
","""event"",""trial"",""time""
""fullscreenenter"",""5"",""14899""
","
","499.40000000596046","","48","","","3000","1","","","images/purpleplanet.jpg","images/alien4","images/alien3","images/rocket1","images/alien4","images/nothing.png","2","real","false","2","rare","0","2022-02-11 04:41:52.550"
"two-step-fixation","212","605964","0.0-76.0-2.25","900","655","10","Female","false","true","false","false","""event"",""trial"",""time""
""fullscreenenter"",""5"",""14899""
","
","
","""event"",""trial"",""time""
""fullscreenenter"",""5"",""14899""
","
","","images/earth.jpg","","","","","","","","","","","","","","fixation","","","","","",""
"d3-animate-choice","213","608311","0.0-76.0-0.26","900","655","10","Female","false","true","false","false","""event"",""trial"",""time""
""fullscreenenter"",""5"",""14899""
","
","
","""event"",""trial"",""time""
""fullscreenenter"",""5"",""14899""
","
","340","","49","","","3000","1","","","images/earth.jpg","images/rocket1","images/rocket2","null","images/rocket2","","1","real","null","1","","",""
"d3-animate-choice","214","610735","0.0-76.0-1.26","900","655","10","Female","false","true","false","false","""event"",""trial"",""time""
""fullscreenenter"",""5"",""14899""
","
","
","""event"",""trial"",""time""
""fullscreenenter"",""5"",""14899""
","
","418.19999998807907","","48","","","3000","1","","","images/purpleplanet.jpg","images/alien4","images/alien3","images/rocket2","images/alien4","images/t.png","2","real","true","2","common","1","2022-02-11 04:41:58.327"
"two-step-fixation","215","611741","0.0-76.0-2.26","900","655","10","Female","false","true","false","false","""event"",""trial"",""time""
""fullscreenenter"",""5"",""14899""
","
","
","""event"",""trial"",""time""
""fullscreenenter"",""5"",""14899""
","
","","images/earth.jpg","","","","","","","","","","","","","","fixation","","","","","",""
"d3-animate-choice","216","614024","0.0-76.0-0.27","900","655","10","Female","false","true","false","false","""event"",""trial"",""time""
""fullscreenenter"",""5"",""14899""
","
","
","""event"",""trial"",""time""
""fullscreenenter"",""5"",""14899""
","
","279","","49","","","3000","1","","","images/earth.jpg","images/rocket1","images/rocket2","null","images/rocket2","","1","real","null","1","","",""
"d3-animate-choice","217","616379","0.0-76.0-1.27","900","655","10","Female","false","true","false","false","""event"",""trial"",""time""
""fullscreenenter"",""5"",""14899""
","
","
","""event"",""trial"",""time""
""fullscreenenter"",""5"",""14899""
","
","352.20000000298023","","48","","","3000","1","","","images/redplanet1.jpg","images/alien2","images/alien1","images/rocket2","images/alien2","images/t.png","2","real","false","2","rare","1","2022-02-11 04:42:03.971"
"two-step-fixation","218","617384","0.0-76.0-2.27","900","655","10","Female","false","true","false","false","""event"",""trial"",""time""
""fullscreenenter"",""5"",""14899""
","
","
","""event"",""trial"",""time""
""fullscreenenter"",""5"",""14899""
","
","","images/earth.jpg","","","","","","","","","","","","","","fixation","","","","","",""
"d3-animate-choice","219","619694","0.0-76.0-0.28","900","655","10","Female","false","true","false","false","""event"",""trial"",""time""
""fullscreenenter"",""5"",""14899""
","
","
","""event"",""trial"",""time""
""fullscreenenter"",""5"",""14899""
","
","301.59999999403954","","49","","","3000","1","","","images/earth.jpg","images/rocket1","images/rocket2","null","images/rocket2","","1","real","null","1","","",""
"d3-animate-choice","220","622051","0.0-76.0-1.28","900","655","10","Female","false","true","false","false","""event"",""trial"",""time""
""fullscreenenter"",""5"",""14899""
","
","
","""event"",""trial"",""time""
""fullscreenenter"",""5"",""14899""
","
","351.59999999403954","","48","","","3000","1","","","images/purpleplanet.jpg","images/alien4","images/alien3","images/rocket2","images/alien4","images/t.png","2","real","true","2","common","1","2022-02-11 04:42:09.644"
"two-step-fixation","221","623057","0.0-76.0-2.28","900","655","10","Female","false","true","false","false","""event"",""trial"",""time""
""fullscreenenter"",""5"",""14899""
","
","
","""event"",""trial"",""time""
""fullscreenenter"",""5"",""14899""
","
","","images/earth.jpg","","","","","","","","","","","","","","fixation","","","","","",""
"d3-animate-choice","222","625549","0.0-76.0-0.29","900","655","10","Female","false","true","false","false","""event"",""trial"",""time""
""fullscreenenter"",""5"",""14899""
","
","
","""event"",""trial"",""time""
""fullscreenenter"",""5"",""14899""
","
","485.90000000596046","","49","","","3000","1","","","images/earth.jpg","images/rocket1","images/rocket2","null","images/rocket2","","1","real","null","1","","",""
"d3-animate-choice","223","627994","0.0-76.0-1.29","900","655","10","Female","false","true","false","false","""event"",""trial"",""time""
""fullscreenenter"",""5"",""14899""
","
","
","""event"",""trial"",""time""
""fullscreenenter"",""5"",""14899""
","
","439.59999999403954","","48","","","3000","1","","","images/redplanet1.jpg","images/alien2","images/alien1","images/rocket2","images/alien2","images/nothing.png","2","real","false","2","rare","0","2022-02-11 04:42:15.586"
"two-step-fixation","224","628999","0.0-76.0-2.29","900","655","10","Female","false","true","false","false","""event"",""trial"",""time""
""fullscreenenter"",""5"",""14899""
","
","
","""event"",""trial"",""time""
""fullscreenenter"",""5"",""14899""
","
","","images/earth.jpg","","","","","","","","","","","","","","fixation","","","","","",""
"d3-animate-choice","225","631323","0.0-76.0-0.30","900","655","10","Female","false","true","false","false","""event"",""trial"",""time""
""fullscreenenter"",""5"",""14899""
","
","
","""event"",""trial"",""time""
""fullscreenenter"",""5"",""14899""
","
","317.5","","48","","","3000","1","","","images/earth.jpg","images/rocket1","images/rocket2","null","images/rocket1","","1","real","null","2","","",""
"d3-animate-choice","226","633724","0.0-76.0-1.30","900","655","10","Female","false","true","false","false","""event"",""trial"",""time""
""fullscreenenter"",""5"",""14899""
","
","
","""event"",""trial"",""time""
""fullscreenenter"",""5"",""14899""
","
","398.19999998807907","","49","","","3000","1","","","images/purpleplanet.jpg","images/alien4","images/alien3","images/rocket1","images/alien3","images/nothing.png","2","real","false","1","rare","0","2022-02-11 04:42:21.316"
"two-step-fixation","227","634729","0.0-76.0-2.30","900","655","10","Female","false","true","false","false","""event"",""trial"",""time""
""fullscreenenter"",""5"",""14899""
","
","
","""event"",""trial"",""time""
""fullscreenenter"",""5"",""14899""
","
","","images/earth.jpg","","","","","","","","","","","","","","fixation","","","","","",""
"d3-animate-choice","228","637124","0.0-76.0-0.31","900","655","10","Female","false","true","false","false","""event"",""trial"",""time""
""fullscreenenter"",""5"",""14899""
","
","
","""event"",""trial"",""time""
""fullscreenenter"",""5"",""14899""
","
","390.5","","48","","","3000","1","2357.3999999910593","48","images/earth.jpg","images/rocket1","images/rocket2","null","images/rocket1","","1","real","null","2","","",""
"d3-animate-choice","229","639568","0.0-76.0-1.31","900","655","10","Female","false","true","false","false","""event"",""trial"",""time""
""fullscreenenter"",""5"",""14899""
","
","
","""event"",""trial"",""time""
""fullscreenenter"",""5"",""14899""
","
","438.79999999701977","","48","","","3000","1","","","images/redplanet1.jpg","images/alien2","images/alien1","images/rocket1","images/alien2","images/t.png","2","real","true","2","common","1","2022-02-11 04:42:27.161"
"two-step-fixation","230","640575","0.0-76.0-2.31","900","655","10","Female","false","true","false","false","""event"",""trial"",""time""
""fullscreenenter"",""5"",""14899""
","
","
","""event"",""trial"",""time""
""fullscreenenter"",""5"",""14899""
","
","","images/earth.jpg","","","","","","","","","","","","","","fixation","","","","","",""
"d3-animate-choice","231","642851","0.0-76.0-0.32","900","655","10","Female","false","true","false","false","""event"",""trial"",""time""
""fullscreenenter"",""5"",""14899""
","
","
","""event"",""trial"",""time""
""fullscreenenter"",""5"",""14899""
","
","270.5","","48","","","3000","1","","","images/earth.jpg","images/rocket1","images/rocket2","null","images/rocket1","","1","real","null","2","","",""
"d3-animate-choice","232","645233","0.0-76.0-1.32","900","655","10","Female","false","true","false","false","""event"",""trial"",""time""
""fullscreenenter"",""5"",""14899""
","
","
","""event"",""trial"",""time""
""fullscreenenter"",""5"",""14899""
","
","378.29999999701977","","48","","","3000","1","","","images/redplanet1.jpg","images/alien2","images/alien1","images/rocket1","images/alien2","images/t.png","2","real","true","2","common","1","2022-02-11 04:42:32.825"
"two-step-fixation","233","646238","0.0-76.0-2.32","900","655","10","Female","false","true","false","false","""event"",""trial"",""time""
""fullscreenenter"",""5"",""14899""
","
","
","""event"",""trial"",""time""
""fullscreenenter"",""5"",""14899""
","
","","images/earth.jpg","","","","","","","","","","","","","","fixation","","","","","",""
"d3-animate-choice","234","648497","0.0-76.0-0.33","900","655","10","Female","false","true","false","false","""event"",""trial"",""time""
""fullscreenenter"",""5"",""14899""
","
","
","""event"",""trial"",""time""
""fullscreenenter"",""5"",""14899""
","
","253.1000000089407","","48","","","3000","1","","","images/earth.jpg","images/rocket1","images/rocket2","null","images/rocket1","","1","real","null","2","","",""
"d3-animate-choice","235","650843","0.0-76.0-1.33","900","655","10","Female","false","true","false","false","""event"",""trial"",""time""
""fullscreenenter"",""5"",""14899""
","
","
","""event"",""trial"",""time""
""fullscreenenter"",""5"",""14899""
","
","339.5","","48","","","3000","1","646.6000000089407","48","images/purpleplanet.jpg","images/alien4","images/alien3","images/rocket1","images/alien4","images/t.png","2","real","false","2","rare","1","2022-02-11 04:42:38.435"
"two-step-fixation","236","651849","0.0-76.0-2.33","900","655","10","Female","false","true","false","false","""event"",""trial"",""time""
""fullscreenenter"",""5"",""14899""
","
","
","""event"",""trial"",""time""
""fullscreenenter"",""5"",""14899""
","
","","images/earth.jpg","","","","","","","","","","","","","","fixation","","","","","",""
"d3-animate-choice","237","654254","0.0-76.0-0.34","900","655","10","Female","false","true","false","false","""event"",""trial"",""time""
""fullscreenenter"",""5"",""14899""
","
","
","""event"",""trial"",""time""
""fullscreenenter"",""5"",""14899""
","
","400.59999999403954","","48","","","3000","1","","","images/earth.jpg","images/rocket1","images/rocket2","null","images/rocket1","","1","real","null","2","","",""
"d3-animate-choice","238","656576","0.0-76.0-1.34","900","655","10","Female","false","true","false","false","""event"",""trial"",""time""
""fullscreenenter"",""5"",""14899""
","
","
","""event"",""trial"",""time""
""fullscreenenter"",""5"",""14899""
","
","315.79999999701977","","48","","","3000","1","","","images/redplanet1.jpg","images/alien2","images/alien1","images/rocket1","images/alien2","images/t.png","2","real","true","2","common","1","2022-02-11 04:42:44.168"
"two-step-fixation","239","657582","0.0-76.0-2.34","900","655","10","Female","false","true","false","false","""event"",""trial"",""time""
""fullscreenenter"",""5"",""14899""
","
","
","""event"",""trial"",""time""
""fullscreenenter"",""5"",""14899""
","
","","images/earth.jpg","","","","","","","","","","","","","","fixation","","","","","",""
"d3-animate-choice","240","659858","0.0-76.0-0.35","900","655","10","Female","false","true","false","false","""event"",""trial"",""time""
""fullscreenenter"",""5"",""14899""
","
","
","""event"",""trial"",""time""
""fullscreenenter"",""5"",""14899""
","
","270.6000000089407","","48","","","3000","1","","","images/earth.jpg","images/rocket1","images/rocket2","null","images/rocket1","","1","real","null","2","","",""
"d3-animate-choice","241","662113","0.0-76.0-1.35","900","655","10","Female","false","true","false","false","""event"",""trial"",""time""
""fullscreenenter"",""5"",""14899""
","
","
","""event"",""trial"",""time""
""fullscreenenter"",""5"",""14899""
","
","251.3999999910593","","48","","","3000","1","","","images/redplanet1.jpg","images/alien2","images/alien1","images/rocket1","images/alien2","images/t.png","2","real","true","2","common","1","2022-02-11 04:42:49.705"
"two-step-fixation","242","663119","0.0-76.0-2.35","900","655","10","Female","false","true","false","false","""event"",""trial"",""time""
""fullscreenenter"",""5"",""14899""
","
","
","""event"",""trial"",""time""
""fullscreenenter"",""5"",""14899""
","
","","images/earth.jpg","","","","","","","","","","","","","","fixation","","","","","",""
"d3-animate-choice","243","665440","0.0-76.0-0.36","900","655","10","Female","false","true","false","false","""event"",""trial"",""time""
""fullscreenenter"",""5"",""14899""
","
","
","""event"",""trial"",""time""
""fullscreenenter"",""5"",""14899""
","
","314.90000000596046","","48","","","3000","1","","","images/earth.jpg","images/rocket1","images/rocket2","null","images/rocket1","","1","real","null","2","","",""
"d3-animate-choice","244","667788","0.0-76.0-1.36","900","655","10","Female","false","true","false","false","""event"",""trial"",""time""
""fullscreenenter"",""5"",""14899""
","
","
","""event"",""trial"",""time""
""fullscreenenter"",""5"",""14899""
","
","343","","48","","","3000","1","","","images/redplanet1.jpg","images/alien2","images/alien1","images/rocket1","images/alien2","images/t.png","2","real","true","2","common","1","2022-02-11 04:42:55.380"
"two-step-fixation","245","668794","0.0-76.0-2.36","900","655","10","Female","false","true","false","false","""event"",""trial"",""time""
""fullscreenenter"",""5"",""14899""
","
","
","""event"",""trial"",""time""
""fullscreenenter"",""5"",""14899""
","
","","images/earth.jpg","","","","","","","","","","","","","","fixation","","","","","",""
"d3-animate-choice","246","671044","0.0-76.0-0.37","900","655","10","Female","false","true","false","false","""event"",""trial"",""time""
