"trial_type","trial_index","time_elapsed","internal_node_id","participant_id","subject_id","age","gender","rocket_sides","red_planet_first_rocket","red_display_order","purple_display_order","interactions","blur_events","focus_events","fullscreenenter_events","fullscreenexit_events","rt","stimulus","key_press","button_pressed","success","duration","valid_pressed","rts","keys","planet_text","right_text","left_text","center_text","chosen_text","reward_text","trial_stage","practice_trial","transition_type","choice","transition","reward","timestamp"
"pavlovia","0","6","0.0-0.0","937","673","16","Female","false","true","true","true","""event"",""trial"",""time""
""focus"",""0"",""0""
","
","""event"",""trial"",""time""
""focus"",""0"",""0""
","
","
","","","","","","","","","","","","","","","","","","","","","",""
"html-keyboard-response","1","2269","0.0-1.0","937","673","16","Female","false","true","true","true","""event"",""trial"",""time""
""focus"",""0"",""0""
","
","""event"",""trial"",""time""
""focus"",""0"",""0""
","
","
","2260.899999999907","Welcome! Press the space bar to begin.","13","","","","","","","","","","","","","","","","","","",""
"audio-keyboard-response","2","7278","0.0-2.0","937","673","16","Female","false","true","true","true","""event"",""trial"",""time""
""focus"",""0"",""0""
","
","""event"",""trial"",""time""
""focus"",""0"",""0""
","
","
","5000","audio/beep_loop.wav","32","","","","","","","","","","","","","","","","","","",""
"audio-button-response","3","9587","0.0-3.0","937","673","16","Female","false","true","true","true","""event"",""trial"",""time""
""focus"",""0"",""0""
","
","""event"",""trial"",""time""
""focus"",""0"",""0""
","
","
","NaN","audio/fish.mp3","","1","","","","","","","","","","","","","","","","","",""
"audio-button-response","4","12181","0.0-4.0","937","673","16","Female","false","true","true","true","""event"",""trial"",""time""
""focus"",""0"",""0""
""fullscreenenter"",""5"",""15261""
","
","""event"",""trial"",""time""
""focus"",""0"",""0""
","""event"",""trial"",""time""
""fullscreenenter"",""5"",""15261""
","
","NaN","audio/tiger.mp3","","4","","","","","","","","","","","","","","","","","",""
"fullscreen","5","16216","0.0-5.0","937","673","16","Female","false","true","true","true","""event"",""trial"",""time""
""focus"",""0"",""0""
""fullscreenenter"",""5"",""15261""
","
","""event"",""trial"",""time""
""focus"",""0"",""0""
","""event"",""trial"",""time""
""fullscreenenter"",""5"",""15261""
","
","","","","","true","","","","","","","","","","","","","","","","",""
"d3-instructions","6","21088","0.0-6.0","937","673","16","Female","false","true","true","true","""event"",""trial"",""time""
""focus"",""0"",""0""
""fullscreenenter"",""5"",""15261""
","
","""event"",""trial"",""time""
""focus"",""0"",""0""
","""event"",""trial"",""time""
""fullscreenenter"",""5"",""15261""
","
","","","","","","","","","","","","","","","","","","","","","",""
"d3-instructions","7","23711","0.0-7.0","937","673","16","Female","false","true","true","true","""event"",""trial"",""time""
""focus"",""0"",""0""
""fullscreenenter"",""5"",""15261""
","
","""event"",""trial"",""time""
""focus"",""0"",""0""
","""event"",""trial"",""time""
""fullscreenenter"",""5"",""15261""
","
","","","","","","","","","","","","","","","","","","","","","",""
"d3-instructions","8","28651","0.0-8.0","937","673","16","Female","false","true","true","true","""event"",""trial"",""time""
""focus"",""0"",""0""
""fullscreenenter"",""5"",""15261""
","
","""event"",""trial"",""time""
""focus"",""0"",""0""
","""event"",""trial"",""time""
""fullscreenenter"",""5"",""15261""
","
","","","","","","","","","","","","","","","","","","","","","",""
"d3-instructions","9","29929","0.0-9.0","937","673","16","Female","false","true","true","true","""event"",""trial"",""time""
""focus"",""0"",""0""
""fullscreenenter"",""5"",""15261""
","
","""event"",""trial"",""time""
""focus"",""0"",""0""
","""event"",""trial"",""time""
""fullscreenenter"",""5"",""15261""
","
","","","","","","","","","","","","","","","","","","","","","",""
"d3-instructions","10","31141","0.0-10.0","937","673","16","Female","false","true","true","true","""event"",""trial"",""time""
""focus"",""0"",""0""
""fullscreenenter"",""5"",""15261""
","
","""event"",""trial"",""time""
""focus"",""0"",""0""
","""event"",""trial"",""time""
""fullscreenenter"",""5"",""15261""
","
","","","","","","","","","","","","","","","","","","","","","",""
"d3-animate-choice","11","34948","0.0-11.0","937","673","16","Female","false","true","true","true","""event"",""trial"",""time""
""focus"",""0"",""0""
""fullscreenenter"",""5"",""15261""
","
","""event"",""trial"",""time""
""focus"",""0"",""0""
","""event"",""trial"",""time""
""fullscreenenter"",""5"",""15261""
","
","1776.6999999999534","","49","","","3000","1","","","images/tutgreenplanet.jpg","images/tutalien1","images/tutalien2","null","images/tutalien2","","NA","practice","null","","","",""
"d3-animate-choice","12","37290","0.0-12.0","937","673","16","Female","false","true","true","true","""event"",""trial"",""time""
""focus"",""0"",""0""
""fullscreenenter"",""5"",""15261""
","
","""event"",""trial"",""time""
""focus"",""0"",""0""
","""event"",""trial"",""time""
""fullscreenenter"",""5"",""15261""
","
","333.70000000018626","","48","","","3000","1","2336.2000000001863","49","images/tutgreenplanet.jpg","images/tutalien1","images/tutalien2","null","images/tutalien1","","NA","practice","null","","","",""
"d3-animate-choice","13","40307","0.0-13.0","937","673","16","Female","false","true","true","true","""event"",""trial"",""time""
""focus"",""0"",""0""
""fullscreenenter"",""5"",""15261""
","
","""event"",""trial"",""time""
""focus"",""0"",""0""
","""event"",""trial"",""time""
""fullscreenenter"",""5"",""15261""
","
","993.6999999999534","","49","","","3000","1","","","images/tutgreenplanet.jpg","images/tutalien1","images/tutalien2","null","images/tutalien2","","NA","practice","null","","","",""
"d3-animate-choice","14","42987","0.0-14.0","937","673","16","Female","false","true","true","true","""event"",""trial"",""time""
""focus"",""0"",""0""
""fullscreenenter"",""5"",""15261""
","
","""event"",""trial"",""time""
""focus"",""0"",""0""
","""event"",""trial"",""time""
""fullscreenenter"",""5"",""15261""
","
","666.6000000000931","","48","","","3000","1","1657.6999999999534,2317","49,49","images/tutgreenplanet.jpg","images/tutalien1","images/tutalien2","null","images/tutalien1","","NA","practice","null","","","",""
"d3-instructions","15","44918","0.0-15.0","937","673","16","Female","false","true","true","true","""event"",""trial"",""time""
""focus"",""0"",""0""
""fullscreenenter"",""5"",""15261""
","
","""event"",""trial"",""time""
""focus"",""0"",""0""
","""event"",""trial"",""time""
""fullscreenenter"",""5"",""15261""
","
","","","","","","","","","","","","","","","","","","","","","",""
"d3-instructions","16","46188","0.0-16.0","937","673","16","Female","false","true","true","true","""event"",""trial"",""time""
""focus"",""0"",""0""
""fullscreenenter"",""5"",""15261""
","
","""event"",""trial"",""time""
""focus"",""0"",""0""
","""event"",""trial"",""time""
""fullscreenenter"",""5"",""15261""
","
","","","","","","","","","","","","","","","","","","","","","",""
"d3-instructions","17","47210","0.0-17.0","937","673","16","Female","false","true","true","true","""event"",""trial"",""time""
""focus"",""0"",""0""
""fullscreenenter"",""5"",""15261""
","
","""event"",""trial"",""time""
""focus"",""0"",""0""
","""event"",""trial"",""time""
""fullscreenenter"",""5"",""15261""
","
","","","","","","","","","","","","","","","","","","","","","",""
"d3-instructions","18","48289","0.0-18.0","937","673","16","Female","false","true","true","true","""event"",""trial"",""time""
""focus"",""0"",""0""
""fullscreenenter"",""5"",""15261""
","
","""event"",""trial"",""time""
""focus"",""0"",""0""
","""event"",""trial"",""time""
""fullscreenenter"",""5"",""15261""
","
","","","","","","","","","","","","","","","","","","","","","",""
"d3-instructions","19","49597","0.0-19.0","937","673","16","Female","false","true","true","true","""event"",""trial"",""time""
""focus"",""0"",""0""
""fullscreenenter"",""5"",""15261""
","
","""event"",""trial"",""time""
""focus"",""0"",""0""
","""event"",""trial"",""time""
""fullscreenenter"",""5"",""15261""
","
","","","","","","","","","","","","","","","","","","","","","",""
"d3-animate-choice","20","53131","0.0-20.0","937","673","16","Female","false","true","true","true","""event"",""trial"",""time""
""focus"",""0"",""0""
""fullscreenenter"",""5"",""15261""
","
","""event"",""trial"",""time""
""focus"",""0"",""0""
","""event"",""trial"",""time""
""fullscreenenter"",""5"",""15261""
","
","1515.3999999999069","","49","","","3000","1","","","images/tutyellowplanet.jpg","null","images/tutalien3","null","images/tutalien3","images/t.png","NA","practice","null","","","",""
"d3-animate-choice","21","56108","0.0-21.0","937","673","16","Female","false","true","true","true","""event"",""trial"",""time""
""focus"",""0"",""0""
""fullscreenenter"",""5"",""15261""
","
","""event"",""trial"",""time""
""focus"",""0"",""0""
","""event"",""trial"",""time""
""fullscreenenter"",""5"",""15261""
","
","962.9000000001397","","49","","","3000","1","","","images/tutyellowplanet.jpg","null","images/tutalien3","null","images/tutalien3","images/nothing.png","NA","practice","null","","","",""
"d3-animate-choice","22","58398","0.0-22.0","937","673","16","Female","false","true","true","true","""event"",""trial"",""time""
""focus"",""0"",""0""
""fullscreenenter"",""5"",""15261""
","
","""event"",""trial"",""time""
""focus"",""0"",""0""
","""event"",""trial"",""time""
""fullscreenenter"",""5"",""15261""
","
","278","","49","","","3000","1","1783.5999999998603,2216.399999999907","49,49","images/tutyellowplanet.jpg","null","images/tutalien3","null","images/tutalien3","images/t.png","NA","practice","null","","","",""
"d3-animate-choice","23","60767","0.0-23.0","937","673","16","Female","false","true","true","true","""event"",""trial"",""time""
""focus"",""0"",""0""
""fullscreenenter"",""5"",""15261""
","
","""event"",""trial"",""time""
""focus"",""0"",""0""
","""event"",""trial"",""time""
""fullscreenenter"",""5"",""15261""
","
","353.39999999990687","","49","","","3000","1","","","images/tutyellowplanet.jpg","null","images/tutalien3","null","images/tutalien3","images/t.png","NA","practice","null","","","",""
"d3-animate-choice","24","63037","0.0-24.0","937","673","16","Female","false","true","true","true","""event"",""trial"",""time""
""focus"",""0"",""0""
""fullscreenenter"",""5"",""15261""
","
","""event"",""trial"",""time""
""focus"",""0"",""0""
","""event"",""trial"",""time""
""fullscreenenter"",""5"",""15261""
","
","255.69999999995343","","49","","","3000","1","","","images/tutyellowplanet.jpg","null","images/tutalien3","null","images/tutalien3","images/t.png","NA","practice","null","","","",""
"d3-animate-choice","25","65127","0.0-25.0","937","673","16","Female","false","true","true","true","""event"",""trial"",""time""
""focus"",""0"",""0""
""fullscreenenter"",""5"",""15261""
","
","""event"",""trial"",""time""
""focus"",""0"",""0""
","""event"",""trial"",""time""
""fullscreenenter"",""5"",""15261""
","
","73.5","","49","","","3000","1","1741.5","49","images/tutyellowplanet.jpg","null","images/tutalien3","null","images/tutalien3","images/t.png","NA","practice","null","","","",""
"d3-animate-choice","26","67347","0.0-26.0","937","673","16","Female","false","true","true","true","""event"",""trial"",""time""
""focus"",""0"",""0""
""fullscreenenter"",""5"",""15261""
","
","""event"",""trial"",""time""
""focus"",""0"",""0""
","""event"",""trial"",""time""
""fullscreenenter"",""5"",""15261""
","
","204.89999999990687","","49","","","3000","1","","","images/tutyellowplanet.jpg","null","images/tutalien3","null","images/tutalien3","images/t.png","NA","practice","null","","","",""
"d3-animate-choice","27","69909","0.0-27.0","937","673","16","Female","false","true","true","true","""event"",""trial"",""time""
""focus"",""0"",""0""
""fullscreenenter"",""5"",""15261""
","
","""event"",""trial"",""time""
""focus"",""0"",""0""
","""event"",""trial"",""time""
""fullscreenenter"",""5"",""15261""
","
","542.1000000000931","","49","","","3000","1","","","images/tutyellowplanet.jpg","null","images/tutalien3","null","images/tutalien3","images/t.png","NA","practice","null","","","",""
"d3-animate-choice","28","72179","0.0-28.0","937","673","16","Female","false","true","true","true","""event"",""trial"",""time""
""focus"",""0"",""0""
""fullscreenenter"",""5"",""15261""
","
","""event"",""trial"",""time""
""focus"",""0"",""0""
","""event"",""trial"",""time""
""fullscreenenter"",""5"",""15261""
","
","248.60000000009313","","49","","","3000","1","","","images/tutyellowplanet.jpg","null","images/tutalien3","null","images/tutalien3","images/t.png","NA","practice","null","","","",""
"d3-animate-choice","29","74508","0.0-29.0","937","673","16","Female","false","true","true","true","""event"",""trial"",""time""
""focus"",""0"",""0""
""fullscreenenter"",""5"",""15261""
","
","""event"",""trial"",""time""
""focus"",""0"",""0""
","""event"",""trial"",""time""
""fullscreenenter"",""5"",""15261""
","
","309.89999999990687","","49","","","3000","1","","","images/tutyellowplanet.jpg","null","images/tutalien3","null","images/tutalien3","images/t.png","NA","practice","null","","","",""
"d3-instructions","30","78471","0.0-30.0","937","673","16","Female","false","true","true","true","""event"",""trial"",""time""
""focus"",""0"",""0""
""fullscreenenter"",""5"",""15261""
","
","""event"",""trial"",""time""
""focus"",""0"",""0""
","""event"",""trial"",""time""
""fullscreenenter"",""5"",""15261""
","
","","","","","","","","","","","","","","","","","","","","","",""
"d3-instructions","31","79403","0.0-31.0","937","673","16","Female","false","true","true","true","""event"",""trial"",""time""
""focus"",""0"",""0""
""fullscreenenter"",""5"",""15261""
","
","""event"",""trial"",""time""
""focus"",""0"",""0""
","""event"",""trial"",""time""
""fullscreenenter"",""5"",""15261""
","
","","","","","","","","","","","","","","","","","","","","","",""
"d3-instructions","32","80155","0.0-32.0","937","673","16","Female","false","true","true","true","""event"",""trial"",""time""
""focus"",""0"",""0""
""fullscreenenter"",""5"",""15261""
","
","""event"",""trial"",""time""
""focus"",""0"",""0""
","""event"",""trial"",""time""
""fullscreenenter"",""5"",""15261""
","
","","","","","","","","","","","","","","","","","","","","","",""
"d3-instructions","33","81153","0.0-33.0","937","673","16","Female","false","true","true","true","""event"",""trial"",""time""
""focus"",""0"",""0""
""fullscreenenter"",""5"",""15261""
","
","""event"",""trial"",""time""
""focus"",""0"",""0""
","""event"",""trial"",""time""
""fullscreenenter"",""5"",""15261""
","
","","","","","","","","","","","","","","","","","","","","","",""
"d3-animate-choice","34","84889","0.0-34.0","937","673","16","Female","false","true","true","true","""event"",""trial"",""time""
""focus"",""0"",""0""
""fullscreenenter"",""5"",""15261""
","
","""event"",""trial"",""time""
""focus"",""0"",""0""
","""event"",""trial"",""time""
""fullscreenenter"",""5"",""15261""
","
","1712.1999999999534","","49","","","3000","1","","","images/tutgreenplanet.jpg","images/tutalien1","images/tutalien2","null","images/tutalien2","images/t.png","NA","practice","null","","","",""
"d3-animate-choice","35","88878","0.0-35.0","937","673","16","Female","false","true","true","true","""event"",""trial"",""time""
""focus"",""0"",""0""
""fullscreenenter"",""5"",""15261""
","
","""event"",""trial"",""time""
""focus"",""0"",""0""
","""event"",""trial"",""time""
""fullscreenenter"",""5"",""15261""
","
","1976.8999999999069","","48","","","3000","1","","","images/tutgreenplanet.jpg","images/tutalien1","images/tutalien2","null","images/tutalien1","images/nothing.png","NA","practice","null","","","",""
"d3-animate-choice","36","91227","0.0-36.0","937","673","16","Female","false","true","true","true","""event"",""trial"",""time""
""focus"",""0"",""0""
""fullscreenenter"",""5"",""15261""
","
","""event"",""trial"",""time""
""focus"",""0"",""0""
","""event"",""trial"",""time""
""fullscreenenter"",""5"",""15261""
","
","338","","49","","","3000","1","","","images/tutgreenplanet.jpg","images/tutalien1","images/tutalien2","null","images/tutalien2","images/t.png","NA","practice","null","","","",""
"d3-animate-choice","37","93449","0.0-37.0","937","673","16","Female","false","true","true","true","""event"",""trial"",""time""
""focus"",""0"",""0""
""fullscreenenter"",""5"",""15261""
","
","""event"",""trial"",""time""
""focus"",""0"",""0""
","""event"",""trial"",""time""
""fullscreenenter"",""5"",""15261""
","
","212.10000000009313","","49","","","3000","1","","","images/tutgreenplanet.jpg","images/tutalien1","images/tutalien2","null","images/tutalien2","images/t.png","NA","practice","null","","","",""
"d3-animate-choice","38","95991","0.0-38.0","937","673","16","Female","false","true","true","true","""event"",""trial"",""time""
""focus"",""0"",""0""
""fullscreenenter"",""5"",""15261""
","
","""event"",""trial"",""time""
""focus"",""0"",""0""
","""event"",""trial"",""time""
""fullscreenenter"",""5"",""15261""
","
","512.6999999999534","","49","","","3000","1","","","images/tutgreenplanet.jpg","images/tutalien1","images/tutalien2","null","images/tutalien2","images/t.png","NA","practice","null","","","",""
"d3-animate-choice","39","98642","0.0-39.0","937","673","16","Female","false","true","true","true","""event"",""trial"",""time""
""focus"",""0"",""0""
""fullscreenenter"",""5"",""15261""
","
","""event"",""trial"",""time""
""focus"",""0"",""0""
","""event"",""trial"",""time""
""fullscreenenter"",""5"",""15261""
","
","643.5999999998603","","49","","","3000","1","","","images/tutgreenplanet.jpg","images/tutalien1","images/tutalien2","null","images/tutalien2","images/t.png","NA","practice","null","","","",""
"d3-animate-choice","40","100992","0.0-40.0","937","673","16","Female","false","true","true","true","""event"",""trial"",""time""
""focus"",""0"",""0""
""fullscreenenter"",""5"",""15261""
","
","""event"",""trial"",""time""
""focus"",""0"",""0""
","""event"",""trial"",""time""
""fullscreenenter"",""5"",""15261""
","
","344.0999999998603","","49","","","3000","1","","","images/tutgreenplanet.jpg","images/tutalien1","images/tutalien2","null","images/tutalien2","images/t.png","NA","practice","null","","","",""
"d3-animate-choice","41","103393","0.0-41.0","937","673","16","Female","false","true","true","true","""event"",""trial"",""time""
""focus"",""0"",""0""
""fullscreenenter"",""5"",""15261""
","
","""event"",""trial"",""time""
""focus"",""0"",""0""
","""event"",""trial"",""time""
""fullscreenenter"",""5"",""15261""
","
","396.30000000004657","","49","","","3000","1","","","images/tutgreenplanet.jpg","images/tutalien1","images/tutalien2","null","images/tutalien2","images/t.png","NA","practice","null","","","",""
"d3-animate-choice","42","105697","0.0-42.0","937","673","16","Female","false","true","true","true","""event"",""trial"",""time""
""focus"",""0"",""0""
""fullscreenenter"",""5"",""15261""
","
","""event"",""trial"",""time""
""focus"",""0"",""0""
","""event"",""trial"",""time""
""fullscreenenter"",""5"",""15261""
","
","287.5999999998603","","49","","","3000","1","","","images/tutgreenplanet.jpg","images/tutalien1","images/tutalien2","null","images/tutalien2","images/t.png","NA","practice","null","","","",""
"d3-animate-choice","43","108218","0.0-43.0","937","673","16","Female","false","true","true","true","""event"",""trial"",""time""
""focus"",""0"",""0""
""fullscreenenter"",""5"",""15261""
","
","""event"",""trial"",""time""
""focus"",""0"",""0""
","""event"",""trial"",""time""
""fullscreenenter"",""5"",""15261""
","
","506.89999999990687","","49","","","3000","1","","","images/tutgreenplanet.jpg","images/tutalien1","images/tutalien2","null","images/tutalien2","images/t.png","NA","practice","null","","","",""
"d3-instructions","44","110817","0.0-44.0","937","673","16","Female","false","true","true","true","""event"",""trial"",""time""
""focus"",""0"",""0""
""fullscreenenter"",""5"",""15261""
","
","""event"",""trial"",""time""
""focus"",""0"",""0""
","""event"",""trial"",""time""
""fullscreenenter"",""5"",""15261""
","
","","","","","","","","","","","","","","","","","","","","","",""
"d3-instructions","45","112350","0.0-45.0","937","673","16","Female","false","true","true","true","""event"",""trial"",""time""
""focus"",""0"",""0""
""fullscreenenter"",""5"",""15261""
","
","""event"",""trial"",""time""
""focus"",""0"",""0""
","""event"",""trial"",""time""
""fullscreenenter"",""5"",""15261""
","
","","","","","","","","","","","","","","","","","","","","","",""
"d3-instructions","46","115039","0.0-46.0","937","673","16","Female","false","true","true","true","""event"",""trial"",""time""
""focus"",""0"",""0""
""fullscreenenter"",""5"",""15261""
","
","""event"",""trial"",""time""
""focus"",""0"",""0""
","""event"",""trial"",""time""
""fullscreenenter"",""5"",""15261""
","
","","","","","","","","","","","","","","","","","","","","","",""
"d3-instructions","47","117923","0.0-47.0","937","673","16","Female","false","true","true","true","""event"",""trial"",""time""
""focus"",""0"",""0""
""fullscreenenter"",""5"",""15261""
","
","""event"",""trial"",""time""
""focus"",""0"",""0""
","""event"",""trial"",""time""
""fullscreenenter"",""5"",""15261""
","
","","","","","","","","","","","","","","","","","","","","","",""
"d3-instructions","48","119050","0.0-48.0","937","673","16","Female","false","true","true","true","""event"",""trial"",""time""
""focus"",""0"",""0""
""fullscreenenter"",""5"",""15261""
","
","""event"",""trial"",""time""
""focus"",""0"",""0""
","""event"",""trial"",""time""
""fullscreenenter"",""5"",""15261""
","
","","","","","","","","","","","","","","","","","","","","","",""
"d3-instructions","49","120253","0.0-49.0","937","673","16","Female","false","true","true","true","""event"",""trial"",""time""
""focus"",""0"",""0""
""fullscreenenter"",""5"",""15261""
","
","""event"",""trial"",""time""
""focus"",""0"",""0""
","""event"",""trial"",""time""
""fullscreenenter"",""5"",""15261""
","
","","","","","","","","","","","","","","","","","","","","","",""
"d3-instructions","50","122480","0.0-50.0","937","673","16","Female","false","true","true","true","""event"",""trial"",""time""
""focus"",""0"",""0""
""fullscreenenter"",""5"",""15261""
","
","""event"",""trial"",""time""
""focus"",""0"",""0""
","""event"",""trial"",""time""
""fullscreenenter"",""5"",""15261""
","
","","","","","","","","","","","","","","","","","","","","","",""
"d3-instructions","51","123689","0.0-51.0","937","673","16","Female","false","true","true","true","""event"",""trial"",""time""
""focus"",""0"",""0""
""fullscreenenter"",""5"",""15261""
","
","""event"",""trial"",""time""
""focus"",""0"",""0""
","""event"",""trial"",""time""
""fullscreenenter"",""5"",""15261""
","
","","","","","","","","","","","","","","","","","","","","","",""
"d3-instructions","52","124460","0.0-52.0","937","673","16","Female","false","true","true","true","""event"",""trial"",""time""
""focus"",""0"",""0""
""fullscreenenter"",""5"",""15261""
","
","""event"",""trial"",""time""
""focus"",""0"",""0""
","""event"",""trial"",""time""
""fullscreenenter"",""5"",""15261""
","
","","","","","","","","","","","","","","","","","","","","","",""
"d3-instructions","53","126213","0.0-53.0","937","673","16","Female","false","true","true","true","""event"",""trial"",""time""
""focus"",""0"",""0""
""fullscreenenter"",""5"",""15261""
","
","""event"",""trial"",""time""
""focus"",""0"",""0""
","""event"",""trial"",""time""
""fullscreenenter"",""5"",""15261""
","
","","","","","","","","","","","","","","","","","","","","","",""
"d3-instructions","54","127162","0.0-54.0","937","673","16","Female","false","true","true","true","""event"",""trial"",""time""
""focus"",""0"",""0""
""fullscreenenter"",""5"",""15261""
","
","""event"",""trial"",""time""
""focus"",""0"",""0""
","""event"",""trial"",""time""
""fullscreenenter"",""5"",""15261""
","
","","","","","","","","","","","","","","","","","","","","","",""
"d3-instructions","55","128048","0.0-55.0","937","673","16","Female","false","true","true","true","""event"",""trial"",""time""
""focus"",""0"",""0""
""fullscreenenter"",""5"",""15261""
","
","""event"",""trial"",""time""
""focus"",""0"",""0""
","""event"",""trial"",""time""
""fullscreenenter"",""5"",""15261""
","
","","","","","","","","","","","","","","","","","","","","","",""
"d3-instructions","56","128919","0.0-56.0","937","673","16","Female","false","true","true","true","""event"",""trial"",""time""
""focus"",""0"",""0""
""fullscreenenter"",""5"",""15261""
","
","""event"",""trial"",""time""
""focus"",""0"",""0""
","""event"",""trial"",""time""
""fullscreenenter"",""5"",""15261""
","
","","","","","","","","","","","","","","","","","","","","","",""
"d3-instructions","57","129736","0.0-57.0","937","673","16","Female","false","true","true","true","""event"",""trial"",""time""
""focus"",""0"",""0""
""fullscreenenter"",""5"",""15261""
","
","""event"",""trial"",""time""
""focus"",""0"",""0""
","""event"",""trial"",""time""
""fullscreenenter"",""5"",""15261""
","
","","","","","","","","","","","","","","","","","","","","","",""
"d3-instructions","58","130582","0.0-58.0","937","673","16","Female","false","true","true","true","""event"",""trial"",""time""
""focus"",""0"",""0""
""fullscreenenter"",""5"",""15261""
","
","""event"",""trial"",""time""
""focus"",""0"",""0""
","""event"",""trial"",""time""
""fullscreenenter"",""5"",""15261""
","
","","","","","","","","","","","","","","","","","","","","","",""
"d3-instructions","59","131325","0.0-59.0","937","673","16","Female","false","true","true","true","""event"",""trial"",""time""
""focus"",""0"",""0""
""fullscreenenter"",""5"",""15261""
","
","""event"",""trial"",""time""
""focus"",""0"",""0""
","""event"",""trial"",""time""
""fullscreenenter"",""5"",""15261""
","
","","","","","","","","","","","","","","","","","","","","","",""
"d3-instructions","60","132130","0.0-60.0","937","673","16","Female","false","true","true","true","""event"",""trial"",""time""
""focus"",""0"",""0""
""fullscreenenter"",""5"",""15261""
","
","""event"",""trial"",""time""
""focus"",""0"",""0""
","""event"",""trial"",""time""
""fullscreenenter"",""5"",""15261""
","
","","","","","","","","","","","","","","","","","","","","","",""
"d3-animate-choice","61","135118","0.0-61.0-0.0","937","673","16","Female","false","true","true","true","""event"",""trial"",""time""
""focus"",""0"",""0""
""fullscreenenter"",""5"",""15261""
","
","""event"",""trial"",""time""
""focus"",""0"",""0""
","""event"",""trial"",""time""
""fullscreenenter"",""5"",""15261""
","
","968.0999999998603","","49","","","3000","1","","","images/earth.jpg","images/tutrocket1","images/tutrocket2","null","images/tutrocket2","","1","practice","null","1","","",""
"d3-animate-choice","62","137422","0.0-61.0-1.0","937","673","16","Female","false","true","true","true","""event"",""trial"",""time""
""focus"",""0"",""0""
""fullscreenenter"",""5"",""15261""
","
","""event"",""trial"",""time""
""focus"",""0"",""0""
","""event"",""trial"",""time""
""fullscreenenter"",""5"",""15261""
","
","289.5","","48","","","3000","1","","","images/tutyellowplanet.jpg","images/tutalien4","images/tutalien3","images/tutrocket2","images/tutalien4","images/nothing.png","2","practice","true","2","common","0","2022-02-09 01:40:39.665"
"two-step-fixation","63","138439","0.0-61.0-2.0","937","673","16","Female","false","true","true","true","""event"",""trial"",""time""
""focus"",""0"",""0""
""fullscreenenter"",""5"",""15261""
","
","""event"",""trial"",""time""
""focus"",""0"",""0""
","""event"",""trial"",""time""
""fullscreenenter"",""5"",""15261""
","
","","images/earth.jpg","","","","","","","","","","","","","","fixation","","","","","",""
"d3-animate-choice","64","140618","0.0-61.0-0.1","937","673","16","Female","false","true","true","true","""event"",""trial"",""time""
""focus"",""0"",""0""
""fullscreenenter"",""5"",""15261""
","
","""event"",""trial"",""time""
""focus"",""0"",""0""
","""event"",""trial"",""time""
""fullscreenenter"",""5"",""15261""
","
","162.69999999995343","","49","","","3000","1","","","images/earth.jpg","images/tutrocket1","images/tutrocket2","null","images/tutrocket2","","1","practice","null","1","","",""
"d3-animate-choice","65","143188","0.0-61.0-1.1","937","673","16","Female","false","true","true","true","""event"",""trial"",""time""
""focus"",""0"",""0""
""fullscreenenter"",""5"",""15261""
","
","""event"",""trial"",""time""
""focus"",""0"",""0""
","""event"",""trial"",""time""
""fullscreenenter"",""5"",""15261""
","
","559.3000000000466","","49","","","3000","1","1477.8000000000466,2267.8000000000466","49,49","images/tutyellowplanet.jpg","images/tutalien4","images/tutalien3","images/tutrocket2","images/tutalien3","images/t.png","2","practice","true","1","common","1","2022-02-09 01:40:45.430"
"two-step-fixation","66","144199","0.0-61.0-2.1","937","673","16","Female","false","true","true","true","""event"",""trial"",""time""
""focus"",""0"",""0""
""fullscreenenter"",""5"",""15261""
","
","""event"",""trial"",""time""
""focus"",""0"",""0""
","""event"",""trial"",""time""
""fullscreenenter"",""5"",""15261""
","
","","images/earth.jpg","","","","","","","","","","","","","","fixation","","","","","",""
"d3-animate-choice","67","146939","0.0-61.0-0.2","937","673","16","Female","false","true","true","true","""event"",""trial"",""time""
""focus"",""0"",""0""
""fullscreenenter"",""5"",""15261""
","
","""event"",""trial"",""time""
""focus"",""0"",""0""
","""event"",""trial"",""time""
""fullscreenenter"",""5"",""15261""
","
","713.5","","48","","","3000","1","","","images/earth.jpg","images/tutrocket1","images/tutrocket2","null","images/tutrocket1","","1","practice","null","2","","",""
"d3-animate-choice","68","149898","0.0-61.0-1.2","937","673","16","Female","false","true","true","true","""event"",""trial"",""time""
""focus"",""0"",""0""
""fullscreenenter"",""5"",""15261""
","
","""event"",""trial"",""time""
""focus"",""0"",""0""
","""event"",""trial"",""time""
""fullscreenenter"",""5"",""15261""
","
","929.1999999999534","","49","","","3000","1","","","images/tutyellowplanet.jpg","images/tutalien4","images/tutalien3","images/tutrocket1","images/tutalien3","images/nothing.png","2","practice","false","1","rare","0","2022-02-09 01:40:52.140"
"two-step-fixation","69","150919","0.0-61.0-2.2","937","673","16","Female","false","true","true","true","""event"",""trial"",""time""
""focus"",""0"",""0""
""fullscreenenter"",""5"",""15261""
","
","""event"",""trial"",""time""
""focus"",""0"",""0""
","""event"",""trial"",""time""
""fullscreenenter"",""5"",""15261""
","
","","images/earth.jpg","","","","","","","","","","","","","","fixation","","","","","",""
"d3-animate-choice","70","153896","0.0-61.0-0.3","937","673","16","Female","false","true","true","true","""event"",""trial"",""time""
""focus"",""0"",""0""
""fullscreenenter"",""5"",""15261""
","
","""event"",""trial"",""time""
""focus"",""0"",""0""
","""event"",""trial"",""time""
""fullscreenenter"",""5"",""15261""
","
","962.9000000001397","","48","","","3000","1","","","images/earth.jpg","images/tutrocket1","images/tutrocket2","null","images/tutrocket1","","1","practice","null","2","","",""
"d3-animate-choice","71","156317","0.0-61.0-1.3","937","673","16","Female","false","true","true","true","""event"",""trial"",""time""
""focus"",""0"",""0""
""fullscreenenter"",""5"",""15261""
","
","""event"",""trial"",""time""
""focus"",""0"",""0""
","""event"",""trial"",""time""
""fullscreenenter"",""5"",""15261""
","
","410.30000000004657","","48","","","3000","1","","","images/tutgreenplanet.jpg","images/tutalien2","images/tutalien1","images/tutrocket1","images/tutalien2","images/nothing.png","2","practice","true","2","common","0","2022-02-09 01:40:58.559"
"two-step-fixation","72","157323","0.0-61.0-2.3","937","673","16","Female","false","true","true","true","""event"",""trial"",""time""
""focus"",""0"",""0""
""fullscreenenter"",""5"",""15261""
","
","""event"",""trial"",""time""
""focus"",""0"",""0""
","""event"",""trial"",""time""
""fullscreenenter"",""5"",""15261""
","
","","images/earth.jpg","","","","","","","","","","","","","","fixation","","","","","",""
"d3-animate-choice","73","159337","0.0-61.0-0.4","937","673","16","Female","false","true","true","true","""event"",""trial"",""time""
""focus"",""0"",""0""
""fullscreenenter"",""5"",""15261""
","
","""event"",""trial"",""time""
""focus"",""0"",""0""
","""event"",""trial"",""time""
""fullscreenenter"",""5"",""15261""
","
","0.39999999990686774","","49","","","3000","1","1245.5","49","images/earth.jpg","images/tutrocket1","images/tutrocket2","null","images/tutrocket2","","1","practice","null","1","","",""
"d3-animate-choice","74","161880","0.0-61.0-1.4","937","673","16","Female","false","true","true","true","""event"",""trial"",""time""
""focus"",""0"",""0""
""fullscreenenter"",""5"",""15261""
","
","""event"",""trial"",""time""
""focus"",""0"",""0""
","""event"",""trial"",""time""
""fullscreenenter"",""5"",""15261""
","
","534.7000000001863","","49","","","3000","1","","","images/tutgreenplanet.jpg","images/tutalien2","images/tutalien1","images/tutrocket2","images/tutalien1","images/nothing.png","2","practice","false","1","rare","0","2022-02-09 01:41:04.122"
"two-step-fixation","75","162890","0.0-61.0-2.4","937","673","16","Female","false","true","true","true","""event"",""trial"",""time""
""focus"",""0"",""0""
""fullscreenenter"",""5"",""15261""
","
","""event"",""trial"",""time""
""focus"",""0"",""0""
","""event"",""trial"",""time""
""fullscreenenter"",""5"",""15261""
","
","","images/earth.jpg","","","","","","","","","","","","","","fixation","","","","","",""
"d3-animate-choice","76","165202","0.0-61.0-0.5","937","673","16","Female","false","true","true","true","""event"",""trial"",""time""
""focus"",""0"",""0""
""fullscreenenter"",""5"",""15261""
","
","""event"",""trial"",""time""
""focus"",""0"",""0""
","""event"",""trial"",""time""
""fullscreenenter"",""5"",""15261""
","
","299.60000000009313","","49","","","3000","1","","","images/earth.jpg","images/tutrocket1","images/tutrocket2","null","images/tutrocket2","","1","practice","null","1","","",""
"d3-animate-choice","77","167544","0.0-61.0-1.5","937","673","16","Female","false","true","true","true","""event"",""trial"",""time""
""focus"",""0"",""0""
""fullscreenenter"",""5"",""15261""
","
","""event"",""trial"",""time""
""focus"",""0"",""0""
","""event"",""trial"",""time""
""fullscreenenter"",""5"",""15261""
","
","336.5","","49","","","3000","1","","","images/tutyellowplanet.jpg","images/tutalien4","images/tutalien3","images/tutrocket2","images/tutalien3","images/nothing.png","2","practice","true","1","common","0","2022-02-09 01:41:09.787"
"two-step-fixation","78","168553","0.0-61.0-2.5","937","673","16","Female","false","true","true","true","""event"",""trial"",""time""
""focus"",""0"",""0""
""fullscreenenter"",""5"",""15261""
","
","""event"",""trial"",""time""
""focus"",""0"",""0""
","""event"",""trial"",""time""
""fullscreenenter"",""5"",""15261""
","
","","images/earth.jpg","","","","","","","","","","","","","","fixation","","","","","",""
"d3-animate-choice","79","171057","0.0-61.0-0.6","937","673","16","Female","false","true","true","true","""event"",""trial"",""time""
""focus"",""0"",""0""
""fullscreenenter"",""5"",""15261""
","
","""event"",""trial"",""time""
""focus"",""0"",""0""
","""event"",""trial"",""time""
""fullscreenenter"",""5"",""15261""
","
","493","","48","","","3000","1","","","images/earth.jpg","images/tutrocket1","images/tutrocket2","null","images/tutrocket1","","1","practice","null","2","","",""
"d3-animate-choice","80","173615","0.0-61.0-1.6","937","673","16","Female","false","true","true","true","""event"",""trial"",""time""
""focus"",""0"",""0""
""fullscreenenter"",""5"",""15261""
","
","""event"",""trial"",""time""
""focus"",""0"",""0""
","""event"",""trial"",""time""
""fullscreenenter"",""5"",""15261""
","
","546.9000000001397","","48","","","3000","1","","","images/tutgreenplanet.jpg","images/tutalien2","images/tutalien1","images/tutrocket1","images/tutalien2","images/t.png","2","practice","true","2","common","1","2022-02-09 01:41:15.857"
"two-step-fixation","81","174630","0.0-61.0-2.6","937","673","16","Female","false","true","true","true","""event"",""trial"",""time""
""focus"",""0"",""0""
""fullscreenenter"",""5"",""15261""
","
","""event"",""trial"",""time""
""focus"",""0"",""0""
","""event"",""trial"",""time""
""fullscreenenter"",""5"",""15261""
","
","","images/earth.jpg","","","","","","","","","","","","","","fixation","","","","","",""
"d3-animate-choice","82","176969","0.0-61.0-0.7","937","673","16","Female","false","true","true","true","""event"",""trial"",""time""
""focus"",""0"",""0""
""fullscreenenter"",""5"",""15261""
","
","""event"",""trial"",""time""
""focus"",""0"",""0""
","""event"",""trial"",""time""
""fullscreenenter"",""5"",""15261""
","
","323.69999999995343","","48","","","3000","1","","","images/earth.jpg","images/tutrocket1","images/tutrocket2","null","images/tutrocket1","","1","practice","null","2","","",""
"d3-animate-choice","83","179465","0.0-61.0-1.7","937","673","16","Female","false","true","true","true","""event"",""trial"",""time""
""focus"",""0"",""0""
""fullscreenenter"",""5"",""15261""
","
","""event"",""trial"",""time""
""focus"",""0"",""0""
","""event"",""trial"",""time""
""fullscreenenter"",""5"",""15261""
","
","483.5","","48","","","3000","1","","","images/tutyellowplanet.jpg","images/tutalien4","images/tutalien3","images/tutrocket1","images/tutalien4","images/t.png","2","practice","false","2","rare","1","2022-02-09 01:41:21.707"
"two-step-fixation","84","180473","0.0-61.0-2.7","937","673","16","Female","false","true","true","true","""event"",""trial"",""time""
""focus"",""0"",""0""
""fullscreenenter"",""5"",""15261""
","
","""event"",""trial"",""time""
""focus"",""0"",""0""
","""event"",""trial"",""time""
""fullscreenenter"",""5"",""15261""
","
","","images/earth.jpg","","","","","","","","","","","","","","fixation","","","","","",""
"d3-animate-choice","85","182808","0.0-61.0-0.8","937","673","16","Female","false","true","true","true","""event"",""trial"",""time""
""focus"",""0"",""0""
""fullscreenenter"",""5"",""15261""
","
","""event"",""trial"",""time""
""focus"",""0"",""0""
","""event"",""trial"",""time""
""fullscreenenter"",""5"",""15261""
","
","317","","48","","","3000","1","","","images/earth.jpg","images/tutrocket1","images/tutrocket2","null","images/tutrocket1","","1","practice","null","2","","",""
"d3-animate-choice","86","185282","0.0-61.0-1.8","937","673","16","Female","false","true","true","true","""event"",""trial"",""time""
""focus"",""0"",""0""
""fullscreenenter"",""5"",""15261""
","
","""event"",""trial"",""time""
""focus"",""0"",""0""
","""event"",""trial"",""time""
""fullscreenenter"",""5"",""15261""
","
","464.69999999995343","","48","","","3000","1","","","images/tutyellowplanet.jpg","images/tutalien4","images/tutalien3","images/tutrocket1","images/tutalien4","images/t.png","2","practice","false","2","rare","1","2022-02-09 01:41:27.525"
"two-step-fixation","87","186290","0.0-61.0-2.8","937","673","16","Female","false","true","true","true","""event"",""trial"",""time""
""focus"",""0"",""0""
""fullscreenenter"",""5"",""15261""
","
","""event"",""trial"",""time""
""focus"",""0"",""0""
","""event"",""trial"",""time""
""fullscreenenter"",""5"",""15261""
","
","","images/earth.jpg","","","","","","","","","","","","","","fixation","","","","","",""
"d3-animate-choice","88","188872","0.0-61.0-0.9","937","673","16","Female","false","true","true","true","""event"",""trial"",""time""
""focus"",""0"",""0""
""fullscreenenter"",""5"",""15261""
","
","""event"",""trial"",""time""
""focus"",""0"",""0""
","""event"",""trial"",""time""
""fullscreenenter"",""5"",""15261""
","
","567.5","","48","","","3000","1","","","images/earth.jpg","images/tutrocket1","images/tutrocket2","null","images/tutrocket1","","1","practice","null","2","","",""
"d3-animate-choice","89","191404","0.0-61.0-1.9","937","673","16","Female","false","true","true","true","""event"",""trial"",""time""
""focus"",""0"",""0""
""fullscreenenter"",""5"",""15261""
","
","""event"",""trial"",""time""
""focus"",""0"",""0""
","""event"",""trial"",""time""
""fullscreenenter"",""5"",""15261""
","
","520.3000000000466","","48","","","3000","1","","","images/tutgreenplanet.jpg","images/tutalien2","images/tutalien1","images/tutrocket1","images/tutalien2","images/nothing.png","2","practice","true","2","common","0","2022-02-09 01:41:33.646"
"two-step-fixation","90","192412","0.0-61.0-2.9","937","673","16","Female","false","true","true","true","""event"",""trial"",""time""
""focus"",""0"",""0""
""fullscreenenter"",""5"",""15261""
","
","""event"",""trial"",""time""
""focus"",""0"",""0""
","""event"",""trial"",""time""
""fullscreenenter"",""5"",""15261""
","
","","images/earth.jpg","","","","","","","","","","","","","","fixation","","","","","",""
"d3-animate-choice","91","194919","0.0-61.0-0.10","937","673","16","Female","false","true","true","true","""event"",""trial"",""time""
""focus"",""0"",""0""
""fullscreenenter"",""5"",""15261""
","
","""event"",""trial"",""time""
""focus"",""0"",""0""
","""event"",""trial"",""time""
""fullscreenenter"",""5"",""15261""
","
","492.30000000004657","","48","","","3000","1","","","images/earth.jpg","images/tutrocket1","images/tutrocket2","null","images/tutrocket1","","1","practice","null","2","","",""
"d3-animate-choice","92","197363","0.0-61.0-1.10","937","673","16","Female","false","true","true","true","""event"",""trial"",""time""
""focus"",""0"",""0""
""fullscreenenter"",""5"",""15261""
","
","""event"",""trial"",""time""
""focus"",""0"",""0""
","""event"",""trial"",""time""
""fullscreenenter"",""5"",""15261""
","
","431.69999999995343","","48","","","3000","1","","","images/tutgreenplanet.jpg","images/tutalien2","images/tutalien1","images/tutrocket1","images/tutalien2","images/t.png","2","practice","true","2","common","1","2022-02-09 01:41:39.606"
"two-step-fixation","93","198371","0.0-61.0-2.10","937","673","16","Female","false","true","true","true","""event"",""trial"",""time""
""focus"",""0"",""0""
""fullscreenenter"",""5"",""15261""
","
","""event"",""trial"",""time""
""focus"",""0"",""0""
","""event"",""trial"",""time""
""fullscreenenter"",""5"",""15261""
","
","","images/earth.jpg","","","","","","","","","","","","","","fixation","","","","","",""
"d3-animate-choice","94","201176","0.0-61.0-0.11","937","673","16","Female","false","true","true","true","""event"",""trial"",""time""
""focus"",""0"",""0""
""fullscreenenter"",""5"",""15261""
","
","""event"",""trial"",""time""
""focus"",""0"",""0""
","""event"",""trial"",""time""
""fullscreenenter"",""5"",""15261""
","
","791.0999999998603","","48","","","3000","1","","","images/earth.jpg","images/tutrocket1","images/tutrocket2","null","images/tutrocket1","","1","practice","null","2","","",""
"d3-animate-choice","95","203659","0.0-61.0-1.11","937","673","16","Female","false","true","true","true","""event"",""trial"",""time""
""focus"",""0"",""0""
""fullscreenenter"",""5"",""15261""
","
","""event"",""trial"",""time""
""focus"",""0"",""0""
","""event"",""trial"",""time""
""fullscreenenter"",""5"",""15261""
","
","470.80000000004657","","48","","","3000","1","","","images/tutyellowplanet.jpg","images/tutalien4","images/tutalien3","images/tutrocket1","images/tutalien4","images/nothing.png","2","practice","false","2","rare","0","2022-02-09 01:41:45.902"
"two-step-fixation","96","204672","0.0-61.0-2.11","937","673","16","Female","false","true","true","true","""event"",""trial"",""time""
""focus"",""0"",""0""
""fullscreenenter"",""5"",""15261""
","
","""event"",""trial"",""time""
""focus"",""0"",""0""
","""event"",""trial"",""time""
""fullscreenenter"",""5"",""15261""
","
","","images/earth.jpg","","","","","","","","","","","","","","fixation","","","","","",""
"d3-animate-choice","97","207045","0.0-61.0-0.12","937","673","16","Female","false","true","true","true","""event"",""trial"",""time""
""focus"",""0"",""0""
""fullscreenenter"",""5"",""15261""
","
","""event"",""trial"",""time""
""focus"",""0"",""0""
","""event"",""trial"",""time""
""fullscreenenter"",""5"",""15261""
","
","361.19999999995343","","48","","","3000","1","","","images/earth.jpg","images/tutrocket1","images/tutrocket2","null","images/tutrocket1","","1","practice","null","2","","",""
"d3-animate-choice","98","209585","0.0-61.0-1.12","937","673","16","Female","false","true","true","true","""event"",""trial"",""time""
""focus"",""0"",""0""
""fullscreenenter"",""5"",""15261""
","
","""event"",""trial"",""time""
""focus"",""0"",""0""
","""event"",""trial"",""time""
""fullscreenenter"",""5"",""15261""
","
","532.9000000001397","","49","","","3000","1","","","images/tutgreenplanet.jpg","images/tutalien2","images/tutalien1","images/tutrocket1","images/tutalien1","images/t.png","2","practice","true","1","common","1","2022-02-09 01:41:51.828"
"two-step-fixation","99","210592","0.0-61.0-2.12","937","673","16","Female","false","true","true","true","""event"",""trial"",""time""
""focus"",""0"",""0""
""fullscreenenter"",""5"",""15261""
","
","""event"",""trial"",""time""
""focus"",""0"",""0""
","""event"",""trial"",""time""
""fullscreenenter"",""5"",""15261""
","
","","images/earth.jpg","","","","","","","","","","","","","","fixation","","","","","",""
"d3-animate-choice","100","212712","0.0-61.0-0.13","937","673","16","Female","false","true","true","true","""event"",""trial"",""time""
""focus"",""0"",""0""
""fullscreenenter"",""5"",""15261""
","
","""event"",""trial"",""time""
""focus"",""0"",""0""
","""event"",""trial"",""time""
""fullscreenenter"",""5"",""15261""
","
","103","","48","","","3000","1","","","images/earth.jpg","images/tutrocket1","images/tutrocket2","null","images/tutrocket1","","1","practice","null","2","","",""
"d3-animate-choice","101","215599","0.0-61.0-1.13","937","673","16","Female","false","true","true","true","""event"",""trial"",""time""
""focus"",""0"",""0""
""fullscreenenter"",""5"",""15261""
","
","""event"",""trial"",""time""
""focus"",""0"",""0""
","""event"",""trial"",""time""
""fullscreenenter"",""5"",""15261""
","
","872.7999999998137","","49","","","3000","1","2798.399999999907","49","images/tutyellowplanet.jpg","images/tutalien4","images/tutalien3","images/tutrocket1","images/tutalien3","images/t.png","2","practice","false","1","rare","1","2022-02-09 01:41:57.841"
"two-step-fixation","102","216610","0.0-61.0-2.13","937","673","16","Female","false","true","true","true","""event"",""trial"",""time""
""focus"",""0"",""0""
""fullscreenenter"",""5"",""15261""
","
","""event"",""trial"",""time""
""focus"",""0"",""0""
","""event"",""trial"",""time""
""fullscreenenter"",""5"",""15261""
","
","","images/earth.jpg","","","","","","","","","","","","","","fixation","","","","","",""
"d3-animate-choice","103","218803","0.0-61.0-0.14","937","673","16","Female","false","true","true","true","""event"",""trial"",""time""
""focus"",""0"",""0""
""fullscreenenter"",""5"",""15261""
","
","""event"",""trial"",""time""
""focus"",""0"",""0""
","""event"",""trial"",""time""
""fullscreenenter"",""5"",""15261""
","
","181.39999999990687","","48","","","3000","1","","","images/earth.jpg","images/tutrocket1","images/tutrocket2","null","images/tutrocket1","","1","practice","null","2","","",""
"d3-animate-choice","104","221764","0.0-61.0-1.14","937","673","16","Female","false","true","true","true","""event"",""trial"",""time""
""focus"",""0"",""0""
""fullscreenenter"",""5"",""15261""
","
","""event"",""trial"",""time""
""focus"",""0"",""0""
","""event"",""trial"",""time""
""fullscreenenter"",""5"",""15261""
","
","948.9000000001397","","49","","","3000","1","2468.600000000093,2507.8000000000466,2519.1999999999534","32,77,78","images/tutyellowplanet.jpg","images/tutalien4","images/tutalien3","images/tutrocket1","images/tutalien3","images/nothing.png","2","practice","false","1","rare","0","2022-02-09 01:42:04.006"
"two-step-fixation","105","222771","0.0-61.0-2.14","937","673","16","Female","false","true","true","true","""event"",""trial"",""time""
""focus"",""0"",""0""
""fullscreenenter"",""5"",""15261""
","
","""event"",""trial"",""time""
""focus"",""0"",""0""
","""event"",""trial"",""time""
""fullscreenenter"",""5"",""15261""
","
","","images/earth.jpg","","","","","","","","","","","","","","fixation","","","","","",""
"d3-animate-choice","106","225646","0.0-61.0-0.15","937","673","16","Female","false","true","true","true","""event"",""trial"",""time""
""focus"",""0"",""0""
""fullscreenenter"",""5"",""15261""
","
","""event"",""trial"",""time""
""focus"",""0"",""0""
","""event"",""trial"",""time""
""fullscreenenter"",""5"",""15261""
","
","862","","48","","","3000","1","","","images/earth.jpg","images/tutrocket1","images/tutrocket2","null","images/tutrocket1","","1","practice","null","2","","",""
"d3-animate-choice","107","228732","0.0-61.0-1.15","937","673","16","Female","false","true","true","true","""event"",""trial"",""time""
""focus"",""0"",""0""
""fullscreenenter"",""5"",""15261""
","
","""event"",""trial"",""time""
""focus"",""0"",""0""
","""event"",""trial"",""time""
""fullscreenenter"",""5"",""15261""
","
","1068.1000000000931","","49","","","3000","1","1375.8000000000466","49","images/tutyellowplanet.jpg","images/tutalien4","images/tutalien3","images/tutrocket1","images/tutalien3","images/t.png","2","practice","false","1","rare","1","2022-02-09 01:42:10.975"
"two-step-fixation","108","229740","0.0-61.0-2.15","937","673","16","Female","false","true","true","true","""event"",""trial"",""time""
""focus"",""0"",""0""
""fullscreenenter"",""5"",""15261""
","
","""event"",""trial"",""time""
""focus"",""0"",""0""
","""event"",""trial"",""time""
""fullscreenenter"",""5"",""15261""
","
","","images/earth.jpg","","","","","","","","","","","","","","fixation","","","","","",""
"d3-animate-choice","109","232173","0.0-61.0-0.16","937","673","16","Female","false","true","true","true","""event"",""trial"",""time""
""focus"",""0"",""0""
""fullscreenenter"",""5"",""15261""
","
","""event"",""trial"",""time""
""focus"",""0"",""0""
","""event"",""trial"",""time""
""fullscreenenter"",""5"",""15261""
","
","420.80000000004657","","49","","","3000","1","","","images/earth.jpg","images/tutrocket1","images/tutrocket2","null","images/tutrocket2","","1","practice","null","1","","",""
"d3-animate-choice","110","234705","0.0-61.0-1.16","937","673","16","Female","false","true","true","true","""event"",""trial"",""time""
""focus"",""0"",""0""
""fullscreenenter"",""5"",""15261""
","
","""event"",""trial"",""time""
""focus"",""0"",""0""
","""event"",""trial"",""time""
""fullscreenenter"",""5"",""15261""
","
","518.6999999999534","","49","","","3000","1","","","images/tutyellowplanet.jpg","images/tutalien4","images/tutalien3","images/tutrocket2","images/tutalien3","images/nothing.png","2","practice","true","1","common","0","2022-02-09 01:42:16.947"
"two-step-fixation","111","235713","0.0-61.0-2.16","937","673","16","Female","false","true","true","true","""event"",""trial"",""time""
""focus"",""0"",""0""
""fullscreenenter"",""5"",""15261""
","
","""event"",""trial"",""time""
""focus"",""0"",""0""
","""event"",""trial"",""time""
""fullscreenenter"",""5"",""15261""
","
","","images/earth.jpg","","","","","","","","","","","","","","fixation","","","","","",""
"d3-animate-choice","112","238253","0.0-61.0-0.17","937","673","16","Female","false","true","true","true","""event"",""trial"",""time""
""focus"",""0"",""0""
""fullscreenenter"",""5"",""15261""
","
","""event"",""trial"",""time""
""focus"",""0"",""0""
","""event"",""trial"",""time""
""fullscreenenter"",""5"",""15261""
","
","528.3999999999069","","48","","","3000","1","","","images/earth.jpg","images/tutrocket1","images/tutrocket2","null","images/tutrocket1","","1","practice","null","2","","",""
"d3-animate-choice","113","240937","0.0-61.0-1.17","937","673","16","Female","false","true","true","true","""event"",""trial"",""time""
""focus"",""0"",""0""
""fullscreenenter"",""5"",""15261""
","
","""event"",""trial"",""time""
""focus"",""0"",""0""
","""event"",""trial"",""time""
""fullscreenenter"",""5"",""15261""
","
","667.1999999999534","","48","","","3000","1","","","images/tutgreenplanet.jpg","images/tutalien2","images/tutalien1","images/tutrocket1","images/tutalien2","images/t.png","2","practice","true","2","common","1","2022-02-09 01:42:23.179"
"two-step-fixation","114","241952","0.0-61.0-2.17","937","673","16","Female","false","true","true","true","""event"",""trial"",""time""
""focus"",""0"",""0""
""fullscreenenter"",""5"",""15261""
","
","""event"",""trial"",""time""
""focus"",""0"",""0""
","""event"",""trial"",""time""
""fullscreenenter"",""5"",""15261""
","
","","images/earth.jpg","","","","","","","","","","","","","","fixation","","","","","",""
"d3-animate-choice","115","243995","0.0-61.0-0.18","937","673","16","Female","false","true","true","true","""event"",""trial"",""time""
""focus"",""0"",""0""
""fullscreenenter"",""5"",""15261""
","
","""event"",""trial"",""time""
""focus"",""0"",""0""
","""event"",""trial"",""time""
""fullscreenenter"",""5"",""15261""
","
","31","","48","","","3000","1","","","images/earth.jpg","images/tutrocket1","images/tutrocket2","null","images/tutrocket1","","1","practice","null","2","","",""
"d3-animate-choice","116","246787","0.0-61.0-1.18","937","673","16","Female","false","true","true","true","""event"",""trial"",""time""
""focus"",""0"",""0""
""fullscreenenter"",""5"",""15261""
","
","""event"",""trial"",""time""
""focus"",""0"",""0""
","""event"",""trial"",""time""
""fullscreenenter"",""5"",""15261""
","
","782.5999999998603","","49","","","3000","1","","","images/tutgreenplanet.jpg","images/tutalien2","images/tutalien1","images/tutrocket1","images/tutalien1","images/t.png","2","practice","true","1","common","1","2022-02-09 01:42:29.029"
"two-step-fixation","117","247797","0.0-61.0-2.18","937","673","16","Female","false","true","true","true","""event"",""trial"",""time""
""focus"",""0"",""0""
""fullscreenenter"",""5"",""15261""
","
","""event"",""trial"",""time""
""focus"",""0"",""0""
","""event"",""trial"",""time""
""fullscreenenter"",""5"",""15261""
","
","","images/earth.jpg","","","","","","","","","","","","","","fixation","","","","","",""
"d3-animate-choice","118","250335","0.0-61.0-0.19","937","673","16","Female","false","true","true","true","""event"",""trial"",""time""
""focus"",""0"",""0""
""fullscreenenter"",""5"",""15261""
","
","""event"",""trial"",""time""
""focus"",""0"",""0""
","""event"",""trial"",""time""
""fullscreenenter"",""5"",""15261""
","
","523.6000000000931","","49","","","3000","1","609","48","images/earth.jpg","images/tutrocket1","images/tutrocket2","null","images/tutrocket2","","1","practice","null","1","","",""
"d3-animate-choice","119","253074","0.0-61.0-1.19","937","673","16","Female","false","true","true","true","""event"",""trial"",""time""
""focus"",""0"",""0""
""fullscreenenter"",""5"",""15261""
","
","""event"",""trial"",""time""
""focus"",""0"",""0""
","""event"",""trial"",""time""
""fullscreenenter"",""5"",""15261""
","
","724.6999999999534","","48","","","3000","1","","","images/tutyellowplanet.jpg","images/tutalien4","images/tutalien3","images/tutrocket2","images/tutalien4","images/nothing.png","2","practice","true","2","common","0","2022-02-09 01:42:35.316"
"two-step-fixation","120","254082","0.0-61.0-2.19","937","673","16","Female","false","true","true","true","""event"",""trial"",""time""
""focus"",""0"",""0""
""fullscreenenter"",""5"",""15261""
","
","""event"",""trial"",""time""
""focus"",""0"",""0""
","""event"",""trial"",""time""
""fullscreenenter"",""5"",""15261""
","
","","images/earth.jpg","","","","","","","","","","","","","","fixation","","","","","",""
"d3-instructions","121","256900","0.0-62.0","937","673","16","Female","false","true","true","true","""event"",""trial"",""time""
""focus"",""0"",""0""
""fullscreenenter"",""5"",""15261""
","
","""event"",""trial"",""time""
""focus"",""0"",""0""
","""event"",""trial"",""time""
""fullscreenenter"",""5"",""15261""
","
","","","","","","","","","","","","","","","","","","","","","",""
"audio-keyboard-response","122","259210","0.0-63.0","937","673","16","Female","false","true","true","true","""event"",""trial"",""time""
""focus"",""0"",""0""
""fullscreenenter"",""5"",""15261""
","
","""event"",""trial"",""time""
""focus"",""0"",""0""
","""event"",""trial"",""time""
""fullscreenenter"",""5"",""15261""
","
","2309","audio/instructions/treasure_feedback.wav","32","","","","","","","","","","","","","","","","","","",""
"d3-instructions","123","260579","0.0-64.0","937","673","16","Female","false","true","true","true","""event"",""trial"",""time""
""focus"",""0"",""0""
""fullscreenenter"",""5"",""15261""
","
","""event"",""trial"",""time""
""focus"",""0"",""0""
","""event"",""trial"",""time""
""fullscreenenter"",""5"",""15261""
","
","","","","","","","","","","","","","","","","","","","","","",""
"d3-instructions","124","261790","0.0-65.0","937","673","16","Female","false","true","true","true","""event"",""trial"",""time""
""focus"",""0"",""0""
""fullscreenenter"",""5"",""15261""
","
","""event"",""trial"",""time""
""focus"",""0"",""0""
","""event"",""trial"",""time""
""fullscreenenter"",""5"",""15261""
","
","","","","","","","","","","","","","","","","","","","","","",""
"d3-instructions","125","264317","0.0-66.0","937","673","16","Female","false","true","true","true","""event"",""trial"",""time""
""focus"",""0"",""0""
""fullscreenenter"",""5"",""15261""
","
","""event"",""trial"",""time""
""focus"",""0"",""0""
","""event"",""trial"",""time""
""fullscreenenter"",""5"",""15261""
","
","","","","","","","","","","","","","","","","","","","","","",""
"d3-instructions","126","265497","0.0-67.0","937","673","16","Female","false","true","true","true","""event"",""trial"",""time""
""focus"",""0"",""0""
""fullscreenenter"",""5"",""15261""
","
","""event"",""trial"",""time""
""focus"",""0"",""0""
","""event"",""trial"",""time""
""fullscreenenter"",""5"",""15261""
","
","","","","","","","","","","","","","","","","","","","","","",""
"d3-instructions","127","267826","0.0-68.0","937","673","16","Female","false","true","true","true","""event"",""trial"",""time""
""focus"",""0"",""0""
""fullscreenenter"",""5"",""15261""
","
","""event"",""trial"",""time""
""focus"",""0"",""0""
","""event"",""trial"",""time""
""fullscreenenter"",""5"",""15261""
","
","","","","","","","","","","","","","","","","","","","","","",""
"instructions-quiz","128","269807","0.0-69.0","937","673","16","Female","false","true","true","true","""event"",""trial"",""time""
""focus"",""0"",""0""
""fullscreenenter"",""5"",""15261""
","
","""event"",""trial"",""time""
""focus"",""0"",""0""
","""event"",""trial"",""time""
""fullscreenenter"",""5"",""15261""
","
","1977.8999999999069","audio/quiz/Q1_Prompt.wav","","1","","","","","","","","","","","","","","","","","",""
"audio-keyboard-response","129","270311","0.0-70.0","937","673","16","Female","false","true","true","true","""event"",""trial"",""time""
""focus"",""0"",""0""
""fullscreenenter"",""5"",""15261""
","
","""event"",""trial"",""time""
""focus"",""0"",""0""
","""event"",""trial"",""time""
""fullscreenenter"",""5"",""15261""
","
","501","audio/quiz/Q1_Correct.wav","32","","","","","","","","","","","","","","","","","","",""
"instructions-quiz","130","272638","0.0-71.0","937","673","16","Female","false","true","true","true","""event"",""trial"",""time""
""focus"",""0"",""0""
""fullscreenenter"",""5"",""15261""
","
","""event"",""trial"",""time""
""focus"",""0"",""0""
","""event"",""trial"",""time""
""fullscreenenter"",""5"",""15261""
","
","2325.100000000093","audio/quiz/Q2_Prompt.wav","","0","","","","","","","","","","","","","","","","","",""
"audio-keyboard-response","131","272797","0.0-72.0","937","673","16","Female","false","true","true","true","""event"",""trial"",""time""
""focus"",""0"",""0""
""fullscreenenter"",""5"",""15261""
","
","""event"",""trial"",""time""
""focus"",""0"",""0""
","""event"",""trial"",""time""
""fullscreenenter"",""5"",""15261""
","
","160","audio/quiz/Q2_Correct.wav","32","","","","","","","","","","","","","","","","","","",""
"instructions-quiz","132","274605","0.0-73.0","937","673","16","Female","false","true","true","true","""event"",""trial"",""time""
""focus"",""0"",""0""
""fullscreenenter"",""5"",""15261""
","
","""event"",""trial"",""time""
""focus"",""0"",""0""
","""event"",""trial"",""time""
""fullscreenenter"",""5"",""15261""
","
","1805.6999999999534","audio/quiz/Q3_Prompt.wav","","1","","","","","","","","","","","","","","","","","",""
"audio-keyboard-response","133","274730","0.0-74.0","937","673","16","Female","false","true","true","true","""event"",""trial"",""time""
""focus"",""0"",""0""
""fullscreenenter"",""5"",""15261""
","
","""event"",""trial"",""time""
""focus"",""0"",""0""
","""event"",""trial"",""time""
""fullscreenenter"",""5"",""15261""
","
","120","audio/quiz/Q3_Correct.wav","32","","","","","","","","","","","","","","","","","","",""
"d3-instructions","134","277147","0.0-75.0","937","673","16","Female","false","true","true","true","""event"",""trial"",""time""
""focus"",""0"",""0""
""fullscreenenter"",""5"",""15261""
","
","""event"",""trial"",""time""
""focus"",""0"",""0""
","""event"",""trial"",""time""
""fullscreenenter"",""5"",""15261""
","
","","","","","","","","","","","","","","","","","","","","","",""
"d3-animate-choice","135","280288","0.0-76.0-0.0","937","673","16","Female","false","true","true","true","""event"",""trial"",""time""
""focus"",""0"",""0""
""fullscreenenter"",""5"",""15261""
","
","""event"",""trial"",""time""
""focus"",""0"",""0""
","""event"",""trial"",""time""
""fullscreenenter"",""5"",""15261""
","
","1135","","49","","","3000","1","","","images/earth.jpg","images/rocket1","images/rocket2","null","images/rocket2","","1","real","null","1","","",""
"d3-animate-choice","136","283196","0.0-76.0-1.0","937","673","16","Female","false","true","true","true","""event"",""trial"",""time""
""focus"",""0"",""0""
""fullscreenenter"",""5"",""15261""
","
","""event"",""trial"",""time""
""focus"",""0"",""0""
","""event"",""trial"",""time""
""fullscreenenter"",""5"",""15261""
","
","902.1999999999534","","49","","","3000","1","","","images/purpleplanet.jpg","images/alien4","images/alien3","images/rocket2","images/alien3","images/nothing.png","2","real","true","1","common","0","2022-02-09 01:43:05.438"
"two-step-fixation","137","284204","0.0-76.0-2.0","937","673","16","Female","false","true","true","true","""event"",""trial"",""time""
""focus"",""0"",""0""
""fullscreenenter"",""5"",""15261""
","
","""event"",""trial"",""time""
""focus"",""0"",""0""
","""event"",""trial"",""time""
""fullscreenenter"",""5"",""15261""
","
","","images/earth.jpg","","","","","","","","","","","","","","fixation","","","","","",""
"d3-animate-choice","138","286794","0.0-76.0-0.1","937","673","16","Female","false","true","true","true","""event"",""trial"",""time""
""focus"",""0"",""0""
""fullscreenenter"",""5"",""15261""
","
","""event"",""trial"",""time""
""focus"",""0"",""0""
","""event"",""trial"",""time""
""fullscreenenter"",""5"",""15261""
","
","582.7000000001863","","49","","","3000","1","","","images/earth.jpg","images/rocket1","images/rocket2","null","images/rocket2","","1","real","null","1","","",""
"d3-animate-choice","139","289175","0.0-76.0-1.1","937","673","16","Female","false","true","true","true","""event"",""trial"",""time""
""focus"",""0"",""0""
""fullscreenenter"",""5"",""15261""
","
","""event"",""trial"",""time""
""focus"",""0"",""0""
","""event"",""trial"",""time""
""fullscreenenter"",""5"",""15261""
","
","372.60000000009313","","48","","","3000","1","","","images/purpleplanet.jpg","images/alien4","images/alien3","images/rocket2","images/alien4","images/t.png","2","real","true","2","common","1","2022-02-09 01:43:11.417"
"two-step-fixation","140","290180","0.0-76.0-2.1","937","673","16","Female","false","true","true","true","""event"",""trial"",""time""
""focus"",""0"",""0""
""fullscreenenter"",""5"",""15261""
","
","""event"",""trial"",""time""
""focus"",""0"",""0""
","""event"",""trial"",""time""
""fullscreenenter"",""5"",""15261""
","
","","images/earth.jpg","","","","","","","","","","","","","","fixation","","","","","",""
"d3-animate-choice","141","293112","0.0-76.0-0.2","937","673","16","Female","false","true","true","true","""event"",""trial"",""time""
""focus"",""0"",""0""
""fullscreenenter"",""5"",""15261""
","
","""event"",""trial"",""time""
""focus"",""0"",""0""
","""event"",""trial"",""time""
""fullscreenenter"",""5"",""15261""
","
","922.8999999999069","","49","","","3000","1","","","images/earth.jpg","images/rocket1","images/rocket2","null","images/rocket2","","1","real","null","1","","",""
"d3-animate-choice","142","295624","0.0-76.0-1.2","937","673","16","Female","false","true","true","true","""event"",""trial"",""time""
""focus"",""0"",""0""
""fullscreenenter"",""5"",""15261""
","
","""event"",""trial"",""time""
""focus"",""0"",""0""
","""event"",""trial"",""time""
""fullscreenenter"",""5"",""15261""
","
","500.19999999995343","","48","","","3000","1","","","images/purpleplanet.jpg","images/alien4","images/alien3","images/rocket2","images/alien4","images/t.png","2","real","true","2","common","1","2022-02-09 01:43:17.867"
"two-step-fixation","143","296635","0.0-76.0-2.2","937","673","16","Female","false","true","true","true","""event"",""trial"",""time""
""focus"",""0"",""0""
""fullscreenenter"",""5"",""15261""
","
","""event"",""trial"",""time""
""focus"",""0"",""0""
","""event"",""trial"",""time""
""fullscreenenter"",""5"",""15261""
","
","","images/earth.jpg","","","","","","","","","","","","","","fixation","","","","","",""
"d3-animate-choice","144","299014","0.0-76.0-0.3","937","673","16","Female","false","true","true","true","""event"",""trial"",""time""
""focus"",""0"",""0""
""fullscreenenter"",""5"",""15261""
","
","""event"",""trial"",""time""
""focus"",""0"",""0""
","""event"",""trial"",""time""
""fullscreenenter"",""5"",""15261""
","
","361.80000000004657","","49","","","3000","1","","","images/earth.jpg","images/rocket1","images/rocket2","null","images/rocket2","","1","real","null","1","","",""
"d3-animate-choice","145","301527","0.0-76.0-1.3","937","673","16","Female","false","true","true","true","""event"",""trial"",""time""
""focus"",""0"",""0""
""fullscreenenter"",""5"",""15261""
","
","""event"",""trial"",""time""
""focus"",""0"",""0""
","""event"",""trial"",""time""
""fullscreenenter"",""5"",""15261""
","
","502.19999999995343","","48","","","3000","1","","","images/purpleplanet.jpg","images/alien4","images/alien3","images/rocket2","images/alien4","images/t.png","2","real","true","2","common","1","2022-02-09 01:43:23.769"
"two-step-fixation","146","302536","0.0-76.0-2.3","937","673","16","Female","false","true","true","true","""event"",""trial"",""time""
""focus"",""0"",""0""
""fullscreenenter"",""5"",""15261""
","
","""event"",""trial"",""time""
""focus"",""0"",""0""
","""event"",""trial"",""time""
""fullscreenenter"",""5"",""15261""
","
","","images/earth.jpg","","","","","","","","","","","","","","fixation","","","","","",""
"d3-animate-choice","147","304744","0.0-76.0-0.4","937","673","16","Female","false","true","true","true","""event"",""trial"",""time""
""focus"",""0"",""0""
""fullscreenenter"",""5"",""15261""
","
","""event"",""trial"",""time""
""focus"",""0"",""0""
","""event"",""trial"",""time""
""fullscreenenter"",""5"",""15261""
","
","196.5999999998603","","49","","","3000","1","","","images/earth.jpg","images/rocket1","images/rocket2","null","images/rocket2","","1","real","null","1","","",""
"d3-animate-choice","148","307242","0.0-76.0-1.4","937","673","16","Female","false","true","true","true","""event"",""trial"",""time""
""focus"",""0"",""0""
""fullscreenenter"",""5"",""15261""
","
","""event"",""trial"",""time""
""focus"",""0"",""0""
","""event"",""trial"",""time""
""fullscreenenter"",""5"",""15261""
","
","487.79999999981374","","48","","","3000","1","","","images/purpleplanet.jpg","images/alien4","images/alien3","images/rocket2","images/alien4","images/t.png","2","real","true","2","common","1","2022-02-09 01:43:29.484"
"two-step-fixation","149","308254","0.0-76.0-2.4","937","673","16","Female","false","true","true","true","""event"",""trial"",""time""
""focus"",""0"",""0""
""fullscreenenter"",""5"",""15261""
","
","""event"",""trial"",""time""
""focus"",""0"",""0""
","""event"",""trial"",""time""
""fullscreenenter"",""5"",""15261""
","
","","images/earth.jpg","","","","","","","","","","","","","","fixation","","","","","",""
"d3-animate-choice","150","310689","0.0-76.0-0.5","937","673","16","Female","false","true","true","true","""event"",""trial"",""time""
""focus"",""0"",""0""
""fullscreenenter"",""5"",""15261""
","
","""event"",""trial"",""time""
""focus"",""0"",""0""
","""event"",""trial"",""time""
""fullscreenenter"",""5"",""15261""
","
","426","","49","","","3000","1","","","images/earth.jpg","images/rocket1","images/rocket2","null","images/rocket2","","1","real","null","1","","",""
"d3-animate-choice","151","313132","0.0-76.0-1.5","937","673","16","Female","false","true","true","true","""event"",""trial"",""time""
""focus"",""0"",""0""
""fullscreenenter"",""5"",""15261""
","
","""event"",""trial"",""time""
""focus"",""0"",""0""
","""event"",""trial"",""time""
""fullscreenenter"",""5"",""15261""
","
","430.19999999995343","","48","","","3000","1","","","images/purpleplanet.jpg","images/alien4","images/alien3","images/rocket2","images/alien4","images/nothing.png","2","real","true","2","common","0","2022-02-09 01:43:35.374"
"two-step-fixation","152","314137","0.0-76.0-2.5","937","673","16","Female","false","true","true","true","""event"",""trial"",""time""
""focus"",""0"",""0""
""fullscreenenter"",""5"",""15261""
","
","""event"",""trial"",""time""
""focus"",""0"",""0""
","""event"",""trial"",""time""
""fullscreenenter"",""5"",""15261""
","
","","images/earth.jpg","","","","","","","","","","","","","","fixation","","","","","",""
"d3-animate-choice","153","316382","0.0-76.0-0.6","937","673","16","Female","false","true","true","true","""event"",""trial"",""time""
""focus"",""0"",""0""
""fullscreenenter"",""5"",""15261""
","
","""event"",""trial"",""time""
""focus"",""0"",""0""
","""event"",""trial"",""time""
""fullscreenenter"",""5"",""15261""
","
","234.69999999995343","","48","","","3000","1","","","images/earth.jpg","images/rocket1","images/rocket2","null","images/rocket1","","1","real","null","2","","",""
"d3-animate-choice","154","319487","0.0-76.0-1.6","937","673","16","Female","false","true","true","true","""event"",""trial"",""time""
""focus"",""0"",""0""
""fullscreenenter"",""5"",""15261""
","
","""event"",""trial"",""time""
""focus"",""0"",""0""
","""event"",""trial"",""time""
""fullscreenenter"",""5"",""15261""
","
","1092.1999999999534","","49","","","3000","1","","","images/redplanet1.jpg","images/alien2","images/alien1","images/rocket1","images/alien1","images/t.png","2","real","true","1","common","1","2022-02-09 01:43:41.730"
"two-step-fixation","155","320501","0.0-76.0-2.6","937","673","16","Female","false","true","true","true","""event"",""trial"",""time""
""focus"",""0"",""0""
""fullscreenenter"",""5"",""15261""
","
","""event"",""trial"",""time""
""focus"",""0"",""0""
","""event"",""trial"",""time""
""fullscreenenter"",""5"",""15261""
","
","","images/earth.jpg","","","","","","","","","","","","","","fixation","","","","","",""
"d3-animate-choice","156","322859","0.0-76.0-0.7","937","673","16","Female","false","true","true","true","""event"",""trial"",""time""
""focus"",""0"",""0""
""fullscreenenter"",""5"",""15261""
","
","""event"",""trial"",""time""
""focus"",""0"",""0""
","""event"",""trial"",""time""
""fullscreenenter"",""5"",""15261""
","
","344.5","","48","","","3000","1","1594.6999999999534","32","images/earth.jpg","images/rocket1","images/rocket2","null","images/rocket1","","1","real","null","2","","",""
"d3-animate-choice","157","325320","0.0-76.0-1.7","937","673","16","Female","false","true","true","true","""event"",""trial"",""time""
""focus"",""0"",""0""
""fullscreenenter"",""5"",""15261""
","
","""event"",""trial"",""time""
""focus"",""0"",""0""
","""event"",""trial"",""time""
""fullscreenenter"",""5"",""15261""
","
","449.69999999995343","","49","","","3000","1","","","images/purpleplanet.jpg","images/alien4","images/alien3","images/rocket1","images/alien3","images/t.png","2","real","false","1","rare","1","2022-02-09 01:43:47.562"
"two-step-fixation","158","326332","0.0-76.0-2.7","937","673","16","Female","false","true","true","true","""event"",""trial"",""time""
""focus"",""0"",""0""
""fullscreenenter"",""5"",""15261""
","
","""event"",""trial"",""time""
""focus"",""0"",""0""
","""event"",""trial"",""time""
""fullscreenenter"",""5"",""15261""
","
","","images/earth.jpg","","","","","","","","","","","","","","fixation","","","","","",""
"d3-animate-choice","159","328695","0.0-76.0-0.8","937","673","16","Female","false","true","true","true","""event"",""trial"",""time""
""focus"",""0"",""0""
""fullscreenenter"",""5"",""15261""
","
","""event"",""trial"",""time""
""focus"",""0"",""0""
","""event"",""trial"",""time""
""fullscreenenter"",""5"",""15261""
","
","354.10000000009313","","48","","","3000","1","","","images/earth.jpg","images/rocket1","images/rocket2","null","images/rocket1","","1","real","null","2","","",""
"d3-animate-choice","160","331719","0.0-76.0-1.8","937","673","16","Female","false","true","true","true","""event"",""trial"",""time""
""focus"",""0"",""0""
""fullscreenenter"",""5"",""15261""
","
","""event"",""trial"",""time""
""focus"",""0"",""0""
","""event"",""trial"",""time""
""fullscreenenter"",""5"",""15261""
","
","1013.5","","49","","","3000","1","","","images/redplanet1.jpg","images/alien2","images/alien1","images/rocket1","images/alien1","images/t.png","2","real","true","1","common","1","2022-02-09 01:43:53.961"
"two-step-fixation","161","332727","0.0-76.0-2.8","937","673","16","Female","false","true","true","true","""event"",""trial"",""time""
""focus"",""0"",""0""
""fullscreenenter"",""5"",""15261""
","
","""event"",""trial"",""time""
""focus"",""0"",""0""
","""event"",""trial"",""time""
""fullscreenenter"",""5"",""15261""
","
","","images/earth.jpg","","","","","","","","","","","","","","fixation","","","","","",""
"d3-animate-choice","162","334937","0.0-76.0-0.9","937","673","16","Female","false","true","true","true","""event"",""trial"",""time""
""focus"",""0"",""0""
""fullscreenenter"",""5"",""15261""
","
","""event"",""trial"",""time""
""focus"",""0"",""0""
","""event"",""trial"",""time""
""fullscreenenter"",""5"",""15261""
","
","201.69999999995343","","48","","","3000","1","","","images/earth.jpg","images/rocket1","images/rocket2","null","images/rocket1","","1","real","null","2","","",""
"d3-animate-choice","163","337308","0.0-76.0-1.9","937","673","16","Female","false","true","true","true","""event"",""trial"",""time""
""focus"",""0"",""0""
""fullscreenenter"",""5"",""15261""
","
","""event"",""trial"",""time""
""focus"",""0"",""0""
","""event"",""trial"",""time""
""fullscreenenter"",""5"",""15261""
","
","358.4000000001397","","49","","","3000","1","","","images/redplanet1.jpg","images/alien2","images/alien1","images/rocket1","images/alien1","images/nothing.png","2","real","true","1","common","0","2022-02-09 01:43:59.550"
"two-step-fixation","164","338319","0.0-76.0-2.9","937","673","16","Female","false","true","true","true","""event"",""trial"",""time""
""focus"",""0"",""0""
""fullscreenenter"",""5"",""15261""
","
","""event"",""trial"",""time""
""focus"",""0"",""0""
","""event"",""trial"",""time""
""fullscreenenter"",""5"",""15261""
","
","","images/earth.jpg","","","","","","","","","","","","","","fixation","","","","","",""
"d3-animate-choice","165","340594","0.0-76.0-0.10","937","673","16","Female","false","true","true","true","""event"",""trial"",""time""
""focus"",""0"",""0""
""fullscreenenter"",""5"",""15261""
","
","""event"",""trial"",""time""
""focus"",""0"",""0""
","""event"",""trial"",""time""
""fullscreenenter"",""5"",""15261""
","
","263.9000000001397","","48","","","3000","1","","","images/earth.jpg","images/rocket1","images/rocket2","null","images/rocket1","","1","real","null","2","","",""
"d3-animate-choice","166","343115","0.0-76.0-1.10","937","673","16","Female","false","true","true","true","""event"",""trial"",""time""
""focus"",""0"",""0""
""fullscreenenter"",""5"",""15261""
","
","""event"",""trial"",""time""
""focus"",""0"",""0""
","""event"",""trial"",""time""
""fullscreenenter"",""5"",""15261""
","
","505.30000000004657","","48","","","3000","1","","","images/redplanet1.jpg","images/alien2","images/alien1","images/rocket1","images/alien2","images/nothing.png","2","real","true","2","common","0","2022-02-09 01:44:05.357"
"two-step-fixation","167","344130","0.0-76.0-2.10","937","673","16","Female","false","true","true","true","""event"",""trial"",""time""
""focus"",""0"",""0""
""fullscreenenter"",""5"",""15261""
","
","""event"",""trial"",""time""
""focus"",""0"",""0""
","""event"",""trial"",""time""
""fullscreenenter"",""5"",""15261""
","
","","images/earth.jpg","","","","","","","","","","","","","","fixation","","","","","",""
"d3-animate-choice","168","346802","0.0-76.0-0.11","937","673","16","Female","false","true","true","true","""event"",""trial"",""time""
""focus"",""0"",""0""
""fullscreenenter"",""5"",""15261""
","
","""event"",""trial"",""time""
""focus"",""0"",""0""
","""event"",""trial"",""time""
""fullscreenenter"",""5"",""15261""
","
","665.8000000000466","","49","","","3000","1","","","images/earth.jpg","images/rocket1","images/rocket2","null","images/rocket2","","1","real","null","1","","",""
"d3-animate-choice","169","349451","0.0-76.0-1.11","937","673","16","Female","false","true","true","true","""event"",""trial"",""time""
""focus"",""0"",""0""
""fullscreenenter"",""5"",""15261""
","
","""event"",""trial"",""time""
""focus"",""0"",""0""
","""event"",""trial"",""time""
""fullscreenenter"",""5"",""15261""
","
","637.8000000000466","","48","","","3000","1","","","images/redplanet1.jpg","images/alien2","images/alien1","images/rocket2","images/alien2","images/t.png","2","real","false","2","rare","1","2022-02-09 01:44:11.693"
"two-step-fixation","170","350458","0.0-76.0-2.11","937","673","16","Female","false","true","true","true","""event"",""trial"",""time""
""focus"",""0"",""0""
""fullscreenenter"",""5"",""15261""
","
","""event"",""trial"",""time""
""focus"",""0"",""0""
","""event"",""trial"",""time""
""fullscreenenter"",""5"",""15261""
","
","","images/earth.jpg","","","","","","","","","","","","","","fixation","","","","","",""
"d3-animate-choice","171","353118","0.0-76.0-0.12","937","673","16","Female","false","true","true","true","""event"",""trial"",""time""
""focus"",""0"",""0""
""fullscreenenter"",""5"",""15261""
","
","""event"",""trial"",""time""
""focus"",""0"",""0""
","""event"",""trial"",""time""
""fullscreenenter"",""5"",""15261""
","
","650.3000000000466","","48","","","3000","1","","","images/earth.jpg","images/rocket1","images/rocket2","null","images/rocket1","","1","real","null","2","","",""
"d3-animate-choice","172","355671","0.0-76.0-1.12","937","673","16","Female","false","true","true","true","""event"",""trial"",""time""
""focus"",""0"",""0""
""fullscreenenter"",""5"",""15261""
","
","""event"",""trial"",""time""
""focus"",""0"",""0""
","""event"",""trial"",""time""
""fullscreenenter"",""5"",""15261""
","
","538.5999999998603","","48","","","3000","1","","","images/redplanet1.jpg","images/alien2","images/alien1","images/rocket1","images/alien2","images/t.png","2","real","true","2","common","1","2022-02-09 01:44:17.913"
"two-step-fixation","173","356679","0.0-76.0-2.12","937","673","16","Female","false","true","true","true","""event"",""trial"",""time""
""focus"",""0"",""0""
""fullscreenenter"",""5"",""15261""
","
","""event"",""trial"",""time""
""focus"",""0"",""0""
","""event"",""trial"",""time""
""fullscreenenter"",""5"",""15261""
","
","","images/earth.jpg","","","","","","","","","","","","","","fixation","","","","","",""
"d3-animate-choice","174","358712","0.0-76.0-0.13","937","673","16","Female","false","true","true","true","""event"",""trial"",""time""
""focus"",""0"",""0""
""fullscreenenter"",""5"",""15261""
","
","""event"",""trial"",""time""
""focus"",""0"",""0""
","""event"",""trial"",""time""
""fullscreenenter"",""5"",""15261""
","
","19.4000000001397","","48","","","3000","1","","","images/earth.jpg","images/rocket1","images/rocket2","null","images/rocket1","","1","real","null","2","","",""
"d3-animate-choice","175","361188","0.0-76.0-1.13","937","673","16","Female","false","true","true","true","""event"",""trial"",""time""
""focus"",""0"",""0""
""fullscreenenter"",""5"",""15261""
","
","""event"",""trial"",""time""
""focus"",""0"",""0""
","""event"",""trial"",""time""
""fullscreenenter"",""5"",""15261""
","
","471.10000000009313","","48","","","3000","1","","","images/purpleplanet.jpg","images/alien4","images/alien3","images/rocket1","images/alien4","images/nothing.png","2","real","false","2","rare","0","2022-02-09 01:44:23.430"
"two-step-fixation","176","362196","0.0-76.0-2.13","937","673","16","Female","false","true","true","true","""event"",""trial"",""time""
""focus"",""0"",""0""
""fullscreenenter"",""5"",""15261""
","
","""event"",""trial"",""time""
""focus"",""0"",""0""
","""event"",""trial"",""time""
""fullscreenenter"",""5"",""15261""
","
","","images/earth.jpg","","","","","","","","","","","","","","fixation","","","","","",""
"d3-animate-choice","177","364525","0.0-76.0-0.14","937","673","16","Female","false","true","true","true","""event"",""trial"",""time""
""focus"",""0"",""0""
""fullscreenenter"",""5"",""15261""
","
","""event"",""trial"",""time""
""focus"",""0"",""0""
","""event"",""trial"",""time""
""fullscreenenter"",""5"",""15261""
","
","319.9000000001397","","48","","","3000","1","","","images/earth.jpg","images/rocket1","images/rocket2","null","images/rocket1","","1","real","null","2","","",""
"d3-animate-choice","178","367228","0.0-76.0-1.14","937","673","16","Female","false","true","true","true","""event"",""trial"",""time""
""focus"",""0"",""0""
""fullscreenenter"",""5"",""15261""
","
","""event"",""trial"",""time""
""focus"",""0"",""0""
","""event"",""trial"",""time""
""fullscreenenter"",""5"",""15261""
","
","687.1999999999534","","49","","","3000","1","","","images/redplanet1.jpg","images/alien2","images/alien1","images/rocket1","images/alien1","images/t.png","2","real","true","1","common","1","2022-02-09 01:44:29.471"
"two-step-fixation","179","368238","0.0-76.0-2.14","937","673","16","Female","false","true","true","true","""event"",""trial"",""time""
""focus"",""0"",""0""
""fullscreenenter"",""5"",""15261""
","
","""event"",""trial"",""time""
""focus"",""0"",""0""
","""event"",""trial"",""time""
""fullscreenenter"",""5"",""15261""
","
","","images/earth.jpg","","","","","","","","","","","","","","fixation","","","","","",""
"d3-animate-choice","180","372257","0.0-76.0-0.15","937","673","16","Female","false","true","true","true","""event"",""trial"",""time""
""focus"",""0"",""0""
""fullscreenenter"",""5"",""15261""
","
","""event"",""trial"",""time""
""focus"",""0"",""0""
","""event"",""trial"",""time""
""fullscreenenter"",""5"",""15261""
","
","3068.6999999999534","","49","","","3000","0","","","images/earth.jpg","images/rocket1","images/rocket2","null","","","1","real","null","1","","",""
"d3-animate-choice","181","373272","0.0-76.0-1.15","937","673","16","Female","false","true","true","true","""event"",""trial"",""time""
""focus"",""0"",""0""
""fullscreenenter"",""5"",""15261""
","
","""event"",""trial"",""time""
""focus"",""0"",""0""
","""event"",""trial"",""time""
""fullscreenenter"",""5"",""15261""
","
","null","","null","","","0","0","","","images/earth.jpg","images/rocket1","images/rocket2","null","","","2","real","null","","","0","2022-02-09 01:44:35.514"
"two-step-fixation","182","374282","0.0-76.0-2.15","937","673","16","Female","false","true","true","true","""event"",""trial"",""time""
""focus"",""0"",""0""
""fullscreenenter"",""5"",""15261""
","
","""event"",""trial"",""time""
""focus"",""0"",""0""
","""event"",""trial"",""time""
""fullscreenenter"",""5"",""15261""
","
","","images/earth.jpg","","","","","","","","","","","","","","fixation","","","","","",""
"d3-animate-choice","183","376813","0.0-76.0-0.16","937","673","16","Female","false","true","true","true","""event"",""trial"",""time""
""focus"",""0"",""0""
""fullscreenenter"",""5"",""15261""
","
","""event"",""trial"",""time""
""focus"",""0"",""0""
","""event"",""trial"",""time""
""fullscreenenter"",""5"",""15261""
","
","523.1999999999534","","48","","","3000","1","","","images/earth.jpg","images/rocket1","images/rocket2","null","images/rocket1","","1","real","null","2","","",""
"d3-animate-choice","184","380824","0.0-76.0-1.16","937","673","16","Female","false","true","true","true","""event"",""trial"",""time""
""focus"",""0"",""0""
""fullscreenenter"",""5"",""15261""
","
","""event"",""trial"",""time""
""focus"",""0"",""0""
","""event"",""trial"",""time""
""fullscreenenter"",""5"",""15261""
","
","2342.8000000000466","","48","","","3000","1","","","images/redplanet1.jpg","images/alien2","images/alien1","images/rocket1","images/alien2","images/nothing.png","2","real","true","2","common","0","2022-02-09 01:44:43.066"
"two-step-fixation","185","381833","0.0-76.0-2.16","937","673","16","Female","false","true","true","true","""event"",""trial"",""time""
""focus"",""0"",""0""
""fullscreenenter"",""5"",""15261""
","
","""event"",""trial"",""time""
""focus"",""0"",""0""
","""event"",""trial"",""time""
""fullscreenenter"",""5"",""15261""
","
","","images/earth.jpg","","","","","","","","","","","","","","fixation","","","","","",""
"d3-animate-choice","186","384246","0.0-76.0-0.17","937","673","16","Female","false","true","true","true","""event"",""trial"",""time""
""focus"",""0"",""0""
""fullscreenenter"",""5"",""15261""
","
","""event"",""trial"",""time""
""focus"",""0"",""0""
","""event"",""trial"",""time""
""fullscreenenter"",""5"",""15261""
","
","404.5","","48","","","3000","1","","","images/earth.jpg","images/rocket1","images/rocket2","null","images/rocket1","","1","real","null","2","","",""
"d3-animate-choice","187","386734","0.0-76.0-1.17","937","673","16","Female","false","true","true","true","""event"",""trial"",""time""
""focus"",""0"",""0""
""fullscreenenter"",""5"",""15261""
","
","""event"",""trial"",""time""
""focus"",""0"",""0""
","""event"",""trial"",""time""
""fullscreenenter"",""5"",""15261""
","
","473.39999999990687","","49","","","3000","1","","","images/purpleplanet.jpg","images/alien4","images/alien3","images/rocket1","images/alien3","images/nothing.png","2","real","false","1","rare","0","2022-02-09 01:44:48.976"
"two-step-fixation","188","387742","0.0-76.0-2.17","937","673","16","Female","false","true","true","true","""event"",""trial"",""time""
""focus"",""0"",""0""
""fullscreenenter"",""5"",""15261""
","
","""event"",""trial"",""time""
""focus"",""0"",""0""
","""event"",""trial"",""time""
""fullscreenenter"",""5"",""15261""
","
","","images/earth.jpg","","","","","","","","","","","","","","fixation","","","","","",""
"d3-animate-choice","189","390125","0.0-76.0-0.18","937","673","16","Female","false","true","true","true","""event"",""trial"",""time""
""focus"",""0"",""0""
""fullscreenenter"",""5"",""15261""
","
","""event"",""trial"",""time""
""focus"",""0"",""0""
","""event"",""trial"",""time""
""fullscreenenter"",""5"",""15261""
","
","372.19999999995343","","49","","","3000","1","","","images/earth.jpg","images/rocket1","images/rocket2","null","images/rocket2","","1","real","null","1","","",""
"d3-animate-choice","190","392789","0.0-76.0-1.18","937","673","16","Female","false","true","true","true","""event"",""trial"",""time""
""focus"",""0"",""0""
""fullscreenenter"",""5"",""15261""
","
","""event"",""trial"",""time""
""focus"",""0"",""0""
","""event"",""trial"",""time""
""fullscreenenter"",""5"",""15261""
","
","650.0999999998603","","48","","","3000","1","","","images/redplanet1.jpg","images/alien2","images/alien1","images/rocket2","images/alien2","images/t.png","2","real","false","2","rare","1","2022-02-09 01:44:55.032"
"two-step-fixation","191","393798","0.0-76.0-2.18","937","673","16","Female","false","true","true","true","""event"",""trial"",""time""
""focus"",""0"",""0""
""fullscreenenter"",""5"",""15261""
","
","""event"",""trial"",""time""
""focus"",""0"",""0""
","""event"",""trial"",""time""
""fullscreenenter"",""5"",""15261""
","
","","images/earth.jpg","","","","","","","","","","","","","","fixation","","","","","",""
"d3-animate-choice","192","396438","0.0-76.0-0.19","937","673","16","Female","false","true","true","true","""event"",""trial"",""time""
""focus"",""0"",""0""
""fullscreenenter"",""5"",""15261""
","
","""event"",""trial"",""time""
""focus"",""0"",""0""
","""event"",""trial"",""time""
""fullscreenenter"",""5"",""15261""
","
","630.1999999999534","","48","","","3000","1","","","images/earth.jpg","images/rocket1","images/rocket2","null","images/rocket1","","1","real","null","2","","",""
"d3-animate-choice","193","399008","0.0-76.0-1.19","937","673","16","Female","false","true","true","true","""event"",""trial"",""time""
""focus"",""0"",""0""
""fullscreenenter"",""5"",""15261""
","
","""event"",""trial"",""time""
""focus"",""0"",""0""
","""event"",""trial"",""time""
""fullscreenenter"",""5"",""15261""
","
","560.1000000000931","","49","","","3000","1","","","images/redplanet1.jpg","images/alien2","images/alien1","images/rocket1","images/alien1","images/t.png","2","real","true","1","common","1","2022-02-09 01:45:01.250"
"two-step-fixation","194","400015","0.0-76.0-2.19","937","673","16","Female","false","true","true","true","""event"",""trial"",""time""
""focus"",""0"",""0""
""fullscreenenter"",""5"",""15261""
","
","""event"",""trial"",""time""
""focus"",""0"",""0""
","""event"",""trial"",""time""
""fullscreenenter"",""5"",""15261""
","
","","images/earth.jpg","","","","","","","","","","","","","","fixation","","","","","",""
"d3-animate-choice","195","402855","0.0-76.0-0.20","937","673","16","Female","false","true","true","true","""event"",""trial"",""time""
""focus"",""0"",""0""
""fullscreenenter"",""5"",""15261""
","
","""event"",""trial"",""time""
""focus"",""0"",""0""
","""event"",""trial"",""time""
""fullscreenenter"",""5"",""15261""
","
","830.8999999999069","","49","","","3000","1","","","images/earth.jpg","images/rocket1","images/rocket2","null","images/rocket2","","1","real","null","1","","",""
"d3-animate-choice","196","405682","0.0-76.0-1.20","937","673","16","Female","false","true","true","true","""event"",""trial"",""time""
""focus"",""0"",""0""
""fullscreenenter"",""5"",""15261""
","
","""event"",""trial"",""time""
""focus"",""0"",""0""
","""event"",""trial"",""time""
""fullscreenenter"",""5"",""15261""
","
","809.8999999999069","","48","","","3000","1","","","images/redplanet1.jpg","images/alien2","images/alien1","images/rocket2","images/alien2","images/nothing.png","2","real","false","2","rare","0","2022-02-09 01:45:07.925"
"two-step-fixation","197","406694","0.0-76.0-2.20","937","673","16","Female","false","true","true","true","""event"",""trial"",""time""
""focus"",""0"",""0""
""fullscreenenter"",""5"",""15261""
","
","""event"",""trial"",""time""
""focus"",""0"",""0""
","""event"",""trial"",""time""
""fullscreenenter"",""5"",""15261""
","
","","images/earth.jpg","","","","","","","","","","","","","","fixation","","","","","",""
"d3-animate-choice","198","409025","0.0-76.0-0.21","937","673","16","Female","false","true","true","true","""event"",""trial"",""time""
""focus"",""0"",""0""
""fullscreenenter"",""5"",""15261""
","
","""event"",""trial"",""time""
""focus"",""0"",""0""
","""event"",""trial"",""time""
""fullscreenenter"",""5"",""15261""
","
","318.69999999995343","","49","","","3000","1","","","images/earth.jpg","images/rocket1","images/rocket2","null","images/rocket2","","1","real","null","1","","",""
"d3-animate-choice","199","411360","0.0-76.0-1.21","937","673","16","Female","false","true","true","true","""event"",""trial"",""time""
""focus"",""0"",""0""
""fullscreenenter"",""5"",""15261""
","
","""event"",""trial"",""time""
""focus"",""0"",""0""
","""event"",""trial"",""time""
""fullscreenenter"",""5"",""15261""
","
","318.29999999981374","","48","","","3000","1","","","images/purpleplanet.jpg","images/alien4","images/alien3","images/rocket2","images/alien4","images/t.png","2","real","true","2","common","1","2022-02-09 01:45:13.603"
"two-step-fixation","200","412369","0.0-76.0-2.21","937","673","16","Female","false","true","true","true","""event"",""trial"",""time""
""focus"",""0"",""0""
""fullscreenenter"",""5"",""15261""
","
","""event"",""trial"",""time""
""focus"",""0"",""0""
","""event"",""trial"",""time""
""fullscreenenter"",""5"",""15261""
","
","","images/earth.jpg","","","","","","","","","","","","","","fixation","","","","","",""
"d3-animate-choice","201","414772","0.0-76.0-0.22","937","673","16","Female","false","true","true","true","""event"",""trial"",""time""
""focus"",""0"",""0""
""fullscreenenter"",""5"",""15261""
","
","""event"",""trial"",""time""
""focus"",""0"",""0""
","""event"",""trial"",""time""
""fullscreenenter"",""5"",""15261""
","
","389.60000000009313","","49","","","3000","1","","","images/earth.jpg","images/rocket1","images/rocket2","null","images/rocket2","","1","real","null","1","","",""
"d3-animate-choice","202","417152","0.0-76.0-1.22","937","673","16","Female","false","true","true","true","""event"",""trial"",""time""
""focus"",""0"",""0""
""fullscreenenter"",""5"",""15261""
","
","""event"",""trial"",""time""
""focus"",""0"",""0""
","""event"",""trial"",""time""
""fullscreenenter"",""5"",""15261""
","
","370.80000000004657","","48","","","3000","1","","","images/redplanet1.jpg","images/alien2","images/alien1","images/rocket2","images/alien2","images/t.png","2","real","false","2","rare","1","2022-02-09 01:45:19.394"
"two-step-fixation","203","418162","0.0-76.0-2.22","937","673","16","Female","false","true","true","true","""event"",""trial"",""time""
""focus"",""0"",""0""
""fullscreenenter"",""5"",""15261""
","
","""event"",""trial"",""time""
""focus"",""0"",""0""
","""event"",""trial"",""time""
""fullscreenenter"",""5"",""15261""
","
","","images/earth.jpg","","","","","","","","","","","","","","fixation","","","","","",""
"d3-animate-choice","204","420446","0.0-76.0-0.23","937","673","16","Female","false","true","true","true","""event"",""trial"",""time""
""focus"",""0"",""0""
""fullscreenenter"",""5"",""15261""
","
","""event"",""trial"",""time""
""focus"",""0"",""0""
","""event"",""trial"",""time""
""fullscreenenter"",""5"",""15261""
","
","271.20000000018626","","49","","","3000","1","1415.6000000000931","48","images/earth.jpg","images/rocket1","images/rocket2","null","images/rocket2","","1","real","null","1","","",""
"d3-animate-choice","205","423029","0.0-76.0-1.23","937","673","16","Female","false","true","true","true","""event"",""trial"",""time""
""focus"",""0"",""0""
""fullscreenenter"",""5"",""15261""
","
","""event"",""trial"",""time""
""focus"",""0"",""0""
","""event"",""trial"",""time""
""fullscreenenter"",""5"",""15261""
","
","567.3999999999069","","49","","","3000","1","1279.1999999999534","48","images/redplanet1.jpg","images/alien2","images/alien1","images/rocket2","images/alien1","images/t.png","2","real","false","1","rare","1","2022-02-09 01:45:25.271"
"two-step-fixation","206","424040","0.0-76.0-2.23","937","673","16","Female","false","true","true","true","""event"",""trial"",""time""
""focus"",""0"",""0""
""fullscreenenter"",""5"",""15261""
","
","""event"",""trial"",""time""
""focus"",""0"",""0""
","""event"",""trial"",""time""
""fullscreenenter"",""5"",""15261""
","
","","images/earth.jpg","","","","","","","","","","","","","","fixation","","","","","",""
"d3-animate-choice","207","426352","0.0-76.0-0.24","937","673","16","Female","false","true","true","true","""event"",""trial"",""time""
""focus"",""0"",""0""
""fullscreenenter"",""5"",""15261""
","
","""event"",""trial"",""time""
""focus"",""0"",""0""
","""event"",""trial"",""time""
""fullscreenenter"",""5"",""15261""
","
","298.29999999981374","","49","","","3000","1","","","images/earth.jpg","images/rocket1","images/rocket2","null","images/rocket2","","1","real","null","1","","",""
"d3-animate-choice","208","428743","0.0-76.0-1.24","937","673","16","Female","false","true","true","true","""event"",""trial"",""time""
""focus"",""0"",""0""
""fullscreenenter"",""5"",""15261""
","
","""event"",""trial"",""time""
""focus"",""0"",""0""
","""event"",""trial"",""time""
""fullscreenenter"",""5"",""15261""
","
","375.4000000001397","","48","","","3000","1","","","images/purpleplanet.jpg","images/alien4","images/alien3","images/rocket2","images/alien4","images/t.png","2","real","true","2","common","1","2022-02-09 01:45:30.985"
"two-step-fixation","209","429751","0.0-76.0-2.24","937","673","16","Female","false","true","true","true","""event"",""trial"",""time""
""focus"",""0"",""0""
""fullscreenenter"",""5"",""15261""
","
