"trial_type","trial_index","time_elapsed","internal_node_id","participant_id","subject_id","age","gender","rocket_sides","red_planet_first_rocket","red_display_order","purple_display_order","interactions","blur_events","focus_events","fullscreenenter_events","fullscreenexit_events","rt","stimulus","key_press","button_pressed","success","duration","valid_pressed","rts","keys","planet_text","right_text","left_text","center_text","chosen_text","reward_text","trial_stage","practice_trial","transition_type","choice","transition","reward","timestamp"
"pavlovia","0","2","0.0-0.0","702","654","9","Male","false","false","false","false","
","
","
","
","
","","","","","","","","","","","","","","","","","","","","","",""
"html-keyboard-response","1","16258","0.0-1.0","702","654","9","Male","false","false","false","false","
","
","
","
","
","16254.200000047684","Welcome! Press the space bar to begin.","32","","","","","","","","","","","","","","","","","","",""
"audio-keyboard-response","2","21971","0.0-2.0","702","654","9","Male","false","false","false","false","
","
","
","
","
","5680","audio/beep_loop.wav","32","","","","","","","","","","","","","","","","","","",""
"audio-button-response","3","25547","0.0-3.0","702","654","9","Male","false","false","false","false","
","
","
","
","
","NaN","audio/fish.mp3","","1","","","","","","","","","","","","","","","","","",""
"audio-button-response","4","30012","0.0-4.0","702","654","9","Male","false","false","false","false","""event"",""trial"",""time""
""fullscreenenter"",""5"",""34159""
","
","
","""event"",""trial"",""time""
""fullscreenenter"",""5"",""34159""
","
","NaN","audio/tiger.mp3","","4","","","","","","","","","","","","","","","","","",""
"fullscreen","5","35122","0.0-5.0","702","654","9","Male","false","false","false","false","""event"",""trial"",""time""
""fullscreenenter"",""5"",""34159""
","
","
","""event"",""trial"",""time""
""fullscreenenter"",""5"",""34159""
","
","","","","","true","","","","","","","","","","","","","","","","",""
"d3-instructions","6","55648","0.0-6.0","702","654","9","Male","false","false","false","false","""event"",""trial"",""time""
""fullscreenenter"",""5"",""34159""
","
","
","""event"",""trial"",""time""
""fullscreenenter"",""5"",""34159""
","
","","","","","","","","","","","","","","","","","","","","","",""
"d3-instructions","7","68613","0.0-7.0","702","654","9","Male","false","false","false","false","""event"",""trial"",""time""
""fullscreenenter"",""5"",""34159""
","
","
","""event"",""trial"",""time""
""fullscreenenter"",""5"",""34159""
","
","","","","","","","","","","","","","","","","","","","","","",""
"d3-instructions","8","75371","0.0-8.0","702","654","9","Male","false","false","false","false","""event"",""trial"",""time""
""fullscreenenter"",""5"",""34159""
","
","
","""event"",""trial"",""time""
""fullscreenenter"",""5"",""34159""
","
","","","","","","","","","","","","","","","","","","","","","",""
"d3-instructions","9","88979","0.0-9.0","702","654","9","Male","false","false","false","false","""event"",""trial"",""time""
""fullscreenenter"",""5"",""34159""
","
","
","""event"",""trial"",""time""
""fullscreenenter"",""5"",""34159""
","
","","","","","","","","","","","","","","","","","","","","","",""
"d3-instructions","10","104893","0.0-10.0","702","654","9","Male","false","false","false","false","""event"",""trial"",""time""
""fullscreenenter"",""5"",""34159""
","
","
","""event"",""trial"",""time""
""fullscreenenter"",""5"",""34159""
","
","","","","","","","","","","","","","","","","","","","","","",""
"d3-animate-choice","11","107959","0.0-11.0","702","654","9","Male","false","false","false","false","""event"",""trial"",""time""
""fullscreenenter"",""5"",""34159""
","
","
","""event"",""trial"",""time""
""fullscreenenter"",""5"",""34159""
","
","1050","","49","","","3000","1","2273.5999999046326,3043","48,48","images/tutgreenplanet.jpg","images/tutalien1","images/tutalien2","null","images/tutalien2","","NA","practice","null","","","",""
"d3-animate-choice","12","110555","0.0-12.0","702","654","9","Male","false","false","false","false","""event"",""trial"",""time""
""fullscreenenter"",""5"",""34159""
","
","
","""event"",""trial"",""time""
""fullscreenenter"",""5"",""34159""
","
","582.1000001430511","","48","","","3000","1","","","images/tutgreenplanet.jpg","images/tutalien1","images/tutalien2","null","images/tutalien1","","NA","practice","null","","","",""
"d3-animate-choice","13","113085","0.0-13.0","702","654","9","Male","false","false","false","false","""event"",""trial"",""time""
""fullscreenenter"",""5"",""34159""
","
","
","""event"",""trial"",""time""
""fullscreenenter"",""5"",""34159""
","
","508.09999990463257","","49","","","3000","1","598.4000000953674","48","images/tutgreenplanet.jpg","images/tutalien1","images/tutalien2","null","images/tutalien2","","NA","practice","null","","","",""
"d3-animate-choice","14","115505","0.0-14.0","702","654","9","Male","false","false","false","false","""event"",""trial"",""time""
""fullscreenenter"",""5"",""34159""
","
","
","""event"",""trial"",""time""
""fullscreenenter"",""5"",""34159""
","
","398.60000014305115","","48","","","3000","1","1159,1623.2000000476837,1969.7000000476837,2256.4000000953674","49,49,49,49","images/tutgreenplanet.jpg","images/tutalien1","images/tutalien2","null","images/tutalien1","","NA","practice","null","","","",""
"d3-instructions","15","126029","0.0-15.0","702","654","9","Male","false","false","false","false","""event"",""trial"",""time""
""fullscreenenter"",""5"",""34159""
","
","
","""event"",""trial"",""time""
""fullscreenenter"",""5"",""34159""
","
","","","","","","","","","","","","","","","","","","","","","",""
"d3-instructions","16","132141","0.0-16.0","702","654","9","Male","false","false","false","false","""event"",""trial"",""time""
""fullscreenenter"",""5"",""34159""
","
","
","""event"",""trial"",""time""
""fullscreenenter"",""5"",""34159""
","
","","","","","","","","","","","","","","","","","","","","","",""
"d3-instructions","17","137130","0.0-17.0","702","654","9","Male","false","false","false","false","""event"",""trial"",""time""
""fullscreenenter"",""5"",""34159""
","
","
","""event"",""trial"",""time""
""fullscreenenter"",""5"",""34159""
","
","","","","","","","","","","","","","","","","","","","","","",""
"d3-instructions","18","147877","0.0-18.0","702","654","9","Male","false","false","false","false","""event"",""trial"",""time""
""fullscreenenter"",""5"",""34159""
","
","
","""event"",""trial"",""time""
""fullscreenenter"",""5"",""34159""
","
","","","","","","","","","","","","","","","","","","","","","",""
"d3-instructions","19","162734","0.0-19.0","702","654","9","Male","false","false","false","false","""event"",""trial"",""time""
""fullscreenenter"",""5"",""34159""
","
","
","""event"",""trial"",""time""
""fullscreenenter"",""5"",""34159""
","
","","","","","","","","","","","","","","","","","","","","","",""
"d3-animate-choice","20","166086","0.0-20.0","702","654","9","Male","false","false","false","false","""event"",""trial"",""time""
""fullscreenenter"",""5"",""34159""
","
","
","""event"",""trial"",""time""
""fullscreenenter"",""5"",""34159""
","
","843.5999999046326","","18","","","3000","1","852.7999999523163,1338.2000000476837","17,49","images/tutyellowplanet.jpg","null","images/tutalien3","null","images/tutalien3","images/t.png","NA","practice","null","","","",""
"d3-animate-choice","21","168991","0.0-21.0","702","654","9","Male","false","false","false","false","""event"",""trial"",""time""
""fullscreenenter"",""5"",""34159""
","
","
","""event"",""trial"",""time""
""fullscreenenter"",""5"",""34159""
","
","885.9000000953674","","49","","","3000","1","","","images/tutyellowplanet.jpg","null","images/tutalien3","null","images/tutalien3","images/t.png","NA","practice","null","","","",""
"d3-animate-choice","22","171545","0.0-22.0","702","654","9","Male","false","false","false","false","""event"",""trial"",""time""
""fullscreenenter"",""5"",""34159""
","
","
","""event"",""trial"",""time""
""fullscreenenter"",""5"",""34159""
","
","532.7000000476837","","49","","","3000","1","","","images/tutyellowplanet.jpg","null","images/tutalien3","null","images/tutalien3","images/t.png","NA","practice","null","","","",""
"d3-animate-choice","23","174693","0.0-23.0","702","654","9","Male","false","false","false","false","""event"",""trial"",""time""
""fullscreenenter"",""5"",""34159""
","
","
","""event"",""trial"",""time""
""fullscreenenter"",""5"",""34159""
","
","1136.6000001430511","","49","","","3000","1","","","images/tutyellowplanet.jpg","null","images/tutalien3","null","images/tutalien3","images/nothing.png","NA","practice","null","","","",""
"d3-animate-choice","24","177385","0.0-24.0","702","654","9","Male","false","false","false","false","""event"",""trial"",""time""
""fullscreenenter"",""5"",""34159""
","
","
","""event"",""trial"",""time""
""fullscreenenter"",""5"",""34159""
","
","675.2000000476837","","49","","","3000","1","2371.5","49","images/tutyellowplanet.jpg","null","images/tutalien3","null","images/tutalien3","images/t.png","NA","practice","null","","","",""
"d3-animate-choice","25","179795","0.0-25.0","702","654","9","Male","false","false","false","false","""event"",""trial"",""time""
""fullscreenenter"",""5"",""34159""
","
","
","""event"",""trial"",""time""
""fullscreenenter"",""5"",""34159""
","
","388","","49","","","3000","1","","","images/tutyellowplanet.jpg","null","images/tutalien3","null","images/tutalien3","images/t.png","NA","practice","null","","","",""
"d3-animate-choice","26","182145","0.0-26.0","702","654","9","Male","false","false","false","false","""event"",""trial"",""time""
""fullscreenenter"",""5"",""34159""
","
","
","""event"",""trial"",""time""
""fullscreenenter"",""5"",""34159""
","
","328.69999980926514","","49","","","3000","1","","","images/tutyellowplanet.jpg","null","images/tutalien3","null","images/tutalien3","images/t.png","NA","practice","null","","","",""
"d3-animate-choice","27","185075","0.0-27.0","702","654","9","Male","false","false","false","false","""event"",""trial"",""time""
""fullscreenenter"",""5"",""34159""
","
","
","""event"",""trial"",""time""
""fullscreenenter"",""5"",""34159""
","
","924.9000000953674","","49","","","3000","1","","","images/tutyellowplanet.jpg","null","images/tutalien3","null","images/tutalien3","images/t.png","NA","practice","null","","","",""
"d3-animate-choice","28","187523","0.0-28.0","702","654","9","Male","false","false","false","false","""event"",""trial"",""time""
""fullscreenenter"",""5"",""34159""
","
","
","""event"",""trial"",""time""
""fullscreenenter"",""5"",""34159""
","
","440.90000009536743","","49","","","3000","1","","","images/tutyellowplanet.jpg","null","images/tutalien3","null","images/tutalien3","images/t.png","NA","practice","null","","","",""
"d3-animate-choice","29","190515","0.0-29.0","702","654","9","Male","false","false","false","false","""event"",""trial"",""time""
""fullscreenenter"",""5"",""34159""
","
","
","""event"",""trial"",""time""
""fullscreenenter"",""5"",""34159""
","
","982.6999998092651","","49","","","3000","1","","","images/tutyellowplanet.jpg","null","images/tutalien3","null","images/tutalien3","images/t.png","NA","practice","null","","","",""
"d3-instructions","30","195537","0.0-30.0","702","654","9","Male","false","false","false","false","""event"",""trial"",""time""
""fullscreenenter"",""5"",""34159""
","
","
","""event"",""trial"",""time""
""fullscreenenter"",""5"",""34159""
","
","","","","","","","","","","","","","","","","","","","","","",""
"d3-instructions","31","204291","0.0-31.0","702","654","9","Male","false","false","false","false","""event"",""trial"",""time""
""fullscreenenter"",""5"",""34159""
","
","
","""event"",""trial"",""time""
""fullscreenenter"",""5"",""34159""
","
","","","","","","","","","","","","","","","","","","","","","",""
"d3-instructions","32","212648","0.0-32.0","702","654","9","Male","false","false","false","false","""event"",""trial"",""time""
""fullscreenenter"",""5"",""34159""
","
","
","""event"",""trial"",""time""
""fullscreenenter"",""5"",""34159""
","
","","","","","","","","","","","","","","","","","","","","","",""
"d3-instructions","33","217514","0.0-33.0","702","654","9","Male","false","false","false","false","""event"",""trial"",""time""
""fullscreenenter"",""5"",""34159""
","
","
","""event"",""trial"",""time""
""fullscreenenter"",""5"",""34159""
","
","","","","","","","","","","","","","","","","","","","","","",""
"d3-animate-choice","34","220946","0.0-34.0","702","654","9","Male","false","false","false","false","""event"",""trial"",""time""
""fullscreenenter"",""5"",""34159""
","
","
","""event"",""trial"",""time""
""fullscreenenter"",""5"",""34159""
","
","1414.5999999046326","","49","","","3000","1","","","images/tutgreenplanet.jpg","images/tutalien1","images/tutalien2","null","images/tutalien2","images/t.png","NA","practice","null","","","",""
"d3-animate-choice","35","223435","0.0-35.0","702","654","9","Male","false","false","false","false","""event"",""trial"",""time""
""fullscreenenter"",""5"",""34159""
","
","
","""event"",""trial"",""time""
""fullscreenenter"",""5"",""34159""
","
","464.2999999523163","","48","","","3000","1","","","images/tutgreenplanet.jpg","images/tutalien1","images/tutalien2","null","images/tutalien1","images/nothing.png","NA","practice","null","","","",""
"d3-animate-choice","36","225755","0.0-36.0","702","654","9","Male","false","false","false","false","""event"",""trial"",""time""
""fullscreenenter"",""5"",""34159""
","
","
","""event"",""trial"",""time""
""fullscreenenter"",""5"",""34159""
","
","306.7000000476837","","48","","","3000","1","1928.5","32","images/tutgreenplanet.jpg","images/tutalien1","images/tutalien2","null","images/tutalien1","images/nothing.png","NA","practice","null","","","",""
"d3-animate-choice","37","230105","0.0-37.0","702","654","9","Male","false","false","false","false","""event"",""trial"",""time""
""fullscreenenter"",""5"",""34159""
","
","
","""event"",""trial"",""time""
""fullscreenenter"",""5"",""34159""
","
","391.69999980926514","","57","","","3000","1","1638.5999999046326,2341.5","32,48","images/tutgreenplanet.jpg","images/tutalien1","images/tutalien2","null","images/tutalien1","images/t.png","NA","practice","null","","","",""
"d3-animate-choice","38","232456","0.0-38.0","702","654","9","Male","false","false","false","false","""event"",""trial"",""time""
""fullscreenenter"",""5"",""34159""
","
","
","""event"",""trial"",""time""
""fullscreenenter"",""5"",""34159""
","
","341","","49","","","3000","1","","","images/tutgreenplanet.jpg","images/tutalien1","images/tutalien2","null","images/tutalien2","images/t.png","NA","practice","null","","","",""
"d3-animate-choice","39","234827","0.0-39.0","702","654","9","Male","false","false","false","false","""event"",""trial"",""time""
""fullscreenenter"",""5"",""34159""
","
","
","""event"",""trial"",""time""
""fullscreenenter"",""5"",""34159""
","
","364.09999990463257","","49","","","3000","1","1837.0999999046326","48","images/tutgreenplanet.jpg","images/tutalien1","images/tutalien2","null","images/tutalien2","images/t.png","NA","practice","null","","","",""
"d3-animate-choice","40","236876","0.0-40.0","702","654","9","Male","false","false","false","false","""event"",""trial"",""time""
""fullscreenenter"",""5"",""34159""
","
","
","""event"",""trial"",""time""
""fullscreenenter"",""5"",""34159""
","
","41","","48","","","3000","1","","","images/tutgreenplanet.jpg","images/tutalien1","images/tutalien2","null","images/tutalien1","images/nothing.png","NA","practice","null","","","",""
"d3-animate-choice","41","239143","0.0-41.0","702","654","9","Male","false","false","false","false","""event"",""trial"",""time""
""fullscreenenter"",""5"",""34159""
","
","
","""event"",""trial"",""time""
""fullscreenenter"",""5"",""34159""
","
","260.30000019073486","","49","","","3000","1","","","images/tutgreenplanet.jpg","images/tutalien1","images/tutalien2","null","images/tutalien2","images/t.png","NA","practice","null","","","",""
"d3-animate-choice","42","241386","0.0-42.0","702","654","9","Male","false","false","false","false","""event"",""trial"",""time""
""fullscreenenter"",""5"",""34159""
","
","
","""event"",""trial"",""time""
""fullscreenenter"",""5"",""34159""
","
","237.09999990463257","","48","","","3000","1","","","images/tutgreenplanet.jpg","images/tutalien1","images/tutalien2","null","images/tutalien1","images/t.png","NA","practice","null","","","",""
"d3-animate-choice","43","243685","0.0-43.0","702","654","9","Male","false","false","false","false","""event"",""trial"",""time""
""fullscreenenter"",""5"",""34159""
","
","
","""event"",""trial"",""time""
""fullscreenenter"",""5"",""34159""
","
","290.10000014305115","","48","","","3000","1","","","images/tutgreenplanet.jpg","images/tutalien1","images/tutalien2","null","images/tutalien1","images/t.png","NA","practice","null","","","",""
"d3-instructions","44","261586","0.0-44.0","702","654","9","Male","false","false","false","false","""event"",""trial"",""time""
""fullscreenenter"",""5"",""34159""
","
","
","""event"",""trial"",""time""
""fullscreenenter"",""5"",""34159""
","
","","","","","","","","","","","","","","","","","","","","","",""
"d3-instructions","45","271609","0.0-45.0","702","654","9","Male","false","false","false","false","""event"",""trial"",""time""
""fullscreenenter"",""5"",""34159""
","
","
","""event"",""trial"",""time""
""fullscreenenter"",""5"",""34159""
","
","","","","","","","","","","","","","","","","","","","","","",""
"d3-instructions","46","277443","0.0-46.0","702","654","9","Male","false","false","false","false","""event"",""trial"",""time""
""fullscreenenter"",""5"",""34159""
","
","
","""event"",""trial"",""time""
""fullscreenenter"",""5"",""34159""
","
","","","","","","","","","","","","","","","","","","","","","",""
"d3-instructions","47","292377","0.0-47.0","702","654","9","Male","false","false","false","false","""event"",""trial"",""time""
""fullscreenenter"",""5"",""34159""
","
","
","""event"",""trial"",""time""
""fullscreenenter"",""5"",""34159""
","
","","","","","","","","","","","","","","","","","","","","","",""
"d3-instructions","48","297677","0.0-48.0","702","654","9","Male","false","false","false","false","""event"",""trial"",""time""
""fullscreenenter"",""5"",""34159""
","
","
","""event"",""trial"",""time""
""fullscreenenter"",""5"",""34159""
","
","","","","","","","","","","","","","","","","","","","","","",""
"d3-instructions","49","303042","0.0-49.0","702","654","9","Male","false","false","false","false","""event"",""trial"",""time""
""fullscreenenter"",""5"",""34159""
","
","
","""event"",""trial"",""time""
""fullscreenenter"",""5"",""34159""
","
","","","","","","","","","","","","","","","","","","","","","",""
"d3-instructions","50","308408","0.0-50.0","702","654","9","Male","false","false","false","false","""event"",""trial"",""time""
""fullscreenenter"",""5"",""34159""
","
","
","""event"",""trial"",""time""
""fullscreenenter"",""5"",""34159""
","
","","","","","","","","","","","","","","","","","","","","","",""
"d3-instructions","51","311145","0.0-51.0","702","654","9","Male","false","false","false","false","""event"",""trial"",""time""
""fullscreenenter"",""5"",""34159""
","
","
","""event"",""trial"",""time""
""fullscreenenter"",""5"",""34159""
","
","","","","","","","","","","","","","","","","","","","","","",""
"d3-instructions","52","314813","0.0-52.0","702","654","9","Male","false","false","false","false","""event"",""trial"",""time""
""fullscreenenter"",""5"",""34159""
","
","
","""event"",""trial"",""time""
""fullscreenenter"",""5"",""34159""
","
","","","","","","","","","","","","","","","","","","","","","",""
"d3-instructions","53","329686","0.0-53.0","702","654","9","Male","false","false","false","false","""event"",""trial"",""time""
""fullscreenenter"",""5"",""34159""
","
","
","""event"",""trial"",""time""
""fullscreenenter"",""5"",""34159""
","
","","","","","","","","","","","","","","","","","","","","","",""
"d3-instructions","54","339130","0.0-54.0","702","654","9","Male","false","false","false","false","""event"",""trial"",""time""
""fullscreenenter"",""5"",""34159""
","
","
","""event"",""trial"",""time""
""fullscreenenter"",""5"",""34159""
","
","","","","","","","","","","","","","","","","","","","","","",""
"d3-instructions","55","347182","0.0-55.0","702","654","9","Male","false","false","false","false","""event"",""trial"",""time""
""fullscreenenter"",""5"",""34159""
","
","
","""event"",""trial"",""time""
""fullscreenenter"",""5"",""34159""
","
","","","","","","","","","","","","","","","","","","","","","",""
"d3-instructions","56","352530","0.0-56.0","702","654","9","Male","false","false","false","false","""event"",""trial"",""time""
""fullscreenenter"",""5"",""34159""
","
","
","""event"",""trial"",""time""
""fullscreenenter"",""5"",""34159""
","
","","","","","","","","","","","","","","","","","","","","","",""
"d3-instructions","57","361917","0.0-57.0","702","654","9","Male","false","false","false","false","""event"",""trial"",""time""
""fullscreenenter"",""5"",""34159""
","
","
","""event"",""trial"",""time""
""fullscreenenter"",""5"",""34159""
","
","","","","","","","","","","","","","","","","","","","","","",""
"d3-instructions","58","367839","0.0-58.0","702","654","9","Male","false","false","false","false","""event"",""trial"",""time""
""fullscreenenter"",""5"",""34159""
","
","
","""event"",""trial"",""time""
""fullscreenenter"",""5"",""34159""
","
","","","","","","","","","","","","","","","","","","","","","",""
"d3-instructions","59","372411","0.0-59.0","702","654","9","Male","false","false","false","false","""event"",""trial"",""time""
""fullscreenenter"",""5"",""34159""
","
","
","""event"",""trial"",""time""
""fullscreenenter"",""5"",""34159""
","
","","","","","","","","","","","","","","","","","","","","","",""
"d3-instructions","60","376419","0.0-60.0","702","654","9","Male","false","false","false","false","""event"",""trial"",""time""
""fullscreenenter"",""5"",""34159""
","
","
","""event"",""trial"",""time""
""fullscreenenter"",""5"",""34159""
","
","","","","","","","","","","","","","","","","","","","","","",""
"d3-animate-choice","61","379459","0.0-61.0-0.0","702","654","9","Male","false","false","false","false","""event"",""trial"",""time""
""fullscreenenter"",""5"",""34159""
","
","
","""event"",""trial"",""time""
""fullscreenenter"",""5"",""34159""
","
","1021.5999999046326","","49","","","3000","1","","","images/earth.jpg","images/tutrocket2","images/tutrocket1","null","images/tutrocket1","","1","practice","null","1","","",""
"d3-animate-choice","62","383475","0.0-61.0-1.0","702","654","9","Male","false","false","false","false","""event"",""trial"",""time""
""fullscreenenter"",""5"",""34159""
","
","
","""event"",""trial"",""time""
""fullscreenenter"",""5"",""34159""
","
","2083.4000000953674","","173","","","3000","1","3410.600000143051,3749","173,49","images/tutyellowplanet.jpg","images/tutalien4","images/tutalien3","images/tutrocket1","images/tutalien3","","2","practice","true","","common","0","2022-02-08 23:21:08.647"
"two-step-fixation","63","384491","0.0-61.0-2.0","702","654","9","Male","false","false","false","false","""event"",""trial"",""time""
""fullscreenenter"",""5"",""34159""
","
","
","""event"",""trial"",""time""
""fullscreenenter"",""5"",""34159""
","
","","images/earth.jpg","","","","","","","","","","","","","","fixation","","","","","",""
"d3-animate-choice","64","388145","0.0-61.0-0.1","702","654","9","Male","false","false","false","false","""event"",""trial"",""time""
""fullscreenenter"",""5"",""34159""
","
","
","""event"",""trial"",""time""
""fullscreenenter"",""5"",""34159""
","
","1631.8999998569489","","48","","","3000","1","","","images/earth.jpg","images/tutrocket2","images/tutrocket1","null","images/tutrocket2","","1","practice","null","2","","",""
"d3-animate-choice","65","391065","0.0-61.0-1.1","702","654","9","Male","false","false","false","false","""event"",""trial"",""time""
""fullscreenenter"",""5"",""34159""
","
","
","""event"",""trial"",""time""
""fullscreenenter"",""5"",""34159""
","
","908.0999999046326","","49","","","3000","1","","","images/tutyellowplanet.jpg","images/tutalien4","images/tutalien3","images/tutrocket2","images/tutalien3","images/nothing.png","2","practice","false","1","rare","0","2022-02-08 23:21:16.237"
"two-step-fixation","66","392073","0.0-61.0-2.1","702","654","9","Male","false","false","false","false","""event"",""trial"",""time""
""fullscreenenter"",""5"",""34159""
","
","
","""event"",""trial"",""time""
""fullscreenenter"",""5"",""34159""
","
","","images/earth.jpg","","","","","","","","","","","","","","fixation","","","","","",""
"d3-animate-choice","67","394795","0.0-61.0-0.2","702","654","9","Male","false","false","false","false","""event"",""trial"",""time""
""fullscreenenter"",""5"",""34159""
","
","
","""event"",""trial"",""time""
""fullscreenenter"",""5"",""34159""
","
","715.3000001907349","","48","","","3000","1","","","images/earth.jpg","images/tutrocket2","images/tutrocket1","null","images/tutrocket2","","1","practice","null","2","","",""
"d3-animate-choice","68","398065","0.0-61.0-1.2","702","654","9","Male","false","false","false","false","""event"",""trial"",""time""
""fullscreenenter"",""5"",""34159""
","
","
","""event"",""trial"",""time""
""fullscreenenter"",""5"",""34159""
","
","1260.4000000953674","","49","","","3000","1","1623.9000000953674","50","images/tutgreenplanet.jpg","images/tutalien2","images/tutalien1","images/tutrocket2","images/tutalien1","images/nothing.png","2","practice","true","1","common","0","2022-02-08 23:21:23.238"
"two-step-fixation","69","399075","0.0-61.0-2.2","702","654","9","Male","false","false","false","false","""event"",""trial"",""time""
""fullscreenenter"",""5"",""34159""
","
","
","""event"",""trial"",""time""
""fullscreenenter"",""5"",""34159""
","
","","images/earth.jpg","","","","","","","","","","","","","","fixation","","","","","",""
"d3-animate-choice","70","401435","0.0-61.0-0.3","702","654","9","Male","false","false","false","false","""event"",""trial"",""time""
""fullscreenenter"",""5"",""34159""
","
","
","""event"",""trial"",""time""
""fullscreenenter"",""5"",""34159""
","
","348.7999999523163","","49","","","3000","1","","","images/earth.jpg","images/tutrocket2","images/tutrocket1","null","images/tutrocket1","","1","practice","null","1","","",""
"d3-animate-choice","71","404536","0.0-61.0-1.3","702","654","9","Male","false","false","false","false","""event"",""trial"",""time""
""fullscreenenter"",""5"",""34159""
","
","
","""event"",""trial"",""time""
""fullscreenenter"",""5"",""34159""
","
","1085.8999998569489","","49","","","3000","1","","","images/tutyellowplanet.jpg","images/tutalien4","images/tutalien3","images/tutrocket1","images/tutalien3","images/t.png","2","practice","true","1","common","1","2022-02-08 23:21:29.708"
"two-step-fixation","72","405545","0.0-61.0-2.3","702","654","9","Male","false","false","false","false","""event"",""trial"",""time""
""fullscreenenter"",""5"",""34159""
","
","
","""event"",""trial"",""time""
""fullscreenenter"",""5"",""34159""
","
","","images/earth.jpg","","","","","","","","","","","","","","fixation","","","","","",""
"d3-animate-choice","73","407743","0.0-61.0-0.4","702","654","9","Male","false","false","false","false","""event"",""trial"",""time""
""fullscreenenter"",""5"",""34159""
","
","
","""event"",""trial"",""time""
""fullscreenenter"",""5"",""34159""
","
","186.79999995231628","","48","","","3000","1","1885.2000000476837,1990.4000000953674","49,51","images/earth.jpg","images/tutrocket2","images/tutrocket1","null","images/tutrocket2","","1","practice","null","2","","",""
"d3-animate-choice","74","409979","0.0-61.0-1.4","702","654","9","Male","false","false","false","false","""event"",""trial"",""time""
""fullscreenenter"",""5"",""34159""
","
","
","""event"",""trial"",""time""
""fullscreenenter"",""5"",""34159""
","
","95","","57","","","3000","1","231.09999990463257,548.9000000953674,563.2000000476837","49,48,49","images/tutgreenplanet.jpg","images/tutalien2","images/tutalien1","images/tutrocket2","images/tutalien1","images/nothing.png","2","practice","true","","common","0","2022-02-08 23:21:35.151"
"two-step-fixation","75","410993","0.0-61.0-2.4","702","654","9","Male","false","false","false","false","""event"",""trial"",""time""
""fullscreenenter"",""5"",""34159""
","
","
","""event"",""trial"",""time""
""fullscreenenter"",""5"",""34159""
","
","","images/earth.jpg","","","","","","","","","","","","","","fixation","","","","","",""
"d3-animate-choice","76","413137","0.0-61.0-0.5","702","654","9","Male","false","false","false","false","""event"",""trial"",""time""
""fullscreenenter"",""5"",""34159""
","
","
","""event"",""trial"",""time""
""fullscreenenter"",""5"",""34159""
","
","128.89999985694885","","48","","","3000","1","","","images/earth.jpg","images/tutrocket2","images/tutrocket1","null","images/tutrocket2","","1","practice","null","2","","",""
"d3-animate-choice","77","416588","0.0-61.0-1.5","702","654","9","Male","false","false","false","false","""event"",""trial"",""time""
""fullscreenenter"",""5"",""34159""
","
","
","""event"",""trial"",""time""
""fullscreenenter"",""5"",""34159""
","
","1442.1000001430511","","49","","","3000","1","","","images/tutgreenplanet.jpg","images/tutalien2","images/tutalien1","images/tutrocket2","images/tutalien1","images/t.png","2","practice","true","1","common","1","2022-02-08 23:21:41.760"
"two-step-fixation","78","417596","0.0-61.0-2.5","702","654","9","Male","false","false","false","false","""event"",""trial"",""time""
""fullscreenenter"",""5"",""34159""
","
","
","""event"",""trial"",""time""
""fullscreenenter"",""5"",""34159""
","
","","images/earth.jpg","","","","","","","","","","","","","","fixation","","","","","",""
"d3-animate-choice","79","419892","0.0-61.0-0.6","702","654","9","Male","false","false","false","false","""event"",""trial"",""time""
""fullscreenenter"",""5"",""34159""
","
","
","""event"",""trial"",""time""
""fullscreenenter"",""5"",""34159""
","
","287","","48","","","3000","1","","","images/earth.jpg","images/tutrocket2","images/tutrocket1","null","images/tutrocket2","","1","practice","null","2","","",""
"d3-animate-choice","80","422899","0.0-61.0-1.6","702","654","9","Male","false","false","false","false","""event"",""trial"",""time""
""fullscreenenter"",""5"",""34159""
","
","
","""event"",""trial"",""time""
""fullscreenenter"",""5"",""34159""
","
","994","","49","","","3000","1","","","images/tutgreenplanet.jpg","images/tutalien2","images/tutalien1","images/tutrocket2","images/tutalien1","images/nothing.png","2","practice","true","1","common","0","2022-02-08 23:21:48.071"
"two-step-fixation","81","423907","0.0-61.0-2.6","702","654","9","Male","false","false","false","false","""event"",""trial"",""time""
""fullscreenenter"",""5"",""34159""
","
","
","""event"",""trial"",""time""
""fullscreenenter"",""5"",""34159""
","
","","images/earth.jpg","","","","","","","","","","","","","","fixation","","","","","",""
"d3-animate-choice","82","426329","0.0-61.0-0.7","702","654","9","Male","false","false","false","false","""event"",""trial"",""time""
""fullscreenenter"",""5"",""34159""
","
","
","""event"",""trial"",""time""
""fullscreenenter"",""5"",""34159""
","
","404.5","","49","","","3000","1","","","images/earth.jpg","images/tutrocket2","images/tutrocket1","null","images/tutrocket1","","1","practice","null","1","","",""
"d3-animate-choice","83","429860","0.0-61.0-1.7","702","654","9","Male","false","false","false","false","""event"",""trial"",""time""
""fullscreenenter"",""5"",""34159""
","
","
","""event"",""trial"",""time""
""fullscreenenter"",""5"",""34159""
","
","1515.7999999523163","","48","","","3000","1","","","images/tutyellowplanet.jpg","images/tutalien4","images/tutalien3","images/tutrocket1","images/tutalien4","images/t.png","2","practice","true","2","common","1","2022-02-08 23:21:55.032"
"two-step-fixation","84","430867","0.0-61.0-2.7","702","654","9","Male","false","false","false","false","""event"",""trial"",""time""
""fullscreenenter"",""5"",""34159""
","
","
","""event"",""trial"",""time""
""fullscreenenter"",""5"",""34159""
","
","","images/earth.jpg","","","","","","","","","","","","","","fixation","","","","","",""
"d3-animate-choice","85","433193","0.0-61.0-0.8","702","654","9","Male","false","false","false","false","""event"",""trial"",""time""
""fullscreenenter"",""5"",""34159""
","
","
","""event"",""trial"",""time""
""fullscreenenter"",""5"",""34159""
","
","315.30000019073486","","48","","","3000","1","","","images/earth.jpg","images/tutrocket2","images/tutrocket1","null","images/tutrocket2","","1","practice","null","2","","",""
"d3-animate-choice","86","435978","0.0-61.0-1.8","702","654","9","Male","false","false","false","false","""event"",""trial"",""time""
""fullscreenenter"",""5"",""34159""
","
","
","""event"",""trial"",""time""
""fullscreenenter"",""5"",""34159""
","
","771.6000001430511","","49","","","3000","1","","","images/tutgreenplanet.jpg","images/tutalien2","images/tutalien1","images/tutrocket2","images/tutalien1","images/nothing.png","2","practice","true","1","common","0","2022-02-08 23:22:01.150"
"two-step-fixation","87","436990","0.0-61.0-2.8","702","654","9","Male","false","false","false","false","""event"",""trial"",""time""
""fullscreenenter"",""5"",""34159""
","
","
","""event"",""trial"",""time""
""fullscreenenter"",""5"",""34159""
","
","","images/earth.jpg","","","","","","","","","","","","","","fixation","","","","","",""
"d3-animate-choice","88","440058","0.0-61.0-0.9","702","654","9","Male","false","false","false","false","""event"",""trial"",""time""
""fullscreenenter"",""5"",""34159""
","
","
","""event"",""trial"",""time""
""fullscreenenter"",""5"",""34159""
","
","1055.2000000476837","","48","","","3000","1","1807.5,2068.2999999523163,2745.0999999046326","48,48,48","images/earth.jpg","images/tutrocket2","images/tutrocket1","null","images/tutrocket2","","1","practice","null","2","","",""
"d3-animate-choice","89","442420","0.0-61.0-1.9","702","654","9","Male","false","false","false","false","""event"",""trial"",""time""
""fullscreenenter"",""5"",""34159""
","
","
","""event"",""trial"",""time""
""fullscreenenter"",""5"",""34159""
","
","352.7999999523163","","48","","","3000","1","","","images/tutyellowplanet.jpg","images/tutalien4","images/tutalien3","images/tutrocket2","images/tutalien4","images/t.png","2","practice","false","2","rare","1","2022-02-08 23:22:07.592"
"two-step-fixation","90","443429","0.0-61.0-2.9","702","654","9","Male","false","false","false","false","""event"",""trial"",""time""
""fullscreenenter"",""5"",""34159""
","
","
","""event"",""trial"",""time""
""fullscreenenter"",""5"",""34159""
","
","","images/earth.jpg","","","","","","","","","","","","","","fixation","","","","","",""
"d3-animate-choice","91","445821","0.0-61.0-0.10","702","654","9","Male","false","false","false","false","""event"",""trial"",""time""
""fullscreenenter"",""5"",""34159""
","
","
","""event"",""trial"",""time""
""fullscreenenter"",""5"",""34159""
","
","383.2999999523163","","49","","","3000","1","","","images/earth.jpg","images/tutrocket2","images/tutrocket1","null","images/tutrocket1","","1","practice","null","1","","",""
"d3-animate-choice","92","448135","0.0-61.0-1.10","702","654","9","Male","false","false","false","false","""event"",""trial"",""time""
""fullscreenenter"",""5"",""34159""
","
","
","""event"",""trial"",""time""
""fullscreenenter"",""5"",""34159""
","
","296.90000009536743","","48","","","3000","1","","","images/tutyellowplanet.jpg","images/tutalien4","images/tutalien3","images/tutrocket1","images/tutalien4","images/t.png","2","practice","true","2","common","1","2022-02-08 23:22:13.307"
"two-step-fixation","93","449145","0.0-61.0-2.10","702","654","9","Male","false","false","false","false","""event"",""trial"",""time""
""fullscreenenter"",""5"",""34159""
","
","
","""event"",""trial"",""time""
""fullscreenenter"",""5"",""34159""
","
","","images/earth.jpg","","","","","","","","","","","","","","fixation","","","","","",""
"d3-animate-choice","94","451578","0.0-61.0-0.11","702","654","9","Male","false","false","false","false","""event"",""trial"",""time""
""fullscreenenter"",""5"",""34159""
","
","
","""event"",""trial"",""time""
""fullscreenenter"",""5"",""34159""
","
","422.90000009536743","","49","","","3000","1","","","images/earth.jpg","images/tutrocket2","images/tutrocket1","null","images/tutrocket1","","1","practice","null","1","","",""
"d3-animate-choice","95","454506","0.0-61.0-1.11","702","654","9","Male","false","false","false","false","""event"",""trial"",""time""
""fullscreenenter"",""5"",""34159""
","
","
","""event"",""trial"",""time""
""fullscreenenter"",""5"",""34159""
","
","910.7000000476837","","48","","","3000","1","","","images/tutgreenplanet.jpg","images/tutalien2","images/tutalien1","images/tutrocket1","images/tutalien2","images/nothing.png","2","practice","false","2","rare","0","2022-02-08 23:22:19.679"
"two-step-fixation","96","455513","0.0-61.0-2.11","702","654","9","Male","false","false","false","false","""event"",""trial"",""time""
""fullscreenenter"",""5"",""34159""
","
","
","""event"",""trial"",""time""
""fullscreenenter"",""5"",""34159""
","
","","images/earth.jpg","","","","","","","","","","","","","","fixation","","","","","",""
"d3-animate-choice","97","457822","0.0-61.0-0.12","702","654","9","Male","false","false","false","false","""event"",""trial"",""time""
""fullscreenenter"",""5"",""34159""
","
","
","""event"",""trial"",""time""
""fullscreenenter"",""5"",""34159""
","
","296.89999985694885","","49","","","3000","1","","","images/earth.jpg","images/tutrocket2","images/tutrocket1","null","images/tutrocket1","","1","practice","null","1","","",""
"d3-animate-choice","98","460532","0.0-61.0-1.12","702","654","9","Male","false","false","false","false","""event"",""trial"",""time""
""fullscreenenter"",""5"",""34159""
","
","
","""event"",""trial"",""time""
""fullscreenenter"",""5"",""34159""
","
","696.0999999046326","","49","","","3000","1","2639.899999856949","49","images/tutgreenplanet.jpg","images/tutalien2","images/tutalien1","images/tutrocket1","images/tutalien1","images/t.png","2","practice","false","1","rare","1","2022-02-08 23:22:25.704"
"two-step-fixation","99","461554","0.0-61.0-2.12","702","654","9","Male","false","false","false","false","""event"",""trial"",""time""
""fullscreenenter"",""5"",""34159""
","
","
","""event"",""trial"",""time""
""fullscreenenter"",""5"",""34159""
","
","","images/earth.jpg","","","","","","","","","","","","","","fixation","","","","","",""
"d3-animate-choice","100","463982","0.0-61.0-0.13","702","654","9","Male","false","false","false","false","""event"",""trial"",""time""
""fullscreenenter"",""5"",""34159""
","
","
","""event"",""trial"",""time""
""fullscreenenter"",""5"",""34159""
","
","412.90000009536743","","48","","","3000","1","","","images/earth.jpg","images/tutrocket2","images/tutrocket1","null","images/tutrocket2","","1","practice","null","2","","",""
"d3-animate-choice","101","467221","0.0-61.0-1.13","702","654","9","Male","false","false","false","false","""event"",""trial"",""time""
""fullscreenenter"",""5"",""34159""
","
","
","""event"",""trial"",""time""
""fullscreenenter"",""5"",""34159""
","
","1230","","48","","","3000","1","","","images/tutgreenplanet.jpg","images/tutalien2","images/tutalien1","images/tutrocket2","images/tutalien2","images/nothing.png","2","practice","true","2","common","0","2022-02-08 23:22:32.393"
"two-step-fixation","102","468230","0.0-61.0-2.13","702","654","9","Male","false","false","false","false","""event"",""trial"",""time""
""fullscreenenter"",""5"",""34159""
","
","
","""event"",""trial"",""time""
""fullscreenenter"",""5"",""34159""
","
","","images/earth.jpg","","","","","","","","","","","","","","fixation","","","","","",""
"d3-animate-choice","103","471178","0.0-61.0-0.14","702","654","9","Male","false","false","false","false","""event"",""trial"",""time""
""fullscreenenter"",""5"",""34159""
","
","
","""event"",""trial"",""time""
""fullscreenenter"",""5"",""34159""
","
","931.2999999523163","","49","","","3000","1","","","images/earth.jpg","images/tutrocket2","images/tutrocket1","null","images/tutrocket1","","1","practice","null","1","","",""
"d3-animate-choice","104","474733","0.0-61.0-1.14","702","654","9","Male","false","false","false","false","""event"",""trial"",""time""
""fullscreenenter"",""5"",""34159""
","
","
","""event"",""trial"",""time""
""fullscreenenter"",""5"",""34159""
","
","1542","","48","","","3000","1","","","images/tutgreenplanet.jpg","images/tutalien2","images/tutalien1","images/tutrocket1","images/tutalien2","images/t.png","2","practice","false","2","rare","1","2022-02-08 23:22:39.905"
"two-step-fixation","105","475747","0.0-61.0-2.14","702","654","9","Male","false","false","false","false","""event"",""trial"",""time""
""fullscreenenter"",""5"",""34159""
","
","
","""event"",""trial"",""time""
""fullscreenenter"",""5"",""34159""
","
","","images/earth.jpg","","","","","","","","","","","","","","fixation","","","","","",""
"d3-animate-choice","106","479776","0.0-61.0-0.15","702","654","9","Male","false","false","false","false","""event"",""trial"",""time""
""fullscreenenter"",""5"",""34159""
","
","
","""event"",""trial"",""time""
""fullscreenenter"",""5"",""34159""
","
","2585.5","","49","","","3000","1","","","images/earth.jpg","images/tutrocket2","images/tutrocket1","null","images/tutrocket1","","1","practice","null","1","","",""
"d3-animate-choice","107","482828","0.0-61.0-1.15","702","654","9","Male","false","false","false","false","""event"",""trial"",""time""
""fullscreenenter"",""5"",""34159""
","
","
","""event"",""trial"",""time""
""fullscreenenter"",""5"",""34159""
","
","1043.1000001430511","","48","","","3000","1","","","images/tutgreenplanet.jpg","images/tutalien2","images/tutalien1","images/tutrocket1","images/tutalien2","images/t.png","2","practice","false","2","rare","1","2022-02-08 23:22:48.000"
"two-step-fixation","108","483835","0.0-61.0-2.15","702","654","9","Male","false","false","false","false","""event"",""trial"",""time""
""fullscreenenter"",""5"",""34159""
","
","
","""event"",""trial"",""time""
""fullscreenenter"",""5"",""34159""
","
","","images/earth.jpg","","","","","","","","","","","","","","fixation","","","","","",""
"d3-animate-choice","109","486293","0.0-61.0-0.16","702","654","9","Male","false","false","false","false","""event"",""trial"",""time""
""fullscreenenter"",""5"",""34159""
","
","
","""event"",""trial"",""time""
""fullscreenenter"",""5"",""34159""
","
","451.7000000476837","","49","","","3000","1","","","images/earth.jpg","images/tutrocket2","images/tutrocket1","null","images/tutrocket1","","1","practice","null","1","","",""
"d3-animate-choice","110","489645","0.0-61.0-1.16","702","654","9","Male","false","false","false","false","""event"",""trial"",""time""
""fullscreenenter"",""5"",""34159""
","
","
","""event"",""trial"",""time""
""fullscreenenter"",""5"",""34159""
","
","1342.8999998569489","","48","","","3000","1","","","images/tutgreenplanet.jpg","images/tutalien2","images/tutalien1","images/tutrocket1","images/tutalien2","images/nothing.png","2","practice","false","2","rare","0","2022-02-08 23:22:54.817"
"two-step-fixation","111","490651","0.0-61.0-2.16","702","654","9","Male","false","false","false","false","""event"",""trial"",""time""
""fullscreenenter"",""5"",""34159""
","
","
","""event"",""trial"",""time""
""fullscreenenter"",""5"",""34159""
","
","","images/earth.jpg","","","","","","","","","","","","","","fixation","","","","","",""
"d3-animate-choice","112","493043","0.0-61.0-0.17","702","654","9","Male","false","false","false","false","""event"",""trial"",""time""
""fullscreenenter"",""5"",""34159""
","
","
","""event"",""trial"",""time""
""fullscreenenter"",""5"",""34159""
","
","377.89999985694885","","49","","","3000","1","","","images/earth.jpg","images/tutrocket2","images/tutrocket1","null","images/tutrocket1","","1","practice","null","1","","",""
"d3-animate-choice","113","495514","0.0-61.0-1.17","702","654","9","Male","false","false","false","false","""event"",""trial"",""time""
""fullscreenenter"",""5"",""34159""
","
","
","""event"",""trial"",""time""
""fullscreenenter"",""5"",""34159""
","
","459.80000019073486","","48","","","3000","1","","","images/tutgreenplanet.jpg","images/tutalien2","images/tutalien1","images/tutrocket1","images/tutalien2","images/nothing.png","2","practice","false","2","rare","0","2022-02-08 23:23:00.686"
"two-step-fixation","114","496524","0.0-61.0-2.17","702","654","9","Male","false","false","false","false","""event"",""trial"",""time""
""fullscreenenter"",""5"",""34159""
","
","
","""event"",""trial"",""time""
""fullscreenenter"",""5"",""34159""
","
","","images/earth.jpg","","","","","","","","","","","","","","fixation","","","","","",""
"d3-animate-choice","115","498630","0.0-61.0-0.18","702","654","9","Male","false","false","false","false","""event"",""trial"",""time""
""fullscreenenter"",""5"",""34159""
","
","
","""event"",""trial"",""time""
""fullscreenenter"",""5"",""34159""
","
","95.29999995231628","","49","","","3000","1","295.7000000476837","48","images/earth.jpg","images/tutrocket2","images/tutrocket1","null","images/tutrocket1","","1","practice","null","1","","",""
"d3-animate-choice","116","501356","0.0-61.0-1.18","702","654","9","Male","false","false","false","false","""event"",""trial"",""time""
""fullscreenenter"",""5"",""34159""
","
","
","""event"",""trial"",""time""
""fullscreenenter"",""5"",""34159""
","
","713.2000000476837","","48","","","3000","1","","","images/tutgreenplanet.jpg","images/tutalien2","images/tutalien1","images/tutrocket1","images/tutalien2","images/nothing.png","2","practice","false","2","rare","0","2022-02-08 23:23:06.528"
"two-step-fixation","117","502363","0.0-61.0-2.18","702","654","9","Male","false","false","false","false","""event"",""trial"",""time""
""fullscreenenter"",""5"",""34159""
","
","
","""event"",""trial"",""time""
""fullscreenenter"",""5"",""34159""
","
","","images/earth.jpg","","","","","","","","","","","","","","fixation","","","","","",""
"d3-animate-choice","118","504519","0.0-61.0-0.19","702","654","9","Male","false","false","false","false","""event"",""trial"",""time""
""fullscreenenter"",""5"",""34159""
","
","
","""event"",""trial"",""time""
""fullscreenenter"",""5"",""34159""
","
","149.20000004768372","","49","","","3000","1","351.90000009536743","48","images/earth.jpg","images/tutrocket2","images/tutrocket1","null","images/tutrocket1","","1","practice","null","1","","",""
"d3-animate-choice","119","506629","0.0-61.0-1.19","702","654","9","Male","false","false","false","false","""event"",""trial"",""time""
""fullscreenenter"",""5"",""34159""
","
","
","""event"",""trial"",""time""
""fullscreenenter"",""5"",""34159""
","
","98.5","","48","","","3000","1","","","images/tutyellowplanet.jpg","images/tutalien4","images/tutalien3","images/tutrocket1","images/tutalien4","images/nothing.png","2","practice","true","2","common","0","2022-02-08 23:23:11.802"
"two-step-fixation","120","507643","0.0-61.0-2.19","702","654","9","Male","false","false","false","false","""event"",""trial"",""time""
""fullscreenenter"",""5"",""34159""
","
","
","""event"",""trial"",""time""
""fullscreenenter"",""5"",""34159""
","
","","images/earth.jpg","","","","","","","","","","","","","","fixation","","","","","",""
"d3-instructions","121","512844","0.0-62.0","702","654","9","Male","false","false","false","false","""event"",""trial"",""time""
""fullscreenenter"",""5"",""34159""
","
","
","""event"",""trial"",""time""
""fullscreenenter"",""5"",""34159""
","
","","","","","","","","","","","","","","","","","","","","","",""
"audio-keyboard-response","122","515184","0.0-63.0","702","654","9","Male","false","false","false","false","""event"",""trial"",""time""
""fullscreenenter"",""5"",""34159""
","
","
","""event"",""trial"",""time""
""fullscreenenter"",""5"",""34159""
","
","2339","audio/instructions/treasure_feedback.wav","32","","","","","","","","","","","","","","","","","","",""
"d3-instructions","123","526756","0.0-64.0","702","654","9","Male","false","false","false","false","""event"",""trial"",""time""
""fullscreenenter"",""5"",""34159""
","
","
","""event"",""trial"",""time""
""fullscreenenter"",""5"",""34159""
","
","","","","","","","","","","","","","","","","","","","","","",""
"d3-instructions","124","534397","0.0-65.0","702","654","9","Male","false","false","false","false","""event"",""trial"",""time""
""fullscreenenter"",""5"",""34159""
","
","
","""event"",""trial"",""time""
""fullscreenenter"",""5"",""34159""
","
","","","","","","","","","","","","","","","","","","","","","",""
"d3-instructions","125","556050","0.0-66.0","702","654","9","Male","false","false","false","false","""event"",""trial"",""time""
""fullscreenenter"",""5"",""34159""
","
","
","""event"",""trial"",""time""
""fullscreenenter"",""5"",""34159""
","
","","","","","","","","","","","","","","","","","","","","","",""
"d3-instructions","126","567972","0.0-67.0","702","654","9","Male","false","false","false","false","""event"",""trial"",""time""
""fullscreenenter"",""5"",""34159""
","
","
","""event"",""trial"",""time""
""fullscreenenter"",""5"",""34159""
","
","","","","","","","","","","","","","","","","","","","","","",""
"d3-instructions","127","577535","0.0-68.0","702","654","9","Male","false","false","false","false","""event"",""trial"",""time""
""fullscreenenter"",""5"",""34159""
","
","
","""event"",""trial"",""time""
""fullscreenenter"",""5"",""34159""
","
","","","","","","","","","","","","","","","","","","","","","",""
"instructions-quiz","128","581795","0.0-69.0","702","654","9","Male","false","false","false","false","""event"",""trial"",""time""
""fullscreenenter"",""5"",""34159""
","
","
","""event"",""trial"",""time""
""fullscreenenter"",""5"",""34159""
","
","4256.099999904633","audio/quiz/Q1_Prompt.wav","","1","","","","","","","","","","","","","","","","","",""
"audio-keyboard-response","129","583714","0.0-70.0","702","654","9","Male","false","false","false","false","""event"",""trial"",""time""
""fullscreenenter"",""5"",""34159""
","
","
","""event"",""trial"",""time""
""fullscreenenter"",""5"",""34159""
","
","1920","audio/quiz/Q1_Correct.wav","32","","","","","","","","","","","","","","","","","","",""
"instructions-quiz","130","588804","0.0-71.0","702","654","9","Male","false","false","false","false","""event"",""trial"",""time""
""fullscreenenter"",""5"",""34159""
","
","
","""event"",""trial"",""time""
""fullscreenenter"",""5"",""34159""
","
","5087.299999952316","audio/quiz/Q2_Prompt.wav","","1","","","","","","","","","","","","","","","","","",""
"audio-keyboard-response","131","598552","0.0-72.0","702","654","9","Male","false","false","false","false","""event"",""trial"",""time""
""fullscreenenter"",""5"",""34159""
","
","
","""event"",""trial"",""time""
""fullscreenenter"",""5"",""34159""
","
","9749","audio/quiz/Q2_Incorrect.wav","32","","","","","","","","","","","","","","","","","","",""
"instructions-quiz","132","603859","0.0-73.0","702","654","9","Male","false","false","false","false","""event"",""trial"",""time""
""fullscreenenter"",""5"",""34159""
","
","
","""event"",""trial"",""time""
""fullscreenenter"",""5"",""34159""
","
","5303.699999809265","audio/quiz/Q3_Prompt.wav","","1","","","","","","","","","","","","","","","","","",""
"audio-keyboard-response","133","604856","0.0-74.0","702","654","9","Male","false","false","false","false","""event"",""trial"",""time""
""fullscreenenter"",""5"",""34159""
","
","
","""event"",""trial"",""time""
""fullscreenenter"",""5"",""34159""
","
","992","audio/quiz/Q3_Correct.wav","32","","","","","","","","","","","","","","","","","","",""
"d3-instructions","134","611784","0.0-75.0","702","654","9","Male","false","false","false","false","""event"",""trial"",""time""
""fullscreenenter"",""5"",""34159""
","
","
","""event"",""trial"",""time""
""fullscreenenter"",""5"",""34159""
","
","","","","","","","","","","","","","","","","","","","","","",""
"d3-animate-choice","135","615048","0.0-76.0-0.0","702","654","9","Male","false","false","false","false","""event"",""trial"",""time""
""fullscreenenter"",""5"",""34159""
","
","
","""event"",""trial"",""time""
""fullscreenenter"",""5"",""34159""
","
","941.5","","32","","","3000","1","1256.5999999046326,1275.2999999523163","49,50","images/earth.jpg","images/rocket1","images/rocket2","null","images/rocket2","","1","real","null","","","",""
"d3-animate-choice","136","618215","0.0-76.0-1.0","702","654","9","Male","false","false","false","false","""event"",""trial"",""time""
""fullscreenenter"",""5"",""34159""
","
","
","""event"",""trial"",""time""
""fullscreenenter"",""5"",""34159""
","
","1157.9000000953674","","48","","","3000","1","","","images/redplanet1.jpg","images/alien2","images/alien1","images/rocket2","images/alien2","images/nothing.png","2","real","true","2","common","0","2022-02-08 23:25:03.388"
"two-step-fixation","137","619228","0.0-76.0-2.0","702","654","9","Male","false","false","false","false","""event"",""trial"",""time""
""fullscreenenter"",""5"",""34159""
","
","
","""event"",""trial"",""time""
""fullscreenenter"",""5"",""34159""
","
","","images/earth.jpg","","","","","","","","","","","","","","fixation","","","","","",""
"d3-animate-choice","138","621550","0.0-76.0-0.1","702","654","9","Male","false","false","false","false","""event"",""trial"",""time""
""fullscreenenter"",""5"",""34159""
","
","
","""event"",""trial"",""time""
""fullscreenenter"",""5"",""34159""
","
","307.2000000476837","","49","","","3000","1","","","images/earth.jpg","images/rocket1","images/rocket2","null","images/rocket2","","1","real","null","1","","",""
"d3-animate-choice","139","624078","0.0-76.0-1.1","702","654","9","Male","false","false","false","false","""event"",""trial"",""time""
""fullscreenenter"",""5"",""34159""
","
","
","""event"",""trial"",""time""
""fullscreenenter"",""5"",""34159""
","
","515.2000000476837","","49","","","3000","1","2456","48","images/purpleplanet.jpg","images/alien4","images/alien3","images/rocket2","images/alien3","images/nothing.png","2","real","false","1","rare","0","2022-02-08 23:25:09.251"
"two-step-fixation","140","625099","0.0-76.0-2.1","702","654","9","Male","false","false","false","false","""event"",""trial"",""time""
""fullscreenenter"",""5"",""34159""
","
","
","""event"",""trial"",""time""
""fullscreenenter"",""5"",""34159""
","
","","images/earth.jpg","","","","","","","","","","","","","","fixation","","","","","",""
"d3-animate-choice","141","627198","0.0-76.0-0.2","702","654","9","Male","false","false","false","false","""event"",""trial"",""time""
""fullscreenenter"",""5"",""34159""
","
","
","""event"",""trial"",""time""
""fullscreenenter"",""5"",""34159""
","
","86.19999980926514","","49","","","3000","1","145.5,277.09999990463257,318.19999980926514","48,49,48","images/earth.jpg","images/rocket1","images/rocket2","null","images/rocket2","","1","real","null","1","","",""
"d3-animate-choice","142","630859","0.0-76.0-1.2","702","654","9","Male","false","false","false","false","""event"",""trial"",""time""
""fullscreenenter"",""5"",""34159""
","
","
","""event"",""trial"",""time""
""fullscreenenter"",""5"",""34159""
","
","1641.2000000476837","","48","","","3000","1","","","images/redplanet1.jpg","images/alien2","images/alien1","images/rocket2","images/alien2","images/t.png","2","real","true","2","common","1","2022-02-08 23:25:16.031"
"two-step-fixation","143","631878","0.0-76.0-2.2","702","654","9","Male","false","false","false","false","""event"",""trial"",""time""
""fullscreenenter"",""5"",""34159""
","
","
","""event"",""trial"",""time""
""fullscreenenter"",""5"",""34159""
","
","","images/earth.jpg","","","","","","","","","","","","","","fixation","","","","","",""
"d3-animate-choice","144","634218","0.0-76.0-0.3","702","654","9","Male","false","false","false","false","""event"",""trial"",""time""
""fullscreenenter"",""5"",""34159""
","
","
","""event"",""trial"",""time""
""fullscreenenter"",""5"",""34159""
","
","334.2999999523163","","49","","","3000","1","","","images/earth.jpg","images/rocket1","images/rocket2","null","images/rocket2","","1","real","null","1","","",""
"d3-animate-choice","145","636778","0.0-76.0-1.3","702","654","9","Male","false","false","false","false","""event"",""trial"",""time""
""fullscreenenter"",""5"",""34159""
","
","
","""event"",""trial"",""time""
""fullscreenenter"",""5"",""34159""
","
","542.2000000476837","","49","","","3000","1","","","images/redplanet1.jpg","images/alien2","images/alien1","images/rocket2","images/alien1","images/nothing.png","2","real","true","1","common","0","2022-02-08 23:25:21.950"
"two-step-fixation","146","637788","0.0-76.0-2.3","702","654","9","Male","false","false","false","false","""event"",""trial"",""time""
""fullscreenenter"",""5"",""34159""
","
","
","""event"",""trial"",""time""
""fullscreenenter"",""5"",""34159""
","
","","images/earth.jpg","","","","","","","","","","","","","","fixation","","","","","",""
"d3-animate-choice","147","640398","0.0-76.0-0.4","702","654","9","Male","false","false","false","false","""event"",""trial"",""time""
""fullscreenenter"",""5"",""34159""
","
","
","""event"",""trial"",""time""
""fullscreenenter"",""5"",""34159""
","
","584.0999999046326","","49","","","3000","1","","","images/earth.jpg","images/rocket1","images/rocket2","null","images/rocket2","","1","real","null","1","","",""
"d3-animate-choice","148","642697","0.0-76.0-1.4","702","654","9","Male","false","false","false","false","""event"",""trial"",""time""
""fullscreenenter"",""5"",""34159""
","
","
","""event"",""trial"",""time""
""fullscreenenter"",""5"",""34159""
","
","286.80000019073486","","49","","","3000","1","","","images/redplanet1.jpg","images/alien2","images/alien1","images/rocket2","images/alien1","images/nothing.png","2","real","true","1","common","0","2022-02-08 23:25:27.869"
"two-step-fixation","149","643709","0.0-76.0-2.4","702","654","9","Male","false","false","false","false","""event"",""trial"",""time""
""fullscreenenter"",""5"",""34159""
","
","
","""event"",""trial"",""time""
""fullscreenenter"",""5"",""34159""
","
","","images/earth.jpg","","","","","","","","","","","","","","fixation","","","","","",""
"d3-animate-choice","150","645955","0.0-76.0-0.5","702","654","9","Male","false","false","false","false","""event"",""trial"",""time""
""fullscreenenter"",""5"",""34159""
","
","
","""event"",""trial"",""time""
""fullscreenenter"",""5"",""34159""
","
","235.5","","49","","","3000","1","514.5999999046326,1065.2000000476837,1333.5999999046326","49,49,49","images/earth.jpg","images/rocket1","images/rocket2","null","images/rocket2","","1","real","null","1","","",""
"d3-animate-choice","151","648193","0.0-76.0-1.5","702","654","9","Male","false","false","false","false","""event"",""trial"",""time""
""fullscreenenter"",""5"",""34159""
","
","
","""event"",""trial"",""time""
""fullscreenenter"",""5"",""34159""
","
","232.70000004768372","","49","","","3000","1","","","images/purpleplanet.jpg","images/alien4","images/alien3","images/rocket2","images/alien3","images/t.png","2","real","false","1","rare","1","2022-02-08 23:25:33.365"
"two-step-fixation","152","649203","0.0-76.0-2.5","702","654","9","Male","false","false","false","false","""event"",""trial"",""time""
""fullscreenenter"",""5"",""34159""
","
","
","""event"",""trial"",""time""
""fullscreenenter"",""5"",""34159""
","
","","images/earth.jpg","","","","","","","","","","","","","","fixation","","","","","",""
"d3-animate-choice","153","651653","0.0-76.0-0.6","702","654","9","Male","false","false","false","false","""event"",""trial"",""time""
""fullscreenenter"",""5"",""34159""
","
","
","""event"",""trial"",""time""
""fullscreenenter"",""5"",""34159""
","
","437.39999985694885","","49","","","3000","1","","","images/earth.jpg","images/rocket1","images/rocket2","null","images/rocket2","","1","real","null","1","","",""
"d3-animate-choice","154","654414","0.0-76.0-1.6","702","654","9","Male","false","false","false","false","""event"",""trial"",""time""
""fullscreenenter"",""5"",""34159""
","
","
","""event"",""trial"",""time""
""fullscreenenter"",""5"",""34159""
","
","752.0999999046326","","48","","","3000","1","2511.0999999046326","48","images/purpleplanet.jpg","images/alien4","images/alien3","images/rocket2","images/alien4","images/t.png","2","real","false","2","rare","1","2022-02-08 23:25:39.586"
"two-step-fixation","155","655422","0.0-76.0-2.6","702","654","9","Male","false","false","false","false","""event"",""trial"",""time""
""fullscreenenter"",""5"",""34159""
","
","
","""event"",""trial"",""time""
""fullscreenenter"",""5"",""34159""
","
","","images/earth.jpg","","","","","","","","","","","","","","fixation","","","","","",""
"d3-animate-choice","156","657875","0.0-76.0-0.7","702","654","9","Male","false","false","false","false","""event"",""trial"",""time""
""fullscreenenter"",""5"",""34159""
","
","
","""event"",""trial"",""time""
""fullscreenenter"",""5"",""34159""
","
","444.90000009536743","","49","","","3000","1","","","images/earth.jpg","images/rocket1","images/rocket2","null","images/rocket2","","1","real","null","1","","",""
"d3-animate-choice","157","660733","0.0-76.0-1.7","702","654","9","Male","false","false","false","false","""event"",""trial"",""time""
""fullscreenenter"",""5"",""34159""
","
","
","""event"",""trial"",""time""
""fullscreenenter"",""5"",""34159""
","
","853.9000000953674","","49","","","3000","1","","","images/redplanet1.jpg","images/alien2","images/alien1","images/rocket2","images/alien1","images/t.png","2","real","true","1","common","1","2022-02-08 23:25:45.905"
"two-step-fixation","158","661750","0.0-76.0-2.7","702","654","9","Male","false","false","false","false","""event"",""trial"",""time""
""fullscreenenter"",""5"",""34159""
","
","
","""event"",""trial"",""time""
""fullscreenenter"",""5"",""34159""
","
","","images/earth.jpg","","","","","","","","","","","","","","fixation","","","","","",""
"d3-animate-choice","159","664318","0.0-76.0-0.8","702","654","9","Male","false","false","false","false","""event"",""trial"",""time""
""fullscreenenter"",""5"",""34159""
","
","
","""event"",""trial"",""time""
""fullscreenenter"",""5"",""34159""
","
","562.2000000476837","","49","","","3000","1","805.5","48","images/earth.jpg","images/rocket1","images/rocket2","null","images/rocket2","","1","real","null","1","","",""
"d3-animate-choice","160","666709","0.0-76.0-1.8","702","654","9","Male","false","false","false","false","""event"",""trial"",""time""
""fullscreenenter"",""5"",""34159""
","
","
","""event"",""trial"",""time""
""fullscreenenter"",""5"",""34159""
","
","386.7000000476837","","48","","","3000","1","868.5999999046326","57","images/redplanet1.jpg","images/alien2","images/alien1","images/rocket2","images/alien2","images/nothing.png","2","real","true","2","common","0","2022-02-08 23:25:51.881"
"two-step-fixation","161","667724","0.0-76.0-2.8","702","654","9","Male","false","false","false","false","""event"",""trial"",""time""
""fullscreenenter"",""5"",""34159""
","
","
","""event"",""trial"",""time""
""fullscreenenter"",""5"",""34159""
","
","","images/earth.jpg","","","","","","","","","","","","","","fixation","","","","","",""
"d3-animate-choice","162","670211","0.0-76.0-0.9","702","654","9","Male","false","false","false","false","""event"",""trial"",""time""
""fullscreenenter"",""5"",""34159""
","
","
","""event"",""trial"",""time""
""fullscreenenter"",""5"",""34159""
","
","477.2000000476837","","48","","","3000","1","1088","49","images/earth.jpg","images/rocket1","images/rocket2","null","images/rocket1","","1","real","null","2","","",""
"d3-animate-choice","163","672571","0.0-76.0-1.9","702","654","9","Male","false","false","false","false","""event"",""trial"",""time""
""fullscreenenter"",""5"",""34159""
","
","
","""event"",""trial"",""time""
""fullscreenenter"",""5"",""34159""
","
","351.7999999523163","","49","","","3000","1","","","images/redplanet1.jpg","images/alien2","images/alien1","images/rocket1","images/alien1","images/t.png","2","real","false","1","rare","1","2022-02-08 23:25:57.743"
"two-step-fixation","164","673581","0.0-76.0-2.9","702","654","9","Male","false","false","false","false","""event"",""trial"",""time""
""fullscreenenter"",""5"",""34159""
","
","
","""event"",""trial"",""time""
""fullscreenenter"",""5"",""34159""
","
","","images/earth.jpg","","","","","","","","","","","","","","fixation","","","","","",""
"d3-animate-choice","165","676313","0.0-76.0-0.10","702","654","9","Male","false","false","false","false","""event"",""trial"",""time""
""fullscreenenter"",""5"",""34159""
","
","
","""event"",""trial"",""time""
""fullscreenenter"",""5"",""34159""
","
","706.1000001430511","","49","","","3000","1","","","images/earth.jpg","images/rocket1","images/rocket2","null","images/rocket2","","1","real","null","1","","",""
"d3-animate-choice","166","678713","0.0-76.0-1.10","702","654","9","Male","false","false","false","false","""event"",""trial"",""time""
""fullscreenenter"",""5"",""34159""
","
","
","""event"",""trial"",""time""
""fullscreenenter"",""5"",""34159""
","
","392.90000009536743","","49","","","3000","1","","","images/redplanet1.jpg","images/alien2","images/alien1","images/rocket2","images/alien1","images/nothing.png","2","real","true","1","common","0","2022-02-08 23:26:03.886"
"two-step-fixation","167","679729","0.0-76.0-2.10","702","654","9","Male","false","false","false","false","""event"",""trial"",""time""
""fullscreenenter"",""5"",""34159""
","
","
","""event"",""trial"",""time""
""fullscreenenter"",""5"",""34159""
","
","","images/earth.jpg","","","","","","","","","","","","","","fixation","","","","","",""
"d3-animate-choice","168","682029","0.0-76.0-0.11","702","654","9","Male","false","false","false","false","""event"",""trial"",""time""
""fullscreenenter"",""5"",""34159""
","
","
","""event"",""trial"",""time""
""fullscreenenter"",""5"",""34159""
","
","286.2999999523163","","48","","","3000","1","","","images/earth.jpg","images/rocket1","images/rocket2","null","images/rocket1","","1","real","null","2","","",""
"d3-animate-choice","169","686046","0.0-76.0-1.11","702","654","9","Male","false","false","false","false","""event"",""trial"",""time""
""fullscreenenter"",""5"",""34159""
","
","
","""event"",""trial"",""time""
""fullscreenenter"",""5"",""34159""
","
","2014.8999998569489","","80","","","3000","1","2431.5","48","images/purpleplanet.jpg","images/alien4","images/alien3","images/rocket1","images/alien4","images/t.png","2","real","true","","common","1","2022-02-08 23:26:11.218"
"two-step-fixation","170","687051","0.0-76.0-2.11","702","654","9","Male","false","false","false","false","""event"",""trial"",""time""
""fullscreenenter"",""5"",""34159""
","
","
","""event"",""trial"",""time""
""fullscreenenter"",""5"",""34159""
","
","","images/earth.jpg","","","","","","","","","","","","","","fixation","","","","","",""
"d3-animate-choice","171","689778","0.0-76.0-0.12","702","654","9","Male","false","false","false","false","""event"",""trial"",""time""
""fullscreenenter"",""5"",""34159""
","
","
","""event"",""trial"",""time""
""fullscreenenter"",""5"",""34159""
","
","719.2999999523163","","48","","","3000","1","","","images/earth.jpg","images/rocket1","images/rocket2","null","images/rocket1","","1","real","null","2","","",""
"d3-animate-choice","172","692530","0.0-76.0-1.12","702","654","9","Male","false","false","false","false","""event"",""trial"",""time""
""fullscreenenter"",""5"",""34159""
","
","
","""event"",""trial"",""time""
""fullscreenenter"",""5"",""34159""
","
","740.2999999523163","","49","","","3000","1","","","images/redplanet1.jpg","images/alien2","images/alien1","images/rocket1","images/alien1","images/t.png","2","real","false","1","rare","1","2022-02-08 23:26:17.702"
"two-step-fixation","173","693536","0.0-76.0-2.12","702","654","9","Male","false","false","false","false","""event"",""trial"",""time""
""fullscreenenter"",""5"",""34159""
","
","
","""event"",""trial"",""time""
""fullscreenenter"",""5"",""34159""
","
","","images/earth.jpg","","","","","","","","","","","","","","fixation","","","","","",""
"d3-animate-choice","174","695870","0.0-76.0-0.13","702","654","9","Male","false","false","false","false","""event"",""trial"",""time""
""fullscreenenter"",""5"",""34159""
","
","
","""event"",""trial"",""time""
""fullscreenenter"",""5"",""34159""
","
","329","","49","","","3000","1","","","images/earth.jpg","images/rocket1","images/rocket2","null","images/rocket2","","1","real","null","1","","",""
"d3-animate-choice","175","698308","0.0-76.0-1.13","702","654","9","Male","false","false","false","false","""event"",""trial"",""time""
""fullscreenenter"",""5"",""34159""
","
","
","""event"",""trial"",""time""
""fullscreenenter"",""5"",""34159""
","
","431.89999985694885","","48","","","3000","1","","","images/purpleplanet.jpg","images/alien4","images/alien3","images/rocket2","images/alien4","images/t.png","2","real","false","2","rare","1","2022-02-08 23:26:23.480"
"two-step-fixation","176","699314","0.0-76.0-2.13","702","654","9","Male","false","false","false","false","""event"",""trial"",""time""
""fullscreenenter"",""5"",""34159""
","
","
","""event"",""trial"",""time""
""fullscreenenter"",""5"",""34159""
","
","","images/earth.jpg","","","","","","","","","","","","","","fixation","","","","","",""
"d3-animate-choice","177","701597","0.0-76.0-0.14","702","654","9","Male","false","false","false","false","""event"",""trial"",""time""
""fullscreenenter"",""5"",""34159""
","
","
","""event"",""trial"",""time""
""fullscreenenter"",""5"",""34159""
","
","277.19999980926514","","49","","","3000","1","872.2999999523163,1163.8999998569489","49,49","images/earth.jpg","images/rocket1","images/rocket2","null","images/rocket2","","1","real","null","1","","",""
"d3-animate-choice","178","703973","0.0-76.0-1.14","702","654","9","Male","false","false","false","false","""event"",""trial"",""time""
""fullscreenenter"",""5"",""34159""
","
","
","""event"",""trial"",""time""
""fullscreenenter"",""5"",""34159""
","
","365.90000009536743","","49","","","3000","1","","","images/redplanet1.jpg","images/alien2","images/alien1","images/rocket2","images/alien1","images/t.png","2","real","true","1","common","1","2022-02-08 23:26:29.145"
"two-step-fixation","179","704989","0.0-76.0-2.14","702","654","9","Male","false","false","false","false","""event"",""trial"",""time""
""fullscreenenter"",""5"",""34159""
","
","
","""event"",""trial"",""time""
""fullscreenenter"",""5"",""34159""
","
","","images/earth.jpg","","","","","","","","","","","","","","fixation","","","","","",""
"d3-animate-choice","180","707761","0.0-76.0-0.15","702","654","9","Male","false","false","false","false","""event"",""trial"",""time""
""fullscreenenter"",""5"",""34159""
","
","
","""event"",""trial"",""time""
""fullscreenenter"",""5"",""34159""
","
","762.2999999523163","","48","","","3000","1","","","images/earth.jpg","images/rocket1","images/rocket2","null","images/rocket1","","1","real","null","2","","",""
"d3-animate-choice","181","710024","0.0-76.0-1.15","702","654","9","Male","false","false","false","false","""event"",""trial"",""time""
""fullscreenenter"",""5"",""34159""
","
","
","""event"",""trial"",""time""
""fullscreenenter"",""5"",""34159""
","
","258.10000014305115","","49","","","3000","1","","","images/redplanet1.jpg","images/alien2","images/alien1","images/rocket1","images/alien1","images/nothing.png","2","real","false","1","rare","0","2022-02-08 23:26:35.196"
"two-step-fixation","182","711029","0.0-76.0-2.15","702","654","9","Male","false","false","false","false","""event"",""trial"",""time""
""fullscreenenter"",""5"",""34159""
","
","
","""event"",""trial"",""time""
""fullscreenenter"",""5"",""34159""
","
","","images/earth.jpg","","","","","","","","","","","","","","fixation","","","","","",""
"d3-animate-choice","183","713120","0.0-76.0-0.16","702","654","9","Male","false","false","false","false","""event"",""trial"",""time""
""fullscreenenter"",""5"",""34159""
","
","
","""event"",""trial"",""time""
""fullscreenenter"",""5"",""34159""
","
","84.39999985694885","","48","","","3000","1","","","images/earth.jpg","images/rocket1","images/rocket2","null","images/rocket1","","1","real","null","2","","",""
"d3-animate-choice","184","715766","0.0-76.0-1.16","702","654","9","Male","false","false","false","false","""event"",""trial"",""time""
""fullscreenenter"",""5"",""34159""
","
","
","""event"",""trial"",""time""
""fullscreenenter"",""5"",""34159""
","
","633","","48","","","3000","1","","","images/redplanet1.jpg","images/alien2","images/alien1","images/rocket1","images/alien2","images/nothing.png","2","real","false","2","rare","0","2022-02-08 23:26:40.939"
"two-step-fixation","185","716780","0.0-76.0-2.16","702","654","9","Male","false","false","false","false","""event"",""trial"",""time""
""fullscreenenter"",""5"",""34159""
","
","
","""event"",""trial"",""time""
""fullscreenenter"",""5"",""34159""
","
","","images/earth.jpg","","","","","","","","","","","","","","fixation","","","","","",""
"d3-animate-choice","186","718887","0.0-76.0-0.17","702","654","9","Male","false","false","false","false","""event"",""trial"",""time""
""fullscreenenter"",""5"",""34159""
","
","
","""event"",""trial"",""time""
""fullscreenenter"",""5"",""34159""
","
","100.60000014305115","","49","","","3000","1","388.2999999523163","49","images/earth.jpg","images/rocket1","images/rocket2","null","images/rocket2","","1","real","null","1","","",""
"d3-animate-choice","187","721774","0.0-76.0-1.17","702","654","9","Male","false","false","false","false","""event"",""trial"",""time""
""fullscreenenter"",""5"",""34159""
","
","
","""event"",""trial"",""time""
""fullscreenenter"",""5"",""34159""
","
","865.7000000476837","","49","","","3000","1","","","images/redplanet1.jpg","images/alien2","images/alien1","images/rocket2","images/alien1","images/t.png","2","real","true","1","common","1","2022-02-08 23:26:46.946"
"two-step-fixation","188","722786","0.0-76.0-2.17","702","654","9","Male","false","false","false","false","""event"",""trial"",""time""
""fullscreenenter"",""5"",""34159""
","
","
","""event"",""trial"",""time""
""fullscreenenter"",""5"",""34159""
","
","","images/earth.jpg","","","","","","","","","","","","","","fixation","","","","","",""
"d3-animate-choice","189","724875","0.0-76.0-0.18","702","654","9","Male","false","false","false","false","""event"",""trial"",""time""
""fullscreenenter"",""5"",""34159""
","
","
","""event"",""trial"",""time""
""fullscreenenter"",""5"",""34159""
","
","80","","49","","","3000","1","","","images/earth.jpg","images/rocket1","images/rocket2","null","images/rocket2","","1","real","null","1","","",""
"d3-animate-choice","190","727886","0.0-76.0-1.18","702","654","9","Male","false","false","false","false","""event"",""trial"",""time""
""fullscreenenter"",""5"",""34159""
","
","
","""event"",""trial"",""time""
""fullscreenenter"",""5"",""34159""
","
","996.7000000476837","","48","","","3000","1","","","images/purpleplanet.jpg","images/alien4","images/alien3","images/rocket2","images/alien4","images/t.png","2","real","false","2","rare","1","2022-02-08 23:26:53.058"
"two-step-fixation","191","728892","0.0-76.0-2.18","702","654","9","Male","false","false","false","false","""event"",""trial"",""time""
""fullscreenenter"",""5"",""34159""
","
","
","""event"",""trial"",""time""
""fullscreenenter"",""5"",""34159""
","
","","images/earth.jpg","","","","","","","","","","","","","","fixation","","","","","",""
"d3-animate-choice","192","731283","0.0-76.0-0.19","702","654","9","Male","false","false","false","false","""event"",""trial"",""time""
""fullscreenenter"",""5"",""34159""
","
","
","""event"",""trial"",""time""
""fullscreenenter"",""5"",""34159""
","
","376.89999985694885","","49","","","3000","1","","","images/earth.jpg","images/rocket1","images/rocket2","null","images/rocket2","","1","real","null","1","","",""
"d3-animate-choice","193","733665","0.0-76.0-1.19","702","654","9","Male","false","false","false","false","""event"",""trial"",""time""
""fullscreenenter"",""5"",""34159""
","
","
","""event"",""trial"",""time""
""fullscreenenter"",""5"",""34159""
","
","377.2000000476837","","49","","","3000","1","1114,1891.6000001430511","50,49","images/redplanet1.jpg","images/alien2","images/alien1","images/rocket2","images/alien1","images/t.png","2","real","true","1","common","1","2022-02-08 23:26:58.837"
"two-step-fixation","194","734672","0.0-76.0-2.19","702","654","9","Male","false","false","false","false","""event"",""trial"",""time""
""fullscreenenter"",""5"",""34159""
","
","
","""event"",""trial"",""time""
""fullscreenenter"",""5"",""34159""
","
","","images/earth.jpg","","","","","","","","","","","","","","fixation","","","","","",""
"d3-animate-choice","195","737027","0.0-76.0-0.20","702","654","9","Male","false","false","false","false","""event"",""trial"",""time""
""fullscreenenter"",""5"",""34159""
","
","
","""event"",""trial"",""time""
""fullscreenenter"",""5"",""34159""
","
","347.2000000476837","","48","","","3000","1","","","images/earth.jpg","images/rocket1","images/rocket2","null","images/rocket1","","1","real","null","2","","",""
"d3-animate-choice","196","739671","0.0-76.0-1.20","702","654","9","Male","false","false","false","false","""event"",""trial"",""time""
""fullscreenenter"",""5"",""34159""
","
","
","""event"",""trial"",""time""
""fullscreenenter"",""5"",""34159""
","
","624.4000000953674","","49","","","3000","1","","","images/purpleplanet.jpg","images/alien4","images/alien3","images/rocket1","images/alien3","images/nothing.png","2","real","true","1","common","0","2022-02-08 23:27:04.843"
"two-step-fixation","197","740681","0.0-76.0-2.20","702","654","9","Male","false","false","false","false","""event"",""trial"",""time""
""fullscreenenter"",""5"",""34159""
","
","
","""event"",""trial"",""time""
""fullscreenenter"",""5"",""34159""
","
","","images/earth.jpg","","","","","","","","","","","","","","fixation","","","","","",""
"d3-animate-choice","198","743281","0.0-76.0-0.21","702","654","9","Male","false","false","false","false","""event"",""trial"",""time""
""fullscreenenter"",""5"",""34159""
","
","
","""event"",""trial"",""time""
""fullscreenenter"",""5"",""34159""
","
","586.6000001430511","","48","","","3000","1","1769.9000000953674,2137.600000143051","50,49","images/earth.jpg","images/rocket1","images/rocket2","null","images/rocket1","","1","real","null","2","","",""
"d3-animate-choice","199","745846","0.0-76.0-1.21","702","654","9","Male","false","false","false","false","""event"",""trial"",""time""
""fullscreenenter"",""5"",""34159""
","
","
","""event"",""trial"",""time""
""fullscreenenter"",""5"",""34159""
","
","551.3999998569489","","48","","","3000","1","560.8999998569489","49","images/redplanet1.jpg","images/alien2","images/alien1","images/rocket1","images/alien2","images/t.png","2","real","false","2","rare","1","2022-02-08 23:27:11.018"
"two-step-fixation","200","746854","0.0-76.0-2.21","702","654","9","Male","false","false","false","false","""event"",""trial"",""time""
""fullscreenenter"",""5"",""34159""
","
","
","""event"",""trial"",""time""
""fullscreenenter"",""5"",""34159""
","
","","images/earth.jpg","","","","","","","","","","","","","","fixation","","","","","",""
"d3-animate-choice","201","749251","0.0-76.0-0.22","702","654","9","Male","false","false","false","false","""event"",""trial"",""time""
""fullscreenenter"",""5"",""34159""
","
","
","""event"",""trial"",""time""
""fullscreenenter"",""5"",""34159""
","
","389.5","","48","","","3000","1","393.39999985694885","49","images/earth.jpg","images/rocket1","images/rocket2","null","images/rocket1","","1","real","null","2","","",""
"d3-animate-choice","202","752504","0.0-76.0-1.22","702","654","9","Male","false","false","false","false","""event"",""trial"",""time""
""fullscreenenter"",""5"",""34159""
","
","
","""event"",""trial"",""time""
""fullscreenenter"",""5"",""34159""
","
","1238.6999998092651","","48","","","3000","1","1242.8999998569489","49","images/purpleplanet.jpg","images/alien4","images/alien3","images/rocket1","images/alien4","images/t.png","2","real","true","2","common","1","2022-02-08 23:27:17.676"
"two-step-fixation","203","753510","0.0-76.0-2.22","702","654","9","Male","false","false","false","false","""event"",""trial"",""time""
""fullscreenenter"",""5"",""34159""
","
","
","""event"",""trial"",""time""
""fullscreenenter"",""5"",""34159""
","
","","images/earth.jpg","","","","","","","","","","","","","","fixation","","","","","",""
"d3-animate-choice","204","756378","0.0-76.0-0.23","702","654","9","Male","false","false","false","false","""event"",""trial"",""time""
""fullscreenenter"",""5"",""34159""
","
","
","""event"",""trial"",""time""
""fullscreenenter"",""5"",""34159""
","
","861.7999999523163","","49","","","3000","1","865.2000000476837","48","images/earth.jpg","images/rocket1","images/rocket2","null","images/rocket2","","1","real","null","1","","",""
"d3-animate-choice","205","759083","0.0-76.0-1.23","702","654","9","Male","false","false","false","false","""event"",""trial"",""time""
""fullscreenenter"",""5"",""34159""
","
","
","""event"",""trial"",""time""
""fullscreenenter"",""5"",""34159""
","
","693.5","","49","","","3000","1","706.8999998569489","48","images/purpleplanet.jpg","images/alien4","images/alien3","images/rocket2","images/alien3","images/nothing.png","2","real","false","1","rare","0","2022-02-08 23:27:24.255"
"two-step-fixation","206","760095","0.0-76.0-2.23","702","654","9","Male","false","false","false","false","""event"",""trial"",""time""
""fullscreenenter"",""5"",""34159""
","
","
","""event"",""trial"",""time""
""fullscreenenter"",""5"",""34159""
","
","","images/earth.jpg","","","","","","","","","","","","","","fixation","","","","","",""
"d3-animate-choice","207","762667","0.0-76.0-0.24","702","654","9","Male","false","false","false","false","""event"",""trial"",""time""
""fullscreenenter"",""5"",""34159""
","
","
","""event"",""trial"",""time""
""fullscreenenter"",""5"",""34159""
","
","565.0999999046326","","49","","","3000","1","574.7999999523163","48","images/earth.jpg","images/rocket1","images/rocket2","null","images/rocket2","","1","real","null","1","","",""
"d3-animate-choice","208","765158","0.0-76.0-1.24","702","654","9","Male","false","false","false","false","""event"",""trial"",""time""
""fullscreenenter"",""5"",""34159""
","
","
","""event"",""trial"",""time""
""fullscreenenter"",""5"",""34159""
","
","480.89999985694885","","48","","","3000","1","485.39999985694885","49","images/redplanet1.jpg","images/alien2","images/alien1","images/rocket2","images/alien2","images/nothing.png","2","real","true","2","common","0","2022-02-08 23:27:30.330"
"two-step-fixation","209","766176","0.0-76.0-2.24","702","654","9","Male","false","false","false","false","""event"",""trial"",""time""
""fullscreenenter"",""5"",""34159""
","
","
","""event"",""trial"",""time""
""fullscreenenter"",""5"",""34159""
","
","","images/earth.jpg","","","","","","","","","","","","","","fixation","","","","","",""
"d3-animate-choice","210","768435","0.0-76.0-0.25","702","654","9","Male","false","false","false","false","""event"",""trial"",""time""
""fullscreenenter"",""5"",""34159""
","
","
","""event"",""trial"",""time""
""fullscreenenter"",""5"",""34159""
","
","245.79999995231628","","48","","","3000","1","278.2999999523163,1659.1000001430511,1680.9000000953674,1853.1000001430511,1895,2045.7000000476837,2125.2000000476837,2197.100000143051","49,49,48,48,49,48,49,48","images/earth.jpg","images/rocket1","images/rocket2","null","images/rocket1","","1","real","null","2","","",""
"d3-animate-choice","211","770494","0.0-76.0-1.25","702","654","9","Male","false","false","false","false","""event"",""trial"",""time""
""fullscreenenter"",""5"",""34159""
","
","
","""event"",""trial"",""time""
""fullscreenenter"",""5"",""34159""
","
","48.60000014305115","","49","","","3000","1","112.20000004768372,254.10000014305115,487.40000009536743,616.6000001430511,688.2999999523163,790.2999999523163,890.9000000953674,999.9000000953674,1188.1000001430511,1331.1000001430511,1372.2000000476837,1541.2000000476837,1578.9000000953674,1733.5,1737.9000000953674,1921.7999999523163,1936.9000000953674","48,49,49,48,49,48,49,48,48,49,48,49,48,49,48,49,48","images/redplanet1.jpg","images/alien2","images/alien1","images/rocket1","images/alien1","images/t.png","2","real","false","1","rare","1","2022-02-08 23:27:35.666"
"two-step-fixation","212","771507","0.0-76.0-2.25","702","654","9","Male","false","false","false","false","""event"",""trial"",""time""
""fullscreenenter"",""5"",""34159""
","
","
","""event"",""trial"",""time""
""fullscreenenter"",""5"",""34159""
","
","","images/earth.jpg","","","","","","","","","","","","","","fixation","","","","","",""
"d3-animate-choice","213","773673","0.0-76.0-0.26","702","654","9","Male","false","false","false","false","""event"",""trial"",""time""
""fullscreenenter"",""5"",""34159""
","
","
","""event"",""trial"",""time""
""fullscreenenter"",""5"",""34159""
","
","157.39999985694885","","48","","","3000","1","189.39999985694885,405.39999985694885,536.6999998092651,716.5999999046326,785.0999999046326,958.5999999046326,1014.3999998569489","49,49,48,48,49,48,49","images/earth.jpg","images/rocket1","images/rocket2","null","images/rocket1","","1","real","null","2","","",""
"d3-animate-choice","214","777678","0.0-76.0-1.26","702","654","9","Male","false","false","false","false","""event"",""trial"",""time""
""fullscreenenter"",""5"",""34159""
","
","
","""event"",""trial"",""time""
""fullscreenenter"",""5"",""34159""
","
","2611.100000143051","","49","","","3000","1","","","images/purpleplanet.jpg","images/alien4","images/alien3","images/rocket1","images/alien3","images/t.png","2","real","true","1","common","1","2022-02-08 23:27:42.851"
"two-step-fixation","215","778688","0.0-76.0-2.26","702","654","9","Male","false","false","false","false","""event"",""trial"",""time""
""fullscreenenter"",""5"",""34159""
","
","
","""event"",""trial"",""time""
""fullscreenenter"",""5"",""34159""
","
","","images/earth.jpg","","","","","","","","","","","","","","fixation","","","","","",""
"d3-animate-choice","216","781011","0.0-76.0-0.27","702","654","9","Male","false","false","false","false","""event"",""trial"",""time""
""fullscreenenter"",""5"",""34159""
","
","
","""event"",""trial"",""time""
""fullscreenenter"",""5"",""34159""
","
","311.90000009536743","","48","","","3000","1","","","images/earth.jpg","images/rocket1","images/rocket2","null","images/rocket1","","1","real","null","2","","",""
"d3-animate-choice","217","783206","0.0-76.0-1.27","702","654","9","Male","false","false","false","false","""event"",""trial"",""time""
""fullscreenenter"",""5"",""34159""
","
","
","""event"",""trial"",""time""
""fullscreenenter"",""5"",""34159""
","
","188.09999990463257","","49","","","3000","1","","","images/purpleplanet.jpg","images/alien4","images/alien3","images/rocket1","images/alien3","images/nothing.png","2","real","true","1","common","0","2022-02-08 23:27:48.378"
"two-step-fixation","218","784210","0.0-76.0-2.27","702","654","9","Male","false","false","false","false","""event"",""trial"",""time""
""fullscreenenter"",""5"",""34159""
","
","
","""event"",""trial"",""time""
""fullscreenenter"",""5"",""34159""
","
","","images/earth.jpg","","","","","","","","","","","","","","fixation","","","","","",""
"d3-animate-choice","219","786704","0.0-76.0-0.28","702","654","9","Male","false","false","false","false","""event"",""trial"",""time""
""fullscreenenter"",""5"",""34159""
","
","
","""event"",""trial"",""time""
""fullscreenenter"",""5"",""34159""
","
","484.60000014305115","","49","","","3000","1","","","images/earth.jpg","images/rocket1","images/rocket2","null","images/rocket2","","1","real","null","1","","",""
"d3-animate-choice","220","789207","0.0-76.0-1.28","702","654","9","Male","false","false","false","false","""event"",""trial"",""time""
""fullscreenenter"",""5"",""34159""
","
","
","""event"",""trial"",""time""
""fullscreenenter"",""5"",""34159""
","
","496.30000019073486","","49","","","3000","1","","","images/redplanet1.jpg","images/alien2","images/alien1","images/rocket2","images/alien1","images/nothing.png","2","real","true","1","common","0","2022-02-08 23:27:54.379"
"two-step-fixation","221","790221","0.0-76.0-2.28","702","654","9","Male","false","false","false","false","""event"",""trial"",""time""
""fullscreenenter"",""5"",""34159""
","
","
","""event"",""trial"",""time""
""fullscreenenter"",""5"",""34159""
","
","","images/earth.jpg","","","","","","","","","","","","","","fixation","","","","","",""
"d3-animate-choice","222","792741","0.0-76.0-0.29","702","654","9","Male","false","false","false","false","""event"",""trial"",""time""
""fullscreenenter"",""5"",""34159""
","
","
","""event"",""trial"",""time""
""fullscreenenter"",""5"",""34159""
","
","505.7999999523163","","48","","","3000","1","547.5","49","images/earth.jpg","images/rocket1","images/rocket2","null","images/rocket1","","1","real","null","2","","",""
"d3-animate-choice","223","795309","0.0-76.0-1.29","702","654","9","Male","false","false","false","false","""event"",""trial"",""time""
""fullscreenenter"",""5"",""34159""
","
","
","""event"",""trial"",""time""
""fullscreenenter"",""5"",""34159""
","
","558.8999998569489","","49","","","3000","1","","","images/redplanet1.jpg","images/alien2","images/alien1","images/rocket1","images/alien1","images/t.png","2","real","false","1","rare","1","2022-02-08 23:28:00.481"
"two-step-fixation","224","796318","0.0-76.0-2.29","702","654","9","Male","false","false","false","false","""event"",""trial"",""time""
""fullscreenenter"",""5"",""34159""
","
","
","""event"",""trial"",""time""
""fullscreenenter"",""5"",""34159""
","
","","images/earth.jpg","","","","","","","","","","","","","","fixation","","","","","",""
"d3-animate-choice","225","798516","0.0-76.0-0.30","702","654","9","Male","false","false","false","false","""event"",""trial"",""time""
""fullscreenenter"",""5"",""34159""
","
","
","""event"",""trial"",""time""
""fullscreenenter"",""5"",""34159""
","
","192.69999980926514","","48","","","3000","1","","","images/earth.jpg","images/rocket1","images/rocket2","null","images/rocket1","","1","real","null","2","","",""
"d3-animate-choice","226","801248","0.0-76.0-1.30","702","654","9","Male","false","false","false","false","""event"",""trial"",""time""
""fullscreenenter"",""5"",""34159""
","
","
","""event"",""trial"",""time""
""fullscreenenter"",""5"",""34159""
","
","722","","49","","","3000","1","","","images/purpleplanet.jpg","images/alien4","images/alien3","images/rocket1","images/alien3","images/nothing.png","2","real","true","1","common","0","2022-02-08 23:28:06.421"
"two-step-fixation","227","802255","0.0-76.0-2.30","702","654","9","Male","false","false","false","false","""event"",""trial"",""time""
""fullscreenenter"",""5"",""34159""
","
","
","""event"",""trial"",""time""
""fullscreenenter"",""5"",""34159""
","
","","images/earth.jpg","","","","","","","","","","","","","","fixation","","","","","",""
"d3-animate-choice","228","804864","0.0-76.0-0.31","702","654","9","Male","false","false","false","false","""event"",""trial"",""time""
""fullscreenenter"",""5"",""34159""
""blur"",""229"",""805462""
""focus"",""229"",""805740""
","""event"",""trial"",""time""
""blur"",""229"",""805462""
","""event"",""trial"",""time""
""focus"",""229"",""805740""
","""event"",""trial"",""time""
""fullscreenenter"",""5"",""34159""
","
","603.2000000476837","","49","","","3000","1","","","images/earth.jpg","images/rocket1","images/rocket2","null","images/rocket2","","1","real","null","1","","",""
"d3-animate-choice","229","808529","0.0-76.0-1.31","702","654","9","Male","false","false","false","false","""event"",""trial"",""time""
""fullscreenenter"",""5"",""34159""
""blur"",""229"",""805462""
""focus"",""229"",""805740""
","""event"",""trial"",""time""
""blur"",""229"",""805462""
","""event"",""trial"",""time""
""focus"",""229"",""805740""
","""event"",""trial"",""time""
""fullscreenenter"",""5"",""34159""
","
","1656.2000000476837","","48","","","3000","1","","","images/redplanet1.jpg","images/alien2","images/alien1","images/rocket2","images/alien2","images/nothing.png","2","real","true","2","common","0","2022-02-08 23:28:13.701"
"two-step-fixation","230","809538","0.0-76.0-2.31","702","654","9","Male","false","false","false","false","""event"",""trial"",""time""
""fullscreenenter"",""5"",""34159""
""blur"",""229"",""805462""
""focus"",""229"",""805740""
","""event"",""trial"",""time""
""blur"",""229"",""805462""
","""event"",""trial"",""time""
""focus"",""229"",""805740""
","""event"",""trial"",""time""
""fullscreenenter"",""5"",""34159""
","
","","images/earth.jpg","","","","","","","","","","","","","","fixation","","","","","",""
"d3-animate-choice","231","812536","0.0-76.0-0.32","702","654","9","Male","false","false","false","false","""event"",""trial"",""time""
""fullscreenenter"",""5"",""34159""
""blur"",""229"",""805462""
""focus"",""229"",""805740""
","""event"",""trial"",""time""
""blur"",""229"",""805462""
","""event"",""trial"",""time""
""focus"",""229"",""805740""
","""event"",""trial"",""time""
""fullscreenenter"",""5"",""34159""
","
","987.8999998569489","","49","","","3000","1","1018.2000000476837","50","images/earth.jpg","images/rocket1","images/rocket2","null","images/rocket2","","1","real","null","1","","",""
"d3-animate-choice","232","815548","0.0-76.0-1.32","702","654","9","Male","false","false","false","false","""event"",""trial"",""time""
""fullscreenenter"",""5"",""34159""
""blur"",""229"",""805462""
""focus"",""229"",""805740""
","""event"",""trial"",""time""
""blur"",""229"",""805462""
","""event"",""trial"",""time""
""focus"",""229"",""805740""
","""event"",""trial"",""time""
""fullscreenenter"",""5"",""34159""
","
","1007.2999999523163","","48","","","3000","1","","","images/redplanet1.jpg","images/alien2","images/alien1","images/rocket2","images/alien2","images/t.png","2","real","true","2","common","1","2022-02-08 23:28:20.721"
"two-step-fixation","233","816561","0.0-76.0-2.32","702","654","9","Male","false","false","false","false","""event"",""trial"",""time""
""fullscreenenter"",""5"",""34159""
""blur"",""229"",""805462""
""focus"",""229"",""805740""
","""event"",""trial"",""time""
""blur"",""229"",""805462""
","""event"",""trial"",""time""
""focus"",""229"",""805740""
","""event"",""trial"",""time""
""fullscreenenter"",""5"",""34159""
","
","","images/earth.jpg","","","","","","","","","","","","","","fixation","","","","","",""
"d3-animate-choice","234","818797","0.0-76.0-0.33","702","654","9","Male","false","false","false","false","""event"",""trial"",""time""
""fullscreenenter"",""5"",""34159""
""blur"",""229"",""805462""
""focus"",""229"",""805740""
","""event"",""trial"",""time""
""blur"",""229"",""805462""
","""event"",""trial"",""time""
""focus"",""229"",""805740""
","""event"",""trial"",""time""
""fullscreenenter"",""5"",""34159""
","
","223.70000004768372","","49","","","3000","1","491.40000009536743,745.5,1008.5,1265.7999999523163,1540.2000000476837,1799.2999999523163,2040.4000000953674","49,49,49,49,49,49,49","images/earth.jpg","images/rocket1","images/rocket2","null","images/rocket2","","1","real","null","1","","",""
"d3-animate-choice","235","820868","0.0-76.0-1.33","702","654","9","Male","false","false","false","false","""event"",""trial"",""time""
""fullscreenenter"",""5"",""34159""
""blur"",""229"",""805462""
""focus"",""229"",""805740""
","""event"",""trial"",""time""
""blur"",""229"",""805462""
","""event"",""trial"",""time""
""focus"",""229"",""805740""
","""event"",""trial"",""time""
""fullscreenenter"",""5"",""34159""
","
","63.299999952316284","","49","","","3000","1","338.5,603.7999999523163,879.1000001430511","49,49,49","images/purpleplanet.jpg","images/alien4","images/alien3","images/rocket2","images/alien3","images/nothing.png","2","real","false","1","rare","0","2022-02-08 23:28:26.041"
"two-step-fixation","236","821882","0.0-76.0-2.33","702","654","9","Male","false","false","false","false","""event"",""trial"",""time""
""fullscreenenter"",""5"",""34159""
""blur"",""229"",""805462""
""focus"",""229"",""805740""
","""event"",""trial"",""time""
""blur"",""229"",""805462""
","""event"",""trial"",""time""
""focus"",""229"",""805740""
","""event"",""trial"",""time""
""fullscreenenter"",""5"",""34159""
","
","","images/earth.jpg","","","","","","","","","","","","","","fixation","","","","","",""
"d3-animate-choice","237","824160","0.0-76.0-0.34","702","654","9","Male","false","false","false","false","""event"",""trial"",""time""
""fullscreenenter"",""5"",""34159""
""blur"",""229"",""805462""
""focus"",""229"",""805740""
","""event"",""trial"",""time""
""blur"",""229"",""805462""
","""event"",""trial"",""time""
""focus"",""229"",""805740""
","""event"",""trial"",""time""
""fullscreenenter"",""5"",""34159""
","
","263.90000009536743","","48","","","3000","1","","","images/earth.jpg","images/rocket1","images/rocket2","null","images/rocket1","","1","real","null","2","","",""
"d3-animate-choice","238","826893","0.0-76.0-1.34","702","654","9","Male","false","false","false","false","""event"",""trial"",""time""
""fullscreenenter"",""5"",""34159""
""blur"",""229"",""805462""
""focus"",""229"",""805740""
","""event"",""trial"",""time""
""blur"",""229"",""805462""
","""event"",""trial"",""time""
