"trial_type","trial_index","time_elapsed","internal_node_id","participant_id","subject_id","age","gender","rocket_sides","red_planet_first_rocket","red_display_order","purple_display_order","interactions","blur_events","focus_events","fullscreenenter_events","fullscreenexit_events","rt","stimulus","key_press","button_pressed","success","duration","valid_pressed","rts","keys","planet_text","right_text","left_text","center_text","chosen_text","reward_text","trial_stage","practice_trial","transition_type","choice","transition","reward","timestamp"
"pavlovia","0","7","0.0-0.0","433","2029","23","Male","false","true","true","false","
","
","
","
","
","","","","","","","","","","","","","","","","","","","","","",""
"html-keyboard-response","1","3229","0.0-1.0","433","2029","23","Male","false","true","true","false","
","
","
","
","
","3220.8000000044703","Welcome! Press the space bar to begin.","32","","","","","","","","","","","","","","","","","","",""
"audio-keyboard-response","2","9285","0.0-2.0","433","2029","23","Male","false","true","true","false","
","
","
","
","
","5696","audio/beep_loop.wav","32","","","","","","","","","","","","","","","","","","",""
"audio-button-response","3","11472","0.0-3.0","433","2029","23","Male","false","true","true","false","
","
","
","
","
","NaN","audio/fish.mp3","","1","","","","","","","","","","","","","","","","","",""
"audio-button-response","4","16079","0.0-4.0","433","2029","23","Male","false","true","true","false","""event"",""trial"",""time""
""fullscreenenter"",""5"",""18979""
","
","
","""event"",""trial"",""time""
""fullscreenenter"",""5"",""18979""
","
","NaN","audio/tiger.mp3","","4","","","","","","","","","","","","","","","","","",""
"fullscreen","5","19972","0.0-5.0","433","2029","23","Male","false","true","true","false","""event"",""trial"",""time""
""fullscreenenter"",""5"",""18979""
","
","
","""event"",""trial"",""time""
""fullscreenenter"",""5"",""18979""
","
","","","","","true","","","","","","","","","","","","","","","","",""
"d3-instructions","6","33819","0.0-6.0","433","2029","23","Male","false","true","true","false","""event"",""trial"",""time""
""fullscreenenter"",""5"",""18979""
","
","
","""event"",""trial"",""time""
""fullscreenenter"",""5"",""18979""
","
","","","","","","","","","","","","","","","","","","","","","",""
"d3-instructions","7","42363","0.0-7.0","433","2029","23","Male","false","true","true","false","""event"",""trial"",""time""
""fullscreenenter"",""5"",""18979""
","
","
","""event"",""trial"",""time""
""fullscreenenter"",""5"",""18979""
","
","","","","","","","","","","","","","","","","","","","","","",""
"d3-instructions","8","49346","0.0-8.0","433","2029","23","Male","false","true","true","false","""event"",""trial"",""time""
""fullscreenenter"",""5"",""18979""
","
","
","""event"",""trial"",""time""
""fullscreenenter"",""5"",""18979""
","
","","","","","","","","","","","","","","","","","","","","","",""
"d3-instructions","9","60642","0.0-9.0","433","2029","23","Male","false","true","true","false","""event"",""trial"",""time""
""fullscreenenter"",""5"",""18979""
","
","
","""event"",""trial"",""time""
""fullscreenenter"",""5"",""18979""
","
","","","","","","","","","","","","","","","","","","","","","",""
"d3-instructions","10","73963","0.0-10.0","433","2029","23","Male","false","true","true","false","""event"",""trial"",""time""
""fullscreenenter"",""5"",""18979""
","
","
","""event"",""trial"",""time""
""fullscreenenter"",""5"",""18979""
","
","","","","","","","","","","","","","","","","","","","","","",""
"d3-animate-choice","11","78034","0.0-11.0","433","2029","23","Male","false","true","true","false","""event"",""trial"",""time""
""fullscreenenter"",""5"",""18979""
","
","
","""event"",""trial"",""time""
""fullscreenenter"",""5"",""18979""
","
","2061.60000000149","","49","","","3000","1","3438.10000000149","48","images/tutgreenplanet.jpg","images/tutalien1","images/tutalien2","null","images/tutalien2","","NA","practice","null","","","",""
"d3-animate-choice","12","80711","0.0-12.0","433","2029","23","Male","false","true","true","false","""event"",""trial"",""time""
""fullscreenenter"",""5"",""18979""
","
","
","""event"",""trial"",""time""
""fullscreenenter"",""5"",""18979""
","
","671.6000000014901","","48","","","3000","1","","","images/tutgreenplanet.jpg","images/tutalien1","images/tutalien2","null","images/tutalien1","","NA","practice","null","","","",""
"d3-animate-choice","13","83175","0.0-13.0","433","2029","23","Male","false","true","true","false","""event"",""trial"",""time""
""fullscreenenter"",""5"",""18979""
","
","
","""event"",""trial"",""time""
""fullscreenenter"",""5"",""18979""
","
","455.80000000447035","","48","","","3000","1","","","images/tutgreenplanet.jpg","images/tutalien1","images/tutalien2","null","images/tutalien1","","NA","practice","null","","","",""
"d3-animate-choice","14","85559","0.0-14.0","433","2029","23","Male","false","true","true","false","""event"",""trial"",""time""
""fullscreenenter"",""5"",""18979""
","
","
","""event"",""trial"",""time""
""fullscreenenter"",""5"",""18979""
","
","378","","49","","","3000","1","","","images/tutgreenplanet.jpg","images/tutalien1","images/tutalien2","null","images/tutalien2","","NA","practice","null","","","",""
"d3-instructions","15","92275","0.0-15.0","433","2029","23","Male","false","true","true","false","""event"",""trial"",""time""
""fullscreenenter"",""5"",""18979""
","
","
","""event"",""trial"",""time""
""fullscreenenter"",""5"",""18979""
","
","","","","","","","","","","","","","","","","","","","","","",""
"d3-instructions","16","94620","0.0-16.0","433","2029","23","Male","false","true","true","false","""event"",""trial"",""time""
""fullscreenenter"",""5"",""18979""
","
","
","""event"",""trial"",""time""
""fullscreenenter"",""5"",""18979""
","
","","","","","","","","","","","","","","","","","","","","","",""
"d3-instructions","17","99771","0.0-17.0","433","2029","23","Male","false","true","true","false","""event"",""trial"",""time""
""fullscreenenter"",""5"",""18979""
","
","
","""event"",""trial"",""time""
""fullscreenenter"",""5"",""18979""
","
","","","","","","","","","","","","","","","","","","","","","",""
"d3-instructions","18","108140","0.0-18.0","433","2029","23","Male","false","true","true","false","""event"",""trial"",""time""
""fullscreenenter"",""5"",""18979""
","
","
","""event"",""trial"",""time""
""fullscreenenter"",""5"",""18979""
","
","","","","","","","","","","","","","","","","","","","","","",""
"d3-instructions","19","116180","0.0-19.0","433","2029","23","Male","false","true","true","false","""event"",""trial"",""time""
""fullscreenenter"",""5"",""18979""
","
","
","""event"",""trial"",""time""
""fullscreenenter"",""5"",""18979""
","
","","","","","","","","","","","","","","","","","","","","","",""
"d3-animate-choice","20","119063","0.0-20.0","433","2029","23","Male","false","true","true","false","""event"",""trial"",""time""
""fullscreenenter"",""5"",""18979""
","
","
","""event"",""trial"",""time""
""fullscreenenter"",""5"",""18979""
","
","877.1000000014901","","49","","","3000","1","","","images/tutyellowplanet.jpg","null","images/tutalien3","null","images/tutalien3","images/t.png","NA","practice","null","","","",""
"d3-animate-choice","21","121536","0.0-21.0","433","2029","23","Male","false","true","true","false","""event"",""trial"",""time""
""fullscreenenter"",""5"",""18979""
","
","
","""event"",""trial"",""time""
""fullscreenenter"",""5"",""18979""
","
","466.19999999552965","","49","","","3000","1","","","images/tutyellowplanet.jpg","null","images/tutalien3","null","images/tutalien3","images/nothing.png","NA","practice","null","","","",""
"d3-animate-choice","22","123869","0.0-22.0","433","2029","23","Male","false","true","true","false","""event"",""trial"",""time""
""fullscreenenter"",""5"",""18979""
","
","
","""event"",""trial"",""time""
""fullscreenenter"",""5"",""18979""
","
","329.80000000447035","","49","","","3000","1","","","images/tutyellowplanet.jpg","null","images/tutalien3","null","images/tutalien3","images/t.png","NA","practice","null","","","",""
"d3-animate-choice","23","126173","0.0-23.0","433","2029","23","Male","false","true","true","false","""event"",""trial"",""time""
""fullscreenenter"",""5"",""18979""
","
","
","""event"",""trial"",""time""
""fullscreenenter"",""5"",""18979""
","
","301","","49","","","3000","1","","","images/tutyellowplanet.jpg","null","images/tutalien3","null","images/tutalien3","images/t.png","NA","practice","null","","","",""
"d3-animate-choice","24","128480","0.0-24.0","433","2029","23","Male","false","true","true","false","""event"",""trial"",""time""
""fullscreenenter"",""5"",""18979""
","
","
","""event"",""trial"",""time""
""fullscreenenter"",""5"",""18979""
","
","300.69999999552965","","49","","","3000","1","","","images/tutyellowplanet.jpg","null","images/tutalien3","null","images/tutalien3","images/t.png","NA","practice","null","","","",""
"d3-animate-choice","25","130823","0.0-25.0","433","2029","23","Male","false","true","true","false","""event"",""trial"",""time""
""fullscreenenter"",""5"",""18979""
","
","
","""event"",""trial"",""time""
""fullscreenenter"",""5"",""18979""
","
","337.20000000298023","","49","","","3000","1","","","images/tutyellowplanet.jpg","null","images/tutalien3","null","images/tutalien3","images/t.png","NA","practice","null","","","",""
"d3-animate-choice","26","133117","0.0-26.0","433","2029","23","Male","false","true","true","false","""event"",""trial"",""time""
""fullscreenenter"",""5"",""18979""
","
","
","""event"",""trial"",""time""
""fullscreenenter"",""5"",""18979""
","
","290.59999999403954","","49","","","3000","1","","","images/tutyellowplanet.jpg","null","images/tutalien3","null","images/tutalien3","images/t.png","NA","practice","null","","","",""
"d3-animate-choice","27","135383","0.0-27.0","433","2029","23","Male","false","true","true","false","""event"",""trial"",""time""
""fullscreenenter"",""5"",""18979""
","
","
","""event"",""trial"",""time""
""fullscreenenter"",""5"",""18979""
","
","260.20000000298023","","49","","","3000","1","","","images/tutyellowplanet.jpg","null","images/tutalien3","null","images/tutalien3","images/t.png","NA","practice","null","","","",""
"d3-animate-choice","28","137677","0.0-28.0","433","2029","23","Male","false","true","true","false","""event"",""trial"",""time""
""fullscreenenter"",""5"",""18979""
","
","
","""event"",""trial"",""time""
""fullscreenenter"",""5"",""18979""
","
","290.69999999552965","","49","","","3000","1","","","images/tutyellowplanet.jpg","null","images/tutalien3","null","images/tutalien3","images/t.png","NA","practice","null","","","",""
"d3-animate-choice","29","139981","0.0-29.0","433","2029","23","Male","false","true","true","false","""event"",""trial"",""time""
""fullscreenenter"",""5"",""18979""
","
","
","""event"",""trial"",""time""
""fullscreenenter"",""5"",""18979""
","
","301.6000000014901","","49","","","3000","1","","","images/tutyellowplanet.jpg","null","images/tutalien3","null","images/tutalien3","images/t.png","NA","practice","null","","","",""
"d3-instructions","30","142875","0.0-30.0","433","2029","23","Male","false","true","true","false","""event"",""trial"",""time""
""fullscreenenter"",""5"",""18979""
","
","
","""event"",""trial"",""time""
""fullscreenenter"",""5"",""18979""
","
","","","","","","","","","","","","","","","","","","","","","",""
"d3-instructions","31","149435","0.0-31.0","433","2029","23","Male","false","true","true","false","""event"",""trial"",""time""
""fullscreenenter"",""5"",""18979""
","
","
","""event"",""trial"",""time""
""fullscreenenter"",""5"",""18979""
","
","","","","","","","","","","","","","","","","","","","","","",""
"d3-instructions","32","152267","0.0-32.0","433","2029","23","Male","false","true","true","false","""event"",""trial"",""time""
""fullscreenenter"",""5"",""18979""
","
","
","""event"",""trial"",""time""
""fullscreenenter"",""5"",""18979""
","
","","","","","","","","","","","","","","","","","","","","","",""
"d3-instructions","33","155091","0.0-33.0","433","2029","23","Male","false","true","true","false","""event"",""trial"",""time""
""fullscreenenter"",""5"",""18979""
","
","
","""event"",""trial"",""time""
""fullscreenenter"",""5"",""18979""
","
","","","","","","","","","","","","","","","","","","","","","",""
"d3-animate-choice","34","158200","0.0-34.0","433","2029","23","Male","false","true","true","false","""event"",""trial"",""time""
""fullscreenenter"",""5"",""18979""
","
","
","""event"",""trial"",""time""
""fullscreenenter"",""5"",""18979""
","
","1103.2000000029802","","49","","","3000","1","","","images/tutgreenplanet.jpg","images/tutalien1","images/tutalien2","null","images/tutalien2","images/t.png","NA","practice","null","","","",""
"d3-animate-choice","35","160631","0.0-35.0","433","2029","23","Male","false","true","true","false","""event"",""trial"",""time""
""fullscreenenter"",""5"",""18979""
","
","
","""event"",""trial"",""time""
""fullscreenenter"",""5"",""18979""
","
","426.29999999701977","","49","","","3000","1","","","images/tutgreenplanet.jpg","images/tutalien1","images/tutalien2","null","images/tutalien2","images/t.png","NA","practice","null","","","",""
"d3-animate-choice","36","163288","0.0-36.0","433","2029","23","Male","false","true","true","false","""event"",""trial"",""time""
""fullscreenenter"",""5"",""18979""
","
","
","""event"",""trial"",""time""
""fullscreenenter"",""5"",""18979""
","
","650.5","","49","","","3000","1","","","images/tutgreenplanet.jpg","images/tutalien1","images/tutalien2","null","images/tutalien2","images/t.png","NA","practice","null","","","",""
"d3-animate-choice","37","165655","0.0-37.0","433","2029","23","Male","false","true","true","false","""event"",""trial"",""time""
""fullscreenenter"",""5"",""18979""
","
","
","""event"",""trial"",""time""
""fullscreenenter"",""5"",""18979""
","
","362.20000000298023","","49","","","3000","1","","","images/tutgreenplanet.jpg","images/tutalien1","images/tutalien2","null","images/tutalien2","images/t.png","NA","practice","null","","","",""
"d3-animate-choice","38","168183","0.0-38.0","433","2029","23","Male","false","true","true","false","""event"",""trial"",""time""
""fullscreenenter"",""5"",""18979""
","
","
","""event"",""trial"",""time""
""fullscreenenter"",""5"",""18979""
","
","521.8000000044703","","49","","","3000","1","","","images/tutgreenplanet.jpg","images/tutalien1","images/tutalien2","null","images/tutalien2","images/t.png","NA","practice","null","","","",""
"d3-animate-choice","39","170551","0.0-39.0","433","2029","23","Male","false","true","true","false","""event"",""trial"",""time""
""fullscreenenter"",""5"",""18979""
","
","
","""event"",""trial"",""time""
""fullscreenenter"",""5"",""18979""
","
","363","","49","","","3000","1","","","images/tutgreenplanet.jpg","images/tutalien1","images/tutalien2","null","images/tutalien2","images/t.png","NA","practice","null","","","",""
"d3-animate-choice","40","172871","0.0-40.0","433","2029","23","Male","false","true","true","false","""event"",""trial"",""time""
""fullscreenenter"",""5"",""18979""
","
","
","""event"",""trial"",""time""
""fullscreenenter"",""5"",""18979""
","
","314.30000000447035","","49","","","3000","1","","","images/tutgreenplanet.jpg","images/tutalien1","images/tutalien2","null","images/tutalien2","images/t.png","NA","practice","null","","","",""
"d3-animate-choice","41","175206","0.0-41.0","433","2029","23","Male","false","true","true","false","""event"",""trial"",""time""
""fullscreenenter"",""5"",""18979""
","
","
","""event"",""trial"",""time""
""fullscreenenter"",""5"",""18979""
","
","330.70000000298023","","49","","","3000","1","","","images/tutgreenplanet.jpg","images/tutalien1","images/tutalien2","null","images/tutalien2","images/t.png","NA","practice","null","","","",""
"d3-animate-choice","42","177575","0.0-42.0","433","2029","23","Male","false","true","true","false","""event"",""trial"",""time""
""fullscreenenter"",""5"",""18979""
","
","
","""event"",""trial"",""time""
""fullscreenenter"",""5"",""18979""
","
","362.3999999985099","","49","","","3000","1","","","images/tutgreenplanet.jpg","images/tutalien1","images/tutalien2","null","images/tutalien2","images/t.png","NA","practice","null","","","",""
"d3-animate-choice","43","179895","0.0-43.0","433","2029","23","Male","false","true","true","false","""event"",""trial"",""time""
""fullscreenenter"",""5"",""18979""
","
","
","""event"",""trial"",""time""
""fullscreenenter"",""5"",""18979""
","
","314.20000000298023","","49","","","3000","1","","","images/tutgreenplanet.jpg","images/tutalien1","images/tutalien2","null","images/tutalien2","images/t.png","NA","practice","null","","","",""
"d3-instructions","44","190084","0.0-44.0","433","2029","23","Male","false","true","true","false","""event"",""trial"",""time""
""fullscreenenter"",""5"",""18979""
","
","
","""event"",""trial"",""time""
""fullscreenenter"",""5"",""18979""
","
","","","","","","","","","","","","","","","","","","","","","",""
"d3-instructions","45","195627","0.0-45.0","433","2029","23","Male","false","true","true","false","""event"",""trial"",""time""
""fullscreenenter"",""5"",""18979""
","
","
","""event"",""trial"",""time""
""fullscreenenter"",""5"",""18979""
","
","","","","","","","","","","","","","","","","","","","","","",""
"d3-instructions","46","199701","0.0-46.0","433","2029","23","Male","false","true","true","false","""event"",""trial"",""time""
""fullscreenenter"",""5"",""18979""
","
","
","""event"",""trial"",""time""
""fullscreenenter"",""5"",""18979""
","
","","","","","","","","","","","","","","","","","","","","","",""
"d3-instructions","47","213429","0.0-47.0","433","2029","23","Male","false","true","true","false","""event"",""trial"",""time""
""fullscreenenter"",""5"",""18979""
","
","
","""event"",""trial"",""time""
""fullscreenenter"",""5"",""18979""
","
","","","","","","","","","","","","","","","","","","","","","",""
"d3-instructions","48","219212","0.0-48.0","433","2029","23","Male","false","true","true","false","""event"",""trial"",""time""
""fullscreenenter"",""5"",""18979""
","
","
","""event"",""trial"",""time""
""fullscreenenter"",""5"",""18979""
","
","","","","","","","","","","","","","","","","","","","","","",""
"d3-instructions","49","224003","0.0-49.0","433","2029","23","Male","false","true","true","false","""event"",""trial"",""time""
""fullscreenenter"",""5"",""18979""
","
","
","""event"",""trial"",""time""
""fullscreenenter"",""5"",""18979""
","
","","","","","","","","","","","","","","","","","","","","","",""
"d3-instructions","50","229155","0.0-50.0","433","2029","23","Male","false","true","true","false","""event"",""trial"",""time""
""fullscreenenter"",""5"",""18979""
","
","
","""event"",""trial"",""time""
""fullscreenenter"",""5"",""18979""
","
","","","","","","","","","","","","","","","","","","","","","",""
"d3-instructions","51","231563","0.0-51.0","433","2029","23","Male","false","true","true","false","""event"",""trial"",""time""
""fullscreenenter"",""5"",""18979""
","
","
","""event"",""trial"",""time""
""fullscreenenter"",""5"",""18979""
","
","","","","","","","","","","","","","","","","","","","","","",""
"d3-instructions","52","233372","0.0-52.0","433","2029","23","Male","false","true","true","false","""event"",""trial"",""time""
""fullscreenenter"",""5"",""18979""
","
","
","""event"",""trial"",""time""
""fullscreenenter"",""5"",""18979""
","
","","","","","","","","","","","","","","","","","","","","","",""
"d3-instructions","53","242876","0.0-53.0","433","2029","23","Male","false","true","true","false","""event"",""trial"",""time""
""fullscreenenter"",""5"",""18979""
","
","
","""event"",""trial"",""time""
""fullscreenenter"",""5"",""18979""
","
","","","","","","","","","","","","","","","","","","","","","",""
"d3-instructions","54","254652","0.0-54.0","433","2029","23","Male","false","true","true","false","""event"",""trial"",""time""
""fullscreenenter"",""5"",""18979""
","
","
","""event"",""trial"",""time""
""fullscreenenter"",""5"",""18979""
","
","","","","","","","","","","","","","","","","","","","","","",""
"d3-instructions","55","264021","0.0-55.0","433","2029","23","Male","false","true","true","false","""event"",""trial"",""time""
""fullscreenenter"",""5"",""18979""
","
","
","""event"",""trial"",""time""
""fullscreenenter"",""5"",""18979""
","
","","","","","","","","","","","","","","","","","","","","","",""
"d3-instructions","56","271700","0.0-56.0","433","2029","23","Male","false","true","true","false","""event"",""trial"",""time""
""fullscreenenter"",""5"",""18979""
","
","
","""event"",""trial"",""time""
""fullscreenenter"",""5"",""18979""
","
","","","","","","","","","","","","","","","","","","","","","",""
"d3-instructions","57","281059","0.0-57.0","433","2029","23","Male","false","true","true","false","""event"",""trial"",""time""
""fullscreenenter"",""5"",""18979""
","
","
","""event"",""trial"",""time""
""fullscreenenter"",""5"",""18979""
","
","","","","","","","","","","","","","","","","","","","","","",""
"d3-instructions","58","286517","0.0-58.0","433","2029","23","Male","false","true","true","false","""event"",""trial"",""time""
""fullscreenenter"",""5"",""18979""
","
","
","""event"",""trial"",""time""
""fullscreenenter"",""5"",""18979""
","
","","","","","","","","","","","","","","","","","","","","","",""
"d3-instructions","59","290493","0.0-59.0","433","2029","23","Male","false","true","true","false","""event"",""trial"",""time""
""fullscreenenter"",""5"",""18979""
","
","
","""event"",""trial"",""time""
""fullscreenenter"",""5"",""18979""
","
","","","","","","","","","","","","","","","","","","","","","",""
"d3-instructions","60","292764","0.0-60.0","433","2029","23","Male","false","true","true","false","""event"",""trial"",""time""
""fullscreenenter"",""5"",""18979""
","
","
","""event"",""trial"",""time""
""fullscreenenter"",""5"",""18979""
","
","","","","","","","","","","","","","","","","","","","","","",""
"d3-animate-choice","61","295869","0.0-61.0-0.0","433","2029","23","Male","false","true","true","false","""event"",""trial"",""time""
""fullscreenenter"",""5"",""18979""
","
","
","""event"",""trial"",""time""
""fullscreenenter"",""5"",""18979""
","
","1102.3999999985099","","49","","","3000","1","","","images/earth.jpg","images/tutrocket2","images/tutrocket1","null","images/tutrocket1","","1","practice","null","1","","",""
"d3-animate-choice","62","298723","0.0-61.0-1.0","433","2029","23","Male","false","true","true","false","""event"",""trial"",""time""
""fullscreenenter"",""5"",""18979""
","
","
","""event"",""trial"",""time""
""fullscreenenter"",""5"",""18979""
","
","843.3000000044703","","48","","","3000","1","","","images/tutgreenplanet.jpg","images/tutalien2","images/tutalien1","images/tutrocket1","images/tutalien2","images/t.png","2","practice","true","2","common","1","2022-06-06 23:07:52.876"
"two-step-fixation","63","299729","0.0-61.0-2.0","433","2029","23","Male","false","true","true","false","""event"",""trial"",""time""
""fullscreenenter"",""5"",""18979""
","
","
","""event"",""trial"",""time""
""fullscreenenter"",""5"",""18979""
","
","","images/earth.jpg","","","","","","","","","","","","","","fixation","","","","","",""
"d3-animate-choice","64","302782","0.0-61.0-0.1","433","2029","23","Male","false","true","true","false","""event"",""trial"",""time""
""fullscreenenter"",""5"",""18979""
","
","
","""event"",""trial"",""time""
""fullscreenenter"",""5"",""18979""
","
","1048.6999999955297","","49","","","3000","1","","","images/earth.jpg","images/tutrocket2","images/tutrocket1","null","images/tutrocket1","","1","practice","null","1","","",""
"d3-animate-choice","65","305893","0.0-61.0-1.1","433","2029","23","Male","false","true","true","false","""event"",""trial"",""time""
""fullscreenenter"",""5"",""18979""
","
","
","""event"",""trial"",""time""
""fullscreenenter"",""5"",""18979""
","
","1108.2999999970198","","48","","","3000","1","","","images/tutyellowplanet.jpg","images/tutalien4","images/tutalien3","images/tutrocket1","images/tutalien4","images/t.png","2","practice","false","2","rare","1","2022-06-06 23:08:00.046"
"two-step-fixation","66","306899","0.0-61.0-2.1","433","2029","23","Male","false","true","true","false","""event"",""trial"",""time""
""fullscreenenter"",""5"",""18979""
","
","
","""event"",""trial"",""time""
""fullscreenenter"",""5"",""18979""
","
","","images/earth.jpg","","","","","","","","","","","","","","fixation","","","","","",""
"d3-animate-choice","67","309629","0.0-61.0-0.2","433","2029","23","Male","false","true","true","false","""event"",""trial"",""time""
""fullscreenenter"",""5"",""18979""
","
","
","""event"",""trial"",""time""
""fullscreenenter"",""5"",""18979""
","
","724.8999999985099","","49","","","3000","1","","","images/earth.jpg","images/tutrocket2","images/tutrocket1","null","images/tutrocket1","","1","practice","null","1","","",""
"d3-animate-choice","68","312414","0.0-61.0-1.2","433","2029","23","Male","false","true","true","false","""event"",""trial"",""time""
""fullscreenenter"",""5"",""18979""
","
","
","""event"",""trial"",""time""
""fullscreenenter"",""5"",""18979""
","
","780.1000000014901","","48","","","3000","1","","","images/tutyellowplanet.jpg","images/tutalien4","images/tutalien3","images/tutrocket1","images/tutalien4","images/t.png","2","practice","false","2","rare","1","2022-06-06 23:08:06.567"
"two-step-fixation","69","313421","0.0-61.0-2.2","433","2029","23","Male","false","true","true","false","""event"",""trial"",""time""
""fullscreenenter"",""5"",""18979""
","
","
","""event"",""trial"",""time""
""fullscreenenter"",""5"",""18979""
","
","","images/earth.jpg","","","","","","","","","","","","","","fixation","","","","","",""
"d3-animate-choice","70","315806","0.0-61.0-0.3","433","2029","23","Male","false","true","true","false","""event"",""trial"",""time""
""fullscreenenter"",""5"",""18979""
","
","
","""event"",""trial"",""time""
""fullscreenenter"",""5"",""18979""
","
","379.79999999701977","","49","","","3000","1","","","images/earth.jpg","images/tutrocket2","images/tutrocket1","null","images/tutrocket1","","1","practice","null","1","","",""
"d3-animate-choice","71","318456","0.0-61.0-1.3","433","2029","23","Male","false","true","true","false","""event"",""trial"",""time""
""fullscreenenter"",""5"",""18979""
","
","
","""event"",""trial"",""time""
""fullscreenenter"",""5"",""18979""
","
","644.0999999940395","","48","","","3000","1","","","images/tutgreenplanet.jpg","images/tutalien2","images/tutalien1","images/tutrocket1","images/tutalien2","images/nothing.png","2","practice","true","2","common","0","2022-06-06 23:08:12.609"
"two-step-fixation","72","319464","0.0-61.0-2.3","433","2029","23","Male","false","true","true","false","""event"",""trial"",""time""
""fullscreenenter"",""5"",""18979""
","
","
","""event"",""trial"",""time""
""fullscreenenter"",""5"",""18979""
","
","","images/earth.jpg","","","","","","","","","","","","","","fixation","","","","","",""
"d3-animate-choice","73","321997","0.0-61.0-0.4","433","2029","23","Male","false","true","true","false","""event"",""trial"",""time""
""fullscreenenter"",""5"",""18979""
","
","
","""event"",""trial"",""time""
""fullscreenenter"",""5"",""18979""
","
","529.3000000044703","","49","","","3000","1","","","images/earth.jpg","images/tutrocket2","images/tutrocket1","null","images/tutrocket1","","1","practice","null","1","","",""
"d3-animate-choice","74","324758","0.0-61.0-1.4","433","2029","23","Male","false","true","true","false","""event"",""trial"",""time""
""fullscreenenter"",""5"",""18979""
","
","
","""event"",""trial"",""time""
""fullscreenenter"",""5"",""18979""
","
","756.3000000044703","","48","","","3000","1","","","images/tutyellowplanet.jpg","images/tutalien4","images/tutalien3","images/tutrocket1","images/tutalien4","images/t.png","2","practice","false","2","rare","1","2022-06-06 23:08:18.911"
"two-step-fixation","75","325762","0.0-61.0-2.4","433","2029","23","Male","false","true","true","false","""event"",""trial"",""time""
""fullscreenenter"",""5"",""18979""
","
","
","""event"",""trial"",""time""
""fullscreenenter"",""5"",""18979""
","
","","images/earth.jpg","","","","","","","","","","","","","","fixation","","","","","",""
"d3-animate-choice","76","328175","0.0-61.0-0.5","433","2029","23","Male","false","true","true","false","""event"",""trial"",""time""
""fullscreenenter"",""5"",""18979""
","
","
","""event"",""trial"",""time""
""fullscreenenter"",""5"",""18979""
","
","408.3999999985099","","49","","","3000","1","","","images/earth.jpg","images/tutrocket2","images/tutrocket1","null","images/tutrocket1","","1","practice","null","1","","",""
"d3-animate-choice","77","330863","0.0-61.0-1.5","433","2029","23","Male","false","true","true","false","""event"",""trial"",""time""
""fullscreenenter"",""5"",""18979""
","
","
","""event"",""trial"",""time""
""fullscreenenter"",""5"",""18979""
","
","682.8000000044703","","48","","","3000","1","","","images/tutgreenplanet.jpg","images/tutalien2","images/tutalien1","images/tutrocket1","images/tutalien2","images/t.png","2","practice","true","2","common","1","2022-06-06 23:08:25.016"
"two-step-fixation","78","331871","0.0-61.0-2.5","433","2029","23","Male","false","true","true","false","""event"",""trial"",""time""
""fullscreenenter"",""5"",""18979""
","
","
","""event"",""trial"",""time""
""fullscreenenter"",""5"",""18979""
","
","","images/earth.jpg","","","","","","","","","","","","","","fixation","","","","","",""
"d3-animate-choice","79","334238","0.0-61.0-0.6","433","2029","23","Male","false","true","true","false","""event"",""trial"",""time""
""fullscreenenter"",""5"",""18979""
","
","
","""event"",""trial"",""time""
""fullscreenenter"",""5"",""18979""
","
","363","","49","","","3000","1","","","images/earth.jpg","images/tutrocket2","images/tutrocket1","null","images/tutrocket1","","1","practice","null","1","","",""
"d3-animate-choice","80","336873","0.0-61.0-1.6","433","2029","23","Male","false","true","true","false","""event"",""trial"",""time""
""fullscreenenter"",""5"",""18979""
","
","
","""event"",""trial"",""time""
""fullscreenenter"",""5"",""18979""
","
","627.1999999955297","","48","","","3000","1","","","images/tutgreenplanet.jpg","images/tutalien2","images/tutalien1","images/tutrocket1","images/tutalien2","images/nothing.png","2","practice","true","2","common","0","2022-06-06 23:08:31.026"
"two-step-fixation","81","337881","0.0-61.0-2.6","433","2029","23","Male","false","true","true","false","""event"",""trial"",""time""
""fullscreenenter"",""5"",""18979""
","
","
","""event"",""trial"",""time""
""fullscreenenter"",""5"",""18979""
","
","","images/earth.jpg","","","","","","","","","","","","","","fixation","","","","","",""
"d3-animate-choice","82","341124","0.0-61.0-0.7","433","2029","23","Male","false","true","true","false","""event"",""trial"",""time""
""fullscreenenter"",""5"",""18979""
","
","
","""event"",""trial"",""time""
""fullscreenenter"",""5"",""18979""
","
","624.5","","50","","","3000","1","1239.3999999985099","48","images/earth.jpg","images/tutrocket2","images/tutrocket1","null","images/tutrocket2","","1","practice","null","","","",""
"d3-animate-choice","83","343767","0.0-61.0-1.7","433","2029","23","Male","false","true","true","false","""event"",""trial"",""time""
""fullscreenenter"",""5"",""18979""
","
","
","""event"",""trial"",""time""
""fullscreenenter"",""5"",""18979""
","
","638.6000000014901","","48","","","3000","1","","","images/tutyellowplanet.jpg","images/tutalien4","images/tutalien3","images/tutrocket2","images/tutalien4","images/t.png","2","practice","true","2","common","1","2022-06-06 23:08:37.920"
"two-step-fixation","84","344770","0.0-61.0-2.7","433","2029","23","Male","false","true","true","false","""event"",""trial"",""time""
""fullscreenenter"",""5"",""18979""
","
","
","""event"",""trial"",""time""
""fullscreenenter"",""5"",""18979""
","
","","images/earth.jpg","","","","","","","","","","","","","","fixation","","","","","",""
"d3-animate-choice","85","347110","0.0-61.0-0.8","433","2029","23","Male","false","true","true","false","""event"",""trial"",""time""
""fullscreenenter"",""5"",""18979""
","
","
","""event"",""trial"",""time""
""fullscreenenter"",""5"",""18979""
","
","335.8999999985099","","48","","","3000","1","","","images/earth.jpg","images/tutrocket2","images/tutrocket1","null","images/tutrocket2","","1","practice","null","2","","",""
"d3-animate-choice","86","349551","0.0-61.0-1.8","433","2029","23","Male","false","true","true","false","""event"",""trial"",""time""
""fullscreenenter"",""5"",""18979""
","
","
","""event"",""trial"",""time""
""fullscreenenter"",""5"",""18979""
","
","434.69999999552965","","48","","","3000","1","","","images/tutyellowplanet.jpg","images/tutalien4","images/tutalien3","images/tutrocket2","images/tutalien4","images/t.png","2","practice","true","2","common","1","2022-06-06 23:08:43.704"
"two-step-fixation","87","350553","0.0-61.0-2.8","433","2029","23","Male","false","true","true","false","""event"",""trial"",""time""
""fullscreenenter"",""5"",""18979""
","
","
","""event"",""trial"",""time""
""fullscreenenter"",""5"",""18979""
","
","","images/earth.jpg","","","","","","","","","","","","","","fixation","","","","","",""
"d3-animate-choice","88","352879","0.0-61.0-0.9","433","2029","23","Male","false","true","true","false","""event"",""trial"",""time""
""fullscreenenter"",""5"",""18979""
","
","
","""event"",""trial"",""time""
""fullscreenenter"",""5"",""18979""
","
","320.5","","48","","","3000","1","","","images/earth.jpg","images/tutrocket2","images/tutrocket1","null","images/tutrocket2","","1","practice","null","2","","",""
"d3-animate-choice","89","355359","0.0-61.0-1.9","433","2029","23","Male","false","true","true","false","""event"",""trial"",""time""
""fullscreenenter"",""5"",""18979""
","
","
","""event"",""trial"",""time""
""fullscreenenter"",""5"",""18979""
","
","474.8999999985099","","48","","","3000","1","","","images/tutyellowplanet.jpg","images/tutalien4","images/tutalien3","images/tutrocket2","images/tutalien4","images/t.png","2","practice","true","2","common","1","2022-06-06 23:08:49.512"
"two-step-fixation","90","356367","0.0-61.0-2.9","433","2029","23","Male","false","true","true","false","""event"",""trial"",""time""
""fullscreenenter"",""5"",""18979""
","
","
","""event"",""trial"",""time""
""fullscreenenter"",""5"",""18979""
","
","","images/earth.jpg","","","","","","","","","","","","","","fixation","","","","","",""
"d3-animate-choice","91","358678","0.0-61.0-0.10","433","2029","23","Male","false","true","true","false","""event"",""trial"",""time""
""fullscreenenter"",""5"",""18979""
","
","
","""event"",""trial"",""time""
""fullscreenenter"",""5"",""18979""
","
","307.1000000014901","","48","","","3000","1","","","images/earth.jpg","images/tutrocket2","images/tutrocket1","null","images/tutrocket2","","1","practice","null","2","","",""
"d3-animate-choice","92","361277","0.0-61.0-1.10","433","2029","23","Male","false","true","true","false","""event"",""trial"",""time""
""fullscreenenter"",""5"",""18979""
","
","
","""event"",""trial"",""time""
""fullscreenenter"",""5"",""18979""
","
","596.4000000059605","","48","","","3000","1","","","images/tutgreenplanet.jpg","images/tutalien2","images/tutalien1","images/tutrocket2","images/tutalien2","images/t.png","2","practice","false","2","rare","1","2022-06-06 23:08:55.430"
"two-step-fixation","93","362281","0.0-61.0-2.10","433","2029","23","Male","false","true","true","false","""event"",""trial"",""time""
""fullscreenenter"",""5"",""18979""
","
","
","""event"",""trial"",""time""
""fullscreenenter"",""5"",""18979""
","
","","images/earth.jpg","","","","","","","","","","","","","","fixation","","","","","",""
"d3-animate-choice","94","364646","0.0-61.0-0.11","433","2029","23","Male","false","true","true","false","""event"",""trial"",""time""
""fullscreenenter"",""5"",""18979""
","
","
","""event"",""trial"",""time""
""fullscreenenter"",""5"",""18979""
","
","361.5","","48","","","3000","1","","","images/earth.jpg","images/tutrocket2","images/tutrocket1","null","images/tutrocket2","","1","practice","null","2","","",""
"d3-animate-choice","95","367024","0.0-61.0-1.11","433","2029","23","Male","false","true","true","false","""event"",""trial"",""time""
""fullscreenenter"",""5"",""18979""
","
","
","""event"",""trial"",""time""
""fullscreenenter"",""5"",""18979""
","
","371.70000000298023","","48","","","3000","1","","","images/tutyellowplanet.jpg","images/tutalien4","images/tutalien3","images/tutrocket2","images/tutalien4","images/nothing.png","2","practice","true","2","common","0","2022-06-06 23:09:01.178"
"two-step-fixation","96","368030","0.0-61.0-2.11","433","2029","23","Male","false","true","true","false","""event"",""trial"",""time""
""fullscreenenter"",""5"",""18979""
","
","
","""event"",""trial"",""time""
""fullscreenenter"",""5"",""18979""
","
","","images/earth.jpg","","","","","","","","","","","","","","fixation","","","","","",""
"d3-animate-choice","97","370344","0.0-61.0-0.12","433","2029","23","Male","false","true","true","false","""event"",""trial"",""time""
""fullscreenenter"",""5"",""18979""
","
","
","""event"",""trial"",""time""
""fullscreenenter"",""5"",""18979""
","
","307.30000000447035","","48","","","3000","1","","","images/earth.jpg","images/tutrocket2","images/tutrocket1","null","images/tutrocket2","","1","practice","null","2","","",""
"d3-animate-choice","98","372775","0.0-61.0-1.12","433","2029","23","Male","false","true","true","false","""event"",""trial"",""time""
""fullscreenenter"",""5"",""18979""
","
","
","""event"",""trial"",""time""
""fullscreenenter"",""5"",""18979""
","
","426.30000000447035","","48","","","3000","1","","","images/tutyellowplanet.jpg","images/tutalien4","images/tutalien3","images/tutrocket2","images/tutalien4","images/nothing.png","2","practice","true","2","common","0","2022-06-06 23:09:06.928"
"two-step-fixation","99","373780","0.0-61.0-2.12","433","2029","23","Male","false","true","true","false","""event"",""trial"",""time""
""fullscreenenter"",""5"",""18979""
","
","
","""event"",""trial"",""time""
""fullscreenenter"",""5"",""18979""
","
","","images/earth.jpg","","","","","","","","","","","","","","fixation","","","","","",""
"d3-animate-choice","100","376107","0.0-61.0-0.13","433","2029","23","Male","false","true","true","false","""event"",""trial"",""time""
""fullscreenenter"",""5"",""18979""
","
","
","""event"",""trial"",""time""
""fullscreenenter"",""5"",""18979""
","
","323.29999999701977","","48","","","3000","1","","","images/earth.jpg","images/tutrocket2","images/tutrocket1","null","images/tutrocket2","","1","practice","null","2","","",""
"d3-animate-choice","101","378759","0.0-61.0-1.13","433","2029","23","Male","false","true","true","false","""event"",""trial"",""time""
""fullscreenenter"",""5"",""18979""
","
","
","""event"",""trial"",""time""
""fullscreenenter"",""5"",""18979""
","
","646.5999999940395","","49","","","3000","1","","","images/tutyellowplanet.jpg","images/tutalien4","images/tutalien3","images/tutrocket2","images/tutalien3","images/nothing.png","2","practice","true","1","common","0","2022-06-06 23:09:12.912"
"two-step-fixation","102","379764","0.0-61.0-2.13","433","2029","23","Male","false","true","true","false","""event"",""trial"",""time""
""fullscreenenter"",""5"",""18979""
","
","
","""event"",""trial"",""time""
""fullscreenenter"",""5"",""18979""
","
","","images/earth.jpg","","","","","","","","","","","","","","fixation","","","","","",""
"d3-animate-choice","103","382095","0.0-61.0-0.14","433","2029","23","Male","false","true","true","false","""event"",""trial"",""time""
""fullscreenenter"",""5"",""18979""
","
","
","""event"",""trial"",""time""
""fullscreenenter"",""5"",""18979""
","
","325.5","","48","","","3000","1","","","images/earth.jpg","images/tutrocket2","images/tutrocket1","null","images/tutrocket2","","1","practice","null","2","","",""
"d3-animate-choice","104","384559","0.0-61.0-1.14","433","2029","23","Male","false","true","true","false","""event"",""trial"",""time""
""fullscreenenter"",""5"",""18979""
","
","
","""event"",""trial"",""time""
""fullscreenenter"",""5"",""18979""
","
","459","","48","","","3000","1","","","images/tutyellowplanet.jpg","images/tutalien4","images/tutalien3","images/tutrocket2","images/tutalien4","images/t.png","2","practice","true","2","common","1","2022-06-06 23:09:18.712"
"two-step-fixation","105","385567","0.0-61.0-2.14","433","2029","23","Male","false","true","true","false","""event"",""trial"",""time""
""fullscreenenter"",""5"",""18979""
","
","
","""event"",""trial"",""time""
""fullscreenenter"",""5"",""18979""
","
","","images/earth.jpg","","","","","","","","","","","","","","fixation","","","","","",""
"d3-animate-choice","106","388142","0.0-61.0-0.15","433","2029","23","Male","false","true","true","false","""event"",""trial"",""time""
""fullscreenenter"",""5"",""18979""
","
","
","""event"",""trial"",""time""
""fullscreenenter"",""5"",""18979""
","
","571.0999999940395","","49","","","3000","1","","","images/earth.jpg","images/tutrocket2","images/tutrocket1","null","images/tutrocket1","","1","practice","null","1","","",""
"d3-animate-choice","107","390655","0.0-61.0-1.15","433","2029","23","Male","false","true","true","false","""event"",""trial"",""time""
""fullscreenenter"",""5"",""18979""
","
","
","""event"",""trial"",""time""
""fullscreenenter"",""5"",""18979""
","
","508.5","","48","","","3000","1","","","images/tutgreenplanet.jpg","images/tutalien2","images/tutalien1","images/tutrocket1","images/tutalien2","images/t.png","2","practice","true","2","common","1","2022-06-06 23:09:24.808"
"two-step-fixation","108","391658","0.0-61.0-2.15","433","2029","23","Male","false","true","true","false","""event"",""trial"",""time""
""fullscreenenter"",""5"",""18979""
","
","
","""event"",""trial"",""time""
""fullscreenenter"",""5"",""18979""
","
","","images/earth.jpg","","","","","","","","","","","","","","fixation","","","","","",""
"d3-animate-choice","109","394047","0.0-61.0-0.16","433","2029","23","Male","false","true","true","false","""event"",""trial"",""time""
""fullscreenenter"",""5"",""18979""
","
","
","""event"",""trial"",""time""
""fullscreenenter"",""5"",""18979""
","
","383.5","","49","","","3000","1","","","images/earth.jpg","images/tutrocket2","images/tutrocket1","null","images/tutrocket1","","1","practice","null","1","","",""
"d3-animate-choice","110","396809","0.0-61.0-1.16","433","2029","23","Male","false","true","true","false","""event"",""trial"",""time""
""fullscreenenter"",""5"",""18979""
","
","
","""event"",""trial"",""time""
""fullscreenenter"",""5"",""18979""
","
","754.7999999970198","","48","","","3000","1","","","images/tutyellowplanet.jpg","images/tutalien4","images/tutalien3","images/tutrocket1","images/tutalien4","images/t.png","2","practice","false","2","rare","1","2022-06-06 23:09:30.963"
"two-step-fixation","111","397814","0.0-61.0-2.16","433","2029","23","Male","false","true","true","false","""event"",""trial"",""time""
""fullscreenenter"",""5"",""18979""
","
","
","""event"",""trial"",""time""
""fullscreenenter"",""5"",""18979""
","
","","images/earth.jpg","","","","","","","","","","","","","","fixation","","","","","",""
"d3-animate-choice","112","400191","0.0-61.0-0.17","433","2029","23","Male","false","true","true","false","""event"",""trial"",""time""
""fullscreenenter"",""5"",""18979""
","
","
","""event"",""trial"",""time""
""fullscreenenter"",""5"",""18979""
","
","371.69999999552965","","49","","","3000","1","","","images/earth.jpg","images/tutrocket2","images/tutrocket1","null","images/tutrocket1","","1","practice","null","1","","",""
"d3-animate-choice","113","402623","0.0-61.0-1.17","433","2029","23","Male","false","true","true","false","""event"",""trial"",""time""
""fullscreenenter"",""5"",""18979""
","
","
","""event"",""trial"",""time""
""fullscreenenter"",""5"",""18979""
","
","426.59999999403954","","48","","","3000","1","","","images/tutyellowplanet.jpg","images/tutalien4","images/tutalien3","images/tutrocket1","images/tutalien4","images/nothing.png","2","practice","false","2","rare","0","2022-06-06 23:09:36.776"
"two-step-fixation","114","403626","0.0-61.0-2.17","433","2029","23","Male","false","true","true","false","""event"",""trial"",""time""
""fullscreenenter"",""5"",""18979""
","
","
","""event"",""trial"",""time""
""fullscreenenter"",""5"",""18979""
","
","","images/earth.jpg","","","","","","","","","","","","","","fixation","","","","","",""
"d3-animate-choice","115","405965","0.0-61.0-0.18","433","2029","23","Male","false","true","true","false","""event"",""trial"",""time""
""fullscreenenter"",""5"",""18979""
","
","
","""event"",""trial"",""time""
""fullscreenenter"",""5"",""18979""
","
","336.59999999403954","","49","","","3000","1","","","images/earth.jpg","images/tutrocket2","images/tutrocket1","null","images/tutrocket1","","1","practice","null","1","","",""
"d3-animate-choice","116","408615","0.0-61.0-1.18","433","2029","23","Male","false","true","true","false","""event"",""trial"",""time""
""fullscreenenter"",""5"",""18979""
","
","
","""event"",""trial"",""time""
""fullscreenenter"",""5"",""18979""
","
","643.6000000014901","","48","","","3000","1","","","images/tutgreenplanet.jpg","images/tutalien2","images/tutalien1","images/tutrocket1","images/tutalien2","images/t.png","2","practice","true","2","common","1","2022-06-06 23:09:42.768"
"two-step-fixation","117","409623","0.0-61.0-2.18","433","2029","23","Male","false","true","true","false","""event"",""trial"",""time""
""fullscreenenter"",""5"",""18979""
","
","
","""event"",""trial"",""time""
""fullscreenenter"",""5"",""18979""
","
","","images/earth.jpg","","","","","","","","","","","","","","fixation","","","","","",""
"d3-animate-choice","118","411927","0.0-61.0-0.19","433","2029","23","Male","false","true","true","false","""event"",""trial"",""time""
""fullscreenenter"",""5"",""18979""
","
","
","""event"",""trial"",""time""
""fullscreenenter"",""5"",""18979""
","
","299.59999999403954","","49","","","3000","1","","","images/earth.jpg","images/tutrocket2","images/tutrocket1","null","images/tutrocket1","","1","practice","null","1","","",""
"d3-animate-choice","119","414586","0.0-61.0-1.19","433","2029","23","Male","false","true","true","false","""event"",""trial"",""time""
""fullscreenenter"",""5"",""18979""
","
","
","""event"",""trial"",""time""
""fullscreenenter"",""5"",""18979""
","
","650.8999999985099","","48","","","3000","1","","","images/tutyellowplanet.jpg","images/tutalien4","images/tutalien3","images/tutrocket1","images/tutalien4","images/nothing.png","2","practice","false","2","rare","0","2022-06-06 23:09:48.739"
"two-step-fixation","120","415589","0.0-61.0-2.19","433","2029","23","Male","false","true","true","false","""event"",""trial"",""time""
""fullscreenenter"",""5"",""18979""
","
","
","""event"",""trial"",""time""
""fullscreenenter"",""5"",""18979""
","
","","images/earth.jpg","","","","","","","","","","","","","","fixation","","","","","",""
"d3-instructions","121","419103","0.0-62.0","433","2029","23","Male","false","true","true","false","""event"",""trial"",""time""
""fullscreenenter"",""5"",""18979""
","
","
","""event"",""trial"",""time""
""fullscreenenter"",""5"",""18979""
","
","","","","","","","","","","","","","","","","","","","","","",""
"audio-keyboard-response","122","422509","0.0-63.0","433","2029","23","Male","false","true","true","false","""event"",""trial"",""time""
""fullscreenenter"",""5"",""18979""
","
","
","""event"",""trial"",""time""
""fullscreenenter"",""5"",""18979""
","
","3408","audio/instructions/treasure_feedback.wav","32","","","","","","","","","","","","","","","","","","",""
"d3-instructions","123","433628","0.0-64.0","433","2029","23","Male","false","true","true","false","""event"",""trial"",""time""
""fullscreenenter"",""5"",""18979""
","
","
","""event"",""trial"",""time""
""fullscreenenter"",""5"",""18979""
","
","","","","","","","","","","","","","","","","","","","","","",""
"d3-instructions","124","442083","0.0-65.0","433","2029","23","Male","false","true","true","false","""event"",""trial"",""time""
""fullscreenenter"",""5"",""18979""
","
","
","""event"",""trial"",""time""
""fullscreenenter"",""5"",""18979""
","
","","","","","","","","","","","","","","","","","","","","","",""
"d3-instructions","125","464237","0.0-66.0","433","2029","23","Male","false","true","true","false","""event"",""trial"",""time""
""fullscreenenter"",""5"",""18979""
","
","
","""event"",""trial"",""time""
""fullscreenenter"",""5"",""18979""
","
","","","","","","","","","","","","","","","","","","","","","",""
"d3-instructions","126","470235","0.0-67.0","433","2029","23","Male","false","true","true","false","""event"",""trial"",""time""
""fullscreenenter"",""5"",""18979""
","
","
","""event"",""trial"",""time""
""fullscreenenter"",""5"",""18979""
","
","","","","","","","","","","","","","","","","","","","","","",""
"d3-instructions","127","472596","0.0-68.0","433","2029","23","Male","false","true","true","false","""event"",""trial"",""time""
""fullscreenenter"",""5"",""18979""
","
","
","""event"",""trial"",""time""
""fullscreenenter"",""5"",""18979""
","
","","","","","","","","","","","","","","","","","","","","","",""
"instructions-quiz","128","476170","0.0-69.0","433","2029","23","Male","false","true","true","false","""event"",""trial"",""time""
""fullscreenenter"",""5"",""18979""
","
","
","""event"",""trial"",""time""
""fullscreenenter"",""5"",""18979""
","
","3571.60000000149","audio/quiz/Q1_Prompt.wav","","1","","","","","","","","","","","","","","","","","",""
"audio-keyboard-response","129","477597","0.0-70.0","433","2029","23","Male","false","true","true","false","""event"",""trial"",""time""
""fullscreenenter"",""5"",""18979""
","
","
","""event"",""trial"",""time""
""fullscreenenter"",""5"",""18979""
","
","1424","audio/quiz/Q1_Correct.wav","32","","","","","","","","","","","","","","","","","","",""
"instructions-quiz","130","480410","0.0-71.0","433","2029","23","Male","false","true","true","false","""event"",""trial"",""time""
""fullscreenenter"",""5"",""18979""
","
","
","""event"",""trial"",""time""
""fullscreenenter"",""5"",""18979""
","
","2811.6999999955297","audio/quiz/Q2_Prompt.wav","","0","","","","","","","","","","","","","","","","","",""
"audio-keyboard-response","131","481781","0.0-72.0","433","2029","23","Male","false","true","true","false","""event"",""trial"",""time""
""fullscreenenter"",""5"",""18979""
","
","
","""event"",""trial"",""time""
""fullscreenenter"",""5"",""18979""
","
","1365","audio/quiz/Q2_Correct.wav","32","","","","","","","","","","","","","","","","","","",""
"instructions-quiz","132","484026","0.0-73.0","433","2029","23","Male","false","true","true","false","""event"",""trial"",""time""
""fullscreenenter"",""5"",""18979""
","
","
","""event"",""trial"",""time""
""fullscreenenter"",""5"",""18979""
","
","2243.39999999851","audio/quiz/Q3_Prompt.wav","","1","","","","","","","","","","","","","","","","","",""
"audio-keyboard-response","133","484908","0.0-74.0","433","2029","23","Male","false","true","true","false","""event"",""trial"",""time""
""fullscreenenter"",""5"",""18979""
","
","
","""event"",""trial"",""time""
""fullscreenenter"",""5"",""18979""
","
","880","audio/quiz/Q3_Correct.wav","32","","","","","","","","","","","","","","","","","","",""
"d3-instructions","134","488460","0.0-75.0","433","2029","23","Male","false","true","true","false","""event"",""trial"",""time""
""fullscreenenter"",""5"",""18979""
","
","
","""event"",""trial"",""time""
""fullscreenenter"",""5"",""18979""
","
","","","","","","","","","","","","","","","","","","","","","",""
"d3-animate-choice","135","491590","0.0-76.0-0.0","433","2029","23","Male","false","true","true","false","""event"",""trial"",""time""
""fullscreenenter"",""5"",""18979""
","
","
","""event"",""trial"",""time""
""fullscreenenter"",""5"",""18979""
","
","1126.5","","49","","","3000","1","","","images/earth.jpg","images/rocket1","images/rocket2","null","images/rocket2","","1","real","null","1","","",""
"d3-animate-choice","136","494221","0.0-76.0-1.0","433","2029","23","Male","false","true","true","false","""event"",""trial"",""time""
""fullscreenenter"",""5"",""18979""
","
","
","""event"",""trial"",""time""
""fullscreenenter"",""5"",""18979""
","
","628.5","","48","","","3000","1","","","images/purpleplanet.jpg","images/alien4","images/alien3","images/rocket2","images/alien4","images/t.png","2","real","true","2","common","1","2022-06-06 23:11:08.375"
"two-step-fixation","137","495225","0.0-76.0-2.0","433","2029","23","Male","false","true","true","false","""event"",""trial"",""time""
""fullscreenenter"",""5"",""18979""
","
","
","""event"",""trial"",""time""
""fullscreenenter"",""5"",""18979""
","
","","images/earth.jpg","","","","","","","","","","","","","","fixation","","","","","",""
"d3-animate-choice","138","497697","0.0-76.0-0.1","433","2029","23","Male","false","true","true","false","""event"",""trial"",""time""
""fullscreenenter"",""5"",""18979""
","
","
","""event"",""trial"",""time""
""fullscreenenter"",""5"",""18979""
","
","465.3999999985099","","49","","","3000","1","","","images/earth.jpg","images/rocket1","images/rocket2","null","images/rocket2","","1","real","null","1","","",""
"d3-animate-choice","139","500272","0.0-76.0-1.1","433","2029","23","Male","false","true","true","false","""event"",""trial"",""time""
""fullscreenenter"",""5"",""18979""
","
","
","""event"",""trial"",""time""
""fullscreenenter"",""5"",""18979""
","
","569.6999999955297","","48","","","3000","1","","","images/purpleplanet.jpg","images/alien4","images/alien3","images/rocket2","images/alien4","images/t.png","2","real","true","2","common","1","2022-06-06 23:11:14.425"
"two-step-fixation","140","501276","0.0-76.0-2.1","433","2029","23","Male","false","true","true","false","""event"",""trial"",""time""
""fullscreenenter"",""5"",""18979""
","
","
","""event"",""trial"",""time""
""fullscreenenter"",""5"",""18979""
","
","","images/earth.jpg","","","","","","","","","","","","","","fixation","","","","","",""
"d3-animate-choice","141","503766","0.0-76.0-0.2","433","2029","23","Male","false","true","true","false","""event"",""trial"",""time""
""fullscreenenter"",""5"",""18979""
","
","
","""event"",""trial"",""time""
""fullscreenenter"",""5"",""18979""
","
","486.29999999701977","","49","","","3000","1","","","images/earth.jpg","images/rocket1","images/rocket2","null","images/rocket2","","1","real","null","1","","",""
"d3-animate-choice","142","506215","0.0-76.0-1.2","433","2029","23","Male","false","true","true","false","""event"",""trial"",""time""
""fullscreenenter"",""5"",""18979""
","
","
","""event"",""trial"",""time""
""fullscreenenter"",""5"",""18979""
","
","444.1000000014901","","48","","","3000","1","","","images/purpleplanet.jpg","images/alien4","images/alien3","images/rocket2","images/alien4","images/t.png","2","real","true","2","common","1","2022-06-06 23:11:20.368"
"two-step-fixation","143","507217","0.0-76.0-2.2","433","2029","23","Male","false","true","true","false","""event"",""trial"",""time""
""fullscreenenter"",""5"",""18979""
","
","
","""event"",""trial"",""time""
""fullscreenenter"",""5"",""18979""
","
","","images/earth.jpg","","","","","","","","","","","","","","fixation","","","","","",""
"d3-animate-choice","144","509841","0.0-76.0-0.3","433","2029","23","Male","false","true","true","false","""event"",""trial"",""time""
""fullscreenenter"",""5"",""18979""
","
","
","""event"",""trial"",""time""
""fullscreenenter"",""5"",""18979""
","
","617.5","","49","","","3000","1","","","images/earth.jpg","images/rocket1","images/rocket2","null","images/rocket2","","1","real","null","1","","",""
"d3-animate-choice","145","512391","0.0-76.0-1.3","433","2029","23","Male","false","true","true","false","""event"",""trial"",""time""
""fullscreenenter"",""5"",""18979""
","
","
","""event"",""trial"",""time""
""fullscreenenter"",""5"",""18979""
","
","544.9000000059605","","48","","","3000","1","","","images/purpleplanet.jpg","images/alien4","images/alien3","images/rocket2","images/alien4","images/t.png","2","real","true","2","common","1","2022-06-06 23:11:26.544"
"two-step-fixation","146","513394","0.0-76.0-2.3","433","2029","23","Male","false","true","true","false","""event"",""trial"",""time""
""fullscreenenter"",""5"",""18979""
","
","
","""event"",""trial"",""time""
""fullscreenenter"",""5"",""18979""
","
","","images/earth.jpg","","","","","","","","","","","","","","fixation","","","","","",""
"d3-animate-choice","147","515766","0.0-76.0-0.4","433","2029","23","Male","false","true","true","false","""event"",""trial"",""time""
""fullscreenenter"",""5"",""18979""
","
","
","""event"",""trial"",""time""
""fullscreenenter"",""5"",""18979""
","
","367.80000000447035","","49","","","3000","1","","","images/earth.jpg","images/rocket1","images/rocket2","null","images/rocket2","","1","real","null","1","","",""
"d3-animate-choice","148","518680","0.0-76.0-1.4","433","2029","23","Male","false","true","true","false","""event"",""trial"",""time""
""fullscreenenter"",""5"",""18979""
","
","
","""event"",""trial"",""time""
""fullscreenenter"",""5"",""18979""
","
","907.4000000059605","","48","","","3000","1","","","images/redplanet1.jpg","images/alien2","images/alien1","images/rocket2","images/alien2","images/t.png","2","real","false","2","rare","1","2022-06-06 23:11:32.833"
"two-step-fixation","149","519683","0.0-76.0-2.4","433","2029","23","Male","false","true","true","false","""event"",""trial"",""time""
""fullscreenenter"",""5"",""18979""
","
","
","""event"",""trial"",""time""
""fullscreenenter"",""5"",""18979""
","
","","images/earth.jpg","","","","","","","","","","","","","","fixation","","","","","",""
"d3-animate-choice","150","522109","0.0-76.0-0.5","433","2029","23","Male","false","true","true","false","""event"",""trial"",""time""
""fullscreenenter"",""5"",""18979""
","
","
","""event"",""trial"",""time""
""fullscreenenter"",""5"",""18979""
","
","423.79999999701977","","49","","","3000","1","","","images/earth.jpg","images/rocket1","images/rocket2","null","images/rocket2","","1","real","null","1","","",""
"d3-animate-choice","151","525198","0.0-76.0-1.5","433","2029","23","Male","false","true","true","false","""event"",""trial"",""time""
""fullscreenenter"",""5"",""18979""
","
","
","""event"",""trial"",""time""
""fullscreenenter"",""5"",""18979""
","
","1084.6000000014901","","48","","","3000","1","","","images/redplanet1.jpg","images/alien2","images/alien1","images/rocket2","images/alien2","images/nothing.png","2","real","false","2","rare","0","2022-06-06 23:11:39.351"
"two-step-fixation","152","526204","0.0-76.0-2.5","433","2029","23","Male","false","true","true","false","""event"",""trial"",""time""
""fullscreenenter"",""5"",""18979""
","
","
","""event"",""trial"",""time""
""fullscreenenter"",""5"",""18979""
","
","","images/earth.jpg","","","","","","","","","","","","","","fixation","","","","","",""
"d3-animate-choice","153","528654","0.0-76.0-0.6","433","2029","23","Male","false","true","true","false","""event"",""trial"",""time""
""fullscreenenter"",""5"",""18979""
","
","
","""event"",""trial"",""time""
""fullscreenenter"",""5"",""18979""
","
","445.90000000596046","","49","","","3000","1","","","images/earth.jpg","images/rocket1","images/rocket2","null","images/rocket2","","1","real","null","1","","",""
"d3-animate-choice","154","531470","0.0-76.0-1.6","433","2029","23","Male","false","true","true","false","""event"",""trial"",""time""
""fullscreenenter"",""5"",""18979""
","
","
","""event"",""trial"",""time""
""fullscreenenter"",""5"",""18979""
","
","812.6000000014901","","48","","","3000","1","","","images/redplanet1.jpg","images/alien2","images/alien1","images/rocket2","images/alien2","images/t.png","2","real","false","2","rare","1","2022-06-06 23:11:45.623"
"two-step-fixation","155","532477","0.0-76.0-2.6","433","2029","23","Male","false","true","true","false","""event"",""trial"",""time""
""fullscreenenter"",""5"",""18979""
","
","
","""event"",""trial"",""time""
""fullscreenenter"",""5"",""18979""
","
","","images/earth.jpg","","","","","","","","","","","","","","fixation","","","","","",""
"d3-animate-choice","156","535192","0.0-76.0-0.7","433","2029","23","Male","false","true","true","false","""event"",""trial"",""time""
""fullscreenenter"",""5"",""18979""
","
","
","""event"",""trial"",""time""
""fullscreenenter"",""5"",""18979""
","
","709.1000000014901","","48","","","3000","1","","","images/earth.jpg","images/rocket1","images/rocket2","null","images/rocket1","","1","real","null","2","","",""
"d3-animate-choice","157","537830","0.0-76.0-1.7","433","2029","23","Male","false","true","true","false","""event"",""trial"",""time""
""fullscreenenter"",""5"",""18979""
","
","
","""event"",""trial"",""time""
""fullscreenenter"",""5"",""18979""
","
","634.7999999970198","","48","","","3000","1","","","images/redplanet1.jpg","images/alien2","images/alien1","images/rocket1","images/alien2","images/nothing.png","2","real","true","2","common","0","2022-06-06 23:11:51.983"
"two-step-fixation","158","538834","0.0-76.0-2.7","433","2029","23","Male","false","true","true","false","""event"",""trial"",""time""
""fullscreenenter"",""5"",""18979""
","
","
","""event"",""trial"",""time""
""fullscreenenter"",""5"",""18979""
","
","","images/earth.jpg","","","","","","","","","","","","","","fixation","","","","","",""
"d3-animate-choice","159","541255","0.0-76.0-0.8","433","2029","23","Male","false","true","true","false","""event"",""trial"",""time""
""fullscreenenter"",""5"",""18979""
","
","
","""event"",""trial"",""time""
""fullscreenenter"",""5"",""18979""
","
","415.3999999985099","","49","","","3000","1","","","images/earth.jpg","images/rocket1","images/rocket2","null","images/rocket2","","1","real","null","1","","",""
"d3-animate-choice","160","543686","0.0-76.0-1.8","433","2029","23","Male","false","true","true","false","""event"",""trial"",""time""
""fullscreenenter"",""5"",""18979""
","
","
","""event"",""trial"",""time""
""fullscreenenter"",""5"",""18979""
","
","427.3999999985099","","48","","","3000","1","","","images/purpleplanet.jpg","images/alien4","images/alien3","images/rocket2","images/alien4","images/nothing.png","2","real","true","2","common","0","2022-06-06 23:11:57.839"
"two-step-fixation","161","544691","0.0-76.0-2.8","433","2029","23","Male","false","true","true","false","""event"",""trial"",""time""
""fullscreenenter"",""5"",""18979""
","
","
","""event"",""trial"",""time""
""fullscreenenter"",""5"",""18979""
","
","","images/earth.jpg","","","","","","","","","","","","","","fixation","","","","","",""
"d3-animate-choice","162","547022","0.0-76.0-0.9","433","2029","23","Male","false","true","true","false","""event"",""trial"",""time""
""fullscreenenter"",""5"",""18979""
","
","
","""event"",""trial"",""time""
""fullscreenenter"",""5"",""18979""
","
","327.90000000596046","","49","","","3000","1","","","images/earth.jpg","images/rocket1","images/rocket2","null","images/rocket2","","1","real","null","1","","",""
"d3-animate-choice","163","549454","0.0-76.0-1.9","433","2029","23","Male","false","true","true","false","""event"",""trial"",""time""
""fullscreenenter"",""5"",""18979""
","
","
","""event"",""trial"",""time""
""fullscreenenter"",""5"",""18979""
","
","427.79999999701977","","48","","","3000","1","","","images/purpleplanet.jpg","images/alien4","images/alien3","images/rocket2","images/alien4","images/t.png","2","real","true","2","common","1","2022-06-06 23:12:03.607"
"two-step-fixation","164","550462","0.0-76.0-2.9","433","2029","23","Male","false","true","true","false","""event"",""trial"",""time""
""fullscreenenter"",""5"",""18979""
","
","
","""event"",""trial"",""time""
""fullscreenenter"",""5"",""18979""
","
","","images/earth.jpg","","","","","","","","","","","","","","fixation","","","","","",""
"d3-animate-choice","165","552774","0.0-76.0-0.10","433","2029","23","Male","false","true","true","false","""event"",""trial"",""time""
""fullscreenenter"",""5"",""18979""
","
","
","""event"",""trial"",""time""
""fullscreenenter"",""5"",""18979""
","
","309","","49","","","3000","1","","","images/earth.jpg","images/rocket1","images/rocket2","null","images/rocket2","","1","real","null","1","","",""
"d3-animate-choice","166","555246","0.0-76.0-1.10","433","2029","23","Male","false","true","true","false","""event"",""trial"",""time""
""fullscreenenter"",""5"",""18979""
","
","
","""event"",""trial"",""time""
""fullscreenenter"",""5"",""18979""
","
","467.19999999552965","","48","","","3000","1","","","images/purpleplanet.jpg","images/alien4","images/alien3","images/rocket2","images/alien4","images/t.png","2","real","true","2","common","1","2022-06-06 23:12:09.399"
"two-step-fixation","167","556252","0.0-76.0-2.10","433","2029","23","Male","false","true","true","false","""event"",""trial"",""time""
""fullscreenenter"",""5"",""18979""
","
","
","""event"",""trial"",""time""
""fullscreenenter"",""5"",""18979""
","
","","images/earth.jpg","","","","","","","","","","","","","","fixation","","","","","",""
"d3-animate-choice","168","558574","0.0-76.0-0.11","433","2029","23","Male","false","true","true","false","""event"",""trial"",""time""
""fullscreenenter"",""5"",""18979""
","
","
","""event"",""trial"",""time""
""fullscreenenter"",""5"",""18979""
","
","318.1000000014901","","49","","","3000","1","","","images/earth.jpg","images/rocket1","images/rocket2","null","images/rocket2","","1","real","null","1","","",""
"d3-animate-choice","169","560974","0.0-76.0-1.11","433","2029","23","Male","false","true","true","false","""event"",""trial"",""time""
""fullscreenenter"",""5"",""18979""
","
","
","""event"",""trial"",""time""
""fullscreenenter"",""5"",""18979""
","
","396.8999999985099","","48","","","3000","1","","","images/purpleplanet.jpg","images/alien4","images/alien3","images/rocket2","images/alien4","images/t.png","2","real","true","2","common","1","2022-06-06 23:12:15.127"
"two-step-fixation","170","561978","0.0-76.0-2.11","433","2029","23","Male","false","true","true","false","""event"",""trial"",""time""
""fullscreenenter"",""5"",""18979""
","
","
","""event"",""trial"",""time""
""fullscreenenter"",""5"",""18979""
","
","","images/earth.jpg","","","","","","","","","","","","","","fixation","","","","","",""
"d3-animate-choice","171","564278","0.0-76.0-0.12","433","2029","23","Male","false","true","true","false","""event"",""trial"",""time""
""fullscreenenter"",""5"",""18979""
","
","
","""event"",""trial"",""time""
""fullscreenenter"",""5"",""18979""
","
","296.69999999552965","","49","","","3000","1","","","images/earth.jpg","images/rocket1","images/rocket2","null","images/rocket2","","1","real","null","1","","",""
"d3-animate-choice","172","566734","0.0-76.0-1.12","433","2029","23","Male","false","true","true","false","""event"",""trial"",""time""
""fullscreenenter"",""5"",""18979""
","
","
","""event"",""trial"",""time""
""fullscreenenter"",""5"",""18979""
","
","451.5","","48","","","3000","1","","","images/purpleplanet.jpg","images/alien4","images/alien3","images/rocket2","images/alien4","images/t.png","2","real","true","2","common","1","2022-06-06 23:12:20.887"
"two-step-fixation","173","567739","0.0-76.0-2.12","433","2029","23","Male","false","true","true","false","""event"",""trial"",""time""
""fullscreenenter"",""5"",""18979""
","
","
","""event"",""trial"",""time""
""fullscreenenter"",""5"",""18979""
","
","","images/earth.jpg","","","","","","","","","","","","","","fixation","","","","","",""
"d3-animate-choice","174","570078","0.0-76.0-0.13","433","2029","23","Male","false","true","true","false","""event"",""trial"",""time""
""fullscreenenter"",""5"",""18979""
","
","
","""event"",""trial"",""time""
""fullscreenenter"",""5"",""18979""
","
","335.6000000014901","","49","","","3000","1","","","images/earth.jpg","images/rocket1","images/rocket2","null","images/rocket2","","1","real","null","1","","",""
"d3-animate-choice","175","572590","0.0-76.0-1.13","433","2029","23","Male","false","true","true","false","""event"",""trial"",""time""
""fullscreenenter"",""5"",""18979""
","
","
","""event"",""trial"",""time""
""fullscreenenter"",""5"",""18979""
","
","507.79999999701977","","48","","","3000","1","","","images/purpleplanet.jpg","images/alien4","images/alien3","images/rocket2","images/alien4","images/t.png","2","real","true","2","common","1","2022-06-06 23:12:26.743"
"two-step-fixation","176","573594","0.0-76.0-2.13","433","2029","23","Male","false","true","true","false","""event"",""trial"",""time""
""fullscreenenter"",""5"",""18979""
","
","
","""event"",""trial"",""time""
""fullscreenenter"",""5"",""18979""
","
","","images/earth.jpg","","","","","","","","","","","","","","fixation","","","","","",""
"d3-animate-choice","177","576006","0.0-76.0-0.14","433","2029","23","Male","false","true","true","false","""event"",""trial"",""time""
""fullscreenenter"",""5"",""18979""
","
","
","""event"",""trial"",""time""
""fullscreenenter"",""5"",""18979""
","
","408.6000000014901","","49","","","3000","1","","","images/earth.jpg","images/rocket1","images/rocket2","null","images/rocket2","","1","real","null","1","","",""
"d3-animate-choice","178","578473","0.0-76.0-1.14","433","2029","23","Male","false","true","true","false","""event"",""trial"",""time""
""fullscreenenter"",""5"",""18979""
","
","
","""event"",""trial"",""time""
""fullscreenenter"",""5"",""18979""
","
","460.3999999985099","","48","","","3000","1","","","images/purpleplanet.jpg","images/alien4","images/alien3","images/rocket2","images/alien4","images/t.png","2","real","true","2","common","1","2022-06-06 23:12:32.626"
"two-step-fixation","179","579481","0.0-76.0-2.14","433","2029","23","Male","false","true","true","false","""event"",""trial"",""time""
""fullscreenenter"",""5"",""18979""
","
","
","""event"",""trial"",""time""
""fullscreenenter"",""5"",""18979""
","
","","images/earth.jpg","","","","","","","","","","","","","","fixation","","","","","",""
"d3-animate-choice","180","581881","0.0-76.0-0.15","433","2029","23","Male","false","true","true","false","""event"",""trial"",""time""
""fullscreenenter"",""5"",""18979""
","
","
","""event"",""trial"",""time""
""fullscreenenter"",""5"",""18979""
","
","394.40000000596046","","49","","","3000","1","","","images/earth.jpg","images/rocket1","images/rocket2","null","images/rocket2","","1","real","null","1","","",""
"d3-animate-choice","181","584425","0.0-76.0-1.15","433","2029","23","Male","false","true","true","false","""event"",""trial"",""time""
""fullscreenenter"",""5"",""18979""
","
","
","""event"",""trial"",""time""
""fullscreenenter"",""5"",""18979""
","
","538.5","","48","","","3000","1","","","images/purpleplanet.jpg","images/alien4","images/alien3","images/rocket2","images/alien4","images/t.png","2","real","true","2","common","1","2022-06-06 23:12:38.578"
"two-step-fixation","182","585428","0.0-76.0-2.15","433","2029","23","Male","false","true","true","false","""event"",""trial"",""time""
""fullscreenenter"",""5"",""18979""
","
","
","""event"",""trial"",""time""
""fullscreenenter"",""5"",""18979""
","
","","images/earth.jpg","","","","","","","","","","","","","","fixation","","","","","",""
"d3-animate-choice","183","587807","0.0-76.0-0.16","433","2029","23","Male","false","true","true","false","""event"",""trial"",""time""
""fullscreenenter"",""5"",""18979""
","
","
","""event"",""trial"",""time""
""fullscreenenter"",""5"",""18979""
","
","375.29999999701977","","49","","","3000","1","","","images/earth.jpg","images/rocket1","images/rocket2","null","images/rocket2","","1","real","null","1","","",""
"d3-animate-choice","184","590159","0.0-76.0-1.16","433","2029","23","Male","false","true","true","false","""event"",""trial"",""time""
""fullscreenenter"",""5"",""18979""
","
","
","""event"",""trial"",""time""
""fullscreenenter"",""5"",""18979""
","
","347.3999999985099","","48","","","3000","1","","","images/redplanet1.jpg","images/alien2","images/alien1","images/rocket2","images/alien2","images/t.png","2","real","false","2","rare","1","2022-06-06 23:12:44.312"
"two-step-fixation","185","591162","0.0-76.0-2.16","433","2029","23","Male","false","true","true","false","""event"",""trial"",""time""
""fullscreenenter"",""5"",""18979""
","
","
","""event"",""trial"",""time""
""fullscreenenter"",""5"",""18979""
","
","","images/earth.jpg","","","","","","","","","","","","","","fixation","","","","","",""
"d3-animate-choice","186","593599","0.0-76.0-0.17","433","2029","23","Male","false","true","true","false","""event"",""trial"",""time""
""fullscreenenter"",""5"",""18979""
","
","
","""event"",""trial"",""time""
""fullscreenenter"",""5"",""18979""
","
","434.30000000447035","","49","","","3000","1","","","images/earth.jpg","images/rocket1","images/rocket2","null","images/rocket2","","1","real","null","1","","",""
"d3-animate-choice","187","596095","0.0-76.0-1.17","433","2029","23","Male","false","true","true","false","""event"",""trial"",""time""
""fullscreenenter"",""5"",""18979""
","
","
","""event"",""trial"",""time""
""fullscreenenter"",""5"",""18979""
","
","492.5","","48","","","3000","1","","","images/purpleplanet.jpg","images/alien4","images/alien3","images/rocket2","images/alien4","images/nothing.png","2","real","true","2","common","0","2022-06-06 23:12:50.248"
"two-step-fixation","188","597098","0.0-76.0-2.17","433","2029","23","Male","false","true","true","false","""event"",""trial"",""time""
""fullscreenenter"",""5"",""18979""
","
","
","""event"",""trial"",""time""
""fullscreenenter"",""5"",""18979""
","
","","images/earth.jpg","","","","","","","","","","","","","","fixation","","","","","",""
"d3-animate-choice","189","599463","0.0-76.0-0.18","433","2029","23","Male","false","true","true","false","""event"",""trial"",""time""
""fullscreenenter"",""5"",""18979""
","
","
","""event"",""trial"",""time""
""fullscreenenter"",""5"",""18979""
","
","362.19999999552965","","49","","","3000","1","","","images/earth.jpg","images/rocket1","images/rocket2","null","images/rocket2","","1","real","null","1","","",""
"d3-animate-choice","190","601999","0.0-76.0-1.18","433","2029","23","Male","false","true","true","false","""event"",""trial"",""time""
""fullscreenenter"",""5"",""18979""
","
","
","""event"",""trial"",""time""
""fullscreenenter"",""5"",""18979""
","
","532","","48","","","3000","1","","","images/redplanet1.jpg","images/alien2","images/alien1","images/rocket2","images/alien2","images/t.png","2","real","false","2","rare","1","2022-06-06 23:12:56.152"
"two-step-fixation","191","603005","0.0-76.0-2.18","433","2029","23","Male","false","true","true","false","""event"",""trial"",""time""
""fullscreenenter"",""5"",""18979""
","
","
","""event"",""trial"",""time""
""fullscreenenter"",""5"",""18979""
","
","","images/earth.jpg","","","","","","","","","","","","","","fixation","","","","","",""
"d3-animate-choice","192","605305","0.0-76.0-0.19","433","2029","23","Male","false","true","true","false","""event"",""trial"",""time""
""fullscreenenter"",""5"",""18979""
","
","
","""event"",""trial"",""time""
""fullscreenenter"",""5"",""18979""
","
","295.69999999552965","","49","","","3000","1","","","images/earth.jpg","images/rocket1","images/rocket2","null","images/rocket2","","1","real","null","1","","",""
"d3-animate-choice","193","607752","0.0-76.0-1.19","433","2029","23","Male","false","true","true","false","""event"",""trial"",""time""
""fullscreenenter"",""5"",""18979""
","
","
","""event"",""trial"",""time""
""fullscreenenter"",""5"",""18979""
","
","442.6000000014901","","48","","","3000","1","","","images/redplanet1.jpg","images/alien2","images/alien1","images/rocket2","images/alien2","images/nothing.png","2","real","false","2","rare","0","2022-06-06 23:13:01.905"
"two-step-fixation","194","608757","0.0-76.0-2.19","433","2029","23","Male","false","true","true","false","""event"",""trial"",""time""
""fullscreenenter"",""5"",""18979""
","
","
","""event"",""trial"",""time""
""fullscreenenter"",""5"",""18979""
","
","","images/earth.jpg","","","","","","","","","","","","","","fixation","","","","","",""
"d3-animate-choice","195","611047","0.0-76.0-0.20","433","2029","23","Male","false","true","true","false","""event"",""trial"",""time""
""fullscreenenter"",""5"",""18979""
","
","
","""event"",""trial"",""time""
""fullscreenenter"",""5"",""18979""
","
","287.5","","49","","","3000","1","","","images/earth.jpg","images/rocket1","images/rocket2","null","images/rocket2","","1","real","null","1","","",""
"d3-animate-choice","196","613450","0.0-76.0-1.20","433","2029","23","Male","false","true","true","false","""event"",""trial"",""time""
""fullscreenenter"",""5"",""18979""
","
","
","""event"",""trial"",""time""
""fullscreenenter"",""5"",""18979""
","
","396.70000000298023","","48","","","3000","1","","","images/purpleplanet.jpg","images/alien4","images/alien3","images/rocket2","images/alien4","images/t.png","2","real","true","2","common","1","2022-06-06 23:13:07.603"
"two-step-fixation","197","614456","0.0-76.0-2.20","433","2029","23","Male","false","true","true","false","""event"",""trial"",""time""
""fullscreenenter"",""5"",""18979""
","
","
","""event"",""trial"",""time""
""fullscreenenter"",""5"",""18979""
","
","","images/earth.jpg","","","","","","","","","","","","","","fixation","","","","","",""
"d3-animate-choice","198","616783","0.0-76.0-0.21","433","2029","23","Male","false","true","true","false","""event"",""trial"",""time""
""fullscreenenter"",""5"",""18979""
","
","
","""event"",""trial"",""time""
""fullscreenenter"",""5"",""18979""
","
","322.8999999985099","","49","","","3000","1","","","images/earth.jpg","images/rocket1","images/rocket2","null","images/rocket2","","1","real","null","1","","",""
"d3-animate-choice","199","619257","0.0-76.0-1.21","433","2029","23","Male","false","true","true","false","""event"",""trial"",""time""
""fullscreenenter"",""5"",""18979""
","
","
","""event"",""trial"",""time""
""fullscreenenter"",""5"",""18979""
","
","469.5","","48","","","3000","1","","","images/redplanet1.jpg","images/alien2","images/alien1","images/rocket2","images/alien2","images/t.png","2","real","false","2","rare","1","2022-06-06 23:13:13.410"
"two-step-fixation","200","620261","0.0-76.0-2.21","433","2029","23","Male","false","true","true","false","""event"",""trial"",""time""
""fullscreenenter"",""5"",""18979""
","
","
","""event"",""trial"",""time""
""fullscreenenter"",""5"",""18979""
","
","","images/earth.jpg","","","","","","","","","","","","","","fixation","","","","","",""
"d3-animate-choice","201","622608","0.0-76.0-0.22","433","2029","23","Male","false","true","true","false","""event"",""trial"",""time""
""fullscreenenter"",""5"",""18979""
","
","
","""event"",""trial"",""time""
""fullscreenenter"",""5"",""18979""
","
","342.8999999985099","","49","","","3000","1","","","images/earth.jpg","images/rocket1","images/rocket2","null","images/rocket2","","1","real","null","1","","",""
"d3-animate-choice","202","625040","0.0-76.0-1.22","433","2029","23","Male","false","true","true","false","""event"",""trial"",""time""
""fullscreenenter"",""5"",""18979""
","
","
","""event"",""trial"",""time""
""fullscreenenter"",""5"",""18979""
","
","428.5","","48","","","3000","1","","","images/purpleplanet.jpg","images/alien4","images/alien3","images/rocket2","images/alien4","images/nothing.png","2","real","true","2","common","0","2022-06-06 23:13:19.193"
"two-step-fixation","203","626044","0.0-76.0-2.22","433","2029","23","Male","false","true","true","false","""event"",""trial"",""time""
""fullscreenenter"",""5"",""18979""
","
","
","""event"",""trial"",""time""
""fullscreenenter"",""5"",""18979""
","
","","images/earth.jpg","","","","","","","","","","","","","","fixation","","","","","",""
"d3-animate-choice","204","628368","0.0-76.0-0.23","433","2029","23","Male","false","true","true","false","""event"",""trial"",""time""
""fullscreenenter"",""5"",""18979""
","
","
","""event"",""trial"",""time""
""fullscreenenter"",""5"",""18979""
","
","320","","49","","","3000","1","","","images/earth.jpg","images/rocket1","images/rocket2","null","images/rocket2","","1","real","null","1","","",""
"d3-animate-choice","205","631001","0.0-76.0-1.23","433","2029","23","Male","false","true","true","false","""event"",""trial"",""time""
""fullscreenenter"",""5"",""18979""
","
","
","""event"",""trial"",""time""
""fullscreenenter"",""5"",""18979""
","
","628.6000000014901","","49","","","3000","1","","","images/purpleplanet.jpg","images/alien4","images/alien3","images/rocket2","images/alien3","images/nothing.png","2","real","true","1","common","0","2022-06-06 23:13:25.154"
"two-step-fixation","206","632005","0.0-76.0-2.23","433","2029","23","Male","false","true","true","false","""event"",""trial"",""time""
""fullscreenenter"",""5"",""18979""
","
","
","""event"",""trial"",""time""
""fullscreenenter"",""5"",""18979""
","
","","images/earth.jpg","","","","","","","","","","","","","","fixation","","","","","",""
"d3-animate-choice","207","634343","0.0-76.0-0.24","433","2029","23","Male","false","true","true","false","""event"",""trial"",""time""
""fullscreenenter"",""5"",""18979""
","
","
","""event"",""trial"",""time""
""fullscreenenter"",""5"",""18979""
","
","334.59999999403954","","49","","","3000","1","","","images/earth.jpg","images/rocket1","images/rocket2","null","images/rocket2","","1","real","null","1","","",""
"d3-animate-choice","208","636937","0.0-76.0-1.24","433","2029","23","Male","false","true","true","false","""event"",""trial"",""time""
""fullscreenenter"",""5"",""18979""
","
","
","""event"",""trial"",""time""
""fullscreenenter"",""5"",""18979""
","
","589.2000000029802","","48","","","3000","1","","","images/purpleplanet.jpg","images/alien4","images/alien3","images/rocket2","images/alien4","images/t.png","2","real","true","2","common","1","2022-06-06 23:13:31.090"
"two-step-fixation","209","637941","0.0-76.0-2.24","433","2029","23","Male","false","true","true","false","""event"",""trial"",""time""
""fullscreenenter"",""5"",""18979""
","
","
","""event"",""trial"",""time""
""fullscreenenter"",""5"",""18979""
","
","","images/earth.jpg","","","","","","","","","","","","","","fixation","","","","","",""
"d3-animate-choice","210","640247","0.0-76.0-0.25","433","2029","23","Male","false","true","true","false","""event"",""trial"",""time""
""fullscreenenter"",""5"",""18979""
","
","
","""event"",""trial"",""time""
""fullscreenenter"",""5"",""18979""
","
","302.3999999985099","","49","","","3000","1","","","images/earth.jpg","images/rocket1","images/rocket2","null","images/rocket2","","1","real","null","1","","",""
"d3-animate-choice","211","642800","0.0-76.0-1.25","433","2029","23","Male","false","true","true","false","""event"",""trial"",""time""
""fullscreenenter"",""5"",""18979""
","
","
","""event"",""trial"",""time""
""fullscreenenter"",""5"",""18979""
","
","549.3999999985099","","48","","","3000","1","","","images/redplanet1.jpg","images/alien2","images/alien1","images/rocket2","images/alien2","images/nothing.png","2","real","false","2","rare","0","2022-06-06 23:13:36.953"
"two-step-fixation","212","643804","0.0-76.0-2.25","433","2029","23","Male","false","true","true","false","""event"",""trial"",""time""
""fullscreenenter"",""5"",""18979""
","
","
","""event"",""trial"",""time""
""fullscreenenter"",""5"",""18979""
","
","","images/earth.jpg","","","","","","","","","","","","","","fixation","","","","","",""
"d3-animate-choice","213","646264","0.0-76.0-0.26","433","2029","23","Male","false","true","true","false","""event"",""trial"",""time""
""fullscreenenter"",""5"",""18979""
","
","
","""event"",""trial"",""time""
""fullscreenenter"",""5"",""18979""
","
","458","","49","","","3000","1","","","images/earth.jpg","images/rocket1","images/rocket2","null","images/rocket2","","1","real","null","1","","",""
"d3-animate-choice","214","649040","0.0-76.0-1.26","433","2029","23","Male","false","true","true","false","""event"",""trial"",""time""
""fullscreenenter"",""5"",""18979""
","
","
","""event"",""trial"",""time""
""fullscreenenter"",""5"",""18979""
","
","772.5","","48","","","3000","1","","","images/purpleplanet.jpg","images/alien4","images/alien3","images/rocket2","images/alien4","images/t.png","2","real","true","2","common","1","2022-06-06 23:13:43.193"
"two-step-fixation","215","650046","0.0-76.0-2.26","433","2029","23","Male","false","true","true","false","""event"",""trial"",""time""
""fullscreenenter"",""5"",""18979""
","
","
","""event"",""trial"",""time""
""fullscreenenter"",""5"",""18979""
","
","","images/earth.jpg","","","","","","","","","","","","","","fixation","","","","","",""
"d3-animate-choice","216","652450","0.0-76.0-0.27","433","2029","23","Male","false","true","true","false","""event"",""trial"",""time""
""fullscreenenter"",""5"",""18979""
","
","
","""event"",""trial"",""time""
""fullscreenenter"",""5"",""18979""
","
","398.29999999701977","","49","","","3000","1","","","images/earth.jpg","images/rocket1","images/rocket2","null","images/rocket2","","1","real","null","1","","",""
"d3-animate-choice","217","655161","0.0-76.0-1.27","433","2029","23","Male","false","true","true","false","""event"",""trial"",""time""
""fullscreenenter"",""5"",""18979""
","
","
","""event"",""trial"",""time""
""fullscreenenter"",""5"",""18979""
","
","706.7000000029802","","49","","","3000","1","","","images/redplanet1.jpg","images/alien2","images/alien1","images/rocket2","images/alien1","images/nothing.png","2","real","false","1","rare","0","2022-06-06 23:13:49.314"
"two-step-fixation","218","656165","0.0-76.0-2.27","433","2029","23","Male","false","true","true","false","""event"",""trial"",""time""
""fullscreenenter"",""5"",""18979""
","
","
","""event"",""trial"",""time""
""fullscreenenter"",""5"",""18979""
","
","","images/earth.jpg","","","","","","","","","","","","","","fixation","","","","","",""
"d3-animate-choice","219","658506","0.0-76.0-0.28","433","2029","23","Male","false","true","true","false","""event"",""trial"",""time""
""fullscreenenter"",""5"",""18979""
","
","
","""event"",""trial"",""time""
""fullscreenenter"",""5"",""18979""
","
","335.29999999701977","","49","","","3000","1","","","images/earth.jpg","images/rocket1","images/rocket2","null","images/rocket2","","1","real","null","1","","",""
"d3-animate-choice","220","661129","0.0-76.0-1.28","433","2029","23","Male","false","true","true","false","""event"",""trial"",""time""
""fullscreenenter"",""5"",""18979""
","
","
","""event"",""trial"",""time""
""fullscreenenter"",""5"",""18979""
","
","618.6000000014901","","48","","","3000","1","","","images/purpleplanet.jpg","images/alien4","images/alien3","images/rocket2","images/alien4","images/t.png","2","real","true","2","common","1","2022-06-06 23:13:55.283"
"two-step-fixation","221","662133","0.0-76.0-2.28","433","2029","23","Male","false","true","true","false","""event"",""trial"",""time""
""fullscreenenter"",""5"",""18979""
","
","
","""event"",""trial"",""time""
""fullscreenenter"",""5"",""18979""
","
","","images/earth.jpg","","","","","","","","","","","","","","fixation","","","","","",""
"d3-animate-choice","222","664490","0.0-76.0-0.29","433","2029","23","Male","false","true","true","false","""event"",""trial"",""time""
""fullscreenenter"",""5"",""18979""
","
","
","""event"",""trial"",""time""
""fullscreenenter"",""5"",""18979""
","
","352.8999999985099","","49","","","3000","1","","","images/earth.jpg","images/rocket1","images/rocket2","null","images/rocket2","","1","real","null","1","","",""
"d3-animate-choice","223","667472","0.0-76.0-1.29","433","2029","23","Male","false","true","true","false","""event"",""trial"",""time""
""fullscreenenter"",""5"",""18979""
","
","
","""event"",""trial"",""time""
""fullscreenenter"",""5"",""18979""
","
","976.6000000014901","","49","","","3000","1","","","images/redplanet1.jpg","images/alien2","images/alien1","images/rocket2","images/alien1","images/nothing.png","2","real","false","1","rare","0","2022-06-06 23:14:01.625"
"two-step-fixation","224","668479","0.0-76.0-2.29","433","2029","23","Male","false","true","true","false","""event"",""trial"",""time""
""fullscreenenter"",""5"",""18979""
","
","
","""event"",""trial"",""time""
""fullscreenenter"",""5"",""18979""
","
","","images/earth.jpg","","","","","","","","","","","","","","fixation","","","","","",""
"d3-animate-choice","225","670858","0.0-76.0-0.30","433","2029","23","Male","false","true","true","false","""event"",""trial"",""time""
""fullscreenenter"",""5"",""18979""
","
","
","""event"",""trial"",""time""
""fullscreenenter"",""5"",""18979""
","
","373.79999999701977","","49","","","3000","1","","","images/earth.jpg","images/rocket1","images/rocket2","null","images/rocket2","","1","real","null","1","","",""
"d3-animate-choice","226","673529","0.0-76.0-1.30","433","2029","23","Male","false","true","true","false","""event"",""trial"",""time""
""fullscreenenter"",""5"",""18979""
","
","
","""event"",""trial"",""time""
""fullscreenenter"",""5"",""18979""
","
","667.3999999985099","","48","","","3000","1","","","images/purpleplanet.jpg","images/alien4","images/alien3","images/rocket2","images/alien4","images/t.png","2","real","true","2","common","1","2022-06-06 23:14:07.682"
"two-step-fixation","227","674533","0.0-76.0-2.30","433","2029","23","Male","false","true","true","false","""event"",""trial"",""time""
""fullscreenenter"",""5"",""18979""
","
","
","""event"",""trial"",""time""
""fullscreenenter"",""5"",""18979""
","
","","images/earth.jpg","","","","","","","","","","","","","","fixation","","","","","",""
"d3-animate-choice","228","676891","0.0-76.0-0.31","433","2029","23","Male","false","true","true","false","""event"",""trial"",""time""
""fullscreenenter"",""5"",""18979""
","
","
","""event"",""trial"",""time""
""fullscreenenter"",""5"",""18979""
","
","352.5","","49","","","3000","1","","","images/earth.jpg","images/rocket1","images/rocket2","null","images/rocket2","","1","real","null","1","","",""
"d3-animate-choice","229","679867","0.0-76.0-1.31","433","2029","23","Male","false","true","true","false","""event"",""trial"",""time""
""fullscreenenter"",""5"",""18979""
","
","
","""event"",""trial"",""time""
""fullscreenenter"",""5"",""18979""
","
","970.5999999940395","","48","","","3000","1","","","images/redplanet1.jpg","images/alien2","images/alien1","images/rocket2","images/alien2","images/t.png","2","real","false","2","rare","1","2022-06-06 23:14:14.020"
"two-step-fixation","230","680869","0.0-76.0-2.31","433","2029","23","Male","false","true","true","false","""event"",""trial"",""time""
""fullscreenenter"",""5"",""18979""
","
","
","""event"",""trial"",""time""
""fullscreenenter"",""5"",""18979""
","
","","images/earth.jpg","","","","","","","","","","","","","","fixation","","","","","",""
"d3-animate-choice","231","683215","0.0-76.0-0.32","433","2029","23","Male","false","true","true","false","""event"",""trial"",""time""
""fullscreenenter"",""5"",""18979""
","
","
","""event"",""trial"",""time""
""fullscreenenter"",""5"",""18979""
","
","341.79999999701977","","49","","","3000","1","","","images/earth.jpg","images/rocket1","images/rocket2","null","images/rocket2","","1","real","null","1","","",""
"d3-animate-choice","232","685728","0.0-76.0-1.32","433","2029","23","Male","false","true","true","false","""event"",""trial"",""time""
""fullscreenenter"",""5"",""18979""
","
","
","""event"",""trial"",""time""
""fullscreenenter"",""5"",""18979""
","
","509.79999999701977","","48","","","3000","1","","","images/redplanet1.jpg","images/alien2","images/alien1","images/rocket2","images/alien2","images/t.png","2","real","false","2","rare","1","2022-06-06 23:14:19.881"
"two-step-fixation","233","686731","0.0-76.0-2.32","433","2029","23","Male","false","true","true","false","""event"",""trial"",""time""
""fullscreenenter"",""5"",""18979""
","
","
","""event"",""trial"",""time""
""fullscreenenter"",""5"",""18979""
","
","","images/earth.jpg","","","","","","","","","","","","","","fixation","","","","","",""
"d3-animate-choice","234","689008","0.0-76.0-0.33","433","2029","23","Male","false","true","true","false","""event"",""trial"",""time""
""fullscreenenter"",""5"",""18979""
","
","
","""event"",""trial"",""time""
""fullscreenenter"",""5"",""18979""
","
","273.5","","49","","","3000","1","","","images/earth.jpg","images/rocket1","images/rocket2","null","images/rocket2","","1","real","null","1","","",""
"d3-animate-choice","235","691535","0.0-76.0-1.33","433","2029","23","Male","false","true","true","false","""event"",""trial"",""time""
""fullscreenenter"",""5"",""18979""
","
","
","""event"",""trial"",""time""
""fullscreenenter"",""5"",""18979""
","
","524.6999999955297","","48","","","3000","1","","","images/redplanet1.jpg","images/alien2","images/alien1","images/rocket2","images/alien2","images/t.png","2","real","false","2","rare","1","2022-06-06 23:14:25.689"
"two-step-fixation","236","692539","0.0-76.0-2.33","433","2029","23","Male","false","true","true","false","""event"",""trial"",""time""
""fullscreenenter"",""5"",""18979""
","
","
","""event"",""trial"",""time""
""fullscreenenter"",""5"",""18979""
","
","","images/earth.jpg","","","","","","","","","","","","","","fixation","","","","","",""
"d3-animate-choice","237","694896","0.0-76.0-0.34","433","2029","23","Male","false","true","true","false","""event"",""trial"",""time""
""fullscreenenter"",""5"",""18979""
","
","
","""event"",""trial"",""time""
""fullscreenenter"",""5"",""18979""
","
","354.29999999701977","","49","","","3000","1","","","images/earth.jpg","images/rocket1","images/rocket2","null","images/rocket2","","1","real","null","1","","",""
"d3-animate-choice","238","697344","0.0-76.0-1.34","433","2029","23","Male","false","true","true","false","""event"",""trial"",""time""
""fullscreenenter"",""5"",""18979""
","
","
","""event"",""trial"",""time""
""fullscreenenter"",""5"",""18979""
","
","444.69999999552965","","48","","","3000","1","","","images/purpleplanet.jpg","images/alien4","images/alien3","images/rocket2","images/alien4","images/t.png","2","real","true","2","common","1","2022-06-06 23:14:31.497"
"two-step-fixation","239","698349","0.0-76.0-2.34","433","2029","23","Male","false","true","true","false","""event"",""trial"",""time""
""fullscreenenter"",""5"",""18979""
","
","
","""event"",""trial"",""time""
""fullscreenenter"",""5"",""18979""
","
","","images/earth.jpg","","","","","","","","","","","","","","fixation","","","","","",""
"d3-animate-choice","240","700640","0.0-76.0-0.35","433","2029","23","Male","false","true","true","false","""event"",""trial"",""time""
""fullscreenenter"",""5"",""18979""
","
","
","""event"",""trial"",""time""
""fullscreenenter"",""5"",""18979""
","
","288.19999999552965","","49","","","3000","1","","","images/earth.jpg","images/rocket1","images/rocket2","null","images/rocket2","","1","real","null","1","","",""
"d3-animate-choice","241","703280","0.0-76.0-1.35","433","2029","23","Male","false","true","true","false","""event"",""trial"",""time""
""fullscreenenter"",""5"",""18979""
","
","
","""event"",""trial"",""time""
""fullscreenenter"",""5"",""18979""
","
","636.1000000014901","","48","","","3000","1","","","images/purpleplanet.jpg","images/alien4","images/alien3","images/rocket2","images/alien4","images/nothing.png","2","real","true","2","common","0","2022-06-06 23:14:37.433"
"two-step-fixation","242","704282","0.0-76.0-2.35","433","2029","23","Male","false","true","true","false","""event"",""trial"",""time""
""fullscreenenter"",""5"",""18979""
","
","
","""event"",""trial"",""time""
""fullscreenenter"",""5"",""18979""
","
","","images/earth.jpg","","","","","","","","","","","","","","fixation","","","","","",""
"d3-animate-choice","243","706624","0.0-76.0-0.36","433","2029","23","Male","false","true","true","false","""event"",""trial"",""time""
""fullscreenenter"",""5"",""18979""
","
","
","""event"",""trial"",""time""
""fullscreenenter"",""5"",""18979""
","
","338.6000000014901","","48","","","3000","1","","","images/earth.jpg","images/rocket1","images/rocket2","null","images/rocket1","","1","real","null","2","","",""
"d3-animate-choice","244","709081","0.0-76.0-1.36","433","2029","23","Male","false","true","true","false","""event"",""trial"",""time""
""fullscreenenter"",""5"",""18979""
","
","
","""event"",""trial"",""time""
""fullscreenenter"",""5"",""18979""
","
","452.70000000298023","","48","","","3000","1","","","images/purpleplanet.jpg","images/alien4","images/alien3","images/rocket1","images/alien4","images/t.png","2","real","false","2","rare","1","2022-06-06 23:14:43.234"
"two-step-fixation","245","710085","0.0-76.0-2.36","433","2029","23","Male","false","true","true","false","""event"",""trial"",""time""
""fullscreenenter"",""5"",""18979""
","
","
","""event"",""trial"",""time""
""fullscreenenter"",""5"",""18979""
","
","","images/earth.jpg","","","","","","","","","","","","","","fixation","","","","","",""
"d3-animate-choice","246","712336","0.0-76.0-0.37","433","2029","23","Male","false","true","true","false","""event"",""trial"",""time""
""fullscreenenter"",""5"",""18979""
","
","
","""event"",""trial"",""time""
""fullscreenenter"",""5"",""18979""
","
","248.30000000447035","","48","","","3000","1","","","images/earth.jpg","images/rocket1","images/rocket2","null","images/rocket1","","1","real","null","2","","",""
"d3-animate-choice","247","714688","0.0-76.0-1.37","433","2029","23","Male","false","true","true","false","""event"",""trial"",""time""
""fullscreenenter"",""5"",""18979""
","
","
","""event"",""trial"",""time""
""fullscreenenter"",""5"",""18979""
","
