"trial_type","trial_index","time_elapsed","internal_node_id","participant_id","subject_id","age","gender","rocket_sides","red_planet_first_rocket","red_display_order","purple_display_order","interactions","blur_events","focus_events","fullscreenenter_events","fullscreenexit_events","rt","stimulus","key_press","button_pressed","success","duration","valid_pressed","rts","keys","planet_text","right_text","left_text","center_text","chosen_text","reward_text","trial_stage","practice_trial","transition_type","choice","transition","reward","timestamp"
"pavlovia","0","5","0.0-0.0","661","736","11","Female","false","false","false","true","
","
","
","
","
","","","","","","","","","","","","","","","","","","","","","",""
"html-keyboard-response","1","8279","0.0-1.0","661","736","11","Female","false","false","false","true","
","
","
","
","
","8271.899999999907","Welcome! Press the space bar to begin.","78","","","","","","","","","","","","","","","","","","",""
"audio-keyboard-response","2","12743","0.0-2.0","661","736","11","Female","false","false","false","true","
","
","
","
","
","4133","audio/beep_loop.wav","32","","","","","","","","","","","","","","","","","","",""
"audio-button-response","3","16242","0.0-3.0","661","736","11","Female","false","false","false","true","
","
","
","
","
","NaN","audio/fish.mp3","","1","","","","","","","","","","","","","","","","","",""
"audio-button-response","4","19505","0.0-4.0","661","736","11","Female","false","false","false","true","""event"",""trial"",""time""
""fullscreenenter"",""5"",""22642""
","
","
","""event"",""trial"",""time""
""fullscreenenter"",""5"",""22642""
","
","NaN","audio/tiger.mp3","","4","","","","","","","","","","","","","","","","","",""
"fullscreen","5","23628","0.0-5.0","661","736","11","Female","false","false","false","true","""event"",""trial"",""time""
""fullscreenenter"",""5"",""22642""
","
","
","""event"",""trial"",""time""
""fullscreenenter"",""5"",""22642""
","
","","","","","true","","","","","","","","","","","","","","","","",""
"d3-instructions","6","37259","0.0-6.0","661","736","11","Female","false","false","false","true","""event"",""trial"",""time""
""fullscreenenter"",""5"",""22642""
","
","
","""event"",""trial"",""time""
""fullscreenenter"",""5"",""22642""
","
","","","","","","","","","","","","","","","","","","","","","",""
"d3-instructions","7","46924","0.0-7.0","661","736","11","Female","false","false","false","true","""event"",""trial"",""time""
""fullscreenenter"",""5"",""22642""
","
","
","""event"",""trial"",""time""
""fullscreenenter"",""5"",""22642""
","
","","","","","","","","","","","","","","","","","","","","","",""
"d3-instructions","8","54864","0.0-8.0","661","736","11","Female","false","false","false","true","""event"",""trial"",""time""
""fullscreenenter"",""5"",""22642""
","
","
","""event"",""trial"",""time""
""fullscreenenter"",""5"",""22642""
","
","","","","","","","","","","","","","","","","","","","","","",""
"d3-instructions","9","67186","0.0-9.0","661","736","11","Female","false","false","false","true","""event"",""trial"",""time""
""fullscreenenter"",""5"",""22642""
","
","
","""event"",""trial"",""time""
""fullscreenenter"",""5"",""22642""
","
","","","","","","","","","","","","","","","","","","","","","",""
"d3-instructions","10","93533","0.0-10.0","661","736","11","Female","false","false","false","true","""event"",""trial"",""time""
""fullscreenenter"",""5"",""22642""
","
","
","""event"",""trial"",""time""
""fullscreenenter"",""5"",""22642""
","
","","","","","","","","","","","","","","","","","","","","","",""
"d3-animate-choice","11","97555","0.0-11.0","661","736","11","Female","false","false","false","true","""event"",""trial"",""time""
""fullscreenenter"",""5"",""22642""
","
","
","""event"",""trial"",""time""
""fullscreenenter"",""5"",""22642""
","
","2002","","49","","","3000","1","2914.3000000000466","49","images/tutgreenplanet.jpg","images/tutalien1","images/tutalien2","null","images/tutalien2","","NA","practice","null","","","",""
"d3-animate-choice","12","100160","0.0-12.0","661","736","11","Female","false","false","false","true","""event"",""trial"",""time""
""fullscreenenter"",""5"",""22642""
","
","
","""event"",""trial"",""time""
""fullscreenenter"",""5"",""22642""
","
","596","","48","","","3000","1","","","images/tutgreenplanet.jpg","images/tutalien1","images/tutalien2","null","images/tutalien1","","NA","practice","null","","","",""
"d3-animate-choice","13","102720","0.0-13.0","661","736","11","Female","false","false","false","true","""event"",""trial"",""time""
""fullscreenenter"",""5"",""22642""
","
","
","""event"",""trial"",""time""
""fullscreenenter"",""5"",""22642""
","
","549.1999999999534","","48","","","3000","1","2401.8000000000466","49","images/tutgreenplanet.jpg","images/tutalien1","images/tutalien2","null","images/tutalien1","","NA","practice","null","","","",""
"d3-animate-choice","14","104980","0.0-14.0","661","736","11","Female","false","false","false","true","""event"",""trial"",""time""
""fullscreenenter"",""5"",""22642""
","
","
","""event"",""trial"",""time""
""fullscreenenter"",""5"",""22642""
","
","248.60000000009313","","49","","","3000","1","1463.8000000000466,1796.6000000000931,2042.6000000000931","48,48,48","images/tutgreenplanet.jpg","images/tutalien1","images/tutalien2","null","images/tutalien2","","NA","practice","null","","","",""
"d3-instructions","15","111419","0.0-15.0","661","736","11","Female","false","false","false","true","""event"",""trial"",""time""
""fullscreenenter"",""5"",""22642""
","
","
","""event"",""trial"",""time""
""fullscreenenter"",""5"",""22642""
","
","","","","","","","","","","","","","","","","","","","","","",""
"d3-instructions","16","118117","0.0-16.0","661","736","11","Female","false","false","false","true","""event"",""trial"",""time""
""fullscreenenter"",""5"",""22642""
","
","
","""event"",""trial"",""time""
""fullscreenenter"",""5"",""22642""
","
","","","","","","","","","","","","","","","","","","","","","",""
"d3-instructions","17","130685","0.0-17.0","661","736","11","Female","false","false","false","true","""event"",""trial"",""time""
""fullscreenenter"",""5"",""22642""
","
","
","""event"",""trial"",""time""
""fullscreenenter"",""5"",""22642""
","
","","","","","","","","","","","","","","","","","","","","","",""
"d3-instructions","18","144315","0.0-18.0","661","736","11","Female","false","false","false","true","""event"",""trial"",""time""
""fullscreenenter"",""5"",""22642""
","
","
","""event"",""trial"",""time""
""fullscreenenter"",""5"",""22642""
","
","","","","","","","","","","","","","","","","","","","","","",""
"d3-instructions","19","155472","0.0-19.0","661","736","11","Female","false","false","false","true","""event"",""trial"",""time""
""fullscreenenter"",""5"",""22642""
","
","
","""event"",""trial"",""time""
""fullscreenenter"",""5"",""22642""
","
","","","","","","","","","","","","","","","","","","","","","",""
"d3-animate-choice","20","158875","0.0-20.0","661","736","11","Female","false","false","false","true","""event"",""trial"",""time""
""fullscreenenter"",""5"",""22642""
","
","
","""event"",""trial"",""time""
""fullscreenenter"",""5"",""22642""
","
","1395.8999999999069","","49","","","3000","1","1409.2999999998137,1598.7999999998137,1771.2999999998137,1934.6999999999534,2158.5999999998603,2342.7999999998137","192,49,49,49,49,49","images/tutyellowplanet.jpg","null","images/tutalien3","null","images/tutalien3","images/t.png","NA","practice","null","","","",""
"d3-animate-choice","21","161273","0.0-21.0","661","736","11","Female","false","false","false","true","""event"",""trial"",""time""
""fullscreenenter"",""5"",""22642""
","
","
","""event"",""trial"",""time""
""fullscreenenter"",""5"",""22642""
","
","394.19999999995343","","49","","","3000","1","","","images/tutyellowplanet.jpg","null","images/tutalien3","null","images/tutalien3","images/t.png","NA","practice","null","","","",""
"d3-animate-choice","22","163403","0.0-22.0","661","736","11","Female","false","false","false","true","""event"",""trial"",""time""
""fullscreenenter"",""5"",""22642""
","
","
","""event"",""trial"",""time""
""fullscreenenter"",""5"",""22642""
","
","125","","49","","","3000","1","429.19999999995343","49","images/tutyellowplanet.jpg","null","images/tutalien3","null","images/tutalien3","images/nothing.png","NA","practice","null","","","",""
"d3-animate-choice","23","166114","0.0-23.0","661","736","11","Female","false","false","false","true","""event"",""trial"",""time""
""fullscreenenter"",""5"",""22642""
","
","
","""event"",""trial"",""time""
""fullscreenenter"",""5"",""22642""
","
","706.1000000000931","","49","","","3000","1","2632.100000000093","49","images/tutyellowplanet.jpg","null","images/tutalien3","null","images/tutalien3","images/nothing.png","NA","practice","null","","","",""
"d3-animate-choice","24","168387","0.0-24.0","661","736","11","Female","false","false","false","true","""event"",""trial"",""time""
""fullscreenenter"",""5"",""22642""
","
","
","""event"",""trial"",""time""
""fullscreenenter"",""5"",""22642""
","
","268.4000000001397","","49","","","3000","1","","","images/tutyellowplanet.jpg","null","images/tutalien3","null","images/tutalien3","images/t.png","NA","practice","null","","","",""
"d3-animate-choice","25","170845","0.0-25.0","661","736","11","Female","false","false","false","true","""event"",""trial"",""time""
""fullscreenenter"",""5"",""22642""
","
","
","""event"",""trial"",""time""
""fullscreenenter"",""5"",""22642""
","
","454.5","","49","","","3000","1","2046.8000000000466","49","images/tutyellowplanet.jpg","null","images/tutalien3","null","images/tutalien3","images/t.png","NA","practice","null","","","",""
"d3-animate-choice","26","173386","0.0-26.0","661","736","11","Female","false","false","false","true","""event"",""trial"",""time""
""fullscreenenter"",""5"",""22642""
","
","
","""event"",""trial"",""time""
""fullscreenenter"",""5"",""22642""
","
","537","","49","","","3000","1","","","images/tutyellowplanet.jpg","null","images/tutalien3","null","images/tutalien3","images/t.png","NA","practice","null","","","",""
"d3-animate-choice","27","175505","0.0-27.0","661","736","11","Female","false","false","false","true","""event"",""trial"",""time""
""fullscreenenter"",""5"",""22642""
","
","
","""event"",""trial"",""time""
""fullscreenenter"",""5"",""22642""
","
","115.19999999995343","","49","","","3000","1","2075.399999999907","49","images/tutyellowplanet.jpg","null","images/tutalien3","null","images/tutalien3","images/nothing.png","NA","practice","null","","","",""
"d3-animate-choice","28","177953","0.0-28.0","661","736","11","Female","false","false","false","true","""event"",""trial"",""time""
""fullscreenenter"",""5"",""22642""
","
","
","""event"",""trial"",""time""
""fullscreenenter"",""5"",""22642""
","
","443.69999999995343","","49","","","3000","1","2025","49","images/tutyellowplanet.jpg","null","images/tutalien3","null","images/tutalien3","images/t.png","NA","practice","null","","","",""
"d3-animate-choice","29","180239","0.0-29.0","661","736","11","Female","false","false","false","true","""event"",""trial"",""time""
""fullscreenenter"",""5"",""22642""
","
","
","""event"",""trial"",""time""
""fullscreenenter"",""5"",""22642""
","
","282.30000000004657","","49","","","3000","1","1792.1000000000931,2154.600000000093","49,49","images/tutyellowplanet.jpg","null","images/tutalien3","null","images/tutalien3","images/t.png","NA","practice","null","","","",""
"d3-instructions","30","185850","0.0-30.0","661","736","11","Female","false","false","false","true","""event"",""trial"",""time""
""fullscreenenter"",""5"",""22642""
","
","
","""event"",""trial"",""time""
""fullscreenenter"",""5"",""22642""
","
","","","","","","","","","","","","","","","","","","","","","",""
"d3-instructions","31","195595","0.0-31.0","661","736","11","Female","false","false","false","true","""event"",""trial"",""time""
""fullscreenenter"",""5"",""22642""
","
","
","""event"",""trial"",""time""
""fullscreenenter"",""5"",""22642""
","
","","","","","","","","","","","","","","","","","","","","","",""
"d3-instructions","32","203922","0.0-32.0","661","736","11","Female","false","false","false","true","""event"",""trial"",""time""
""fullscreenenter"",""5"",""22642""
","
","
","""event"",""trial"",""time""
""fullscreenenter"",""5"",""22642""
","
","","","","","","","","","","","","","","","","","","","","","",""
"d3-instructions","33","211226","0.0-33.0","661","736","11","Female","false","false","false","true","""event"",""trial"",""time""
""fullscreenenter"",""5"",""22642""
","
","
","""event"",""trial"",""time""
""fullscreenenter"",""5"",""22642""
","
","","","","","","","","","","","","","","","","","","","","","",""
"d3-animate-choice","34","214721","0.0-34.0","661","736","11","Female","false","false","false","true","""event"",""trial"",""time""
""fullscreenenter"",""5"",""22642""
","
","
","""event"",""trial"",""time""
""fullscreenenter"",""5"",""22642""
","
","1489.2000000001863","","49","","","3000","1","","","images/tutgreenplanet.jpg","images/tutalien1","images/tutalien2","null","images/tutalien2","images/t.png","NA","practice","null","","","",""
"d3-animate-choice","35","217331","0.0-35.0","661","736","11","Female","false","false","false","true","""event"",""trial"",""time""
""fullscreenenter"",""5"",""22642""
","
","
","""event"",""trial"",""time""
""fullscreenenter"",""5"",""22642""
","
","605.7000000001863","","49","","","3000","1","","","images/tutgreenplanet.jpg","images/tutalien1","images/tutalien2","null","images/tutalien2","images/t.png","NA","practice","null","","","",""
"d3-animate-choice","36","219752","0.0-36.0","661","736","11","Female","false","false","false","true","""event"",""trial"",""time""
""fullscreenenter"",""5"",""22642""
","
","
","""event"",""trial"",""time""
""fullscreenenter"",""5"",""22642""
","
","415.5","","48","","","3000","1","","","images/tutgreenplanet.jpg","images/tutalien1","images/tutalien2","null","images/tutalien1","images/nothing.png","NA","practice","null","","","",""
"d3-animate-choice","37","221986","0.0-37.0","661","736","11","Female","false","false","false","true","""event"",""trial"",""time""
""fullscreenenter"",""5"",""22642""
","
","
","""event"",""trial"",""time""
""fullscreenenter"",""5"",""22642""
","
","230.10000000009313","","49","","","3000","1","","","images/tutgreenplanet.jpg","images/tutalien1","images/tutalien2","null","images/tutalien2","images/t.png","NA","practice","null","","","",""
"d3-animate-choice","38","224366","0.0-38.0","661","736","11","Female","false","false","false","true","""event"",""trial"",""time""
""fullscreenenter"",""5"",""22642""
","
","
","""event"",""trial"",""time""
""fullscreenenter"",""5"",""22642""
","
","375.80000000004657","","49","","","3000","1","2065.4000000001397,2368.5","48,48","images/tutgreenplanet.jpg","images/tutalien1","images/tutalien2","null","images/tutalien2","images/t.png","NA","practice","null","","","",""
"d3-animate-choice","39","226652","0.0-39.0","661","736","11","Female","false","false","false","true","""event"",""trial"",""time""
""fullscreenenter"",""5"",""22642""
","
","
","""event"",""trial"",""time""
""fullscreenenter"",""5"",""22642""
","
","281.9000000001397","","48","","","3000","1","2054.4000000001397,2265.100000000093","48,49","images/tutgreenplanet.jpg","images/tutalien1","images/tutalien2","null","images/tutalien1","images/nothing.png","NA","practice","null","","","",""
"d3-animate-choice","40","228985","0.0-40.0","661","736","11","Female","false","false","false","true","""event"",""trial"",""time""
""fullscreenenter"",""5"",""22642""
","
","
","""event"",""trial"",""time""
""fullscreenenter"",""5"",""22642""
","
","329","","49","","","3000","1","","","images/tutgreenplanet.jpg","images/tutalien1","images/tutalien2","null","images/tutalien2","images/nothing.png","NA","practice","null","","","",""
"d3-animate-choice","41","231034","0.0-41.0","661","736","11","Female","false","false","false","true","""event"",""trial"",""time""
""fullscreenenter"",""5"",""22642""
","
","
","""event"",""trial"",""time""
""fullscreenenter"",""5"",""22642""
","
","40.800000000046566","","48","","","3000","1","342.69999999995343,1511.8999999999069,1785.8000000000466","48,48,48","images/tutgreenplanet.jpg","images/tutalien1","images/tutalien2","null","images/tutalien1","images/nothing.png","NA","practice","null","","","",""
"d3-animate-choice","42","233109","0.0-42.0","661","736","11","Female","false","false","false","true","""event"",""trial"",""time""
""fullscreenenter"",""5"",""22642""
","
","
","""event"",""trial"",""time""
""fullscreenenter"",""5"",""22642""
","
","71.29999999981374","","48","","","3000","1","313","48","images/tutgreenplanet.jpg","images/tutalien1","images/tutalien2","null","images/tutalien1","images/t.png","NA","practice","null","","","",""
"d3-animate-choice","43","235463","0.0-43.0","661","736","11","Female","false","false","false","true","""event"",""trial"",""time""
""fullscreenenter"",""5"",""22642""
","
","
","""event"",""trial"",""time""
""fullscreenenter"",""5"",""22642""
","
","349.69999999995343","","48","","","3000","1","1915.6999999999534","48","images/tutgreenplanet.jpg","images/tutalien1","images/tutalien2","null","images/tutalien1","images/nothing.png","NA","practice","null","","","",""
"d3-instructions","44","248133","0.0-44.0","661","736","11","Female","false","false","false","true","""event"",""trial"",""time""
""fullscreenenter"",""5"",""22642""
","
","
","""event"",""trial"",""time""
""fullscreenenter"",""5"",""22642""
","
","","","","","","","","","","","","","","","","","","","","","",""
"d3-instructions","45","254329","0.0-45.0","661","736","11","Female","false","false","false","true","""event"",""trial"",""time""
""fullscreenenter"",""5"",""22642""
","
","
","""event"",""trial"",""time""
""fullscreenenter"",""5"",""22642""
","
","","","","","","","","","","","","","","","","","","","","","",""
"d3-instructions","46","258945","0.0-46.0","661","736","11","Female","false","false","false","true","""event"",""trial"",""time""
""fullscreenenter"",""5"",""22642""
","
","
","""event"",""trial"",""time""
""fullscreenenter"",""5"",""22642""
","
","","","","","","","","","","","","","","","","","","","","","",""
"d3-instructions","47","274985","0.0-47.0","661","736","11","Female","false","false","false","true","""event"",""trial"",""time""
""fullscreenenter"",""5"",""22642""
","
","
","""event"",""trial"",""time""
""fullscreenenter"",""5"",""22642""
","
","","","","","","","","","","","","","","","","","","","","","",""
"d3-instructions","48","280823","0.0-48.0","661","736","11","Female","false","false","false","true","""event"",""trial"",""time""
""fullscreenenter"",""5"",""22642""
","
","
","""event"",""trial"",""time""
""fullscreenenter"",""5"",""22642""
","
","","","","","","","","","","","","","","","","","","","","","",""
"d3-instructions","49","291173","0.0-49.0","661","736","11","Female","false","false","false","true","""event"",""trial"",""time""
""fullscreenenter"",""5"",""22642""
","
","
","""event"",""trial"",""time""
""fullscreenenter"",""5"",""22642""
","
","","","","","","","","","","","","","","","","","","","","","",""
"d3-instructions","50","299090","0.0-50.0","661","736","11","Female","false","false","false","true","""event"",""trial"",""time""
""fullscreenenter"",""5"",""22642""
","
","
","""event"",""trial"",""time""
""fullscreenenter"",""5"",""22642""
","
","","","","","","","","","","","","","","","","","","","","","",""
"d3-instructions","51","301193","0.0-51.0","661","736","11","Female","false","false","false","true","""event"",""trial"",""time""
""fullscreenenter"",""5"",""22642""
","
","
","""event"",""trial"",""time""
""fullscreenenter"",""5"",""22642""
","
","","","","","","","","","","","","","","","","","","","","","",""
"d3-instructions","52","302910","0.0-52.0","661","736","11","Female","false","false","false","true","""event"",""trial"",""time""
""fullscreenenter"",""5"",""22642""
","
","
","""event"",""trial"",""time""
""fullscreenenter"",""5"",""22642""
","
","","","","","","","","","","","","","","","","","","","","","",""
"d3-instructions","53","314818","0.0-53.0","661","736","11","Female","false","false","false","true","""event"",""trial"",""time""
""fullscreenenter"",""5"",""22642""
","
","
","""event"",""trial"",""time""
""fullscreenenter"",""5"",""22642""
","
","","","","","","","","","","","","","","","","","","","","","",""
"d3-instructions","54","327817","0.0-54.0","661","736","11","Female","false","false","false","true","""event"",""trial"",""time""
""fullscreenenter"",""5"",""22642""
","
","
","""event"",""trial"",""time""
""fullscreenenter"",""5"",""22642""
","
","","","","","","","","","","","","","","","","","","","","","",""
"d3-instructions","55","338646","0.0-55.0","661","736","11","Female","false","false","false","true","""event"",""trial"",""time""
""fullscreenenter"",""5"",""22642""
","
","
","""event"",""trial"",""time""
""fullscreenenter"",""5"",""22642""
","
","","","","","","","","","","","","","","","","","","","","","",""
"d3-instructions","56","347006","0.0-56.0","661","736","11","Female","false","false","false","true","""event"",""trial"",""time""
""fullscreenenter"",""5"",""22642""
","
","
","""event"",""trial"",""time""
""fullscreenenter"",""5"",""22642""
","
","","","","","","","","","","","","","","","","","","","","","",""
"d3-instructions","57","356733","0.0-57.0","661","736","11","Female","false","false","false","true","""event"",""trial"",""time""
""fullscreenenter"",""5"",""22642""
","
","
","""event"",""trial"",""time""
""fullscreenenter"",""5"",""22642""
","
","","","","","","","","","","","","","","","","","","","","","",""
"d3-instructions","58","367070","0.0-58.0","661","736","11","Female","false","false","false","true","""event"",""trial"",""time""
""fullscreenenter"",""5"",""22642""
","
","
","""event"",""trial"",""time""
""fullscreenenter"",""5"",""22642""
","
","","","","","","","","","","","","","","","","","","","","","",""
"d3-instructions","59","371662","0.0-59.0","661","736","11","Female","false","false","false","true","""event"",""trial"",""time""
""fullscreenenter"",""5"",""22642""
","
","
","""event"",""trial"",""time""
""fullscreenenter"",""5"",""22642""
","
","","","","","","","","","","","","","","","","","","","","","",""
"d3-instructions","60","378634","0.0-60.0","661","736","11","Female","false","false","false","true","""event"",""trial"",""time""
""fullscreenenter"",""5"",""22642""
","
","
","""event"",""trial"",""time""
""fullscreenenter"",""5"",""22642""
","
","","","","","","","","","","","","","","","","","","","","","",""
"d3-animate-choice","61","382410","0.0-61.0-0.0","661","736","11","Female","false","false","false","true","""event"",""trial"",""time""
""fullscreenenter"",""5"",""22642""
","
","
","""event"",""trial"",""time""
""fullscreenenter"",""5"",""22642""
","
","1770.5","","49","","","3000","1","","","images/earth.jpg","images/tutrocket1","images/tutrocket2","null","images/tutrocket2","","1","practice","null","1","","",""
"d3-animate-choice","62","385438","0.0-61.0-1.0","661","736","11","Female","false","false","false","true","""event"",""trial"",""time""
""fullscreenenter"",""5"",""22642""
","
","
","""event"",""trial"",""time""
""fullscreenenter"",""5"",""22642""
","
","1019.0999999998603","","49","","","3000","1","3006.899999999907","48","images/tutgreenplanet.jpg","images/tutalien2","images/tutalien1","images/tutrocket2","images/tutalien1","images/nothing.png","2","practice","true","1","common","0","2022-02-13 23:44:46.788"
"two-step-fixation","63","386447","0.0-61.0-2.0","661","736","11","Female","false","false","false","true","""event"",""trial"",""time""
""fullscreenenter"",""5"",""22642""
","
","
","""event"",""trial"",""time""
""fullscreenenter"",""5"",""22642""
","
","","images/earth.jpg","","","","","","","","","","","","","","fixation","","","","","",""
"d3-animate-choice","64","388707","0.0-61.0-0.1","661","736","11","Female","false","false","false","true","""event"",""trial"",""time""
""fullscreenenter"",""5"",""22642""
","
","
","""event"",""trial"",""time""
""fullscreenenter"",""5"",""22642""
","
","255","","49","","","3000","1","1822.3000000000466,2097.9000000001397","48,48","images/earth.jpg","images/tutrocket1","images/tutrocket2","null","images/tutrocket2","","1","practice","null","1","","",""
"d3-animate-choice","65","390799","0.0-61.0-1.1","661","736","11","Female","false","false","false","true","""event"",""trial"",""time""
""fullscreenenter"",""5"",""22642""
","
","
","""event"",""trial"",""time""
""fullscreenenter"",""5"",""22642""
","
","87.80000000004657","","48","","","3000","1","","","images/tutyellowplanet.jpg","images/tutalien4","images/tutalien3","images/tutrocket2","images/tutalien4","images/t.png","2","practice","false","2","rare","1","2022-02-13 23:44:52.148"
"two-step-fixation","66","391804","0.0-61.0-2.1","661","736","11","Female","false","false","false","true","""event"",""trial"",""time""
""fullscreenenter"",""5"",""22642""
","
","
","""event"",""trial"",""time""
""fullscreenenter"",""5"",""22642""
","
","","images/earth.jpg","","","","","","","","","","","","","","fixation","","","","","",""
"d3-animate-choice","67","394122","0.0-61.0-0.2","661","736","11","Female","false","false","false","true","""event"",""trial"",""time""
""fullscreenenter"",""5"",""22642""
","
","
","""event"",""trial"",""time""
""fullscreenenter"",""5"",""22642""
","
","313.5","","49","","","3000","1","","","images/earth.jpg","images/tutrocket1","images/tutrocket2","null","images/tutrocket2","","1","practice","null","1","","",""
"d3-animate-choice","68","396454","0.0-61.0-1.2","661","736","11","Female","false","false","false","true","""event"",""trial"",""time""
""fullscreenenter"",""5"",""22642""
","
","
","""event"",""trial"",""time""
""fullscreenenter"",""5"",""22642""
","
","328","","49","","","3000","1","","","images/tutgreenplanet.jpg","images/tutalien2","images/tutalien1","images/tutrocket2","images/tutalien1","images/nothing.png","2","practice","true","1","common","0","2022-02-13 23:44:57.803"
"two-step-fixation","69","397459","0.0-61.0-2.2","661","736","11","Female","false","false","false","true","""event"",""trial"",""time""
""fullscreenenter"",""5"",""22642""
","
","
","""event"",""trial"",""time""
""fullscreenenter"",""5"",""22642""
","
","","images/earth.jpg","","","","","","","","","","","","","","fixation","","","","","",""
"d3-animate-choice","70","399752","0.0-61.0-0.3","661","736","11","Female","false","false","false","true","""event"",""trial"",""time""
""fullscreenenter"",""5"",""22642""
","
","
","""event"",""trial"",""time""
""fullscreenenter"",""5"",""22642""
","
","286.60000000009313","","48","","","3000","1","","","images/earth.jpg","images/tutrocket1","images/tutrocket2","null","images/tutrocket1","","1","practice","null","2","","",""
"d3-animate-choice","71","402261","0.0-61.0-1.3","661","736","11","Female","false","false","false","true","""event"",""trial"",""time""
""fullscreenenter"",""5"",""22642""
","
","
","""event"",""trial"",""time""
""fullscreenenter"",""5"",""22642""
","
","504.60000000009313","","48","","","3000","1","2355.100000000093","48","images/tutgreenplanet.jpg","images/tutalien2","images/tutalien1","images/tutrocket1","images/tutalien2","images/t.png","2","practice","false","2","rare","1","2022-02-13 23:45:03.610"
"two-step-fixation","72","403266","0.0-61.0-2.3","661","736","11","Female","false","false","false","true","""event"",""trial"",""time""
""fullscreenenter"",""5"",""22642""
","
","
","""event"",""trial"",""time""
""fullscreenenter"",""5"",""22642""
","
","","images/earth.jpg","","","","","","","","","","","","","","fixation","","","","","",""
"d3-animate-choice","73","405594","0.0-61.0-0.4","661","736","11","Female","false","false","false","true","""event"",""trial"",""time""
""fullscreenenter"",""5"",""22642""
","
","
","""event"",""trial"",""time""
""fullscreenenter"",""5"",""22642""
","
","320.69999999995343","","48","","","3000","1","","","images/earth.jpg","images/tutrocket1","images/tutrocket2","null","images/tutrocket1","","1","practice","null","2","","",""
"d3-animate-choice","74","408127","0.0-61.0-1.4","661","736","11","Female","false","false","false","true","""event"",""trial"",""time""
""fullscreenenter"",""5"",""22642""
","
","
","""event"",""trial"",""time""
""fullscreenenter"",""5"",""22642""
","
","528.6999999999534","","48","","","3000","1","","","images/tutgreenplanet.jpg","images/tutalien2","images/tutalien1","images/tutrocket1","images/tutalien2","images/nothing.png","2","practice","false","2","rare","0","2022-02-13 23:45:09.476"
"two-step-fixation","75","409132","0.0-61.0-2.4","661","736","11","Female","false","false","false","true","""event"",""trial"",""time""
""fullscreenenter"",""5"",""22642""
","
","
","""event"",""trial"",""time""
""fullscreenenter"",""5"",""22642""
","
","","images/earth.jpg","","","","","","","","","","","","","","fixation","","","","","",""
"d3-animate-choice","76","411208","0.0-61.0-0.5","661","736","11","Female","false","false","false","true","""event"",""trial"",""time""
""fullscreenenter"",""5"",""22642""
","
","
","""event"",""trial"",""time""
""fullscreenenter"",""5"",""22642""
","
","71.5","","49","","","3000","1","1512.8999999999069,1845.5999999998603","48,48","images/earth.jpg","images/tutrocket1","images/tutrocket2","null","images/tutrocket2","","1","practice","null","1","","",""
"d3-animate-choice","77","413264","0.0-61.0-1.5","661","736","11","Female","false","false","false","true","""event"",""trial"",""time""
""fullscreenenter"",""5"",""22642""
","
","
","""event"",""trial"",""time""
""fullscreenenter"",""5"",""22642""
","
","51.699999999953434","","48","","","3000","1","326.5999999998603","48","images/tutgreenplanet.jpg","images/tutalien2","images/tutalien1","images/tutrocket2","images/tutalien2","images/nothing.png","2","practice","true","2","common","0","2022-02-13 23:45:14.613"
"two-step-fixation","78","414269","0.0-61.0-2.5","661","736","11","Female","false","false","false","true","""event"",""trial"",""time""
""fullscreenenter"",""5"",""22642""
","
","
","""event"",""trial"",""time""
""fullscreenenter"",""5"",""22642""
","
","","images/earth.jpg","","","","","","","","","","","","","","fixation","","","","","",""
"d3-animate-choice","79","416564","0.0-61.0-0.6","661","736","11","Female","false","false","false","true","""event"",""trial"",""time""
""fullscreenenter"",""5"",""22642""
","
","
","""event"",""trial"",""time""
""fullscreenenter"",""5"",""22642""
","
","290.69999999995343","","48","","","3000","1","2054.899999999907","48","images/earth.jpg","images/tutrocket1","images/tutrocket2","null","images/tutrocket1","","1","practice","null","2","","",""
"d3-animate-choice","80","419197","0.0-61.0-1.6","661","736","11","Female","false","false","false","true","""event"",""trial"",""time""
""fullscreenenter"",""5"",""22642""
","
","
","""event"",""trial"",""time""
""fullscreenenter"",""5"",""22642""
","
","627.8999999999069","","49","","","3000","1","","","images/tutyellowplanet.jpg","images/tutalien4","images/tutalien3","images/tutrocket1","images/tutalien3","images/t.png","2","practice","true","1","common","1","2022-02-13 23:45:20.547"
"two-step-fixation","81","420202","0.0-61.0-2.6","661","736","11","Female","false","false","false","true","""event"",""trial"",""time""
""fullscreenenter"",""5"",""22642""
","
","
","""event"",""trial"",""time""
""fullscreenenter"",""5"",""22642""
","
","","images/earth.jpg","","","","","","","","","","","","","","fixation","","","","","",""
"d3-animate-choice","82","422467","0.0-61.0-0.7","661","736","11","Female","false","false","false","true","""event"",""trial"",""time""
""fullscreenenter"",""5"",""22642""
","
","
","""event"",""trial"",""time""
""fullscreenenter"",""5"",""22642""
","
","260.0999999998603","","48","","","3000","1","","","images/earth.jpg","images/tutrocket1","images/tutrocket2","null","images/tutrocket1","","1","practice","null","2","","",""
"d3-animate-choice","83","425523","0.0-61.0-1.7","661","736","11","Female","false","false","false","true","""event"",""trial"",""time""
""fullscreenenter"",""5"",""22642""
","
","
","""event"",""trial"",""time""
""fullscreenenter"",""5"",""22642""
","
","1050","","49","","","3000","1","","","images/tutgreenplanet.jpg","images/tutalien2","images/tutalien1","images/tutrocket1","images/tutalien1","images/t.png","2","practice","false","1","rare","1","2022-02-13 23:45:26.872"
"two-step-fixation","84","426528","0.0-61.0-2.7","661","736","11","Female","false","false","false","true","""event"",""trial"",""time""
""fullscreenenter"",""5"",""22642""
","
","
","""event"",""trial"",""time""
""fullscreenenter"",""5"",""22642""
","
","","images/earth.jpg","","","","","","","","","","","","","","fixation","","","","","",""
"d3-animate-choice","85","429168","0.0-61.0-0.8","661","736","11","Female","false","false","false","true","""event"",""trial"",""time""
""fullscreenenter"",""5"",""22642""
","
","
","""event"",""trial"",""time""
""fullscreenenter"",""5"",""22642""
","
","635.4000000001397","","48","","","3000","1","","","images/earth.jpg","images/tutrocket1","images/tutrocket2","null","images/tutrocket1","","1","practice","null","2","","",""
"d3-animate-choice","86","431807","0.0-61.0-1.8","661","736","11","Female","false","false","false","true","""event"",""trial"",""time""
""fullscreenenter"",""5"",""22642""
","
","
","""event"",""trial"",""time""
""fullscreenenter"",""5"",""22642""
","
","634.6000000000931","","49","","","3000","1","2635.3000000000466","48","images/tutyellowplanet.jpg","images/tutalien4","images/tutalien3","images/tutrocket1","images/tutalien3","images/t.png","2","practice","true","1","common","1","2022-02-13 23:45:33.156"
"two-step-fixation","87","432812","0.0-61.0-2.8","661","736","11","Female","false","false","false","true","""event"",""trial"",""time""
""fullscreenenter"",""5"",""22642""
","
","
","""event"",""trial"",""time""
""fullscreenenter"",""5"",""22642""
","
","","images/earth.jpg","","","","","","","","","","","","","","fixation","","","","","",""
"d3-animate-choice","88","435244","0.0-61.0-0.9","661","736","11","Female","false","false","false","true","""event"",""trial"",""time""
""fullscreenenter"",""5"",""22642""
","
","
","""event"",""trial"",""time""
""fullscreenenter"",""5"",""22642""
","
","427.10000000009313","","48","","","3000","1","2064","48","images/earth.jpg","images/tutrocket1","images/tutrocket2","null","images/tutrocket1","","1","practice","null","2","","",""
"d3-animate-choice","89","437621","0.0-61.0-1.9","661","736","11","Female","false","false","false","true","""event"",""trial"",""time""
""fullscreenenter"",""5"",""22642""
","
","
","""event"",""trial"",""time""
""fullscreenenter"",""5"",""22642""
","
","372","","48","","","3000","1","","","images/tutyellowplanet.jpg","images/tutalien4","images/tutalien3","images/tutrocket1","images/tutalien4","images/t.png","2","practice","true","2","common","1","2022-02-13 23:45:38.970"
"two-step-fixation","90","438625","0.0-61.0-2.9","661","736","11","Female","false","false","false","true","""event"",""trial"",""time""
""fullscreenenter"",""5"",""22642""
","
","
","""event"",""trial"",""time""
""fullscreenenter"",""5"",""22642""
","
","","images/earth.jpg","","","","","","","","","","","","","","fixation","","","","","",""
"d3-animate-choice","91","440727","0.0-61.0-0.10","661","736","11","Female","false","false","false","true","""event"",""trial"",""time""
""fullscreenenter"",""5"",""22642""
","
","
","""event"",""trial"",""time""
""fullscreenenter"",""5"",""22642""
","
","96.19999999995343","","48","","","3000","1","","","images/earth.jpg","images/tutrocket1","images/tutrocket2","null","images/tutrocket1","","1","practice","null","2","","",""
"d3-animate-choice","92","443525","0.0-61.0-1.10","661","736","11","Female","false","false","false","true","""event"",""trial"",""time""
""fullscreenenter"",""5"",""22642""
","
","
","""event"",""trial"",""time""
""fullscreenenter"",""5"",""22642""
","
","791.8999999999069","","48","","","3000","1","","","images/tutyellowplanet.jpg","images/tutalien4","images/tutalien3","images/tutrocket1","images/tutalien4","images/nothing.png","2","practice","true","2","common","0","2022-02-13 23:45:44.874"
"two-step-fixation","93","444530","0.0-61.0-2.10","661","736","11","Female","false","false","false","true","""event"",""trial"",""time""
""fullscreenenter"",""5"",""22642""
","
","
","""event"",""trial"",""time""
""fullscreenenter"",""5"",""22642""
","
","","images/earth.jpg","","","","","","","","","","","","","","fixation","","","","","",""
"d3-animate-choice","94","446555","0.0-61.0-0.11","661","736","11","Female","false","false","false","true","""event"",""trial"",""time""
""fullscreenenter"",""5"",""22642""
","
","
","""event"",""trial"",""time""
""fullscreenenter"",""5"",""22642""
","
","19","","48","","","3000","1","154.80000000004657","49","images/earth.jpg","images/tutrocket1","images/tutrocket2","null","images/tutrocket1","","1","practice","null","2","","",""
"d3-animate-choice","95","449092","0.0-61.0-1.11","661","736","11","Female","false","false","false","true","""event"",""trial"",""time""
""fullscreenenter"",""5"",""22642""
","
","
","""event"",""trial"",""time""
""fullscreenenter"",""5"",""22642""
","
","532.8000000000466","","49","","","3000","1","","","images/tutgreenplanet.jpg","images/tutalien2","images/tutalien1","images/tutrocket1","images/tutalien1","images/nothing.png","2","practice","false","1","rare","0","2022-02-13 23:45:50.441"
"two-step-fixation","96","450097","0.0-61.0-2.11","661","736","11","Female","false","false","false","true","""event"",""trial"",""time""
""fullscreenenter"",""5"",""22642""
","
","
","""event"",""trial"",""time""
""fullscreenenter"",""5"",""22642""
","
","","images/earth.jpg","","","","","","","","","","","","","","fixation","","","","","",""
"d3-animate-choice","97","452705","0.0-61.0-0.12","661","736","11","Female","false","false","false","true","""event"",""trial"",""time""
""fullscreenenter"",""5"",""22642""
","
","
","""event"",""trial"",""time""
""fullscreenenter"",""5"",""22642""
","
","602.3000000000466","","48","","","3000","1","2414.1999999999534","48","images/earth.jpg","images/tutrocket1","images/tutrocket2","null","images/tutrocket1","","1","practice","null","2","","",""
"d3-animate-choice","98","454891","0.0-61.0-1.12","661","736","11","Female","false","false","false","true","""event"",""trial"",""time""
""fullscreenenter"",""5"",""22642""
","
","
","""event"",""trial"",""time""
""fullscreenenter"",""5"",""22642""
","
","181.4000000001397","","48","","","3000","1","","","images/tutgreenplanet.jpg","images/tutalien2","images/tutalien1","images/tutrocket1","images/tutalien2","images/nothing.png","2","practice","false","2","rare","0","2022-02-13 23:45:56.240"
"two-step-fixation","99","455896","0.0-61.0-2.12","661","736","11","Female","false","false","false","true","""event"",""trial"",""time""
""fullscreenenter"",""5"",""22642""
","
","
","""event"",""trial"",""time""
""fullscreenenter"",""5"",""22642""
","
","","images/earth.jpg","","","","","","","","","","","","","","fixation","","","","","",""
"d3-animate-choice","100","458124","0.0-61.0-0.13","661","736","11","Female","false","false","false","true","""event"",""trial"",""time""
""fullscreenenter"",""5"",""22642""
","
","
","""event"",""trial"",""time""
""fullscreenenter"",""5"",""22642""
","
","222.5999999998603","","49","","","3000","1","","","images/earth.jpg","images/tutrocket1","images/tutrocket2","null","images/tutrocket2","","1","practice","null","1","","",""
"d3-animate-choice","101","460717","0.0-61.0-1.13","661","736","11","Female","false","false","false","true","""event"",""trial"",""time""
""fullscreenenter"",""5"",""22642""
","
","
","""event"",""trial"",""time""
""fullscreenenter"",""5"",""22642""
","
","586","","49","","","3000","1","","","images/tutgreenplanet.jpg","images/tutalien2","images/tutalien1","images/tutrocket2","images/tutalien1","images/t.png","2","practice","true","1","common","1","2022-02-13 23:46:02.066"
"two-step-fixation","102","461724","0.0-61.0-2.13","661","736","11","Female","false","false","false","true","""event"",""trial"",""time""
""fullscreenenter"",""5"",""22642""
","
","
","""event"",""trial"",""time""
""fullscreenenter"",""5"",""22642""
","
","","images/earth.jpg","","","","","","","","","","","","","","fixation","","","","","",""
"d3-animate-choice","103","463800","0.0-61.0-0.14","661","736","11","Female","false","false","false","true","""event"",""trial"",""time""
""fullscreenenter"",""5"",""22642""
","
","
","""event"",""trial"",""time""
""fullscreenenter"",""5"",""22642""
","
","71","","49","","","3000","1","","","images/earth.jpg","images/tutrocket1","images/tutrocket2","null","images/tutrocket2","","1","practice","null","1","","",""
"d3-animate-choice","104","466751","0.0-61.0-1.14","661","736","11","Female","false","false","false","true","""event"",""trial"",""time""
""fullscreenenter"",""5"",""22642""
","
","
","""event"",""trial"",""time""
""fullscreenenter"",""5"",""22642""
","
","946.7000000001863","","49","","","3000","1","","","images/tutgreenplanet.jpg","images/tutalien2","images/tutalien1","images/tutrocket2","images/tutalien1","images/nothing.png","2","practice","true","1","common","0","2022-02-13 23:46:08.100"
"two-step-fixation","105","467756","0.0-61.0-2.14","661","736","11","Female","false","false","false","true","""event"",""trial"",""time""
""fullscreenenter"",""5"",""22642""
","
","
","""event"",""trial"",""time""
""fullscreenenter"",""5"",""22642""
","
","","images/earth.jpg","","","","","","","","","","","","","","fixation","","","","","",""
"d3-animate-choice","106","470230","0.0-61.0-0.15","661","736","11","Female","false","false","false","true","""event"",""trial"",""time""
""fullscreenenter"",""5"",""22642""
","
","
","""event"",""trial"",""time""
""fullscreenenter"",""5"",""22642""
","
","469.30000000004657","","48","","","3000","1","","","images/earth.jpg","images/tutrocket1","images/tutrocket2","null","images/tutrocket1","","1","practice","null","2","","",""
"d3-animate-choice","107","472818","0.0-61.0-1.15","661","736","11","Female","false","false","false","true","""event"",""trial"",""time""
""fullscreenenter"",""5"",""22642""
","
","
","""event"",""trial"",""time""
""fullscreenenter"",""5"",""22642""
","
","584.1999999999534","","48","","","3000","1","2418.0999999998603","48","images/tutgreenplanet.jpg","images/tutalien2","images/tutalien1","images/tutrocket1","images/tutalien2","images/nothing.png","2","practice","false","2","rare","0","2022-02-13 23:46:14.168"
"two-step-fixation","108","473823","0.0-61.0-2.15","661","736","11","Female","false","false","false","true","""event"",""trial"",""time""
""fullscreenenter"",""5"",""22642""
","
","
","""event"",""trial"",""time""
""fullscreenenter"",""5"",""22642""
","
","","images/earth.jpg","","","","","","","","","","","","","","fixation","","","","","",""
"d3-animate-choice","109","476129","0.0-61.0-0.16","661","736","11","Female","false","false","false","true","""event"",""trial"",""time""
""fullscreenenter"",""5"",""22642""
","
","
","""event"",""trial"",""time""
""fullscreenenter"",""5"",""22642""
","
","300.5","","49","","","3000","1","1247,1638.8999999999069,1973.8000000000466","48,48,48","images/earth.jpg","images/tutrocket1","images/tutrocket2","null","images/tutrocket2","","1","practice","null","1","","",""
"d3-animate-choice","110","478153","0.0-61.0-1.16","661","736","11","Female","false","false","false","true","""event"",""trial"",""time""
""fullscreenenter"",""5"",""22642""
","
","
","""event"",""trial"",""time""
""fullscreenenter"",""5"",""22642""
","
","15.900000000139698","","48","","","3000","1","436.80000000004657","48","images/tutgreenplanet.jpg","images/tutalien2","images/tutalien1","images/tutrocket2","images/tutalien2","images/t.png","2","practice","true","2","common","1","2022-02-13 23:46:19.502"
"two-step-fixation","111","479157","0.0-61.0-2.16","661","736","11","Female","false","false","false","true","""event"",""trial"",""time""
""fullscreenenter"",""5"",""22642""
","
","
","""event"",""trial"",""time""
""fullscreenenter"",""5"",""22642""
","
","","images/earth.jpg","","","","","","","","","","","","","","fixation","","","","","",""
"d3-animate-choice","112","481437","0.0-61.0-0.17","661","736","11","Female","false","false","false","true","""event"",""trial"",""time""
""fullscreenenter"",""5"",""22642""
","
","
","""event"",""trial"",""time""
""fullscreenenter"",""5"",""22642""
","
","274.5","","48","","","3000","1","","","images/earth.jpg","images/tutrocket1","images/tutrocket2","null","images/tutrocket1","","1","practice","null","2","","",""
"d3-animate-choice","113","483693","0.0-61.0-1.17","661","736","11","Female","false","false","false","true","""event"",""trial"",""time""
""fullscreenenter"",""5"",""22642""
","
","
","""event"",""trial"",""time""
""fullscreenenter"",""5"",""22642""
","
","250.69999999995343","","49","","","3000","1","","","images/tutyellowplanet.jpg","images/tutalien4","images/tutalien3","images/tutrocket1","images/tutalien3","images/t.png","2","practice","true","1","common","1","2022-02-13 23:46:25.042"
"two-step-fixation","114","484697","0.0-61.0-2.17","661","736","11","Female","false","false","false","true","""event"",""trial"",""time""
""fullscreenenter"",""5"",""22642""
","
","
","""event"",""trial"",""time""
""fullscreenenter"",""5"",""22642""
","
","","images/earth.jpg","","","","","","","","","","","","","","fixation","","","","","",""
"d3-animate-choice","115","487087","0.0-61.0-0.18","661","736","11","Female","false","false","false","true","""event"",""trial"",""time""
""fullscreenenter"",""5"",""22642""
","
","
","""event"",""trial"",""time""
""fullscreenenter"",""5"",""22642""
","
","384.89999999990687","","48","","","3000","1","846.8999999999069","48","images/earth.jpg","images/tutrocket1","images/tutrocket2","null","images/tutrocket1","","1","practice","null","2","","",""
"d3-animate-choice","116","489790","0.0-61.0-1.18","661","736","11","Female","false","false","false","true","""event"",""trial"",""time""
""fullscreenenter"",""5"",""22642""
","
","
","""event"",""trial"",""time""
""fullscreenenter"",""5"",""22642""
","
","698.0999999998603","","49","","","3000","1","","","images/tutyellowplanet.jpg","images/tutalien4","images/tutalien3","images/tutrocket1","images/tutalien3","images/nothing.png","2","practice","true","1","common","0","2022-02-13 23:46:31.139"
"two-step-fixation","117","490796","0.0-61.0-2.18","661","736","11","Female","false","false","false","true","""event"",""trial"",""time""
""fullscreenenter"",""5"",""22642""
","
","
","""event"",""trial"",""time""
""fullscreenenter"",""5"",""22642""
","
","","images/earth.jpg","","","","","","","","","","","","","","fixation","","","","","",""
"d3-animate-choice","118","493098","0.0-61.0-0.19","661","736","11","Female","false","false","false","true","""event"",""trial"",""time""
""fullscreenenter"",""5"",""22642""
","
","
","""event"",""trial"",""time""
""fullscreenenter"",""5"",""22642""
","
","296","","48","","","3000","1","2040.0999999998603","48","images/earth.jpg","images/tutrocket1","images/tutrocket2","null","images/tutrocket1","","1","practice","null","2","","",""
"d3-animate-choice","119","495355","0.0-61.0-1.19","661","736","11","Female","false","false","false","true","""event"",""trial"",""time""
""fullscreenenter"",""5"",""22642""
","
","
","""event"",""trial"",""time""
""fullscreenenter"",""5"",""22642""
","
","253.20000000018626","","48","","","3000","1","","","images/tutyellowplanet.jpg","images/tutalien4","images/tutalien3","images/tutrocket1","images/tutalien4","images/nothing.png","2","practice","true","2","common","0","2022-02-13 23:46:36.704"
"two-step-fixation","120","496361","0.0-61.0-2.19","661","736","11","Female","false","false","false","true","""event"",""trial"",""time""
""fullscreenenter"",""5"",""22642""
","
","
","""event"",""trial"",""time""
""fullscreenenter"",""5"",""22642""
","
","","images/earth.jpg","","","","","","","","","","","","","","fixation","","","","","",""
"d3-instructions","121","504583","0.0-62.0","661","736","11","Female","false","false","false","true","""event"",""trial"",""time""
""fullscreenenter"",""5"",""22642""
","
","
","""event"",""trial"",""time""
""fullscreenenter"",""5"",""22642""
","
","","","","","","","","","","","","","","","","","","","","","",""
"audio-keyboard-response","122","509932","0.0-63.0","661","736","11","Female","false","false","false","true","""event"",""trial"",""time""
""fullscreenenter"",""5"",""22642""
","
","
","""event"",""trial"",""time""
""fullscreenenter"",""5"",""22642""
","
","5343","audio/instructions/treasure_feedback.wav","32","","","","","","","","","","","","","","","","","","",""
"d3-instructions","123","529055","0.0-64.0","661","736","11","Female","false","false","false","true","""event"",""trial"",""time""
""fullscreenenter"",""5"",""22642""
","
","
","""event"",""trial"",""time""
""fullscreenenter"",""5"",""22642""
","
","","","","","","","","","","","","","","","","","","","","","",""
"d3-instructions","124","545114","0.0-65.0","661","736","11","Female","false","false","false","true","""event"",""trial"",""time""
""fullscreenenter"",""5"",""22642""
","
","
","""event"",""trial"",""time""
""fullscreenenter"",""5"",""22642""
","
","","","","","","","","","","","","","","","","","","","","","",""
"d3-instructions","125","569559","0.0-66.0","661","736","11","Female","false","false","false","true","""event"",""trial"",""time""
""fullscreenenter"",""5"",""22642""
","
","
","""event"",""trial"",""time""
""fullscreenenter"",""5"",""22642""
","
","","","","","","","","","","","","","","","","","","","","","",""
"d3-instructions","126","585559","0.0-67.0","661","736","11","Female","false","false","false","true","""event"",""trial"",""time""
""fullscreenenter"",""5"",""22642""
","
","
","""event"",""trial"",""time""
""fullscreenenter"",""5"",""22642""
","
","","","","","","","","","","","","","","","","","","","","","",""
"d3-instructions","127","595674","0.0-68.0","661","736","11","Female","false","false","false","true","""event"",""trial"",""time""
""fullscreenenter"",""5"",""22642""
","
","
","""event"",""trial"",""time""
""fullscreenenter"",""5"",""22642""
","
","","","","","","","","","","","","","","","","","","","","","",""
"instructions-quiz","128","600634","0.0-69.0","661","736","11","Female","false","false","false","true","""event"",""trial"",""time""
""fullscreenenter"",""5"",""22642""
","
","
","""event"",""trial"",""time""
""fullscreenenter"",""5"",""22642""
","
","4955.200000000186","audio/quiz/Q1_Prompt.wav","","1","","","","","","","","","","","","","","","","","",""
"audio-keyboard-response","129","609808","0.0-70.0","661","736","11","Female","false","false","false","true","""event"",""trial"",""time""
""fullscreenenter"",""5"",""22642""
","
","
","""event"",""trial"",""time""
""fullscreenenter"",""5"",""22642""
","
","null","audio/quiz/Q1_Correct.wav","null","","","","","","","","","","","","","","","","","","",""
"instructions-quiz","130","620345","0.0-71.0","661","736","11","Female","false","false","false","true","""event"",""trial"",""time""
""fullscreenenter"",""5"",""22642""
","
","
","""event"",""trial"",""time""
""fullscreenenter"",""5"",""22642""
","
","10534.5","audio/quiz/Q2_Prompt.wav","","0","","","","","","","","","","","","","","","","","",""
"audio-keyboard-response","131","633213","0.0-72.0","661","736","11","Female","false","false","false","true","""event"",""trial"",""time""
""fullscreenenter"",""5"",""22642""
","
","
","""event"",""trial"",""time""
""fullscreenenter"",""5"",""22642""
","
","null","audio/quiz/Q2_Correct.wav","null","","","","","","","","","","","","","","","","","","",""
"instructions-quiz","132","637997","0.0-73.0","661","736","11","Female","false","false","false","true","""event"",""trial"",""time""
""fullscreenenter"",""5"",""22642""
","
","
","""event"",""trial"",""time""
""fullscreenenter"",""5"",""22642""
","
","4781.700000000186","audio/quiz/Q3_Prompt.wav","","1","","","","","","","","","","","","","","","","","",""
"audio-keyboard-response","133","643800","0.0-74.0","661","736","11","Female","false","false","false","true","""event"",""trial"",""time""
""fullscreenenter"",""5"",""22642""
","
","
","""event"",""trial"",""time""
""fullscreenenter"",""5"",""22642""
","
","null","audio/quiz/Q3_Correct.wav","null","","","","","","","","","","","","","","","","","","",""
"d3-instructions","134","658505","0.0-75.0","661","736","11","Female","false","false","false","true","""event"",""trial"",""time""
""fullscreenenter"",""5"",""22642""
","
","
","""event"",""trial"",""time""
""fullscreenenter"",""5"",""22642""
","
","","","","","","","","","","","","","","","","","","","","","",""
"d3-animate-choice","135","662512","0.0-76.0-0.0","661","736","11","Female","false","false","false","true","""event"",""trial"",""time""
""fullscreenenter"",""5"",""22642""
","
","
","""event"",""trial"",""time""
""fullscreenenter"",""5"",""22642""
","
","990.3999999999069","","32","","","3000","1","2189.5,2906.6999999999534","32,49","images/earth.jpg","images/rocket1","images/rocket2","null","images/rocket2","","1","real","null","","","",""
"d3-animate-choice","136","665318","0.0-76.0-1.0","661","736","11","Female","false","false","false","true","""event"",""trial"",""time""
""fullscreenenter"",""5"",""22642""
","
","
","""event"",""trial"",""time""
""fullscreenenter"",""5"",""22642""
","
","801","","48","","","3000","1","","","images/purpleplanet.jpg","images/alien4","images/alien3","images/rocket2","images/alien4","images/t.png","2","real","false","2","rare","1","2022-02-13 23:49:26.667"
"two-step-fixation","137","666325","0.0-76.0-2.0","661","736","11","Female","false","false","false","true","""event"",""trial"",""time""
""fullscreenenter"",""5"",""22642""
","
","
","""event"",""trial"",""time""
""fullscreenenter"",""5"",""22642""
","
","","images/earth.jpg","","","","","","","","","","","","","","fixation","","","","","",""
"d3-animate-choice","138","668782","0.0-76.0-0.1","661","736","11","Female","false","false","false","true","""event"",""trial"",""time""
""fullscreenenter"",""5"",""22642""
","
","
","""event"",""trial"",""time""
""fullscreenenter"",""5"",""22642""
","
","451.30000000004657","","48","","","3000","1","","","images/earth.jpg","images/rocket1","images/rocket2","null","images/rocket1","","1","real","null","2","","",""
"d3-animate-choice","139","671306","0.0-76.0-1.1","661","736","11","Female","false","false","false","true","""event"",""trial"",""time""
""fullscreenenter"",""5"",""22642""
","
","
","""event"",""trial"",""time""
""fullscreenenter"",""5"",""22642""
","
","519.8000000000466","","48","","","3000","1","","","images/purpleplanet.jpg","images/alien4","images/alien3","images/rocket1","images/alien4","images/t.png","2","real","true","2","common","1","2022-02-13 23:49:32.655"
"two-step-fixation","140","672310","0.0-76.0-2.1","661","736","11","Female","false","false","false","true","""event"",""trial"",""time""
""fullscreenenter"",""5"",""22642""
","
","
","""event"",""trial"",""time""
""fullscreenenter"",""5"",""22642""
","
","","images/earth.jpg","","","","","","","","","","","","","","fixation","","","","","",""
"d3-animate-choice","141","674787","0.0-76.0-0.2","661","736","11","Female","false","false","false","true","""event"",""trial"",""time""
""fullscreenenter"",""5"",""22642""
","
","
","""event"",""trial"",""time""
""fullscreenenter"",""5"",""22642""
","
","472.39999999990687","","48","","","3000","1","","","images/earth.jpg","images/rocket1","images/rocket2","null","images/rocket1","","1","real","null","2","","",""
"d3-animate-choice","142","677492","0.0-76.0-1.2","661","736","11","Female","false","false","false","true","""event"",""trial"",""time""
""fullscreenenter"",""5"",""22642""
","
","
","""event"",""trial"",""time""
""fullscreenenter"",""5"",""22642""
","
","701","","48","","","3000","1","","","images/purpleplanet.jpg","images/alien4","images/alien3","images/rocket1","images/alien4","images/nothing.png","2","real","true","2","common","0","2022-02-13 23:49:38.842"
"two-step-fixation","143","678498","0.0-76.0-2.2","661","736","11","Female","false","false","false","true","""event"",""trial"",""time""
""fullscreenenter"",""5"",""22642""
","
","
","""event"",""trial"",""time""
""fullscreenenter"",""5"",""22642""
","
","","images/earth.jpg","","","","","","","","","","","","","","fixation","","","","","",""
"d3-animate-choice","144","681461","0.0-76.0-0.3","661","736","11","Female","false","false","false","true","""event"",""trial"",""time""
""fullscreenenter"",""5"",""22642""
","
","
","""event"",""trial"",""time""
""fullscreenenter"",""5"",""22642""
","
","957.5","","49","","","3000","1","","","images/earth.jpg","images/rocket1","images/rocket2","null","images/rocket2","","1","real","null","1","","",""
"d3-animate-choice","145","684239","0.0-76.0-1.3","661","736","11","Female","false","false","false","true","""event"",""trial"",""time""
""fullscreenenter"",""5"",""22642""
","
","
","""event"",""trial"",""time""
""fullscreenenter"",""5"",""22642""
","
","773.7000000001863","","48","","","3000","1","","","images/redplanet1.jpg","images/alien2","images/alien1","images/rocket2","images/alien2","images/t.png","2","real","true","2","common","1","2022-02-13 23:49:45.588"
"two-step-fixation","146","685245","0.0-76.0-2.3","661","736","11","Female","false","false","false","true","""event"",""trial"",""time""
""fullscreenenter"",""5"",""22642""
","
","
","""event"",""trial"",""time""
""fullscreenenter"",""5"",""22642""
","
","","images/earth.jpg","","","","","","","","","","","","","","fixation","","","","","",""
"d3-animate-choice","147","687933","0.0-76.0-0.4","661","736","11","Female","false","false","false","true","""event"",""trial"",""time""
""fullscreenenter"",""5"",""22642""
","
","
","""event"",""trial"",""time""
""fullscreenenter"",""5"",""22642""
","
","683.5999999998603","","48","","","3000","1","","","images/earth.jpg","images/rocket1","images/rocket2","null","images/rocket1","","1","real","null","2","","",""
"d3-animate-choice","148","690333","0.0-76.0-1.4","661","736","11","Female","false","false","false","true","""event"",""trial"",""time""
""fullscreenenter"",""5"",""22642""
","
","
","""event"",""trial"",""time""
""fullscreenenter"",""5"",""22642""
","
","393.80000000004657","","49","","","3000","1","","","images/purpleplanet.jpg","images/alien4","images/alien3","images/rocket1","images/alien3","images/t.png","2","real","true","1","common","1","2022-02-13 23:49:51.682"
"two-step-fixation","149","691338","0.0-76.0-2.4","661","736","11","Female","false","false","false","true","""event"",""trial"",""time""
""fullscreenenter"",""5"",""22642""
","
","
","""event"",""trial"",""time""
""fullscreenenter"",""5"",""22642""
","
","","images/earth.jpg","","","","","","","","","","","","","","fixation","","","","","",""
"d3-animate-choice","150","693957","0.0-76.0-0.5","661","736","11","Female","false","false","false","true","""event"",""trial"",""time""
""fullscreenenter"",""5"",""22642""
","
","
","""event"",""trial"",""time""
""fullscreenenter"",""5"",""22642""
","
","613.8000000000466","","48","","","3000","1","","","images/earth.jpg","images/rocket1","images/rocket2","null","images/rocket1","","1","real","null","2","","",""
"d3-animate-choice","151","696998","0.0-76.0-1.5","661","736","11","Female","false","false","false","true","""event"",""trial"",""time""
""fullscreenenter"",""5"",""22642""
","
","
","""event"",""trial"",""time""
""fullscreenenter"",""5"",""22642""
","
","1035.3999999999069","","49","","","3000","1","","","images/purpleplanet.jpg","images/alien4","images/alien3","images/rocket1","images/alien3","images/nothing.png","2","real","true","1","common","0","2022-02-13 23:49:58.347"
"two-step-fixation","152","698003","0.0-76.0-2.5","661","736","11","Female","false","false","false","true","""event"",""trial"",""time""
""fullscreenenter"",""5"",""22642""
","
","
","""event"",""trial"",""time""
""fullscreenenter"",""5"",""22642""
","
","","images/earth.jpg","","","","","","","","","","","","","","fixation","","","","","",""
"d3-animate-choice","153","700487","0.0-76.0-0.6","661","736","11","Female","false","false","false","true","""event"",""trial"",""time""
""fullscreenenter"",""5"",""22642""
","
","
","""event"",""trial"",""time""
""fullscreenenter"",""5"",""22642""
","
","476.80000000004657","","48","","","3000","1","","","images/earth.jpg","images/rocket1","images/rocket2","null","images/rocket1","","1","real","null","2","","",""
"d3-animate-choice","154","703466","0.0-76.0-1.6","661","736","11","Female","false","false","false","true","""event"",""trial"",""time""
""fullscreenenter"",""5"",""22642""
","
","
","""event"",""trial"",""time""
""fullscreenenter"",""5"",""22642""
","
","973.1999999999534","","48","","","3000","1","","","images/purpleplanet.jpg","images/alien4","images/alien3","images/rocket1","images/alien4","images/t.png","2","real","true","2","common","1","2022-02-13 23:50:04.816"
"two-step-fixation","155","704470","0.0-76.0-2.6","661","736","11","Female","false","false","false","true","""event"",""trial"",""time""
""fullscreenenter"",""5"",""22642""
","
","
","""event"",""trial"",""time""
""fullscreenenter"",""5"",""22642""
","
","","images/earth.jpg","","","","","","","","","","","","","","fixation","","","","","",""
"d3-animate-choice","156","707260","0.0-76.0-0.7","661","736","11","Female","false","false","false","true","""event"",""trial"",""time""
""fullscreenenter"",""5"",""22642""
","
","
","""event"",""trial"",""time""
""fullscreenenter"",""5"",""22642""
","
","783.7999999998137","","48","","","3000","1","","","images/earth.jpg","images/rocket1","images/rocket2","null","images/rocket1","","1","real","null","2","","",""
"d3-animate-choice","157","710000","0.0-76.0-1.7","661","736","11","Female","false","false","false","true","""event"",""trial"",""time""
""fullscreenenter"",""5"",""22642""
","
","
","""event"",""trial"",""time""
""fullscreenenter"",""5"",""22642""
","
","734.2000000001863","","49","","","3000","1","","","images/purpleplanet.jpg","images/alien4","images/alien3","images/rocket1","images/alien3","images/t.png","2","real","true","1","common","1","2022-02-13 23:50:11.349"
"two-step-fixation","158","711007","0.0-76.0-2.7","661","736","11","Female","false","false","false","true","""event"",""trial"",""time""
""fullscreenenter"",""5"",""22642""
","
","
","""event"",""trial"",""time""
""fullscreenenter"",""5"",""22642""
","
","","images/earth.jpg","","","","","","","","","","","","","","fixation","","","","","",""
"d3-animate-choice","159","713265","0.0-76.0-0.8","661","736","11","Female","false","false","false","true","""event"",""trial"",""time""
""fullscreenenter"",""5"",""22642""
","
","
","""event"",""trial"",""time""
""fullscreenenter"",""5"",""22642""
","
","253.19999999995343","","48","","","3000","1","","","images/earth.jpg","images/rocket1","images/rocket2","null","images/rocket1","","1","real","null","2","","",""
"d3-animate-choice","160","715725","0.0-76.0-1.8","661","736","11","Female","false","false","false","true","""event"",""trial"",""time""
""fullscreenenter"",""5"",""22642""
","
","
","""event"",""trial"",""time""
""fullscreenenter"",""5"",""22642""
","
","456.30000000004657","","48","","","3000","1","","","images/purpleplanet.jpg","images/alien4","images/alien3","images/rocket1","images/alien4","images/t.png","2","real","true","2","common","1","2022-02-13 23:50:17.074"
"two-step-fixation","161","716728","0.0-76.0-2.8","661","736","11","Female","false","false","false","true","""event"",""trial"",""time""
""fullscreenenter"",""5"",""22642""
","
","
","""event"",""trial"",""time""
""fullscreenenter"",""5"",""22642""
","
","","images/earth.jpg","","","","","","","","","","","","","","fixation","","","","","",""
"d3-animate-choice","162","718774","0.0-76.0-0.9","661","736","11","Female","false","false","false","true","""event"",""trial"",""time""
""fullscreenenter"",""5"",""22642""
","
","
","""event"",""trial"",""time""
""fullscreenenter"",""5"",""22642""
","
","39.10000000009313","","48","","","3000","1","","","images/earth.jpg","images/rocket1","images/rocket2","null","images/rocket1","","1","real","null","2","","",""
"d3-animate-choice","163","721135","0.0-76.0-1.9","661","736","11","Female","false","false","false","true","""event"",""trial"",""time""
""fullscreenenter"",""5"",""22642""
","
","
","""event"",""trial"",""time""
""fullscreenenter"",""5"",""22642""
","
","356.5999999998603","","48","","","3000","1","","","images/redplanet1.jpg","images/alien2","images/alien1","images/rocket1","images/alien2","images/nothing.png","2","real","false","2","rare","0","2022-02-13 23:50:22.484"
"two-step-fixation","164","722141","0.0-76.0-2.9","661","736","11","Female","false","false","false","true","""event"",""trial"",""time""
""fullscreenenter"",""5"",""22642""
","
","
","""event"",""trial"",""time""
""fullscreenenter"",""5"",""22642""
","
","","images/earth.jpg","","","","","","","","","","","","","","fixation","","","","","",""
"d3-animate-choice","165","724552","0.0-76.0-0.10","661","736","11","Female","false","false","false","true","""event"",""trial"",""time""
""fullscreenenter"",""5"",""22642""
","
","
","""event"",""trial"",""time""
""fullscreenenter"",""5"",""22642""
","
","406.5","","49","","","3000","1","","","images/earth.jpg","images/rocket1","images/rocket2","null","images/rocket2","","1","real","null","1","","",""
"d3-animate-choice","166","727361","0.0-76.0-1.10","661","736","11","Female","false","false","false","true","""event"",""trial"",""time""
""fullscreenenter"",""5"",""22642""
","
","
","""event"",""trial"",""time""
""fullscreenenter"",""5"",""22642""
","
","802.8999999999069","","48","","","3000","1","","","images/purpleplanet.jpg","images/alien4","images/alien3","images/rocket2","images/alien4","images/nothing.png","2","real","false","2","rare","0","2022-02-13 23:50:28.710"
"two-step-fixation","167","728367","0.0-76.0-2.10","661","736","11","Female","false","false","false","true","""event"",""trial"",""time""
""fullscreenenter"",""5"",""22642""
","
","
","""event"",""trial"",""time""
""fullscreenenter"",""5"",""22642""
","
","","images/earth.jpg","","","","","","","","","","","","","","fixation","","","","","",""
"d3-animate-choice","168","730860","0.0-76.0-0.11","661","736","11","Female","false","false","false","true","""event"",""trial"",""time""
""fullscreenenter"",""5"",""22642""
","
","
","""event"",""trial"",""time""
""fullscreenenter"",""5"",""22642""
","
","488.5999999998603","","49","","","3000","1","","","images/earth.jpg","images/rocket1","images/rocket2","null","images/rocket2","","1","real","null","1","","",""
"d3-animate-choice","169","733827","0.0-76.0-1.11","661","736","11","Female","false","false","false","true","""event"",""trial"",""time""
""fullscreenenter"",""5"",""22642""
","
","
","""event"",""trial"",""time""
""fullscreenenter"",""5"",""22642""
","
","962.1000000000931","","48","","","3000","1","","","images/redplanet1.jpg","images/alien2","images/alien1","images/rocket2","images/alien2","images/nothing.png","2","real","true","2","common","0","2022-02-13 23:50:35.176"
"two-step-fixation","170","734832","0.0-76.0-2.11","661","736","11","Female","false","false","false","true","""event"",""trial"",""time""
""fullscreenenter"",""5"",""22642""
","
","
","""event"",""trial"",""time""
""fullscreenenter"",""5"",""22642""
","
","","images/earth.jpg","","","","","","","","","","","","","","fixation","","","","","",""
"d3-animate-choice","171","737654","0.0-76.0-0.12","661","736","11","Female","false","false","false","true","""event"",""trial"",""time""
""fullscreenenter"",""5"",""22642""
","
","
","""event"",""trial"",""time""
""fullscreenenter"",""5"",""22642""
","
","816.8999999999069","","49","","","3000","1","","","images/earth.jpg","images/rocket1","images/rocket2","null","images/rocket2","","1","real","null","1","","",""
"d3-animate-choice","172","740421","0.0-76.0-1.12","661","736","11","Female","false","false","false","true","""event"",""trial"",""time""
""fullscreenenter"",""5"",""22642""
","
","
","""event"",""trial"",""time""
""fullscreenenter"",""5"",""22642""
","
","762","","49","","","3000","1","","","images/redplanet1.jpg","images/alien2","images/alien1","images/rocket2","images/alien1","images/nothing.png","2","real","true","1","common","0","2022-02-13 23:50:41.770"
"two-step-fixation","173","741425","0.0-76.0-2.12","661","736","11","Female","false","false","false","true","""event"",""trial"",""time""
""fullscreenenter"",""5"",""22642""
","
","
","""event"",""trial"",""time""
""fullscreenenter"",""5"",""22642""
","
","","images/earth.jpg","","","","","","","","","","","","","","fixation","","","","","",""
"d3-animate-choice","174","743720","0.0-76.0-0.13","661","736","11","Female","false","false","false","true","""event"",""trial"",""time""
""fullscreenenter"",""5"",""22642""
","
","
","""event"",""trial"",""time""
""fullscreenenter"",""5"",""22642""
","
","289.5999999998603","","48","","","3000","1","","","images/earth.jpg","images/rocket1","images/rocket2","null","images/rocket1","","1","real","null","2","","",""
"d3-animate-choice","175","746067","0.0-76.0-1.13","661","736","11","Female","false","false","false","true","""event"",""trial"",""time""
""fullscreenenter"",""5"",""22642""
","
","
","""event"",""trial"",""time""
""fullscreenenter"",""5"",""22642""
","
","341.39999999990687","","48","","","3000","1","","","images/purpleplanet.jpg","images/alien4","images/alien3","images/rocket1","images/alien4","images/t.png","2","real","true","2","common","1","2022-02-13 23:50:47.417"
"two-step-fixation","176","747071","0.0-76.0-2.13","661","736","11","Female","false","false","false","true","""event"",""trial"",""time""
""fullscreenenter"",""5"",""22642""
","
","
","""event"",""trial"",""time""
""fullscreenenter"",""5"",""22642""
","
","","images/earth.jpg","","","","","","","","","","","","","","fixation","","","","","",""
"d3-animate-choice","177","749294","0.0-76.0-0.14","661","736","11","Female","false","false","false","true","""event"",""trial"",""time""
""fullscreenenter"",""5"",""22642""
","
","
","""event"",""trial"",""time""
""fullscreenenter"",""5"",""22642""
","
","217.39999999990687","","48","","","3000","1","","","images/earth.jpg","images/rocket1","images/rocket2","null","images/rocket1","","1","real","null","2","","",""
"d3-animate-choice","178","752175","0.0-76.0-1.14","661","736","11","Female","false","false","false","true","""event"",""trial"",""time""
""fullscreenenter"",""5"",""22642""
","
","
","""event"",""trial"",""time""
""fullscreenenter"",""5"",""22642""
","
","875.9000000001397","","48","","","3000","1","","","images/purpleplanet.jpg","images/alien4","images/alien3","images/rocket1","images/alien4","images/nothing.png","2","real","true","2","common","0","2022-02-13 23:50:53.524"
"two-step-fixation","179","753180","0.0-76.0-2.14","661","736","11","Female","false","false","false","true","""event"",""trial"",""time""
""fullscreenenter"",""5"",""22642""
","
","
","""event"",""trial"",""time""
""fullscreenenter"",""5"",""22642""
","
","","images/earth.jpg","","","","","","","","","","","","","","fixation","","","","","",""
"d3-animate-choice","180","755541","0.0-76.0-0.15","661","736","11","Female","false","false","false","true","""event"",""trial"",""time""
""fullscreenenter"",""5"",""22642""
","
","
","""event"",""trial"",""time""
""fullscreenenter"",""5"",""22642""
","
","355.80000000004657","","48","","","3000","1","","","images/earth.jpg","images/rocket1","images/rocket2","null","images/rocket1","","1","real","null","2","","",""
"d3-animate-choice","181","758372","0.0-76.0-1.15","661","736","11","Female","false","false","false","true","""event"",""trial"",""time""
""fullscreenenter"",""5"",""22642""
","
","
","""event"",""trial"",""time""
""fullscreenenter"",""5"",""22642""
","
","826.5999999998603","","49","","","3000","1","","","images/purpleplanet.jpg","images/alien4","images/alien3","images/rocket1","images/alien3","images/nothing.png","2","real","true","1","common","0","2022-02-13 23:50:59.721"
"two-step-fixation","182","759379","0.0-76.0-2.15","661","736","11","Female","false","false","false","true","""event"",""trial"",""time""
""fullscreenenter"",""5"",""22642""
","
","
","""event"",""trial"",""time""
""fullscreenenter"",""5"",""22642""
","
","","images/earth.jpg","","","","","","","","","","","","","","fixation","","","","","",""
"d3-animate-choice","183","761661","0.0-76.0-0.16","661","736","11","Female","false","false","false","true","""event"",""trial"",""time""
""fullscreenenter"",""5"",""22642""
","
","
","""event"",""trial"",""time""
""fullscreenenter"",""5"",""22642""
","
","276.4000000001397","","48","","","3000","1","","","images/earth.jpg","images/rocket1","images/rocket2","null","images/rocket1","","1","real","null","2","","",""
"d3-animate-choice","184","764245","0.0-76.0-1.16","661","736","11","Female","false","false","false","true","""event"",""trial"",""time""
""fullscreenenter"",""5"",""22642""
","
","
","""event"",""trial"",""time""
""fullscreenenter"",""5"",""22642""
","
","579.1999999999534","","48","","","3000","1","","","images/redplanet1.jpg","images/alien2","images/alien1","images/rocket1","images/alien2","images/t.png","2","real","false","2","rare","1","2022-02-13 23:51:05.594"
"two-step-fixation","185","765249","0.0-76.0-2.16","661","736","11","Female","false","false","false","true","""event"",""trial"",""time""
""fullscreenenter"",""5"",""22642""
","
","
","""event"",""trial"",""time""
""fullscreenenter"",""5"",""22642""
","
","","images/earth.jpg","","","","","","","","","","","","","","fixation","","","","","",""
"d3-animate-choice","186","767645","0.0-76.0-0.17","661","736","11","Female","false","false","false","true","""event"",""trial"",""time""
""fullscreenenter"",""5"",""22642""
","
","
","""event"",""trial"",""time""
""fullscreenenter"",""5"",""22642""
","
","389.60000000009313","","48","","","3000","1","","","images/earth.jpg","images/rocket1","images/rocket2","null","images/rocket1","","1","real","null","2","","",""
"d3-animate-choice","187","770683","0.0-76.0-1.17","661","736","11","Female","false","false","false","true","""event"",""trial"",""time""
""fullscreenenter"",""5"",""22642""
","
","
","""event"",""trial"",""time""
""fullscreenenter"",""5"",""22642""
","
","1033","","49","","","3000","1","","","images/purpleplanet.jpg","images/alien4","images/alien3","images/rocket1","images/alien3","images/nothing.png","2","real","true","1","common","0","2022-02-13 23:51:12.032"
"two-step-fixation","188","771689","0.0-76.0-2.17","661","736","11","Female","false","false","false","true","""event"",""trial"",""time""
""fullscreenenter"",""5"",""22642""
","
","
","""event"",""trial"",""time""
""fullscreenenter"",""5"",""22642""
","
","","images/earth.jpg","","","","","","","","","","","","","","fixation","","","","","",""
"d3-animate-choice","189","774431","0.0-76.0-0.18","661","736","11","Female","false","false","false","true","""event"",""trial"",""time""
""fullscreenenter"",""5"",""22642""
","
","
","""event"",""trial"",""time""
""fullscreenenter"",""5"",""22642""
","
","735.3999999999069","","48","","","3000","1","","","images/earth.jpg","images/rocket1","images/rocket2","null","images/rocket1","","1","real","null","2","","",""
"d3-animate-choice","190","777088","0.0-76.0-1.18","661","736","11","Female","false","false","false","true","""event"",""trial"",""time""
""fullscreenenter"",""5"",""22642""
","
","
","""event"",""trial"",""time""
""fullscreenenter"",""5"",""22642""
","
","652.3000000000466","","48","","","3000","1","","","images/purpleplanet.jpg","images/alien4","images/alien3","images/rocket1","images/alien4","images/t.png","2","real","true","2","common","1","2022-02-13 23:51:18.438"
"two-step-fixation","191","778094","0.0-76.0-2.18","661","736","11","Female","false","false","false","true","""event"",""trial"",""time""
""fullscreenenter"",""5"",""22642""
","
","
","""event"",""trial"",""time""
""fullscreenenter"",""5"",""22642""
","
","","images/earth.jpg","","","","","","","","","","","","","","fixation","","","","","",""
"d3-animate-choice","192","780113","0.0-76.0-0.19","661","736","11","Female","false","false","false","true","""event"",""trial"",""time""
""fullscreenenter"",""5"",""22642""
","
","
","""event"",""trial"",""time""
""fullscreenenter"",""5"",""22642""
","
","11.399999999906868","","48","","","3000","1","","","images/earth.jpg","images/rocket1","images/rocket2","null","images/rocket1","","1","real","null","2","","",""
"d3-animate-choice","193","782517","0.0-76.0-1.19","661","736","11","Female","false","false","false","true","""event"",""trial"",""time""
""fullscreenenter"",""5"",""22642""
","
","
","""event"",""trial"",""time""
""fullscreenenter"",""5"",""22642""
","
","399.79999999981374","","48","","","3000","1","","","images/redplanet1.jpg","images/alien2","images/alien1","images/rocket1","images/alien2","images/t.png","2","real","false","2","rare","1","2022-02-13 23:51:23.866"
"two-step-fixation","194","783522","0.0-76.0-2.19","661","736","11","Female","false","false","false","true","""event"",""trial"",""time""
""fullscreenenter"",""5"",""22642""
","
","
","""event"",""trial"",""time""
""fullscreenenter"",""5"",""22642""
","
","","images/earth.jpg","","","","","","","","","","","","","","fixation","","","","","",""
"d3-animate-choice","195","785621","0.0-76.0-0.20","661","736","11","Female","false","false","false","true","""event"",""trial"",""time""
""fullscreenenter"",""5"",""22642""
","
","
","""event"",""trial"",""time""
""fullscreenenter"",""5"",""22642""
","
","93.89999999990687","","48","","","3000","1","","","images/earth.jpg","images/rocket1","images/rocket2","null","images/rocket1","","1","real","null","2","","",""
"d3-animate-choice","196","788154","0.0-76.0-1.20","661","736","11","Female","false","false","false","true","""event"",""trial"",""time""
""fullscreenenter"",""5"",""22642""
","
","
","""event"",""trial"",""time""
""fullscreenenter"",""5"",""22642""
","
","528.5","","49","","","3000","1","","","images/purpleplanet.jpg","images/alien4","images/alien3","images/rocket1","images/alien3","images/t.png","2","real","true","1","common","1","2022-02-13 23:51:29.503"
"two-step-fixation","197","789160","0.0-76.0-2.20","661","736","11","Female","false","false","false","true","""event"",""trial"",""time""
""fullscreenenter"",""5"",""22642""
","
","
","""event"",""trial"",""time""
""fullscreenenter"",""5"",""22642""
","
","","images/earth.jpg","","","","","","","","","","","","","","fixation","","","","","",""
"d3-animate-choice","198","791316","0.0-76.0-0.21","661","736","11","Female","false","false","false","true","""event"",""trial"",""time""
""fullscreenenter"",""5"",""22642""
","
","
","""event"",""trial"",""time""
""fullscreenenter"",""5"",""22642""
","
","150.69999999995343","","49","","","3000","1","","","images/earth.jpg","images/rocket1","images/rocket2","null","images/rocket2","","1","real","null","1","","",""
"d3-animate-choice","199","793990","0.0-76.0-1.21","661","736","11","Female","false","false","false","true","""event"",""trial"",""time""
""fullscreenenter"",""5"",""22642""
","
","
","""event"",""trial"",""time""
""fullscreenenter"",""5"",""22642""
","
","668.9000000001397","","48","","","3000","1","","","images/purpleplanet.jpg","images/alien4","images/alien3","images/rocket2","images/alien4","images/nothing.png","2","real","false","2","rare","0","2022-02-13 23:51:35.339"
"two-step-fixation","200","794996","0.0-76.0-2.21","661","736","11","Female","false","false","false","true","""event"",""trial"",""time""
""fullscreenenter"",""5"",""22642""
","
","
","""event"",""trial"",""time""
""fullscreenenter"",""5"",""22642""
","
","","images/earth.jpg","","","","","","","","","","","","","","fixation","","","","","",""
"d3-animate-choice","201","797227","0.0-76.0-0.22","661","736","11","Female","false","false","false","true","""event"",""trial"",""time""
""fullscreenenter"",""5"",""22642""
","
","
","""event"",""trial"",""time""
""fullscreenenter"",""5"",""22642""
","
","225.69999999995343","","48","","","3000","1","","","images/earth.jpg","images/rocket1","images/rocket2","null","images/rocket1","","1","real","null","2","","",""
"d3-animate-choice","202","799782","0.0-76.0-1.22","661","736","11","Female","false","false","false","true","""event"",""trial"",""time""
""fullscreenenter"",""5"",""22642""
","
","
","""event"",""trial"",""time""
""fullscreenenter"",""5"",""22642""
","
","549.8000000000466","","49","","","3000","1","","","images/purpleplanet.jpg","images/alien4","images/alien3","images/rocket1","images/alien3","images/t.png","2","real","true","1","common","1","2022-02-13 23:51:41.132"
"two-step-fixation","203","800788","0.0-76.0-2.22","661","736","11","Female","false","false","false","true","""event"",""trial"",""time""
""fullscreenenter"",""5"",""22642""
","
","
","""event"",""trial"",""time""
""fullscreenenter"",""5"",""22642""
","
","","images/earth.jpg","","","","","","","","","","","","","","fixation","","","","","",""
"d3-animate-choice","204","802839","0.0-76.0-0.23","661","736","11","Female","false","false","false","true","""event"",""trial"",""time""
""fullscreenenter"",""5"",""22642""
","
","
","""event"",""trial"",""time""
""fullscreenenter"",""5"",""22642""
","
","45.699999999953434","","48","","","3000","1","","","images/earth.jpg","images/rocket1","images/rocket2","null","images/rocket1","","1","real","null","2","","",""
"d3-animate-choice","205","805271","0.0-76.0-1.23","661","736","11","Female","false","false","false","true","""event"",""trial"",""time""
""fullscreenenter"",""5"",""22642""
","
","
","""event"",""trial"",""time""
""fullscreenenter"",""5"",""22642""
","
","427","","48","","","3000","1","","","images/purpleplanet.jpg","images/alien4","images/alien3","images/rocket1","images/alien4","images/t.png","2","real","true","2","common","1","2022-02-13 23:51:46.620"
"two-step-fixation","206","806276","0.0-76.0-2.23","661","736","11","Female","false","false","false","true","""event"",""trial"",""time""
""fullscreenenter"",""5"",""22642""
","
","
","""event"",""trial"",""time""
""fullscreenenter"",""5"",""22642""
","
","","images/earth.jpg","","","","","","","","","","","","","","fixation","","","","","",""
"d3-animate-choice","207","808398","0.0-76.0-0.24","661","736","11","Female","false","false","false","true","""event"",""trial"",""time""
""fullscreenenter"",""5"",""22642""
","
","
","""event"",""trial"",""time""
""fullscreenenter"",""5"",""22642""
","
","117.0999999998603","","49","","","3000","1","","","images/earth.jpg","images/rocket1","images/rocket2","null","images/rocket2","","1","real","null","1","","",""
"d3-animate-choice","208","811144","0.0-76.0-1.24","661","736","11","Female","false","false","false","true","""event"",""trial"",""time""
""fullscreenenter"",""5"",""22642""
","
","
","""event"",""trial"",""time""
""fullscreenenter"",""5"",""22642""
","
","741.6999999999534","","49","","","3000","1","","","images/redplanet1.jpg","images/alien2","images/alien1","images/rocket2","images/alien1","images/t.png","2","real","true","1","common","1","2022-02-13 23:51:52.493"
"two-step-fixation","209","812148","0.0-76.0-2.24","661","736","11","Female","false","false","false","true","""event"",""trial"",""time""
""fullscreenenter"",""5"",""22642""
","
","
","""event"",""trial"",""time""
""fullscreenenter"",""5"",""22642""
","
","","images/earth.jpg","","","","","","","","","","","","","","fixation","","","","","",""
"d3-animate-choice","210","814566","0.0-76.0-0.25","661","736","11","Female","false","false","false","true","""event"",""trial"",""time""
""fullscreenenter"",""5"",""22642""
","
","
","""event"",""trial"",""time""
""fullscreenenter"",""5"",""22642""
","
","410.60000000009313","","49","","","3000","1","","","images/earth.jpg","images/rocket1","images/rocket2","null","images/rocket2","","1","real","null","1","","",""
"d3-animate-choice","211","817108","0.0-76.0-1.25","661","736","11","Female","false","false","false","true","""event"",""trial"",""time""
""fullscreenenter"",""5"",""22642""
","
","
","""event"",""trial"",""time""
""fullscreenenter"",""5"",""22642""
","
","537.6999999999534","","49","","","3000","1","","","images/redplanet1.jpg","images/alien2","images/alien1","images/rocket2","images/alien1","images/nothing.png","2","real","true","1","common","0","2022-02-13 23:51:58.457"
"two-step-fixation","212","818114","0.0-76.0-2.25","661","736","11","Female","false","false","false","true","""event"",""trial"",""time""
""fullscreenenter"",""5"",""22642""
","
","
","""event"",""trial"",""time""
""fullscreenenter"",""5"",""22642""
","
","","images/earth.jpg","","","","","","","","","","","","","","fixation","","","","","",""
"d3-animate-choice","213","820703","0.0-76.0-0.26","661","736","11","Female","false","false","false","true","""event"",""trial"",""time""
""fullscreenenter"",""5"",""22642""
","
","
","""event"",""trial"",""time""
""fullscreenenter"",""5"",""22642""
","
","583.1999999999534","","48","","","3000","1","1195.5","48","images/earth.jpg","images/rocket1","images/rocket2","null","images/rocket1","","1","real","null","2","","",""
"d3-animate-choice","214","823344","0.0-76.0-1.26","661","736","11","Female","false","false","false","true","""event"",""trial"",""time""
""fullscreenenter"",""5"",""22642""
","
","
","""event"",""trial"",""time""
""fullscreenenter"",""5"",""22642""
","
","635.1000000000931","","48","","","3000","1","","","images/purpleplanet.jpg","images/alien4","images/alien3","images/rocket1","images/alien4","images/nothing.png","2","real","true","2","common","0","2022-02-13 23:52:04.694"
"two-step-fixation","215","824350","0.0-76.0-2.26","661","736","11","Female","false","false","false","true","""event"",""trial"",""time""
""fullscreenenter"",""5"",""22642""
","
","
","""event"",""trial"",""time""
""fullscreenenter"",""5"",""22642""
","
","","images/earth.jpg","","","","","","","","","","","","","","fixation","","","","","",""
"d3-animate-choice","216","826767","0.0-76.0-0.27","661","736","11","Female","false","false","false","true","""event"",""trial"",""time""
""fullscreenenter"",""5"",""22642""
","
","
","""event"",""trial"",""time""
""fullscreenenter"",""5"",""22642""
","
","411.80000000004657","","49","","","3000","1","","","images/earth.jpg","images/rocket1","images/rocket2","null","images/rocket2","","1","real","null","1","","",""
"d3-animate-choice","217","829709","0.0-76.0-1.27","661","736","11","Female","false","false","false","true","""event"",""trial"",""time""
""fullscreenenter"",""5"",""22642""
","
","
","""event"",""trial"",""time""
""fullscreenenter"",""5"",""22642""
","
","936","","49","","","3000","1","","","images/redplanet1.jpg","images/alien2","images/alien1","images/rocket2","images/alien1","images/t.png","2","real","true","1","common","1","2022-02-13 23:52:11.058"
"two-step-fixation","218","830715","0.0-76.0-2.27","661","736","11","Female","false","false","false","true","""event"",""trial"",""time""
""fullscreenenter"",""5"",""22642""
","
","
","""event"",""trial"",""time""
""fullscreenenter"",""5"",""22642""
","
","","images/earth.jpg","","","","","","","","","","","","","","fixation","","","","","",""
"d3-animate-choice","219","833006","0.0-76.0-0.28","661","736","11","Female","false","false","false","true","""event"",""trial"",""time""
""fullscreenenter"",""5"",""22642""
","
","
","""event"",""trial"",""time""
""fullscreenenter"",""5"",""22642""
","
","286","","49","","","3000","1","","","images/earth.jpg","images/rocket1","images/rocket2","null","images/rocket2","","1","real","null","1","","",""
"d3-animate-choice","220","835548","0.0-76.0-1.28","661","736","11","Female","false","false","false","true","""event"",""trial"",""time""
""fullscreenenter"",""5"",""22642""
","
","
","""event"",""trial"",""time""
""fullscreenenter"",""5"",""22642""
","
","536.8000000000466","","48","","","3000","1","","","images/redplanet1.jpg","images/alien2","images/alien1","images/rocket2","images/alien2","images/nothing.png","2","real","true","2","common","0","2022-02-13 23:52:16.897"
"two-step-fixation","221","836555","0.0-76.0-2.28","661","736","11","Female","false","false","false","true","""event"",""trial"",""time""
""fullscreenenter"",""5"",""22642""
","
","
","""event"",""trial"",""time""
""fullscreenenter"",""5"",""22642""
","
","","images/earth.jpg","","","","","","","","","","","","","","fixation","","","","","",""
"d3-animate-choice","222","839282","0.0-76.0-0.29","661","736","11","Female","false","false","false","true","""event"",""trial"",""time""
""fullscreenenter"",""5"",""22642""
","
","
","""event"",""trial"",""time""
""fullscreenenter"",""5"",""22642""
","
","722.2000000001863","","49","","","3000","1","","","images/earth.jpg","images/rocket1","images/rocket2","null","images/rocket2","","1","real","null","1","","",""
"d3-animate-choice","223","841821","0.0-76.0-1.29","661","736","11","Female","false","false","false","true","""event"",""trial"",""time""
""fullscreenenter"",""5"",""22642""
","
","
","""event"",""trial"",""time""
""fullscreenenter"",""5"",""22642""
","
","534.1999999999534","","48","","","3000","1","","","images/purpleplanet.jpg","images/alien4","images/alien3","images/rocket2","images/alien4","images/nothing.png","2","real","false","2","rare","0","2022-02-13 23:52:23.170"
"two-step-fixation","224","842827","0.0-76.0-2.29","661","736","11","Female","false","false","false","true","""event"",""trial"",""time""
""fullscreenenter"",""5"",""22642""
","
","
","""event"",""trial"",""time""
""fullscreenenter"",""5"",""22642""
","
","","images/earth.jpg","","","","","","","","","","","","","","fixation","","","","","",""
"d3-animate-choice","225","845620","0.0-76.0-0.30","661","736","11","Female","false","false","false","true","""event"",""trial"",""time""
""fullscreenenter"",""5"",""22642""
","
","
","""event"",""trial"",""time""
""fullscreenenter"",""5"",""22642""
","
","785.5","","48","","","3000","1","1930.7999999998137","48","images/earth.jpg","images/rocket1","images/rocket2","null","images/rocket1","","1","real","null","2","","",""
"d3-animate-choice","226","848207","0.0-76.0-1.30","661","736","11","Female","false","false","false","true","""event"",""trial"",""time""
""fullscreenenter"",""5"",""22642""
","
","
","""event"",""trial"",""time""
""fullscreenenter"",""5"",""22642""
","
","582.1999999999534","","48","","","3000","1","","","images/purpleplanet.jpg","images/alien4","images/alien3","images/rocket1","images/alien4","images/nothing.png","2","real","true","2","common","0","2022-02-13 23:52:29.557"
"two-step-fixation","227","849211","0.0-76.0-2.30","661","736","11","Female","false","false","false","true","""event"",""trial"",""time""
""fullscreenenter"",""5"",""22642""
","
","
","""event"",""trial"",""time""
""fullscreenenter"",""5"",""22642""
","
","","images/earth.jpg","","","","","","","","","","","","","","fixation","","","","","",""
"d3-animate-choice","228","851967","0.0-76.0-0.31","661","736","11","Female","false","false","false","true","""event"",""trial"",""time""
""fullscreenenter"",""5"",""22642""
","
","
","""event"",""trial"",""time""
""fullscreenenter"",""5"",""22642""
","
","751.2000000001863","","49","","","3000","1","","","images/earth.jpg","images/rocket1","images/rocket2","null","images/rocket2","","1","real","null","1","","",""
"d3-animate-choice","229","854839","0.0-76.0-1.31","661","736","11","Female","false","false","false","true","""event"",""trial"",""time""
""fullscreenenter"",""5"",""22642""
","
","
","""event"",""trial"",""time""
""fullscreenenter"",""5"",""22642""
","
","865.1999999999534","","49","","","3000","1","","","images/redplanet1.jpg","images/alien2","images/alien1","images/rocket2","images/alien1","images/nothing.png","2","real","true","1","common","0","2022-02-13 23:52:36.188"
"two-step-fixation","230","855844","0.0-76.0-2.31","661","736","11","Female","false","false","false","true","""event"",""trial"",""time""
""fullscreenenter"",""5"",""22642""
","
","
","""event"",""trial"",""time""
""fullscreenenter"",""5"",""22642""
","
","","images/earth.jpg","","","","","","","","","","","","","","fixation","","","","","",""
"d3-animate-choice","231","858935","0.0-76.0-0.32","661","736","11","Female","false","false","false","true","""event"",""trial"",""time""
""fullscreenenter"",""5"",""22642""
","
","
","""event"",""trial"",""time""
""fullscreenenter"",""5"",""22642""
","
","1085.8000000000466","","48","","","3000","1","","","images/earth.jpg","images/rocket1","images/rocket2","null","images/rocket1","","1","real","null","2","","",""
"d3-animate-choice","232","861740","0.0-76.0-1.32","661","736","11","Female","false","false","false","true","""event"",""trial"",""time""
""fullscreenenter"",""5"",""22642""
","
","
","""event"",""trial"",""time""
""fullscreenenter"",""5"",""22642""
","
","798.9000000001397","","48","","","3000","1","","","images/redplanet1.jpg","images/alien2","images/alien1","images/rocket1","images/alien2","images/t.png","2","real","false","2","rare","1","2022-02-13 23:52:43.089"
"two-step-fixation","233","862744","0.0-76.0-2.32","661","736","11","Female","false","false","false","true","""event"",""trial"",""time""
""fullscreenenter"",""5"",""22642""
","
","
","""event"",""trial"",""time""
""fullscreenenter"",""5"",""22642""
","
","","images/earth.jpg","","","","","","","","","","","","","","fixation","","","","","",""
"d3-animate-choice","234","864816","0.0-76.0-0.33","661","736","11","Female","false","false","false","true","""event"",""trial"",""time""
""fullscreenenter"",""5"",""22642""
","
","
","""event"",""trial"",""time""
""fullscreenenter"",""5"",""22642""
","
","65.4000000001397","","48","","","3000","1","","","images/earth.jpg","images/rocket1","images/rocket2","null","images/rocket1","","1","real","null","2","","",""
"d3-animate-choice","235","866941","0.0-76.0-1.33","661","736","11","Female","false","false","false","true","""event"",""trial"",""time""
""fullscreenenter"",""5"",""22642""
","
","
","""event"",""trial"",""time""
""fullscreenenter"",""5"",""22642""
","
","120.19999999995343","","49","","","3000","1","1034.1999999999534","48","images/purpleplanet.jpg","images/alien4","images/alien3","images/rocket1","images/alien3","images/nothing.png","2","real","true","1","common","0","2022-02-13 23:52:48.290"
"two-step-fixation","236","867947","0.0-76.0-2.33","661","736","11","Female","false","false","false","true","""event"",""trial"",""time""
""fullscreenenter"",""5"",""22642""
","
","
","""event"",""trial"",""time""
""fullscreenenter"",""5"",""22642""
","
","","images/earth.jpg","","","","","","","","","","","","","","fixation","","","","","",""
"d3-animate-choice","237","871328","0.0-76.0-0.34","661","736","11","Female","false","false","false","true","""event"",""trial"",""time""
""fullscreenenter"",""5"",""22642""
","
","
","""event"",""trial"",""time""
""fullscreenenter"",""5"",""22642""
","
","1376","","48","","","3000","1","","","images/earth.jpg","images/rocket1","images/rocket2","null","images/rocket1","","1","real","null","2","","",""
"d3-animate-choice","238","874352","0.0-76.0-1.34","661","736","11","Female","false","false","false","true","""event"",""trial"",""time""
""fullscreenenter"",""5"",""22642""
","
","
","""event"",""trial"",""time""
""fullscreenenter"",""5"",""22642""
","
","1017.8000000000466","","48","","","3000","1","","","images/redplanet1.jpg","images/alien2","images/alien1","images/rocket1","images/alien2","images/t.png","2","real","false","2","rare","1","2022-02-13 23:52:55.702"
"two-step-fixation","239","875357","0.0-76.0-2.34","661","736","11","Female","false","false","false","true","""event"",""trial"",""time""
""fullscreenenter"",""5"",""22642""
","
","
","""event"",""trial"",""time""
""fullscreenenter"",""5"",""22642""
","
","","images/earth.jpg","","","","","","","","","","","","","","fixation","","","","","",""
"d3-animate-choice","240","877666","0.0-76.0-0.35","661","736","11","Female","false","false","false","true","""event"",""trial"",""time""
""fullscreenenter"",""5"",""22642""
","
","
","""event"",""trial"",""time""
""fullscreenenter"",""5"",""22642""
","
","302.60000000009313","","48","","","3000","1","","","images/earth.jpg","images/rocket1","images/rocket2","null","images/rocket1","","1","real","null","2","","",""
"d3-animate-choice","241","881027","0.0-76.0-1.35","661","736","11","Female","false","false","false","true","""event"",""trial"",""time""
""fullscreenenter"",""5"",""22642""
","
","
","""event"",""trial"",""time""
""fullscreenenter"",""5"",""22642""
","
","1354.6000000000931","","49","","","3000","1","","","images/purpleplanet.jpg","images/alien4","images/alien3","images/rocket1","images/alien3","images/nothing.png","2","real","true","1","common","0","2022-02-13 23:53:02.376"
"two-step-fixation","242","882030","0.0-76.0-2.35","661","736","11","Female","false","false","false","true","""event"",""trial"",""time""
""fullscreenenter"",""5"",""22642""
","
","
","""event"",""trial"",""time""
""fullscreenenter"",""5"",""22642""
","
","","images/earth.jpg","","","","","","","","","","","","","","fixation","","","","","",""
"d3-animate-choice","243","884529","0.0-76.0-0.36","661","736","11","Female","false","false","false","true","""event"",""trial"",""time""
""fullscreenenter"",""5"",""22642""
","
","
","""event"",""trial"",""time""
""fullscreenenter"",""5"",""22642""
","
","493.30000000004657","","48","","","3000","1","","","images/earth.jpg","images/rocket1","images/rocket2","null","images/rocket1","","1","real","null","2","","",""
