"trial_type","trial_index","time_elapsed","internal_node_id","participant_id","subject_id","age","gender","rocket_sides","red_planet_first_rocket","red_display_order","purple_display_order","interactions","blur_events","focus_events","fullscreenenter_events","fullscreenexit_events","rt","stimulus","key_press","button_pressed","success","duration","valid_pressed","rts","keys","planet_text","right_text","left_text","center_text","chosen_text","reward_text","trial_stage","practice_trial","transition_type","choice","transition","reward","timestamp"
"pavlovia","0","2","0.0-0.0","2617","5845","9","Male","true","true","false","true","
","
","
","
","
","","","","","","","","","","","","","","","","","","","","","",""
"html-keyboard-response","1","2412","0.0-1.0","2617","5845","9","Male","true","true","false","true","
","
","
","
","
","2408.400000002235","Welcome! Press the space bar to begin.","20","","","","","","","","","","","","","","","","","","",""
"audio-keyboard-response","2","3092","0.0-2.0","2617","5845","9","Male","true","true","false","true","
","
","
","
","
","0","audio/beep_loop.wav","20","","","","","","","","","","","","","","","","","","",""
"audio-button-response","3","4586","0.0-3.0","2617","5845","9","Male","true","true","false","true","
","
","
","
","
","NaN","audio/fish.mp3","","1","","","","","","","","","","","","","","","","","",""
"audio-button-response","4","6604","0.0-4.0","2617","5845","9","Male","true","true","false","true","""event"",""trial"",""time""
""fullscreenenter"",""5"",""9303""
","
","
","""event"",""trial"",""time""
""fullscreenenter"",""5"",""9303""
","
","NaN","audio/tiger.mp3","","4","","","","","","","","","","","","","","","","","",""
"fullscreen","5","10284","0.0-5.0","2617","5845","9","Male","true","true","false","true","""event"",""trial"",""time""
""fullscreenenter"",""5"",""9303""
","
","
","""event"",""trial"",""time""
""fullscreenenter"",""5"",""9303""
","
","","","","","true","","","","","","","","","","","","","","","","",""
"d3-instructions","6","15344","0.0-6.0","2617","5845","9","Male","true","true","false","true","""event"",""trial"",""time""
""fullscreenenter"",""5"",""9303""
","
","
","""event"",""trial"",""time""
""fullscreenenter"",""5"",""9303""
","
","","","","","","","","","","","","","","","","","","","","","",""
"d3-instructions","7","16308","0.0-7.0","2617","5845","9","Male","true","true","false","true","""event"",""trial"",""time""
""fullscreenenter"",""5"",""9303""
","
","
","""event"",""trial"",""time""
""fullscreenenter"",""5"",""9303""
","
","","","","","","","","","","","","","","","","","","","","","",""
"d3-instructions","8","17192","0.0-8.0","2617","5845","9","Male","true","true","false","true","""event"",""trial"",""time""
""fullscreenenter"",""5"",""9303""
","
","
","""event"",""trial"",""time""
""fullscreenenter"",""5"",""9303""
","
","","","","","","","","","","","","","","","","","","","","","",""
"d3-instructions","9","18503","0.0-9.0","2617","5845","9","Male","true","true","false","true","""event"",""trial"",""time""
""fullscreenenter"",""5"",""9303""
","
","
","""event"",""trial"",""time""
""fullscreenenter"",""5"",""9303""
","
","","","","","","","","","","","","","","","","","","","","","",""
"d3-instructions","10","19683","0.0-10.0","2617","5845","9","Male","true","true","false","true","""event"",""trial"",""time""
""fullscreenenter"",""5"",""9303""
""blur"",""11"",""22173""
""focus"",""11"",""24948""
""blur"",""11"",""33046""
""focus"",""11"",""35380""
","""event"",""trial"",""time""
""blur"",""11"",""22173""
""blur"",""11"",""33046""
","""event"",""trial"",""time""
""focus"",""11"",""24948""
""focus"",""11"",""35380""
","""event"",""trial"",""time""
""fullscreenenter"",""5"",""9303""
","
","","","","","","","","","","","","","","","","","","","","","",""
"d3-animate-choice","11","38378","0.0-11.0","2617","5845","9","Male","true","true","false","true","""event"",""trial"",""time""
""fullscreenenter"",""5"",""9303""
""blur"",""11"",""22173""
""focus"",""11"",""24948""
""blur"",""11"",""33046""
""focus"",""11"",""35380""
","""event"",""trial"",""time""
""blur"",""11"",""22173""
""blur"",""11"",""33046""
","""event"",""trial"",""time""
""focus"",""11"",""24948""
""focus"",""11"",""35380""
","""event"",""trial"",""time""
""fullscreenenter"",""5"",""9303""
","
","1862.699999999255","","17","","","3000","1","13210.5,16668.5,16686.199999999255","91,39,48","images/tutgreenplanet.jpg","images/tutalien1","images/tutalien2","null","images/tutalien1","","NA","practice","null","","","",""
"d3-animate-choice","12","41962","0.0-12.0","2617","5845","9","Male","true","true","false","true","""event"",""trial"",""time""
""fullscreenenter"",""5"",""9303""
""blur"",""11"",""22173""
""focus"",""11"",""24948""
""blur"",""11"",""33046""
""focus"",""11"",""35380""
","""event"",""trial"",""time""
""blur"",""11"",""22173""
""blur"",""11"",""33046""
","""event"",""trial"",""time""
""focus"",""11"",""24948""
""focus"",""11"",""35380""
","""event"",""trial"",""time""
""fullscreenenter"",""5"",""9303""
","
","1576.6000000014901","","49","","","3000","1","","","images/tutgreenplanet.jpg","images/tutalien1","images/tutalien2","null","images/tutalien2","","NA","practice","null","","","",""
"d3-animate-choice","13","45505","0.0-13.0","2617","5845","9","Male","true","true","false","true","""event"",""trial"",""time""
""fullscreenenter"",""5"",""9303""
""blur"",""11"",""22173""
""focus"",""11"",""24948""
""blur"",""11"",""33046""
""focus"",""11"",""35380""
","""event"",""trial"",""time""
""blur"",""11"",""22173""
""blur"",""11"",""33046""
","""event"",""trial"",""time""
""focus"",""11"",""24948""
""focus"",""11"",""35380""
","""event"",""trial"",""time""
""fullscreenenter"",""5"",""9303""
","
","1535.7000000029802","","48","","","3000","1","","","images/tutgreenplanet.jpg","images/tutalien1","images/tutalien2","null","images/tutalien1","","NA","practice","null","","","",""
"d3-animate-choice","14","48387","0.0-14.0","2617","5845","9","Male","true","true","false","true","""event"",""trial"",""time""
""fullscreenenter"",""5"",""9303""
""blur"",""11"",""22173""
""focus"",""11"",""24948""
""blur"",""11"",""33046""
""focus"",""11"",""35380""
","""event"",""trial"",""time""
""blur"",""11"",""22173""
""blur"",""11"",""33046""
","""event"",""trial"",""time""
""focus"",""11"",""24948""
""focus"",""11"",""35380""
","""event"",""trial"",""time""
""fullscreenenter"",""5"",""9303""
","
","873.5999999977648","","49","","","3000","1","","","images/tutgreenplanet.jpg","images/tutalien1","images/tutalien2","null","images/tutalien2","","NA","practice","null","","","",""
"d3-instructions","15","51635","0.0-15.0","2617","5845","9","Male","true","true","false","true","""event"",""trial"",""time""
""fullscreenenter"",""5"",""9303""
""blur"",""11"",""22173""
""focus"",""11"",""24948""
""blur"",""11"",""33046""
""focus"",""11"",""35380""
","""event"",""trial"",""time""
""blur"",""11"",""22173""
""blur"",""11"",""33046""
","""event"",""trial"",""time""
""focus"",""11"",""24948""
""focus"",""11"",""35380""
","""event"",""trial"",""time""
""fullscreenenter"",""5"",""9303""
","
","","","","","","","","","","","","","","","","","","","","","",""
"d3-instructions","16","54764","0.0-16.0","2617","5845","9","Male","true","true","false","true","""event"",""trial"",""time""
""fullscreenenter"",""5"",""9303""
""blur"",""11"",""22173""
""focus"",""11"",""24948""
""blur"",""11"",""33046""
""focus"",""11"",""35380""
","""event"",""trial"",""time""
""blur"",""11"",""22173""
""blur"",""11"",""33046""
","""event"",""trial"",""time""
""focus"",""11"",""24948""
""focus"",""11"",""35380""
","""event"",""trial"",""time""
""fullscreenenter"",""5"",""9303""
","
","","","","","","","","","","","","","","","","","","","","","",""
"d3-instructions","17","56888","0.0-17.0","2617","5845","9","Male","true","true","false","true","""event"",""trial"",""time""
""fullscreenenter"",""5"",""9303""
""blur"",""11"",""22173""
""focus"",""11"",""24948""
""blur"",""11"",""33046""
""focus"",""11"",""35380""
","""event"",""trial"",""time""
""blur"",""11"",""22173""
""blur"",""11"",""33046""
","""event"",""trial"",""time""
""focus"",""11"",""24948""
""focus"",""11"",""35380""
","""event"",""trial"",""time""
""fullscreenenter"",""5"",""9303""
","
","","","","","","","","","","","","","","","","","","","","","",""
"d3-instructions","18","58251","0.0-18.0","2617","5845","9","Male","true","true","false","true","""event"",""trial"",""time""
""fullscreenenter"",""5"",""9303""
""blur"",""11"",""22173""
""focus"",""11"",""24948""
""blur"",""11"",""33046""
""focus"",""11"",""35380""
","""event"",""trial"",""time""
""blur"",""11"",""22173""
""blur"",""11"",""33046""
","""event"",""trial"",""time""
""focus"",""11"",""24948""
""focus"",""11"",""35380""
","""event"",""trial"",""time""
""fullscreenenter"",""5"",""9303""
","
","","","","","","","","","","","","","","","","","","","","","",""
"d3-instructions","19","62105","0.0-19.0","2617","5845","9","Male","true","true","false","true","""event"",""trial"",""time""
""fullscreenenter"",""5"",""9303""
""blur"",""11"",""22173""
""focus"",""11"",""24948""
""blur"",""11"",""33046""
""focus"",""11"",""35380""
","""event"",""trial"",""time""
""blur"",""11"",""22173""
""blur"",""11"",""33046""
","""event"",""trial"",""time""
""focus"",""11"",""24948""
""focus"",""11"",""35380""
","""event"",""trial"",""time""
""fullscreenenter"",""5"",""9303""
","
","","","","","","","","","","","","","","","","","","","","","",""
"d3-animate-choice","20","64698","0.0-20.0","2617","5845","9","Male","true","true","false","true","""event"",""trial"",""time""
""fullscreenenter"",""5"",""9303""
""blur"",""11"",""22173""
""focus"",""11"",""24948""
""blur"",""11"",""33046""
""focus"",""11"",""35380""
","""event"",""trial"",""time""
""blur"",""11"",""22173""
""blur"",""11"",""33046""
","""event"",""trial"",""time""
""focus"",""11"",""24948""
""focus"",""11"",""35380""
","""event"",""trial"",""time""
""fullscreenenter"",""5"",""9303""
","
","586.8000000007451","","49","","","3000","1","","","images/tutyellowplanet.jpg","null","images/tutalien3","null","images/tutalien3","images/nothing.png","NA","practice","null","","","",""
"d3-animate-choice","21","67155","0.0-21.0","2617","5845","9","Male","true","true","false","true","""event"",""trial"",""time""
""fullscreenenter"",""5"",""9303""
""blur"",""11"",""22173""
""focus"",""11"",""24948""
""blur"",""11"",""33046""
""focus"",""11"",""35380""
","""event"",""trial"",""time""
""blur"",""11"",""22173""
""blur"",""11"",""33046""
","""event"",""trial"",""time""
""focus"",""11"",""24948""
""focus"",""11"",""35380""
","""event"",""trial"",""time""
""fullscreenenter"",""5"",""9303""
","
","448.1000000014901","","49","","","3000","1","","","images/tutyellowplanet.jpg","null","images/tutalien3","null","images/tutalien3","images/t.png","NA","practice","null","","","",""
"d3-animate-choice","22","69324","0.0-22.0","2617","5845","9","Male","true","true","false","true","""event"",""trial"",""time""
""fullscreenenter"",""5"",""9303""
""blur"",""11"",""22173""
""focus"",""11"",""24948""
""blur"",""11"",""33046""
""focus"",""11"",""35380""
","""event"",""trial"",""time""
""blur"",""11"",""22173""
""blur"",""11"",""33046""
","""event"",""trial"",""time""
""focus"",""11"",""24948""
""focus"",""11"",""35380""
","""event"",""trial"",""time""
""fullscreenenter"",""5"",""9303""
","
","160.10000000149012","","49","","","3000","1","","","images/tutyellowplanet.jpg","null","images/tutalien3","null","images/tutalien3","images/t.png","NA","practice","null","","","",""
"d3-animate-choice","23","71617","0.0-23.0","2617","5845","9","Male","true","true","false","true","""event"",""trial"",""time""
""fullscreenenter"",""5"",""9303""
""blur"",""11"",""22173""
""focus"",""11"",""24948""
""blur"",""11"",""33046""
""focus"",""11"",""35380""
","""event"",""trial"",""time""
""blur"",""11"",""22173""
""blur"",""11"",""33046""
","""event"",""trial"",""time""
""focus"",""11"",""24948""
""focus"",""11"",""35380""
","""event"",""trial"",""time""
""fullscreenenter"",""5"",""9303""
","
","288.30000000074506","","49","","","3000","1","","","images/tutyellowplanet.jpg","null","images/tutalien3","null","images/tutalien3","images/t.png","NA","practice","null","","","",""
"d3-animate-choice","24","73658","0.0-24.0","2617","5845","9","Male","true","true","false","true","""event"",""trial"",""time""
""fullscreenenter"",""5"",""9303""
""blur"",""11"",""22173""
""focus"",""11"",""24948""
""blur"",""11"",""33046""
""focus"",""11"",""35380""
","""event"",""trial"",""time""
""blur"",""11"",""22173""
""blur"",""11"",""33046""
","""event"",""trial"",""time""
""focus"",""11"",""24948""
""focus"",""11"",""35380""
","""event"",""trial"",""time""
""fullscreenenter"",""5"",""9303""
","
","36.30000000074506","","49","","","3000","1","909.5,1347,1578.800000000745,1823.4000000022352","49,49,49,49","images/tutyellowplanet.jpg","null","images/tutalien3","null","images/tutalien3","images/t.png","NA","practice","null","","","",""
"d3-animate-choice","25","75860","0.0-25.0","2617","5845","9","Male","true","true","false","true","""event"",""trial"",""time""
""fullscreenenter"",""5"",""9303""
""blur"",""11"",""22173""
""focus"",""11"",""24948""
""blur"",""11"",""33046""
""focus"",""11"",""35380""
","""event"",""trial"",""time""
""blur"",""11"",""22173""
""blur"",""11"",""33046""
","""event"",""trial"",""time""
""focus"",""11"",""24948""
""focus"",""11"",""35380""
","""event"",""trial"",""time""
""fullscreenenter"",""5"",""9303""
","
","190.70000000298023","","49","","","3000","1","919.1000000014901,1296.1000000014901,1659.7000000029802,2086.300000000745","49,49,49,49","images/tutyellowplanet.jpg","null","images/tutalien3","null","images/tutalien3","images/t.png","NA","practice","null","","","",""
"d3-animate-choice","26","78170","0.0-26.0","2617","5845","9","Male","true","true","false","true","""event"",""trial"",""time""
""fullscreenenter"",""5"",""9303""
""blur"",""11"",""22173""
""focus"",""11"",""24948""
""blur"",""11"",""33046""
""focus"",""11"",""35380""
","""event"",""trial"",""time""
""blur"",""11"",""22173""
""blur"",""11"",""33046""
","""event"",""trial"",""time""
""focus"",""11"",""24948""
""focus"",""11"",""35380""
","""event"",""trial"",""time""
""fullscreenenter"",""5"",""9303""
","
","302.79999999701977","","49","","","3000","1","1817.699999999255","49","images/tutyellowplanet.jpg","null","images/tutalien3","null","images/tutalien3","images/t.png","NA","practice","null","","","",""
"d3-animate-choice","27","80587","0.0-27.0","2617","5845","9","Male","true","true","false","true","""event"",""trial"",""time""
""fullscreenenter"",""5"",""9303""
""blur"",""11"",""22173""
""focus"",""11"",""24948""
""blur"",""11"",""33046""
""focus"",""11"",""35380""
","""event"",""trial"",""time""
""blur"",""11"",""22173""
""blur"",""11"",""33046""
","""event"",""trial"",""time""
""focus"",""11"",""24948""
""focus"",""11"",""35380""
","""event"",""trial"",""time""
""fullscreenenter"",""5"",""9303""
","
","409.1000000014901","","49","","","3000","1","","","images/tutyellowplanet.jpg","null","images/tutalien3","null","images/tutalien3","images/nothing.png","NA","practice","null","","","",""
"d3-animate-choice","28","82782","0.0-28.0","2617","5845","9","Male","true","true","false","true","""event"",""trial"",""time""
""fullscreenenter"",""5"",""9303""
""blur"",""11"",""22173""
""focus"",""11"",""24948""
""blur"",""11"",""33046""
""focus"",""11"",""35380""
","""event"",""trial"",""time""
""blur"",""11"",""22173""
""blur"",""11"",""33046""
","""event"",""trial"",""time""
""focus"",""11"",""24948""
""focus"",""11"",""35380""
","""event"",""trial"",""time""
""fullscreenenter"",""5"",""9303""
","
","189.20000000298023","","49","","","3000","1","","","images/tutyellowplanet.jpg","null","images/tutalien3","null","images/tutalien3","images/t.png","NA","practice","null","","","",""
"d3-animate-choice","29","84913","0.0-29.0","2617","5845","9","Male","true","true","false","true","""event"",""trial"",""time""
""fullscreenenter"",""5"",""9303""
""blur"",""11"",""22173""
""focus"",""11"",""24948""
""blur"",""11"",""33046""
""focus"",""11"",""35380""
","""event"",""trial"",""time""
""blur"",""11"",""22173""
""blur"",""11"",""33046""
","""event"",""trial"",""time""
""focus"",""11"",""24948""
""focus"",""11"",""35380""
","""event"",""trial"",""time""
""fullscreenenter"",""5"",""9303""
","
","124","","49","","","3000","1","","","images/tutyellowplanet.jpg","null","images/tutalien3","null","images/tutalien3","images/t.png","NA","practice","null","","","",""
"d3-instructions","30","89586","0.0-30.0","2617","5845","9","Male","true","true","false","true","""event"",""trial"",""time""
""fullscreenenter"",""5"",""9303""
""blur"",""11"",""22173""
""focus"",""11"",""24948""
""blur"",""11"",""33046""
""focus"",""11"",""35380""
","""event"",""trial"",""time""
""blur"",""11"",""22173""
""blur"",""11"",""33046""
","""event"",""trial"",""time""
""focus"",""11"",""24948""
""focus"",""11"",""35380""
","""event"",""trial"",""time""
""fullscreenenter"",""5"",""9303""
","
","","","","","","","","","","","","","","","","","","","","","",""
"d3-instructions","31","93886","0.0-31.0","2617","5845","9","Male","true","true","false","true","""event"",""trial"",""time""
""fullscreenenter"",""5"",""9303""
""blur"",""11"",""22173""
""focus"",""11"",""24948""
""blur"",""11"",""33046""
""focus"",""11"",""35380""
","""event"",""trial"",""time""
""blur"",""11"",""22173""
""blur"",""11"",""33046""
","""event"",""trial"",""time""
""focus"",""11"",""24948""
""focus"",""11"",""35380""
","""event"",""trial"",""time""
""fullscreenenter"",""5"",""9303""
","
","","","","","","","","","","","","","","","","","","","","","",""
"d3-instructions","32","99880","0.0-32.0","2617","5845","9","Male","true","true","false","true","""event"",""trial"",""time""
""fullscreenenter"",""5"",""9303""
""blur"",""11"",""22173""
""focus"",""11"",""24948""
""blur"",""11"",""33046""
""focus"",""11"",""35380""
","""event"",""trial"",""time""
""blur"",""11"",""22173""
""blur"",""11"",""33046""
","""event"",""trial"",""time""
""focus"",""11"",""24948""
""focus"",""11"",""35380""
","""event"",""trial"",""time""
""fullscreenenter"",""5"",""9303""
","
","","","","","","","","","","","","","","","","","","","","","",""
"d3-instructions","33","112290","0.0-33.0","2617","5845","9","Male","true","true","false","true","""event"",""trial"",""time""
""fullscreenenter"",""5"",""9303""
""blur"",""11"",""22173""
""focus"",""11"",""24948""
""blur"",""11"",""33046""
""focus"",""11"",""35380""
","""event"",""trial"",""time""
""blur"",""11"",""22173""
""blur"",""11"",""33046""
","""event"",""trial"",""time""
""focus"",""11"",""24948""
""focus"",""11"",""35380""
","""event"",""trial"",""time""
""fullscreenenter"",""5"",""9303""
","
","","","","","","","","","","","","","","","","","","","","","",""
"d3-animate-choice","34","115698","0.0-34.0","2617","5845","9","Male","true","true","false","true","""event"",""trial"",""time""
""fullscreenenter"",""5"",""9303""
""blur"",""11"",""22173""
""focus"",""11"",""24948""
""blur"",""11"",""33046""
""focus"",""11"",""35380""
","""event"",""trial"",""time""
""blur"",""11"",""22173""
""blur"",""11"",""33046""
","""event"",""trial"",""time""
""focus"",""11"",""24948""
""focus"",""11"",""35380""
","""event"",""trial"",""time""
""fullscreenenter"",""5"",""9303""
","
","1403.9000000022352","","48","","","3000","1","","","images/tutgreenplanet.jpg","images/tutalien1","images/tutalien2","null","images/tutalien1","images/nothing.png","NA","practice","null","","","",""
"d3-animate-choice","35","118204","0.0-35.0","2617","5845","9","Male","true","true","false","true","""event"",""trial"",""time""
""fullscreenenter"",""5"",""9303""
""blur"",""11"",""22173""
""focus"",""11"",""24948""
""blur"",""11"",""33046""
""focus"",""11"",""35380""
","""event"",""trial"",""time""
""blur"",""11"",""22173""
""blur"",""11"",""33046""
","""event"",""trial"",""time""
""focus"",""11"",""24948""
""focus"",""11"",""35380""
","""event"",""trial"",""time""
""fullscreenenter"",""5"",""9303""
","
","498.8999999985099","","49","","","3000","1","","","images/tutgreenplanet.jpg","images/tutalien1","images/tutalien2","null","images/tutalien2","images/t.png","NA","practice","null","","","",""
"d3-animate-choice","36","120594","0.0-36.0","2617","5845","9","Male","true","true","false","true","""event"",""trial"",""time""
""fullscreenenter"",""5"",""9303""
""blur"",""11"",""22173""
""focus"",""11"",""24948""
""blur"",""11"",""33046""
""focus"",""11"",""35380""
","""event"",""trial"",""time""
""blur"",""11"",""22173""
""blur"",""11"",""33046""
","""event"",""trial"",""time""
""focus"",""11"",""24948""
""focus"",""11"",""35380""
","""event"",""trial"",""time""
""fullscreenenter"",""5"",""9303""
","
","380.70000000298023","","49","","","3000","1","2040.4000000022352,2303.300000000745","49,49","images/tutgreenplanet.jpg","images/tutalien1","images/tutalien2","null","images/tutalien2","images/t.png","NA","practice","null","","","",""
"d3-animate-choice","37","122719","0.0-37.0","2617","5845","9","Male","true","true","false","true","""event"",""trial"",""time""
""fullscreenenter"",""5"",""9303""
""blur"",""11"",""22173""
""focus"",""11"",""24948""
""blur"",""11"",""33046""
""focus"",""11"",""35380""
","""event"",""trial"",""time""
""blur"",""11"",""22173""
""blur"",""11"",""33046""
","""event"",""trial"",""time""
""focus"",""11"",""24948""
""focus"",""11"",""35380""
","""event"",""trial"",""time""
""fullscreenenter"",""5"",""9303""
","
","118.89999999850988","","49","","","3000","1","","","images/tutgreenplanet.jpg","images/tutalien1","images/tutalien2","null","images/tutalien2","images/t.png","NA","practice","null","","","",""
"d3-animate-choice","38","125177","0.0-38.0","2617","5845","9","Male","true","true","false","true","""event"",""trial"",""time""
""fullscreenenter"",""5"",""9303""
""blur"",""11"",""22173""
""focus"",""11"",""24948""
""blur"",""11"",""33046""
""focus"",""11"",""35380""
","""event"",""trial"",""time""
""blur"",""11"",""22173""
""blur"",""11"",""33046""
","""event"",""trial"",""time""
""focus"",""11"",""24948""
""focus"",""11"",""35380""
","""event"",""trial"",""time""
""fullscreenenter"",""5"",""9303""
","
","454.5","","49","","","3000","1","679.8999999985099","49","images/tutgreenplanet.jpg","images/tutalien1","images/tutalien2","null","images/tutalien2","images/nothing.png","NA","practice","null","","","",""
"d3-animate-choice","39","127994","0.0-39.0","2617","5845","9","Male","true","true","false","true","""event"",""trial"",""time""
""fullscreenenter"",""5"",""9303""
""blur"",""11"",""22173""
""focus"",""11"",""24948""
""blur"",""11"",""33046""
""focus"",""11"",""35380""
","""event"",""trial"",""time""
""blur"",""11"",""22173""
""blur"",""11"",""33046""
","""event"",""trial"",""time""
""focus"",""11"",""24948""
""focus"",""11"",""35380""
","""event"",""trial"",""time""
""fullscreenenter"",""5"",""9303""
","
","812.1999999992549","","49","","","3000","1","1107.9000000022352,2042.4000000022352,2284.10000000149","49,49,49","images/tutgreenplanet.jpg","images/tutalien1","images/tutalien2","null","images/tutalien2","images/t.png","NA","practice","null","","","",""
"d3-animate-choice","40","130298","0.0-40.0","2617","5845","9","Male","true","true","false","true","""event"",""trial"",""time""
""fullscreenenter"",""5"",""9303""
""blur"",""11"",""22173""
""focus"",""11"",""24948""
""blur"",""11"",""33046""
""focus"",""11"",""35380""
","""event"",""trial"",""time""
""blur"",""11"",""22173""
""blur"",""11"",""33046""
","""event"",""trial"",""time""
""focus"",""11"",""24948""
""focus"",""11"",""35380""
","""event"",""trial"",""time""
""fullscreenenter"",""5"",""9303""
","
","298.6000000014901","","49","","","3000","1","1690.699999999255,2127.699999999255","49,49","images/tutgreenplanet.jpg","images/tutalien1","images/tutalien2","null","images/tutalien2","images/t.png","NA","practice","null","","","",""
"d3-animate-choice","41","132474","0.0-41.0","2617","5845","9","Male","true","true","false","true","""event"",""trial"",""time""
""fullscreenenter"",""5"",""9303""
""blur"",""11"",""22173""
""focus"",""11"",""24948""
""blur"",""11"",""33046""
""focus"",""11"",""35380""
","""event"",""trial"",""time""
""blur"",""11"",""22173""
""blur"",""11"",""33046""
","""event"",""trial"",""time""
""focus"",""11"",""24948""
""focus"",""11"",""35380""
","""event"",""trial"",""time""
""fullscreenenter"",""5"",""9303""
","
","170","","49","","","3000","1","505.4000000022352,757.5,1304.699999999255,1540.699999999255,1761.1000000014901,1923.199999999255","49,49,49,49,49,49","images/tutgreenplanet.jpg","images/tutalien1","images/tutalien2","null","images/tutalien2","images/t.png","NA","practice","null","","","",""
"d3-animate-choice","42","134659","0.0-42.0","2617","5845","9","Male","true","true","false","true","""event"",""trial"",""time""
""fullscreenenter"",""5"",""9303""
""blur"",""11"",""22173""
""focus"",""11"",""24948""
""blur"",""11"",""33046""
""focus"",""11"",""35380""
","""event"",""trial"",""time""
""blur"",""11"",""22173""
""blur"",""11"",""33046""
","""event"",""trial"",""time""
""focus"",""11"",""24948""
""focus"",""11"",""35380""
","""event"",""trial"",""time""
""fullscreenenter"",""5"",""9303""
","
","175.10000000149012","","49","","","3000","1","358.5","49","images/tutgreenplanet.jpg","images/tutalien1","images/tutalien2","null","images/tutalien2","images/nothing.png","NA","practice","null","","","",""
"d3-animate-choice","43","137115","0.0-43.0","2617","5845","9","Male","true","true","false","true","""event"",""trial"",""time""
""fullscreenenter"",""5"",""9303""
""blur"",""11"",""22173""
""focus"",""11"",""24948""
""blur"",""11"",""33046""
""focus"",""11"",""35380""
","""event"",""trial"",""time""
""blur"",""11"",""22173""
""blur"",""11"",""33046""
","""event"",""trial"",""time""
""focus"",""11"",""24948""
""focus"",""11"",""35380""
","""event"",""trial"",""time""
""fullscreenenter"",""5"",""9303""
","
","448.19999999925494","","48","","","3000","1","","","images/tutgreenplanet.jpg","images/tutalien1","images/tutalien2","null","images/tutalien1","images/nothing.png","NA","practice","null","","","",""
"d3-instructions","44","141867","0.0-44.0","2617","5845","9","Male","true","true","false","true","""event"",""trial"",""time""
""fullscreenenter"",""5"",""9303""
""blur"",""11"",""22173""
""focus"",""11"",""24948""
""blur"",""11"",""33046""
""focus"",""11"",""35380""
","""event"",""trial"",""time""
""blur"",""11"",""22173""
""blur"",""11"",""33046""
","""event"",""trial"",""time""
""focus"",""11"",""24948""
""focus"",""11"",""35380""
","""event"",""trial"",""time""
""fullscreenenter"",""5"",""9303""
","
","","","","","","","","","","","","","","","","","","","","","",""
"d3-instructions","45","145205","0.0-45.0","2617","5845","9","Male","true","true","false","true","""event"",""trial"",""time""
""fullscreenenter"",""5"",""9303""
""blur"",""11"",""22173""
""focus"",""11"",""24948""
""blur"",""11"",""33046""
""focus"",""11"",""35380""
","""event"",""trial"",""time""
""blur"",""11"",""22173""
""blur"",""11"",""33046""
","""event"",""trial"",""time""
""focus"",""11"",""24948""
""focus"",""11"",""35380""
","""event"",""trial"",""time""
""fullscreenenter"",""5"",""9303""
","
","","","","","","","","","","","","","","","","","","","","","",""
"d3-instructions","46","146229","0.0-46.0","2617","5845","9","Male","true","true","false","true","""event"",""trial"",""time""
""fullscreenenter"",""5"",""9303""
""blur"",""11"",""22173""
""focus"",""11"",""24948""
""blur"",""11"",""33046""
""focus"",""11"",""35380""
","""event"",""trial"",""time""
""blur"",""11"",""22173""
""blur"",""11"",""33046""
","""event"",""trial"",""time""
""focus"",""11"",""24948""
""focus"",""11"",""35380""
","""event"",""trial"",""time""
""fullscreenenter"",""5"",""9303""
","
","","","","","","","","","","","","","","","","","","","","","",""
"d3-instructions","47","147013","0.0-47.0","2617","5845","9","Male","true","true","false","true","""event"",""trial"",""time""
""fullscreenenter"",""5"",""9303""
""blur"",""11"",""22173""
""focus"",""11"",""24948""
""blur"",""11"",""33046""
""focus"",""11"",""35380""
","""event"",""trial"",""time""
""blur"",""11"",""22173""
""blur"",""11"",""33046""
","""event"",""trial"",""time""
""focus"",""11"",""24948""
""focus"",""11"",""35380""
","""event"",""trial"",""time""
""fullscreenenter"",""5"",""9303""
","
","","","","","","","","","","","","","","","","","","","","","",""
"d3-instructions","48","148476","0.0-48.0","2617","5845","9","Male","true","true","false","true","""event"",""trial"",""time""
""fullscreenenter"",""5"",""9303""
""blur"",""11"",""22173""
""focus"",""11"",""24948""
""blur"",""11"",""33046""
""focus"",""11"",""35380""
","""event"",""trial"",""time""
""blur"",""11"",""22173""
""blur"",""11"",""33046""
","""event"",""trial"",""time""
""focus"",""11"",""24948""
""focus"",""11"",""35380""
","""event"",""trial"",""time""
""fullscreenenter"",""5"",""9303""
","
","","","","","","","","","","","","","","","","","","","","","",""
"d3-instructions","49","149337","0.0-49.0","2617","5845","9","Male","true","true","false","true","""event"",""trial"",""time""
""fullscreenenter"",""5"",""9303""
""blur"",""11"",""22173""
""focus"",""11"",""24948""
""blur"",""11"",""33046""
""focus"",""11"",""35380""
","""event"",""trial"",""time""
""blur"",""11"",""22173""
""blur"",""11"",""33046""
","""event"",""trial"",""time""
""focus"",""11"",""24948""
""focus"",""11"",""35380""
","""event"",""trial"",""time""
""fullscreenenter"",""5"",""9303""
","
","","","","","","","","","","","","","","","","","","","","","",""
"d3-instructions","50","151504","0.0-50.0","2617","5845","9","Male","true","true","false","true","""event"",""trial"",""time""
""fullscreenenter"",""5"",""9303""
""blur"",""11"",""22173""
""focus"",""11"",""24948""
""blur"",""11"",""33046""
""focus"",""11"",""35380""
","""event"",""trial"",""time""
""blur"",""11"",""22173""
""blur"",""11"",""33046""
","""event"",""trial"",""time""
""focus"",""11"",""24948""
""focus"",""11"",""35380""
","""event"",""trial"",""time""
""fullscreenenter"",""5"",""9303""
","
","","","","","","","","","","","","","","","","","","","","","",""
"d3-instructions","51","153052","0.0-51.0","2617","5845","9","Male","true","true","false","true","""event"",""trial"",""time""
""fullscreenenter"",""5"",""9303""
""blur"",""11"",""22173""
""focus"",""11"",""24948""
""blur"",""11"",""33046""
""focus"",""11"",""35380""
","""event"",""trial"",""time""
""blur"",""11"",""22173""
""blur"",""11"",""33046""
","""event"",""trial"",""time""
""focus"",""11"",""24948""
""focus"",""11"",""35380""
","""event"",""trial"",""time""
""fullscreenenter"",""5"",""9303""
","
","","","","","","","","","","","","","","","","","","","","","",""
"d3-instructions","52","155266","0.0-52.0","2617","5845","9","Male","true","true","false","true","""event"",""trial"",""time""
""fullscreenenter"",""5"",""9303""
""blur"",""11"",""22173""
""focus"",""11"",""24948""
""blur"",""11"",""33046""
""focus"",""11"",""35380""
","""event"",""trial"",""time""
""blur"",""11"",""22173""
""blur"",""11"",""33046""
","""event"",""trial"",""time""
""focus"",""11"",""24948""
""focus"",""11"",""35380""
","""event"",""trial"",""time""
""fullscreenenter"",""5"",""9303""
","
","","","","","","","","","","","","","","","","","","","","","",""
"d3-instructions","53","157376","0.0-53.0","2617","5845","9","Male","true","true","false","true","""event"",""trial"",""time""
""fullscreenenter"",""5"",""9303""
""blur"",""11"",""22173""
""focus"",""11"",""24948""
""blur"",""11"",""33046""
""focus"",""11"",""35380""
","""event"",""trial"",""time""
""blur"",""11"",""22173""
""blur"",""11"",""33046""
","""event"",""trial"",""time""
""focus"",""11"",""24948""
""focus"",""11"",""35380""
","""event"",""trial"",""time""
""fullscreenenter"",""5"",""9303""
","
","","","","","","","","","","","","","","","","","","","","","",""
"d3-instructions","54","158657","0.0-54.0","2617","5845","9","Male","true","true","false","true","""event"",""trial"",""time""
""fullscreenenter"",""5"",""9303""
""blur"",""11"",""22173""
""focus"",""11"",""24948""
""blur"",""11"",""33046""
""focus"",""11"",""35380""
","""event"",""trial"",""time""
""blur"",""11"",""22173""
""blur"",""11"",""33046""
","""event"",""trial"",""time""
""focus"",""11"",""24948""
""focus"",""11"",""35380""
","""event"",""trial"",""time""
""fullscreenenter"",""5"",""9303""
","
","","","","","","","","","","","","","","","","","","","","","",""
"d3-instructions","55","159620","0.0-55.0","2617","5845","9","Male","true","true","false","true","""event"",""trial"",""time""
""fullscreenenter"",""5"",""9303""
""blur"",""11"",""22173""
""focus"",""11"",""24948""
""blur"",""11"",""33046""
""focus"",""11"",""35380""
","""event"",""trial"",""time""
""blur"",""11"",""22173""
""blur"",""11"",""33046""
","""event"",""trial"",""time""
""focus"",""11"",""24948""
""focus"",""11"",""35380""
","""event"",""trial"",""time""
""fullscreenenter"",""5"",""9303""
","
","","","","","","","","","","","","","","","","","","","","","",""
"d3-instructions","56","160927","0.0-56.0","2617","5845","9","Male","true","true","false","true","""event"",""trial"",""time""
""fullscreenenter"",""5"",""9303""
""blur"",""11"",""22173""
""focus"",""11"",""24948""
""blur"",""11"",""33046""
""focus"",""11"",""35380""
","""event"",""trial"",""time""
""blur"",""11"",""22173""
""blur"",""11"",""33046""
","""event"",""trial"",""time""
""focus"",""11"",""24948""
""focus"",""11"",""35380""
","""event"",""trial"",""time""
""fullscreenenter"",""5"",""9303""
","
","","","","","","","","","","","","","","","","","","","","","",""
"d3-instructions","57","189764","0.0-57.0","2617","5845","9","Male","true","true","false","true","""event"",""trial"",""time""
""fullscreenenter"",""5"",""9303""
""blur"",""11"",""22173""
""focus"",""11"",""24948""
""blur"",""11"",""33046""
""focus"",""11"",""35380""
","""event"",""trial"",""time""
""blur"",""11"",""22173""
""blur"",""11"",""33046""
","""event"",""trial"",""time""
""focus"",""11"",""24948""
""focus"",""11"",""35380""
","""event"",""trial"",""time""
""fullscreenenter"",""5"",""9303""
","
","","","","","","","","","","","","","","","","","","","","","",""
"d3-instructions","58","194408","0.0-58.0","2617","5845","9","Male","true","true","false","true","""event"",""trial"",""time""
""fullscreenenter"",""5"",""9303""
""blur"",""11"",""22173""
""focus"",""11"",""24948""
""blur"",""11"",""33046""
""focus"",""11"",""35380""
","""event"",""trial"",""time""
""blur"",""11"",""22173""
""blur"",""11"",""33046""
","""event"",""trial"",""time""
""focus"",""11"",""24948""
""focus"",""11"",""35380""
","""event"",""trial"",""time""
""fullscreenenter"",""5"",""9303""
","
","","","","","","","","","","","","","","","","","","","","","",""
"d3-instructions","59","199500","0.0-59.0","2617","5845","9","Male","true","true","false","true","""event"",""trial"",""time""
""fullscreenenter"",""5"",""9303""
""blur"",""11"",""22173""
""focus"",""11"",""24948""
""blur"",""11"",""33046""
""focus"",""11"",""35380""
","""event"",""trial"",""time""
""blur"",""11"",""22173""
""blur"",""11"",""33046""
","""event"",""trial"",""time""
""focus"",""11"",""24948""
""focus"",""11"",""35380""
","""event"",""trial"",""time""
""fullscreenenter"",""5"",""9303""
","
","","","","","","","","","","","","","","","","","","","","","",""
"d3-instructions","60","202527","0.0-60.0","2617","5845","9","Male","true","true","false","true","""event"",""trial"",""time""
""fullscreenenter"",""5"",""9303""
""blur"",""11"",""22173""
""focus"",""11"",""24948""
""blur"",""11"",""33046""
""focus"",""11"",""35380""
","""event"",""trial"",""time""
""blur"",""11"",""22173""
""blur"",""11"",""33046""
","""event"",""trial"",""time""
""focus"",""11"",""24948""
""focus"",""11"",""35380""
","""event"",""trial"",""time""
""fullscreenenter"",""5"",""9303""
","
","","","","","","","","","","","","","","","","","","","","","",""
"d3-animate-choice","61","205233","0.0-61.0-0.0","2617","5845","9","Male","true","true","false","true","""event"",""trial"",""time""
""fullscreenenter"",""5"",""9303""
""blur"",""11"",""22173""
""focus"",""11"",""24948""
""blur"",""11"",""33046""
""focus"",""11"",""35380""
","""event"",""trial"",""time""
""blur"",""11"",""22173""
""blur"",""11"",""33046""
","""event"",""trial"",""time""
""focus"",""11"",""24948""
""focus"",""11"",""35380""
","""event"",""trial"",""time""
""fullscreenenter"",""5"",""9303""
","
","697.1999999992549","","49","","","3000","1","","","images/earth.jpg","images/tutrocket2","images/tutrocket1","null","images/tutrocket1","","1","practice","null","1","","",""
"d3-animate-choice","62","208228","0.0-61.0-1.0","2617","5845","9","Male","true","true","false","true","""event"",""trial"",""time""
""fullscreenenter"",""5"",""9303""
""blur"",""11"",""22173""
""focus"",""11"",""24948""
""blur"",""11"",""33046""
""focus"",""11"",""35380""
","""event"",""trial"",""time""
""blur"",""11"",""22173""
""blur"",""11"",""33046""
","""event"",""trial"",""time""
""focus"",""11"",""24948""
""focus"",""11"",""35380""
","""event"",""trial"",""time""
""fullscreenenter"",""5"",""9303""
","
","989.5999999977648","","48","","","3000","1","","","images/tutgreenplanet.jpg","images/tutalien2","images/tutalien1","images/tutrocket1","images/tutalien2","images/nothing.png","2","practice","true","2","common","0","2023-01-24 22:39:00.550"
"two-step-fixation","63","209232","0.0-61.0-2.0","2617","5845","9","Male","true","true","false","true","""event"",""trial"",""time""
""fullscreenenter"",""5"",""9303""
""blur"",""11"",""22173""
""focus"",""11"",""24948""
""blur"",""11"",""33046""
""focus"",""11"",""35380""
","""event"",""trial"",""time""
""blur"",""11"",""22173""
""blur"",""11"",""33046""
","""event"",""trial"",""time""
""focus"",""11"",""24948""
""focus"",""11"",""35380""
","""event"",""trial"",""time""
""fullscreenenter"",""5"",""9303""
","
","","images/earth.jpg","","","","","","","","","","","","","","fixation","","","","","",""
"d3-animate-choice","64","212570","0.0-61.0-0.1","2617","5845","9","Male","true","true","false","true","""event"",""trial"",""time""
""fullscreenenter"",""5"",""9303""
""blur"",""11"",""22173""
""focus"",""11"",""24948""
""blur"",""11"",""33046""
""focus"",""11"",""35380""
","""event"",""trial"",""time""
""blur"",""11"",""22173""
""blur"",""11"",""33046""
","""event"",""trial"",""time""
""focus"",""11"",""24948""
""focus"",""11"",""35380""
","""event"",""trial"",""time""
""fullscreenenter"",""5"",""9303""
","
","1333.0999999977648","","48","","","3000","1","","","images/earth.jpg","images/tutrocket2","images/tutrocket1","null","images/tutrocket2","","1","practice","null","2","","",""
"d3-animate-choice","65","215292","0.0-61.0-1.1","2617","5845","9","Male","true","true","false","true","""event"",""trial"",""time""
""fullscreenenter"",""5"",""9303""
""blur"",""11"",""22173""
""focus"",""11"",""24948""
""blur"",""11"",""33046""
""focus"",""11"",""35380""
","""event"",""trial"",""time""
""blur"",""11"",""22173""
""blur"",""11"",""33046""
","""event"",""trial"",""time""
""focus"",""11"",""24948""
""focus"",""11"",""35380""
","""event"",""trial"",""time""
""fullscreenenter"",""5"",""9303""
","
","708.2999999970198","","49","","","3000","1","","","images/tutyellowplanet.jpg","images/tutalien4","images/tutalien3","images/tutrocket2","images/tutalien3","images/nothing.png","2","practice","true","1","common","0","2023-01-24 22:39:07.614"
"two-step-fixation","66","216300","0.0-61.0-2.1","2617","5845","9","Male","true","true","false","true","""event"",""trial"",""time""
""fullscreenenter"",""5"",""9303""
""blur"",""11"",""22173""
""focus"",""11"",""24948""
""blur"",""11"",""33046""
""focus"",""11"",""35380""
","""event"",""trial"",""time""
""blur"",""11"",""22173""
""blur"",""11"",""33046""
","""event"",""trial"",""time""
""focus"",""11"",""24948""
""focus"",""11"",""35380""
","""event"",""trial"",""time""
""fullscreenenter"",""5"",""9303""
","
","","images/earth.jpg","","","","","","","","","","","","","","fixation","","","","","",""
"d3-animate-choice","67","218988","0.0-61.0-0.2","2617","5845","9","Male","true","true","false","true","""event"",""trial"",""time""
""fullscreenenter"",""5"",""9303""
""blur"",""11"",""22173""
""focus"",""11"",""24948""
""blur"",""11"",""33046""
""focus"",""11"",""35380""
","""event"",""trial"",""time""
""blur"",""11"",""22173""
""blur"",""11"",""33046""
","""event"",""trial"",""time""
""focus"",""11"",""24948""
""focus"",""11"",""35380""
","""event"",""trial"",""time""
""fullscreenenter"",""5"",""9303""
","
","681.5999999977648","","48","","","3000","1","1351.5999999977648","49","images/earth.jpg","images/tutrocket2","images/tutrocket1","null","images/tutrocket2","","1","practice","null","2","","",""
"d3-animate-choice","68","221643","0.0-61.0-1.2","2617","5845","9","Male","true","true","false","true","""event"",""trial"",""time""
""fullscreenenter"",""5"",""9303""
""blur"",""11"",""22173""
""focus"",""11"",""24948""
""blur"",""11"",""33046""
""focus"",""11"",""35380""
","""event"",""trial"",""time""
""blur"",""11"",""22173""
""blur"",""11"",""33046""
","""event"",""trial"",""time""
""focus"",""11"",""24948""
""focus"",""11"",""35380""
","""event"",""trial"",""time""
""fullscreenenter"",""5"",""9303""
","
","642.5999999977648","","49","","","3000","1","","","images/tutgreenplanet.jpg","images/tutalien2","images/tutalien1","images/tutrocket2","images/tutalien1","images/nothing.png","2","practice","false","1","rare","0","2023-01-24 22:39:13.965"
"two-step-fixation","69","222651","0.0-61.0-2.2","2617","5845","9","Male","true","true","false","true","""event"",""trial"",""time""
""fullscreenenter"",""5"",""9303""
""blur"",""11"",""22173""
""focus"",""11"",""24948""
""blur"",""11"",""33046""
""focus"",""11"",""35380""
","""event"",""trial"",""time""
""blur"",""11"",""22173""
""blur"",""11"",""33046""
","""event"",""trial"",""time""
""focus"",""11"",""24948""
""focus"",""11"",""35380""
","""event"",""trial"",""time""
""fullscreenenter"",""5"",""9303""
","
","","images/earth.jpg","","","","","","","","","","","","","","fixation","","","","","",""
"d3-animate-choice","70","225619","0.0-61.0-0.3","2617","5845","9","Male","true","true","false","true","""event"",""trial"",""time""
""fullscreenenter"",""5"",""9303""
""blur"",""11"",""22173""
""focus"",""11"",""24948""
""blur"",""11"",""33046""
""focus"",""11"",""35380""
","""event"",""trial"",""time""
""blur"",""11"",""22173""
""blur"",""11"",""33046""
","""event"",""trial"",""time""
""focus"",""11"",""24948""
""focus"",""11"",""35380""
","""event"",""trial"",""time""
""fullscreenenter"",""5"",""9303""
","
","956.3000000007451","","49","","","3000","1","","","images/earth.jpg","images/tutrocket2","images/tutrocket1","null","images/tutrocket1","","1","practice","null","1","","",""
"d3-animate-choice","71","228819","0.0-61.0-1.3","2617","5845","9","Male","true","true","false","true","""event"",""trial"",""time""
""fullscreenenter"",""5"",""9303""
""blur"",""11"",""22173""
""focus"",""11"",""24948""
""blur"",""11"",""33046""
""focus"",""11"",""35380""
","""event"",""trial"",""time""
""blur"",""11"",""22173""
""blur"",""11"",""33046""
","""event"",""trial"",""time""
""focus"",""11"",""24948""
""focus"",""11"",""35380""
","""event"",""trial"",""time""
""fullscreenenter"",""5"",""9303""
","
","1195","","48","","","3000","1","","","images/tutgreenplanet.jpg","images/tutalien2","images/tutalien1","images/tutrocket1","images/tutalien2","images/nothing.png","2","practice","true","2","common","0","2023-01-24 22:39:21.141"
"two-step-fixation","72","229828","0.0-61.0-2.3","2617","5845","9","Male","true","true","false","true","""event"",""trial"",""time""
""fullscreenenter"",""5"",""9303""
""blur"",""11"",""22173""
""focus"",""11"",""24948""
""blur"",""11"",""33046""
""focus"",""11"",""35380""
","""event"",""trial"",""time""
""blur"",""11"",""22173""
""blur"",""11"",""33046""
","""event"",""trial"",""time""
""focus"",""11"",""24948""
""focus"",""11"",""35380""
","""event"",""trial"",""time""
""fullscreenenter"",""5"",""9303""
","
","","images/earth.jpg","","","","","","","","","","","","","","fixation","","","","","",""
"d3-animate-choice","73","232516","0.0-61.0-0.4","2617","5845","9","Male","true","true","false","true","""event"",""trial"",""time""
""fullscreenenter"",""5"",""9303""
""blur"",""11"",""22173""
""focus"",""11"",""24948""
""blur"",""11"",""33046""
""focus"",""11"",""35380""
","""event"",""trial"",""time""
""blur"",""11"",""22173""
""blur"",""11"",""33046""
","""event"",""trial"",""time""
""focus"",""11"",""24948""
""focus"",""11"",""35380""
","""event"",""trial"",""time""
""fullscreenenter"",""5"",""9303""
","
","679.3000000007451","","48","","","3000","1","1166.699999999255,1420.800000000745,2155.39999999851","48,39,39","images/earth.jpg","images/tutrocket2","images/tutrocket1","null","images/tutrocket2","","1","practice","null","2","","",""
"d3-animate-choice","74","235982","0.0-61.0-1.4","2617","5845","9","Male","true","true","false","true","""event"",""trial"",""time""
""fullscreenenter"",""5"",""9303""
""blur"",""11"",""22173""
""focus"",""11"",""24948""
""blur"",""11"",""33046""
""focus"",""11"",""35380""
","""event"",""trial"",""time""
""blur"",""11"",""22173""
""blur"",""11"",""33046""
","""event"",""trial"",""time""
""focus"",""11"",""24948""
""focus"",""11"",""35380""
","""event"",""trial"",""time""
""fullscreenenter"",""5"",""9303""
","
","1451.3999999985099","","48","","","3000","1","3230.300000000745","39","images/tutyellowplanet.jpg","images/tutalien4","images/tutalien3","images/tutrocket2","images/tutalien4","images/nothing.png","2","practice","true","2","common","0","2023-01-24 22:39:28.304"
"two-step-fixation","75","236991","0.0-61.0-2.4","2617","5845","9","Male","true","true","false","true","""event"",""trial"",""time""
""fullscreenenter"",""5"",""9303""
""blur"",""11"",""22173""
""focus"",""11"",""24948""
""blur"",""11"",""33046""
""focus"",""11"",""35380""
","""event"",""trial"",""time""
""blur"",""11"",""22173""
""blur"",""11"",""33046""
","""event"",""trial"",""time""
""focus"",""11"",""24948""
""focus"",""11"",""35380""
","""event"",""trial"",""time""
""fullscreenenter"",""5"",""9303""
","
","","images/earth.jpg","","","","","","","","","","","","","","fixation","","","","","",""
"d3-animate-choice","76","239251","0.0-61.0-0.5","2617","5845","9","Male","true","true","false","true","""event"",""trial"",""time""
""fullscreenenter"",""5"",""9303""
""blur"",""11"",""22173""
""focus"",""11"",""24948""
""blur"",""11"",""33046""
""focus"",""11"",""35380""
","""event"",""trial"",""time""
""blur"",""11"",""22173""
""blur"",""11"",""33046""
","""event"",""trial"",""time""
""focus"",""11"",""24948""
""focus"",""11"",""35380""
","""event"",""trial"",""time""
""fullscreenenter"",""5"",""9303""
","
","96","","35","","","3000","1","254.39999999850988,621,654.6999999992549,846.5999999977648,1107.5999999977648,1182.5,1311.199999999255,1342.699999999255,2026.0999999977648","49,49,38,39,16,35,16,35,38","images/earth.jpg","images/tutrocket2","images/tutrocket1","null","images/tutrocket1","","1","practice","null","","","",""
"d3-animate-choice","77","241703","0.0-61.0-1.5","2617","5845","9","Male","true","true","false","true","""event"",""trial"",""time""
""fullscreenenter"",""5"",""9303""
""blur"",""11"",""22173""
""focus"",""11"",""24948""
""blur"",""11"",""33046""
""focus"",""11"",""35380""
","""event"",""trial"",""time""
""blur"",""11"",""22173""
""blur"",""11"",""33046""
","""event"",""trial"",""time""
""focus"",""11"",""24948""
""focus"",""11"",""35380""
","""event"",""trial"",""time""
""fullscreenenter"",""5"",""9303""
","
","441.5","","48","","","3000","1","842.3999999985099,1022.3999999985099,1148.2999999970198,1257.0999999977648","38,38,16,35","images/tutgreenplanet.jpg","images/tutalien2","images/tutalien1","images/tutrocket1","images/tutalien2","images/nothing.png","2","practice","true","2","common","0","2023-01-24 22:39:34.025"
"two-step-fixation","78","242709","0.0-61.0-2.5","2617","5845","9","Male","true","true","false","true","""event"",""trial"",""time""
""fullscreenenter"",""5"",""9303""
""blur"",""11"",""22173""
""focus"",""11"",""24948""
""blur"",""11"",""33046""
""focus"",""11"",""35380""
","""event"",""trial"",""time""
""blur"",""11"",""22173""
""blur"",""11"",""33046""
","""event"",""trial"",""time""
""focus"",""11"",""24948""
""focus"",""11"",""35380""
","""event"",""trial"",""time""
""fullscreenenter"",""5"",""9303""
","
","","images/earth.jpg","","","","","","","","","","","","","","fixation","","","","","",""
"d3-animate-choice","79","245182","0.0-61.0-0.6","2617","5845","9","Male","true","true","false","true","""event"",""trial"",""time""
""fullscreenenter"",""5"",""9303""
""blur"",""11"",""22173""
""focus"",""11"",""24948""
""blur"",""11"",""33046""
""focus"",""11"",""35380""
","""event"",""trial"",""time""
""blur"",""11"",""22173""
""blur"",""11"",""33046""
","""event"",""trial"",""time""
""focus"",""11"",""24948""
""focus"",""11"",""35380""
","""event"",""trial"",""time""
""fullscreenenter"",""5"",""9303""
","
","460.1000000014901","","49","","","3000","1","","","images/earth.jpg","images/tutrocket2","images/tutrocket1","null","images/tutrocket1","","1","practice","null","1","","",""
"d3-animate-choice","80","248329","0.0-61.0-1.6","2617","5845","9","Male","true","true","false","true","""event"",""trial"",""time""
""fullscreenenter"",""5"",""9303""
""blur"",""11"",""22173""
""focus"",""11"",""24948""
""blur"",""11"",""33046""
""focus"",""11"",""35380""
","""event"",""trial"",""time""
""blur"",""11"",""22173""
""blur"",""11"",""33046""
","""event"",""trial"",""time""
""focus"",""11"",""24948""
""focus"",""11"",""35380""
","""event"",""trial"",""time""
""fullscreenenter"",""5"",""9303""
","
","1141.8999999985099","","48","","","3000","1","","","images/tutgreenplanet.jpg","images/tutalien2","images/tutalien1","images/tutrocket1","images/tutalien2","images/nothing.png","2","practice","true","2","common","0","2023-01-24 22:39:40.651"
"two-step-fixation","81","249355","0.0-61.0-2.6","2617","5845","9","Male","true","true","false","true","""event"",""trial"",""time""
""fullscreenenter"",""5"",""9303""
""blur"",""11"",""22173""
""focus"",""11"",""24948""
""blur"",""11"",""33046""
""focus"",""11"",""35380""
","""event"",""trial"",""time""
""blur"",""11"",""22173""
""blur"",""11"",""33046""
","""event"",""trial"",""time""
""focus"",""11"",""24948""
""focus"",""11"",""35380""
","""event"",""trial"",""time""
""fullscreenenter"",""5"",""9303""
","
","","images/earth.jpg","","","","","","","","","","","","","","fixation","","","","","",""
"d3-animate-choice","82","252523","0.0-61.0-0.7","2617","5845","9","Male","true","true","false","true","""event"",""trial"",""time""
""fullscreenenter"",""5"",""9303""
""blur"",""11"",""22173""
""focus"",""11"",""24948""
""blur"",""11"",""33046""
""focus"",""11"",""35380""
","""event"",""trial"",""time""
""blur"",""11"",""22173""
""blur"",""11"",""33046""
","""event"",""trial"",""time""
""focus"",""11"",""24948""
""focus"",""11"",""35380""
","""event"",""trial"",""time""
""fullscreenenter"",""5"",""9303""
","
","1151.1000000014901","","49","","","3000","1","","","images/earth.jpg","images/tutrocket2","images/tutrocket1","null","images/tutrocket1","","1","practice","null","1","","",""
"d3-animate-choice","83","255799","0.0-61.0-1.7","2617","5845","9","Male","true","true","false","true","""event"",""trial"",""time""
""fullscreenenter"",""5"",""9303""
""blur"",""11"",""22173""
""focus"",""11"",""24948""
""blur"",""11"",""33046""
""focus"",""11"",""35380""
","""event"",""trial"",""time""
""blur"",""11"",""22173""
""blur"",""11"",""33046""
","""event"",""trial"",""time""
""focus"",""11"",""24948""
""focus"",""11"",""35380""
","""event"",""trial"",""time""
""fullscreenenter"",""5"",""9303""
","
","1264.4000000022352","","48","","","3000","1","","","images/tutgreenplanet.jpg","images/tutalien2","images/tutalien1","images/tutrocket1","images/tutalien2","images/nothing.png","2","practice","true","2","common","0","2023-01-24 22:39:48.121"
"two-step-fixation","84","256807","0.0-61.0-2.7","2617","5845","9","Male","true","true","false","true","""event"",""trial"",""time""
""fullscreenenter"",""5"",""9303""
""blur"",""11"",""22173""
""focus"",""11"",""24948""
""blur"",""11"",""33046""
""focus"",""11"",""35380""
","""event"",""trial"",""time""
""blur"",""11"",""22173""
""blur"",""11"",""33046""
","""event"",""trial"",""time""
""focus"",""11"",""24948""
""focus"",""11"",""35380""
","""event"",""trial"",""time""
""fullscreenenter"",""5"",""9303""
","
","","images/earth.jpg","","","","","","","","","","","","","","fixation","","","","","",""
"d3-animate-choice","85","259679","0.0-61.0-0.8","2617","5845","9","Male","true","true","false","true","""event"",""trial"",""time""
""fullscreenenter"",""5"",""9303""
""blur"",""11"",""22173""
""focus"",""11"",""24948""
""blur"",""11"",""33046""
""focus"",""11"",""35380""
","""event"",""trial"",""time""
""blur"",""11"",""22173""
""blur"",""11"",""33046""
","""event"",""trial"",""time""
""focus"",""11"",""24948""
""focus"",""11"",""35380""
","""event"",""trial"",""time""
""fullscreenenter"",""5"",""9303""
","
","864.1999999992549","","49","","","3000","1","","","images/earth.jpg","images/tutrocket2","images/tutrocket1","null","images/tutrocket1","","1","practice","null","1","","",""
"d3-animate-choice","86","263341","0.0-61.0-1.8","2617","5845","9","Male","true","true","false","true","""event"",""trial"",""time""
""fullscreenenter"",""5"",""9303""
""blur"",""11"",""22173""
""focus"",""11"",""24948""
""blur"",""11"",""33046""
""focus"",""11"",""35380""
","""event"",""trial"",""time""
""blur"",""11"",""22173""
""blur"",""11"",""33046""
","""event"",""trial"",""time""
""focus"",""11"",""24948""
""focus"",""11"",""35380""
","""event"",""trial"",""time""
""fullscreenenter"",""5"",""9303""
","
","1656.1000000014901","","49","","","3000","1","","","images/tutyellowplanet.jpg","images/tutalien4","images/tutalien3","images/tutrocket1","images/tutalien3","images/t.png","2","practice","false","1","rare","1","2023-01-24 22:39:55.663"
"two-step-fixation","87","264354","0.0-61.0-2.8","2617","5845","9","Male","true","true","false","true","""event"",""trial"",""time""
""fullscreenenter"",""5"",""9303""
""blur"",""11"",""22173""
""focus"",""11"",""24948""
""blur"",""11"",""33046""
""focus"",""11"",""35380""
","""event"",""trial"",""time""
""blur"",""11"",""22173""
""blur"",""11"",""33046""
","""event"",""trial"",""time""
""focus"",""11"",""24948""
""focus"",""11"",""35380""
","""event"",""trial"",""time""
""fullscreenenter"",""5"",""9303""
","
","","images/earth.jpg","","","","","","","","","","","","","","fixation","","","","","",""
"d3-animate-choice","88","267222","0.0-61.0-0.9","2617","5845","9","Male","true","true","false","true","""event"",""trial"",""time""
""fullscreenenter"",""5"",""9303""
""blur"",""11"",""22173""
""focus"",""11"",""24948""
""blur"",""11"",""33046""
""focus"",""11"",""35380""
","""event"",""trial"",""time""
""blur"",""11"",""22173""
""blur"",""11"",""33046""
","""event"",""trial"",""time""
""focus"",""11"",""24948""
""focus"",""11"",""35380""
","""event"",""trial"",""time""
""fullscreenenter"",""5"",""9303""
","
","859.9000000022352","","48","","","3000","1","","","images/earth.jpg","images/tutrocket2","images/tutrocket1","null","images/tutrocket2","","1","practice","null","2","","",""
"d3-animate-choice","89","270038","0.0-61.0-1.9","2617","5845","9","Male","true","true","false","true","""event"",""trial"",""time""
""fullscreenenter"",""5"",""9303""
""blur"",""11"",""22173""
""focus"",""11"",""24948""
""blur"",""11"",""33046""
""focus"",""11"",""35380""
","""event"",""trial"",""time""
""blur"",""11"",""22173""
""blur"",""11"",""33046""
","""event"",""trial"",""time""
""focus"",""11"",""24948""
""focus"",""11"",""35380""
","""event"",""trial"",""time""
""fullscreenenter"",""5"",""9303""
","
","809","","48","","","3000","1","","","images/tutgreenplanet.jpg","images/tutalien2","images/tutalien1","images/tutrocket2","images/tutalien2","images/nothing.png","2","practice","false","2","rare","0","2023-01-24 22:40:02.360"
"two-step-fixation","90","271058","0.0-61.0-2.9","2617","5845","9","Male","true","true","false","true","""event"",""trial"",""time""
""fullscreenenter"",""5"",""9303""
""blur"",""11"",""22173""
""focus"",""11"",""24948""
""blur"",""11"",""33046""
""focus"",""11"",""35380""
","""event"",""trial"",""time""
""blur"",""11"",""22173""
""blur"",""11"",""33046""
","""event"",""trial"",""time""
""focus"",""11"",""24948""
""focus"",""11"",""35380""
","""event"",""trial"",""time""
""fullscreenenter"",""5"",""9303""
","
","","images/earth.jpg","","","","","","","","","","","","","","fixation","","","","","",""
"d3-animate-choice","91","274634","0.0-61.0-0.10","2617","5845","9","Male","true","true","false","true","""event"",""trial"",""time""
""fullscreenenter"",""5"",""9303""
""blur"",""11"",""22173""
""focus"",""11"",""24948""
""blur"",""11"",""33046""
""focus"",""11"",""35380""
","""event"",""trial"",""time""
""blur"",""11"",""22173""
""blur"",""11"",""33046""
","""event"",""trial"",""time""
""focus"",""11"",""24948""
""focus"",""11"",""35380""
","""event"",""trial"",""time""
""fullscreenenter"",""5"",""9303""
","
","1557.8999999985099","","49","","","3000","1","","","images/earth.jpg","images/tutrocket2","images/tutrocket1","null","images/tutrocket1","","1","practice","null","1","","",""
"d3-animate-choice","92","278130","0.0-61.0-1.10","2617","5845","9","Male","true","true","false","true","""event"",""trial"",""time""
""fullscreenenter"",""5"",""9303""
""blur"",""11"",""22173""
""focus"",""11"",""24948""
""blur"",""11"",""33046""
""focus"",""11"",""35380""
","""event"",""trial"",""time""
""blur"",""11"",""22173""
""blur"",""11"",""33046""
","""event"",""trial"",""time""
""focus"",""11"",""24948""
""focus"",""11"",""35380""
","""event"",""trial"",""time""
""fullscreenenter"",""5"",""9303""
","
","1479.4000000022352","","48","","","3000","1","","","images/tutgreenplanet.jpg","images/tutalien2","images/tutalien1","images/tutrocket1","images/tutalien2","images/nothing.png","2","practice","true","2","common","0","2023-01-24 22:40:10.452"
"two-step-fixation","93","279139","0.0-61.0-2.10","2617","5845","9","Male","true","true","false","true","""event"",""trial"",""time""
""fullscreenenter"",""5"",""9303""
""blur"",""11"",""22173""
""focus"",""11"",""24948""
""blur"",""11"",""33046""
""focus"",""11"",""35380""
","""event"",""trial"",""time""
""blur"",""11"",""22173""
""blur"",""11"",""33046""
","""event"",""trial"",""time""
""focus"",""11"",""24948""
""focus"",""11"",""35380""
","""event"",""trial"",""time""
""fullscreenenter"",""5"",""9303""
","
","","images/earth.jpg","","","","","","","","","","","","","","fixation","","","","","",""
"d3-animate-choice","94","282862","0.0-61.0-0.11","2617","5845","9","Male","true","true","false","true","""event"",""trial"",""time""
""fullscreenenter"",""5"",""9303""
""blur"",""11"",""22173""
""focus"",""11"",""24948""
""blur"",""11"",""33046""
""focus"",""11"",""35380""
","""event"",""trial"",""time""
""blur"",""11"",""22173""
""blur"",""11"",""33046""
","""event"",""trial"",""time""
""focus"",""11"",""24948""
""focus"",""11"",""35380""
","""event"",""trial"",""time""
""fullscreenenter"",""5"",""9303""
","
","1715.199999999255","","48","","","3000","1","","","images/earth.jpg","images/tutrocket2","images/tutrocket1","null","images/tutrocket2","","1","practice","null","2","","",""
"d3-animate-choice","95","286057","0.0-61.0-1.11","2617","5845","9","Male","true","true","false","true","""event"",""trial"",""time""
""fullscreenenter"",""5"",""9303""
""blur"",""11"",""22173""
""focus"",""11"",""24948""
""blur"",""11"",""33046""
""focus"",""11"",""35380""
","""event"",""trial"",""time""
""blur"",""11"",""22173""
""blur"",""11"",""33046""
","""event"",""trial"",""time""
""focus"",""11"",""24948""
""focus"",""11"",""35380""
","""event"",""trial"",""time""
""fullscreenenter"",""5"",""9303""
","
","1161.300000000745","","57","","","3000","1","1179.5","48","images/tutyellowplanet.jpg","images/tutalien4","images/tutalien3","images/tutrocket2","images/tutalien4","images/t.png","2","practice","true","","common","1","2023-01-24 22:40:18.379"
"two-step-fixation","96","287078","0.0-61.0-2.11","2617","5845","9","Male","true","true","false","true","""event"",""trial"",""time""
""fullscreenenter"",""5"",""9303""
""blur"",""11"",""22173""
""focus"",""11"",""24948""
""blur"",""11"",""33046""
""focus"",""11"",""35380""
","""event"",""trial"",""time""
""blur"",""11"",""22173""
""blur"",""11"",""33046""
","""event"",""trial"",""time""
""focus"",""11"",""24948""
""focus"",""11"",""35380""
","""event"",""trial"",""time""
""fullscreenenter"",""5"",""9303""
","
","","images/earth.jpg","","","","","","","","","","","","","","fixation","","","","","",""
"d3-animate-choice","97","289226","0.0-61.0-0.12","2617","5845","9","Male","true","true","false","true","""event"",""trial"",""time""
""fullscreenenter"",""5"",""9303""
""blur"",""11"",""22173""
""focus"",""11"",""24948""
""blur"",""11"",""33046""
""focus"",""11"",""35380""
","""event"",""trial"",""time""
""blur"",""11"",""22173""
""blur"",""11"",""33046""
","""event"",""trial"",""time""
""focus"",""11"",""24948""
""focus"",""11"",""35380""
","""event"",""trial"",""time""
""fullscreenenter"",""5"",""9303""
","
","143.80000000074506","","49","","","3000","1","206.80000000074506,317.6000000014901,326.19999999925494","39,49,39","images/earth.jpg","images/tutrocket2","images/tutrocket1","null","images/tutrocket1","","1","practice","null","1","","",""
"d3-animate-choice","98","291815","0.0-61.0-1.12","2617","5845","9","Male","true","true","false","true","""event"",""trial"",""time""
""fullscreenenter"",""5"",""9303""
""blur"",""11"",""22173""
""focus"",""11"",""24948""
""blur"",""11"",""33046""
""focus"",""11"",""35380""
","""event"",""trial"",""time""
""blur"",""11"",""22173""
""blur"",""11"",""33046""
","""event"",""trial"",""time""
""focus"",""11"",""24948""
""focus"",""11"",""35380""
","""event"",""trial"",""time""
""fullscreenenter"",""5"",""9303""
","
","573.3000000007451","","49","","","3000","1","","","images/tutgreenplanet.jpg","images/tutalien2","images/tutalien1","images/tutrocket1","images/tutalien1","images/nothing.png","2","practice","true","1","common","0","2023-01-24 22:40:24.137"
"two-step-fixation","99","292822","0.0-61.0-2.12","2617","5845","9","Male","true","true","false","true","""event"",""trial"",""time""
""fullscreenenter"",""5"",""9303""
""blur"",""11"",""22173""
""focus"",""11"",""24948""
""blur"",""11"",""33046""
""focus"",""11"",""35380""
","""event"",""trial"",""time""
""blur"",""11"",""22173""
""blur"",""11"",""33046""
","""event"",""trial"",""time""
""focus"",""11"",""24948""
""focus"",""11"",""35380""
","""event"",""trial"",""time""
""fullscreenenter"",""5"",""9303""
","
","","images/earth.jpg","","","","","","","","","","","","","","fixation","","","","","",""
"d3-animate-choice","100","296354","0.0-61.0-0.13","2617","5845","9","Male","true","true","false","true","""event"",""trial"",""time""
""fullscreenenter"",""5"",""9303""
""blur"",""11"",""22173""
""focus"",""11"",""24948""
""blur"",""11"",""33046""
""focus"",""11"",""35380""
","""event"",""trial"",""time""
""blur"",""11"",""22173""
""blur"",""11"",""33046""
","""event"",""trial"",""time""
""focus"",""11"",""24948""
""focus"",""11"",""35380""
","""event"",""trial"",""time""
""fullscreenenter"",""5"",""9303""
","
","1504.699999999255","","81","","","3000","1","1508.8999999985099","48","images/earth.jpg","images/tutrocket2","images/tutrocket1","null","images/tutrocket2","","1","practice","null","","","",""
"d3-animate-choice","101","300039","0.0-61.0-1.13","2617","5845","9","Male","true","true","false","true","""event"",""trial"",""time""
""fullscreenenter"",""5"",""9303""
""blur"",""11"",""22173""
""focus"",""11"",""24948""
""blur"",""11"",""33046""
""focus"",""11"",""35380""
","""event"",""trial"",""time""
""blur"",""11"",""22173""
""blur"",""11"",""33046""
","""event"",""trial"",""time""
""focus"",""11"",""24948""
""focus"",""11"",""35380""
","""event"",""trial"",""time""
""fullscreenenter"",""5"",""9303""
","
","1669.199999999255","","81","","","3000","1","1672.800000000745","48","images/tutyellowplanet.jpg","images/tutalien4","images/tutalien3","images/tutrocket2","images/tutalien4","images/nothing.png","2","practice","true","","common","0","2023-01-24 22:40:32.361"
"two-step-fixation","102","301046","0.0-61.0-2.13","2617","5845","9","Male","true","true","false","true","""event"",""trial"",""time""
""fullscreenenter"",""5"",""9303""
""blur"",""11"",""22173""
""focus"",""11"",""24948""
""blur"",""11"",""33046""
""focus"",""11"",""35380""
","""event"",""trial"",""time""
""blur"",""11"",""22173""
""blur"",""11"",""33046""
","""event"",""trial"",""time""
""focus"",""11"",""24948""
""focus"",""11"",""35380""
","""event"",""trial"",""time""
""fullscreenenter"",""5"",""9303""
","
","","images/earth.jpg","","","","","","","","","","","","","","fixation","","","","","",""
"d3-animate-choice","103","303688","0.0-61.0-0.14","2617","5845","9","Male","true","true","false","true","""event"",""trial"",""time""
""fullscreenenter"",""5"",""9303""
""blur"",""11"",""22173""
""focus"",""11"",""24948""
""blur"",""11"",""33046""
""focus"",""11"",""35380""
","""event"",""trial"",""time""
""blur"",""11"",""22173""
""blur"",""11"",""33046""
","""event"",""trial"",""time""
""focus"",""11"",""24948""
""focus"",""11"",""35380""
","""event"",""trial"",""time""
""fullscreenenter"",""5"",""9303""
","
","626.3000000007451","","48","","","3000","1","656.3000000007451","81","images/earth.jpg","images/tutrocket2","images/tutrocket1","null","images/tutrocket2","","1","practice","null","2","","",""
"d3-animate-choice","104","307705","0.0-61.0-1.14","2617","5845","9","Male","true","true","false","true","""event"",""trial"",""time""
""fullscreenenter"",""5"",""9303""
""blur"",""11"",""22173""
""focus"",""11"",""24948""
""blur"",""11"",""33046""
""focus"",""11"",""35380""
","""event"",""trial"",""time""
""blur"",""11"",""22173""
""blur"",""11"",""33046""
","""event"",""trial"",""time""
""focus"",""11"",""24948""
""focus"",""11"",""35380""
","""event"",""trial"",""time""
""fullscreenenter"",""5"",""9303""
","
","2488.199999999255","","49","","","3000","1","2620.89999999851","48","images/tutyellowplanet.jpg","images/tutalien4","images/tutalien3","images/tutrocket2","images/tutalien3","images/nothing.png","2","practice","true","1","common","0","2023-01-24 22:40:40.027"
"two-step-fixation","105","308710","0.0-61.0-2.14","2617","5845","9","Male","true","true","false","true","""event"",""trial"",""time""
""fullscreenenter"",""5"",""9303""
""blur"",""11"",""22173""
""focus"",""11"",""24948""
""blur"",""11"",""33046""
""focus"",""11"",""35380""
","""event"",""trial"",""time""
""blur"",""11"",""22173""
""blur"",""11"",""33046""
","""event"",""trial"",""time""
""focus"",""11"",""24948""
""focus"",""11"",""35380""
","""event"",""trial"",""time""
""fullscreenenter"",""5"",""9303""
","
","","images/earth.jpg","","","","","","","","","","","","","","fixation","","","","","",""
"d3-animate-choice","106","311425","0.0-61.0-0.15","2617","5845","9","Male","true","true","false","true","""event"",""trial"",""time""
""fullscreenenter"",""5"",""9303""
""blur"",""11"",""22173""
""focus"",""11"",""24948""
""blur"",""11"",""33046""
""focus"",""11"",""35380""
","""event"",""trial"",""time""
""blur"",""11"",""22173""
""blur"",""11"",""33046""
","""event"",""trial"",""time""
""focus"",""11"",""24948""
""focus"",""11"",""35380""
","""event"",""trial"",""time""
""fullscreenenter"",""5"",""9303""
","
","705.2999999970198","","49","","","3000","1","707.5999999977648","48","images/earth.jpg","images/tutrocket2","images/tutrocket1","null","images/tutrocket1","","1","practice","null","1","","",""
"d3-animate-choice","107","314418","0.0-61.0-1.15","2617","5845","9","Male","true","true","false","true","""event"",""trial"",""time""
""fullscreenenter"",""5"",""9303""
""blur"",""11"",""22173""
""focus"",""11"",""24948""
""blur"",""11"",""33046""
""focus"",""11"",""35380""
","""event"",""trial"",""time""
""blur"",""11"",""22173""
""blur"",""11"",""33046""
","""event"",""trial"",""time""
""focus"",""11"",""24948""
""focus"",""11"",""35380""
","""event"",""trial"",""time""
""fullscreenenter"",""5"",""9303""
","
","989","","49","","","3000","1","991.4000000022352","48","images/tutgreenplanet.jpg","images/tutalien2","images/tutalien1","images/tutrocket1","images/tutalien1","images/nothing.png","2","practice","true","1","common","0","2023-01-24 22:40:46.740"
"two-step-fixation","108","315424","0.0-61.0-2.15","2617","5845","9","Male","true","true","false","true","""event"",""trial"",""time""
""fullscreenenter"",""5"",""9303""
""blur"",""11"",""22173""
""focus"",""11"",""24948""
""blur"",""11"",""33046""
""focus"",""11"",""35380""
","""event"",""trial"",""time""
""blur"",""11"",""22173""
""blur"",""11"",""33046""
","""event"",""trial"",""time""
""focus"",""11"",""24948""
""focus"",""11"",""35380""
","""event"",""trial"",""time""
""fullscreenenter"",""5"",""9303""
","
","","images/earth.jpg","","","","","","","","","","","","","","fixation","","","","","",""
"d3-animate-choice","109","318071","0.0-61.0-0.16","2617","5845","9","Male","true","true","false","true","""event"",""trial"",""time""
""fullscreenenter"",""5"",""9303""
""blur"",""11"",""22173""
""focus"",""11"",""24948""
""blur"",""11"",""33046""
""focus"",""11"",""35380""
","""event"",""trial"",""time""
""blur"",""11"",""22173""
""blur"",""11"",""33046""
","""event"",""trial"",""time""
""focus"",""11"",""24948""
""focus"",""11"",""35380""
","""event"",""trial"",""time""
""fullscreenenter"",""5"",""9303""
","
","634.8000000007451","","49","","","3000","1","637.7000000029802,654.8000000007451,1444.6000000014901,1448.5,1670.2000000029802,1673.2000000029802,1872.4000000022352,1891.7000000029802,2083.900000002235,2103.400000002235,2278.7000000029802,2319.10000000149,2470.5,2511.60000000149","48,16,49,48,49,48,49,48,49,48,49,48,49,48","images/earth.jpg","images/tutrocket2","images/tutrocket1","null","images/tutrocket1","","1","practice","null","1","","",""
"d3-animate-choice","110","320106","0.0-61.0-1.16","2617","5845","9","Male","true","true","false","true","""event"",""trial"",""time""
""fullscreenenter"",""5"",""9303""
""blur"",""11"",""22173""
""focus"",""11"",""24948""
""blur"",""11"",""33046""
""focus"",""11"",""35380""
","""event"",""trial"",""time""
""blur"",""11"",""22173""
""blur"",""11"",""33046""
","""event"",""trial"",""time""
""focus"",""11"",""24948""
""focus"",""11"",""35380""
","""event"",""trial"",""time""
""fullscreenenter"",""5"",""9303""
","
","26.200000002980232","","49","","","3000","1","56.600000001490116,279.5,281.9000000022352,461.1000000014901,549.8000000007451,716.9000000022352,837.9000000022352,992.4000000022352,1113.300000000745,1265.2000000029802,1387.1000000014901,1499.9000000022352,1641.300000000745,1732.2000000029802,1882.800000000745,2007.2000000029802","48,49,48,49,48,49,48,49,48,49,48,49,48,49,48,49","images/tutgreenplanet.jpg","images/tutalien2","images/tutalien1","images/tutrocket1","images/tutalien1","images/nothing.png","2","practice","true","1","common","0","2023-01-24 22:40:52.428"
"two-step-fixation","111","321120","0.0-61.0-2.16","2617","5845","9","Male","true","true","false","true","""event"",""trial"",""time""
""fullscreenenter"",""5"",""9303""
""blur"",""11"",""22173""
""focus"",""11"",""24948""
""blur"",""11"",""33046""
""focus"",""11"",""35380""
","""event"",""trial"",""time""
""blur"",""11"",""22173""
""blur"",""11"",""33046""
","""event"",""trial"",""time""
""focus"",""11"",""24948""
""focus"",""11"",""35380""
","""event"",""trial"",""time""
""fullscreenenter"",""5"",""9303""
","
","","images/earth.jpg","","","","","","","","","","","","","","fixation","","","","","",""
"d3-animate-choice","112","323162","0.0-61.0-0.17","2617","5845","9","Male","true","true","false","true","""event"",""trial"",""time""
""fullscreenenter"",""5"",""9303""
""blur"",""11"",""22173""
""focus"",""11"",""24948""
""blur"",""11"",""33046""
""focus"",""11"",""35380""
","""event"",""trial"",""time""
""blur"",""11"",""22173""
""blur"",""11"",""33046""
","""event"",""trial"",""time""
""focus"",""11"",""24948""
""focus"",""11"",""35380""
","""event"",""trial"",""time""
""fullscreenenter"",""5"",""9303""
","
","32.29999999701977","","49","","","3000","1","36.599999997764826,174.59999999776483,459.79999999701977,479.5999999977648,691.2999999970198,802.1999999992549,951.7999999970198,1046.5,1199.2999999970198,1280.699999999255,1464.199999999255,1695.5,1817.2999999970198,1958","16,48,48,49,48,49,48,49,48,49,48,48,49,48","images/earth.jpg","images/tutrocket2","images/tutrocket1","null","images/tutrocket1","","1","practice","null","1","","",""
"d3-animate-choice","113","325228","0.0-61.0-1.17","2617","5845","9","Male","true","true","false","true","""event"",""trial"",""time""
""fullscreenenter"",""5"",""9303""
""blur"",""11"",""22173""
""focus"",""11"",""24948""
""blur"",""11"",""33046""
""focus"",""11"",""35380""
","""event"",""trial"",""time""
""blur"",""11"",""22173""
""blur"",""11"",""33046""
","""event"",""trial"",""time""
""focus"",""11"",""24948""
""focus"",""11"",""35380""
","""event"",""trial"",""time""
""fullscreenenter"",""5"",""9303""
","
","60.599999997764826","","49","","","3000","1","190.69999999925494,323.5,468,599.5999999977648,729.5,1014.5,1104.8999999985099,1277.199999999255","48,49,48,49,48,48,49,48","images/tutgreenplanet.jpg","images/tutalien2","images/tutalien1","images/tutrocket1","images/tutalien1","images/nothing.png","2","practice","true","1","common","0","2023-01-24 22:40:57.550"
"two-step-fixation","114","326236","0.0-61.0-2.17","2617","5845","9","Male","true","true","false","true","""event"",""trial"",""time""
""fullscreenenter"",""5"",""9303""
""blur"",""11"",""22173""
""focus"",""11"",""24948""
""blur"",""11"",""33046""
""focus"",""11"",""35380""
","""event"",""trial"",""time""
""blur"",""11"",""22173""
""blur"",""11"",""33046""
","""event"",""trial"",""time""
""focus"",""11"",""24948""
""focus"",""11"",""35380""
","""event"",""trial"",""time""
""fullscreenenter"",""5"",""9303""
","
","","images/earth.jpg","","","","","","","","","","","","","","fixation","","","","","",""
"d3-animate-choice","115","329234","0.0-61.0-0.18","2617","5845","9","Male","true","true","false","true","""event"",""trial"",""time""
""fullscreenenter"",""5"",""9303""
""blur"",""11"",""22173""
""focus"",""11"",""24948""
""blur"",""11"",""33046""
""focus"",""11"",""35380""
","""event"",""trial"",""time""
""blur"",""11"",""22173""
""blur"",""11"",""33046""
","""event"",""trial"",""time""
""focus"",""11"",""24948""
""focus"",""11"",""35380""
","""event"",""trial"",""time""
""fullscreenenter"",""5"",""9303""
","
","982.8999999985099","","48","","","3000","1","","","images/earth.jpg","images/tutrocket2","images/tutrocket1","null","images/tutrocket2","","1","practice","null","2","","",""
"d3-animate-choice","116","332591","0.0-61.0-1.18","2617","5845","9","Male","true","true","false","true","""event"",""trial"",""time""
""fullscreenenter"",""5"",""9303""
""blur"",""11"",""22173""
""focus"",""11"",""24948""
""blur"",""11"",""33046""
""focus"",""11"",""35380""
","""event"",""trial"",""time""
""blur"",""11"",""22173""
""blur"",""11"",""33046""
","""event"",""trial"",""time""
""focus"",""11"",""24948""
""focus"",""11"",""35380""
","""event"",""trial"",""time""
""fullscreenenter"",""5"",""9303""
","
","1342.8999999985099","","48","","","3000","1","","","images/tutgreenplanet.jpg","images/tutalien2","images/tutalien1","images/tutrocket2","images/tutalien2","images/nothing.png","2","practice","false","2","rare","0","2023-01-24 22:41:04.913"
"two-step-fixation","117","333608","0.0-61.0-2.18","2617","5845","9","Male","true","true","false","true","""event"",""trial"",""time""
""fullscreenenter"",""5"",""9303""
""blur"",""11"",""22173""
""focus"",""11"",""24948""
""blur"",""11"",""33046""
""focus"",""11"",""35380""
","""event"",""trial"",""time""
""blur"",""11"",""22173""
""blur"",""11"",""33046""
","""event"",""trial"",""time""
""focus"",""11"",""24948""
""focus"",""11"",""35380""
","""event"",""trial"",""time""
""fullscreenenter"",""5"",""9303""
","
","","images/earth.jpg","","","","","","","","","","","","","","fixation","","","","","",""
"d3-animate-choice","118","336013","0.0-61.0-0.19","2617","5845","9","Male","true","true","false","true","""event"",""trial"",""time""
""fullscreenenter"",""5"",""9303""
""blur"",""11"",""22173""
""focus"",""11"",""24948""
""blur"",""11"",""33046""
""focus"",""11"",""35380""
","""event"",""trial"",""time""
""blur"",""11"",""22173""
""blur"",""11"",""33046""
","""event"",""trial"",""time""
""focus"",""11"",""24948""
""focus"",""11"",""35380""
","""event"",""trial"",""time""
""fullscreenenter"",""5"",""9303""
","
","393.1000000014901","","49","","","3000","1","","","images/earth.jpg","images/tutrocket2","images/tutrocket1","null","images/tutrocket1","","1","practice","null","1","","",""
"d3-animate-choice","119","339540","0.0-61.0-1.19","2617","5845","9","Male","true","true","false","true","""event"",""trial"",""time""
""fullscreenenter"",""5"",""9303""
""blur"",""11"",""22173""
""focus"",""11"",""24948""
""blur"",""11"",""33046""
""focus"",""11"",""35380""
","""event"",""trial"",""time""
""blur"",""11"",""22173""
""blur"",""11"",""33046""
","""event"",""trial"",""time""
""focus"",""11"",""24948""
""focus"",""11"",""35380""
","""event"",""trial"",""time""
""fullscreenenter"",""5"",""9303""
","
","1512.3999999985099","","48","","","3000","1","","","images/tutyellowplanet.jpg","images/tutalien4","images/tutalien3","images/tutrocket1","images/tutalien4","images/nothing.png","2","practice","false","2","rare","0","2023-01-24 22:41:11.862"
"two-step-fixation","120","340553","0.0-61.0-2.19","2617","5845","9","Male","true","true","false","true","""event"",""trial"",""time""
""fullscreenenter"",""5"",""9303""
""blur"",""11"",""22173""
""focus"",""11"",""24948""
""blur"",""11"",""33046""
""focus"",""11"",""35380""
","""event"",""trial"",""time""
""blur"",""11"",""22173""
""blur"",""11"",""33046""
","""event"",""trial"",""time""
""focus"",""11"",""24948""
""focus"",""11"",""35380""
","""event"",""trial"",""time""
""fullscreenenter"",""5"",""9303""
","
","","images/earth.jpg","","","","","","","","","","","","","","fixation","","","","","",""
"d3-instructions","121","342523","0.0-62.0","2617","5845","9","Male","true","true","false","true","""event"",""trial"",""time""
""fullscreenenter"",""5"",""9303""
""blur"",""11"",""22173""
""focus"",""11"",""24948""
""blur"",""11"",""33046""
""focus"",""11"",""35380""
","""event"",""trial"",""time""
""blur"",""11"",""22173""
""blur"",""11"",""33046""
","""event"",""trial"",""time""
""focus"",""11"",""24948""
""focus"",""11"",""35380""
","""event"",""trial"",""time""
""fullscreenenter"",""5"",""9303""
","
","","","","","","","","","","","","","","","","","","","","","",""
"audio-keyboard-response","122","350637","0.0-63.0","2617","5845","9","Male","true","true","false","true","""event"",""trial"",""time""
""fullscreenenter"",""5"",""9303""
""blur"",""11"",""22173""
""focus"",""11"",""24948""
""blur"",""11"",""33046""
""focus"",""11"",""35380""
","""event"",""trial"",""time""
""blur"",""11"",""22173""
""blur"",""11"",""33046""
","""event"",""trial"",""time""
""focus"",""11"",""24948""
""focus"",""11"",""35380""
","""event"",""trial"",""time""
""fullscreenenter"",""5"",""9303""
","
","8120","audio/instructions/treasure_feedback.wav","32","","","","","","","","","","","","","","","","","","",""
"d3-instructions","123","352143","0.0-64.0","2617","5845","9","Male","true","true","false","true","""event"",""trial"",""time""
""fullscreenenter"",""5"",""9303""
""blur"",""11"",""22173""
""focus"",""11"",""24948""
""blur"",""11"",""33046""
""focus"",""11"",""35380""
","""event"",""trial"",""time""
""blur"",""11"",""22173""
""blur"",""11"",""33046""
","""event"",""trial"",""time""
""focus"",""11"",""24948""
""focus"",""11"",""35380""
","""event"",""trial"",""time""
""fullscreenenter"",""5"",""9303""
","
","","","","","","","","","","","","","","","","","","","","","",""
"d3-instructions","124","353248","0.0-65.0","2617","5845","9","Male","true","true","false","true","""event"",""trial"",""time""
""fullscreenenter"",""5"",""9303""
""blur"",""11"",""22173""
""focus"",""11"",""24948""
""blur"",""11"",""33046""
""focus"",""11"",""35380""
","""event"",""trial"",""time""
""blur"",""11"",""22173""
""blur"",""11"",""33046""
","""event"",""trial"",""time""
""focus"",""11"",""24948""
""focus"",""11"",""35380""
","""event"",""trial"",""time""
""fullscreenenter"",""5"",""9303""
","
","","","","","","","","","","","","","","","","","","","","","",""
"d3-instructions","125","354163","0.0-66.0","2617","5845","9","Male","true","true","false","true","""event"",""trial"",""time""
""fullscreenenter"",""5"",""9303""
""blur"",""11"",""22173""
""focus"",""11"",""24948""
""blur"",""11"",""33046""
""focus"",""11"",""35380""
","""event"",""trial"",""time""
""blur"",""11"",""22173""
""blur"",""11"",""33046""
","""event"",""trial"",""time""
""focus"",""11"",""24948""
""focus"",""11"",""35380""
","""event"",""trial"",""time""
""fullscreenenter"",""5"",""9303""
","
","","","","","","","","","","","","","","","","","","","","","",""
"d3-instructions","126","396259","0.0-67.0","2617","5845","9","Male","true","true","false","true","""event"",""trial"",""time""
""fullscreenenter"",""5"",""9303""
""blur"",""11"",""22173""
""focus"",""11"",""24948""
""blur"",""11"",""33046""
""focus"",""11"",""35380""
","""event"",""trial"",""time""
""blur"",""11"",""22173""
""blur"",""11"",""33046""
","""event"",""trial"",""time""
""focus"",""11"",""24948""
""focus"",""11"",""35380""
","""event"",""trial"",""time""
""fullscreenenter"",""5"",""9303""
","
","","","","","","","","","","","","","","","","","","","","","",""
"d3-instructions","127","400146","0.0-68.0","2617","5845","9","Male","true","true","false","true","""event"",""trial"",""time""
""fullscreenenter"",""5"",""9303""
""blur"",""11"",""22173""
""focus"",""11"",""24948""
""blur"",""11"",""33046""
""focus"",""11"",""35380""
","""event"",""trial"",""time""
""blur"",""11"",""22173""
""blur"",""11"",""33046""
","""event"",""trial"",""time""
""focus"",""11"",""24948""
""focus"",""11"",""35380""
","""event"",""trial"",""time""
""fullscreenenter"",""5"",""9303""
","
","","","","","","","","","","","","","","","","","","","","","",""
"instructions-quiz","128","403704","0.0-69.0","2617","5845","9","Male","true","true","false","true","""event"",""trial"",""time""
""fullscreenenter"",""5"",""9303""
""blur"",""11"",""22173""
""focus"",""11"",""24948""
""blur"",""11"",""33046""
""focus"",""11"",""35380""
","""event"",""trial"",""time""
""blur"",""11"",""22173""
""blur"",""11"",""33046""
","""event"",""trial"",""time""
""focus"",""11"",""24948""
""focus"",""11"",""35380""
","""event"",""trial"",""time""
""fullscreenenter"",""5"",""9303""
","
","3555.89999999851","audio/quiz/Q1_Prompt.wav","","1","","","","","","","","","","","","","","","","","",""
"audio-keyboard-response","129","404519","0.0-70.0","2617","5845","9","Male","true","true","false","true","""event"",""trial"",""time""
""fullscreenenter"",""5"",""9303""
""blur"",""11"",""22173""
""focus"",""11"",""24948""
""blur"",""11"",""33046""
""focus"",""11"",""35380""
","""event"",""trial"",""time""
""blur"",""11"",""22173""
""blur"",""11"",""33046""
","""event"",""trial"",""time""
""focus"",""11"",""24948""
""focus"",""11"",""35380""
","""event"",""trial"",""time""
""fullscreenenter"",""5"",""9303""
","
","811","audio/quiz/Q1_Correct.wav","32","","","","","","","","","","","","","","","","","","",""
"instructions-quiz","130","406415","0.0-71.0","2617","5845","9","Male","true","true","false","true","""event"",""trial"",""time""
""fullscreenenter"",""5"",""9303""
""blur"",""11"",""22173""
""focus"",""11"",""24948""
""blur"",""11"",""33046""
""focus"",""11"",""35380""
","""event"",""trial"",""time""
""blur"",""11"",""22173""
""blur"",""11"",""33046""
","""event"",""trial"",""time""
""focus"",""11"",""24948""
""focus"",""11"",""35380""
","""event"",""trial"",""time""
""fullscreenenter"",""5"",""9303""
","
","1894.7999999970198","audio/quiz/Q2_Prompt.wav","","0","","","","","","","","","","","","","","","","","",""
"audio-keyboard-response","131","407189","0.0-72.0","2617","5845","9","Male","true","true","false","true","""event"",""trial"",""time""
""fullscreenenter"",""5"",""9303""
""blur"",""11"",""22173""
""focus"",""11"",""24948""
""blur"",""11"",""33046""
""focus"",""11"",""35380""
","""event"",""trial"",""time""
""blur"",""11"",""22173""
""blur"",""11"",""33046""
","""event"",""trial"",""time""
""focus"",""11"",""24948""
""focus"",""11"",""35380""
","""event"",""trial"",""time""
""fullscreenenter"",""5"",""9303""
","
","771","audio/quiz/Q2_Correct.wav","32","","","","","","","","","","","","","","","","","","",""
"instructions-quiz","132","408605","0.0-73.0","2617","5845","9","Male","true","true","false","true","""event"",""trial"",""time""
""fullscreenenter"",""5"",""9303""
""blur"",""11"",""22173""
""focus"",""11"",""24948""
""blur"",""11"",""33046""
""focus"",""11"",""35380""
","""event"",""trial"",""time""
""blur"",""11"",""22173""
""blur"",""11"",""33046""
","""event"",""trial"",""time""
""focus"",""11"",""24948""
""focus"",""11"",""35380""
","""event"",""trial"",""time""
""fullscreenenter"",""5"",""9303""
","
","1414.5","audio/quiz/Q3_Prompt.wav","","1","","","","","","","","","","","","","","","","","",""
"audio-keyboard-response","133","409257","0.0-74.0","2617","5845","9","Male","true","true","false","true","""event"",""trial"",""time""
""fullscreenenter"",""5"",""9303""
""blur"",""11"",""22173""
""focus"",""11"",""24948""
""blur"",""11"",""33046""
""focus"",""11"",""35380""
","""event"",""trial"",""time""
""blur"",""11"",""22173""
""blur"",""11"",""33046""
","""event"",""trial"",""time""
""focus"",""11"",""24948""
""focus"",""11"",""35380""
","""event"",""trial"",""time""
""fullscreenenter"",""5"",""9303""
","
","648","audio/quiz/Q3_Correct.wav","32","","","","","","","","","","","","","","","","","","",""
"d3-instructions","134","422675","0.0-75.0","2617","5845","9","Male","true","true","false","true","""event"",""trial"",""time""
""fullscreenenter"",""5"",""9303""
""blur"",""11"",""22173""
""focus"",""11"",""24948""
""blur"",""11"",""33046""
""focus"",""11"",""35380""
","""event"",""trial"",""time""
""blur"",""11"",""22173""
""blur"",""11"",""33046""
","""event"",""trial"",""time""
""focus"",""11"",""24948""
""focus"",""11"",""35380""
","""event"",""trial"",""time""
""fullscreenenter"",""5"",""9303""
","
","","","","","","","","","","","","","","","","","","","","","",""
"pavlovia","135","422676","0.0-76.0","2617","5845","9","Male","true","true","false","true","""event"",""trial"",""time""
""fullscreenenter"",""5"",""9303""
""blur"",""11"",""22173""
""focus"",""11"",""24948""
""blur"",""11"",""33046""
""focus"",""11"",""35380""
","""event"",""trial"",""time""
""blur"",""11"",""22173""
""blur"",""11"",""33046""
","""event"",""trial"",""time""
""focus"",""11"",""24948""
""focus"",""11"",""35380""
","""event"",""trial"",""time""
""fullscreenenter"",""5"",""9303""
","
","","","","","","","","","","","","","","","","","","","","","",""
"d3-animate-choice","136","425780","0.0-77.0-0.0","2617","5845","9","Male","true","true","false","true","""event"",""trial"",""time""
""fullscreenenter"",""5"",""9303""
""blur"",""11"",""22173""
""focus"",""11"",""24948""
""blur"",""11"",""33046""
""focus"",""11"",""35380""
","""event"",""trial"",""time""
""blur"",""11"",""22173""
""blur"",""11"",""33046""
","""event"",""trial"",""time""
""focus"",""11"",""24948""
""focus"",""11"",""35380""
","""event"",""trial"",""time""
""fullscreenenter"",""5"",""9303""
","
","1095.6000000014901","","49","","","3000","1","","","images/earth.jpg","images/rocket2","images/rocket1","null","images/rocket1","","1","real","null","1","","",""
"d3-animate-choice","137","429139","0.0-77.0-1.0","2617","5845","9","Male","true","true","false","true","""event"",""trial"",""time""
""fullscreenenter"",""5"",""9303""
""blur"",""11"",""22173""
""focus"",""11"",""24948""
""blur"",""11"",""33046""
""focus"",""11"",""35380""
","""event"",""trial"",""time""
""blur"",""11"",""22173""
""blur"",""11"",""33046""
","""event"",""trial"",""time""
""focus"",""11"",""24948""
""focus"",""11"",""35380""
","""event"",""trial"",""time""
""fullscreenenter"",""5"",""9303""
","
","1352.7999999970198","","48","","","3000","1","","","images/redplanet1.jpg","images/alien2","images/alien1","images/rocket1","images/alien2","images/t.png","2","real","true","2","common","1","2023-01-24 22:42:41.461"
"two-step-fixation","138","430147","0.0-77.0-2.0","2617","5845","9","Male","true","true","false","true","""event"",""trial"",""time""
""fullscreenenter"",""5"",""9303""
""blur"",""11"",""22173""
""focus"",""11"",""24948""
""blur"",""11"",""33046""
""focus"",""11"",""35380""
","""event"",""trial"",""time""
""blur"",""11"",""22173""
""blur"",""11"",""33046""
","""event"",""trial"",""time""
""focus"",""11"",""24948""
""focus"",""11"",""35380""
","""event"",""trial"",""time""
""fullscreenenter"",""5"",""9303""
","
","","images/earth.jpg","","","","","","","","","","","","","","fixation","","","","","",""
"d3-animate-choice","139","433084","0.0-77.0-0.1","2617","5845","9","Male","true","true","false","true","""event"",""trial"",""time""
""fullscreenenter"",""5"",""9303""
""blur"",""11"",""22173""
""focus"",""11"",""24948""
""blur"",""11"",""33046""
""focus"",""11"",""35380""
","""event"",""trial"",""time""
""blur"",""11"",""22173""
""blur"",""11"",""33046""
","""event"",""trial"",""time""
""focus"",""11"",""24948""
""focus"",""11"",""35380""
","""event"",""trial"",""time""
""fullscreenenter"",""5"",""9303""
","
","931.6999999992549","","49","","","3000","1","","","images/earth.jpg","images/rocket2","images/rocket1","null","images/rocket1","","1","real","null","1","","",""
"d3-animate-choice","140","437099","0.0-77.0-1.1","2617","5845","9","Male","true","true","false","true","""event"",""trial"",""time""
""fullscreenenter"",""5"",""9303""
""blur"",""11"",""22173""
""focus"",""11"",""24948""
""blur"",""11"",""33046""
""focus"",""11"",""35380""
","""event"",""trial"",""time""
""blur"",""11"",""22173""
""blur"",""11"",""33046""
","""event"",""trial"",""time""
""focus"",""11"",""24948""
""focus"",""11"",""35380""
","""event"",""trial"",""time""
""fullscreenenter"",""5"",""9303""
","
","2185.2999999970198","","48","","","3000","1","2300.39999999851","32","images/redplanet1.jpg","images/alien2","images/alien1","images/rocket1","images/alien2","images/t.png","2","real","true","2","common","1","2023-01-24 22:42:49.422"
"two-step-fixation","141","438108","0.0-77.0-2.1","2617","5845","9","Male","true","true","false","true","""event"",""trial"",""time""
""fullscreenenter"",""5"",""9303""
""blur"",""11"",""22173""
""focus"",""11"",""24948""
""blur"",""11"",""33046""
""focus"",""11"",""35380""
","""event"",""trial"",""time""
""blur"",""11"",""22173""
""blur"",""11"",""33046""
","""event"",""trial"",""time""
""focus"",""11"",""24948""
""focus"",""11"",""35380""
","""event"",""trial"",""time""
""fullscreenenter"",""5"",""9303""
","
","","images/earth.jpg","","","","","","","","","","","","","","fixation","","","","","",""
"d3-animate-choice","142","441315","0.0-77.0-0.2","2617","5845","9","Male","true","true","false","true","""event"",""trial"",""time""
""fullscreenenter"",""5"",""9303""
""blur"",""11"",""22173""
""focus"",""11"",""24948""
""blur"",""11"",""33046""
""focus"",""11"",""35380""
","""event"",""trial"",""time""
""blur"",""11"",""22173""
""blur"",""11"",""33046""
","""event"",""trial"",""time""
""focus"",""11"",""24948""
""focus"",""11"",""35380""
","""event"",""trial"",""time""
""fullscreenenter"",""5"",""9303""
","
","1202.3999999985099","","48","","","3000","1","","","images/earth.jpg","images/rocket2","images/rocket1","null","images/rocket2","","1","real","null","2","","",""
"d3-animate-choice","143","444477","0.0-77.0-1.2","2617","5845","9","Male","true","true","false","true","""event"",""trial"",""time""
""fullscreenenter"",""5"",""9303""
""blur"",""11"",""22173""
""focus"",""11"",""24948""
""blur"",""11"",""33046""
""focus"",""11"",""35380""
","""event"",""trial"",""time""
""blur"",""11"",""22173""
""blur"",""11"",""33046""
","""event"",""trial"",""time""
""focus"",""11"",""24948""
""focus"",""11"",""35380""
","""event"",""trial"",""time""
""fullscreenenter"",""5"",""9303""
","
","1159.300000000745","","49","","","3000","1","","","images/redplanet1.jpg","images/alien2","images/alien1","images/rocket2","images/alien1","images/nothing.png","2","real","false","1","rare","0","2023-01-24 22:42:56.799"
"two-step-fixation","144","445483","0.0-77.0-2.2","2617","5845","9","Male","true","true","false","true","""event"",""trial"",""time""
""fullscreenenter"",""5"",""9303""
""blur"",""11"",""22173""
""focus"",""11"",""24948""
""blur"",""11"",""33046""
""focus"",""11"",""35380""
","""event"",""trial"",""time""
""blur"",""11"",""22173""
""blur"",""11"",""33046""
","""event"",""trial"",""time""
""focus"",""11"",""24948""
""focus"",""11"",""35380""
","""event"",""trial"",""time""
""fullscreenenter"",""5"",""9303""
","
","","images/earth.jpg","","","","","","","","","","","","","","fixation","","","","","",""
"d3-animate-choice","145","448421","0.0-77.0-0.3","2617","5845","9","Male","true","true","false","true","""event"",""trial"",""time""
""fullscreenenter"",""5"",""9303""
""blur"",""11"",""22173""
""focus"",""11"",""24948""
""blur"",""11"",""33046""
""focus"",""11"",""35380""
","""event"",""trial"",""time""
""blur"",""11"",""22173""
""blur"",""11"",""33046""
","""event"",""trial"",""time""
""focus"",""11"",""24948""
""focus"",""11"",""35380""
","""event"",""trial"",""time""
""fullscreenenter"",""5"",""9303""
","
","932.5","","48","","","3000","1","","","images/earth.jpg","images/rocket2","images/rocket1","null","images/rocket2","","1","real","null","2","","",""
"d3-animate-choice","146","451645","0.0-77.0-1.3","2617","5845","9","Male","true","true","false","true","""event"",""trial"",""time""
""fullscreenenter"",""5"",""9303""
""blur"",""11"",""22173""
""focus"",""11"",""24948""
""blur"",""11"",""33046""
""focus"",""11"",""35380""
","""event"",""trial"",""time""
""blur"",""11"",""22173""
""blur"",""11"",""33046""
","""event"",""trial"",""time""
""focus"",""11"",""24948""
""focus"",""11"",""35380""
","""event"",""trial"",""time""
""fullscreenenter"",""5"",""9303""
","
","1215.699999999255","","49","","","3000","1","","","images/redplanet1.jpg","images/alien2","images/alien1","images/rocket2","images/alien1","images/nothing.png","2","real","false","1","rare","0","2023-01-24 22:43:03.967"
"two-step-fixation","147","452651","0.0-77.0-2.3","2617","5845","9","Male","true","true","false","true","""event"",""trial"",""time""
""fullscreenenter"",""5"",""9303""
""blur"",""11"",""22173""
""focus"",""11"",""24948""
""blur"",""11"",""33046""
""focus"",""11"",""35380""
","""event"",""trial"",""time""
""blur"",""11"",""22173""
""blur"",""11"",""33046""
","""event"",""trial"",""time""
""focus"",""11"",""24948""
""focus"",""11"",""35380""
","""event"",""trial"",""time""
""fullscreenenter"",""5"",""9303""
","
","","images/earth.jpg","","","","","","","","","","","","","","fixation","","","","","",""
"d3-animate-choice","148","455185","0.0-77.0-0.4","2617","5845","9","Male","true","true","false","true","""event"",""trial"",""time""
""fullscreenenter"",""5"",""9303""
""blur"",""11"",""22173""
""focus"",""11"",""24948""
""blur"",""11"",""33046""
""focus"",""11"",""35380""
","""event"",""trial"",""time""
""blur"",""11"",""22173""
""blur"",""11"",""33046""
","""event"",""trial"",""time""
""focus"",""11"",""24948""
""focus"",""11"",""35380""
","""event"",""trial"",""time""
""fullscreenenter"",""5"",""9303""
","
","527.5","","49","","","3000","1","","","images/earth.jpg","images/rocket2","images/rocket1","null","images/rocket1","","1","real","null","1","","",""
"d3-animate-choice","149","458371","0.0-77.0-1.4","2617","5845","9","Male","true","true","false","true","""event"",""trial"",""time""
""fullscreenenter"",""5"",""9303""
""blur"",""11"",""22173""
""focus"",""11"",""24948""
""blur"",""11"",""33046""
""focus"",""11"",""35380""
","""event"",""trial"",""time""
""blur"",""11"",""22173""
""blur"",""11"",""33046""
","""event"",""trial"",""time""
""focus"",""11"",""24948""
""focus"",""11"",""35380""
","""event"",""trial"",""time""
""fullscreenenter"",""5"",""9303""
","
","1179.699999999255","","48","","","3000","1","","","images/purpleplanet.jpg","images/alien4","images/alien3","images/rocket1","images/alien4","images/t.png","2","real","false","2","rare","1","2023-01-24 22:43:10.693"
"two-step-fixation","150","459382","0.0-77.0-2.4","2617","5845","9","Male","true","true","false","true","""event"",""trial"",""time""
""fullscreenenter"",""5"",""9303""
""blur"",""11"",""22173""
""focus"",""11"",""24948""
""blur"",""11"",""33046""
""focus"",""11"",""35380""
","""event"",""trial"",""time""
""blur"",""11"",""22173""
""blur"",""11"",""33046""
","""event"",""trial"",""time""
""focus"",""11"",""24948""
""focus"",""11"",""35380""
","""event"",""trial"",""time""
