"trial_type","trial_index","time_elapsed","internal_node_id","participant_id","subject_id","age","gender","rocket_sides","red_planet_first_rocket","red_display_order","purple_display_order","interactions","blur_events","focus_events","fullscreenenter_events","fullscreenexit_events","rt","stimulus","key_press","button_pressed","success","duration","valid_pressed","rts","keys","planet_text","right_text","left_text","center_text","chosen_text","reward_text","trial_stage","practice_trial","transition_type","choice","transition","reward","timestamp"
"pavlovia","0","3","0.0-0.0","37","644","16","Male","true","false","true","false","
","
","
","
","
","","","","","","","","","","","","","","","","","","","","","",""
"html-keyboard-response","1","478994","0.0-1.0","37","644","16","Male","true","false","true","false","
","
","
","
","
","478988","Welcome! Press the space bar to begin.","32","","","","","","","","","","","","","","","","","","",""
"audio-keyboard-response","2","481695","0.0-2.0","37","644","16","Male","true","false","true","false","
","
","
","
","
","2709","audio/beep_loop.wav","32","","","","","","","","","","","","","","","","","","",""
"audio-button-response","3","489526","0.0-3.0","37","644","16","Male","true","false","true","false","
","
","
","
","
","NaN","audio/fish.mp3","","1","","","","","","","","","","","","","","","","","",""
"audio-button-response","4","492294","0.0-4.0","37","644","16","Male","true","false","true","false","""event"",""trial"",""time""
""fullscreenenter"",""5"",""496633""
","
","
","""event"",""trial"",""time""
""fullscreenenter"",""5"",""496633""
","
","NaN","audio/tiger.mp3","","4","","","","","","","","","","","","","","","","","",""
"fullscreen","5","497431","0.0-5.0","37","644","16","Male","true","false","true","false","""event"",""trial"",""time""
""fullscreenenter"",""5"",""496633""
""fullscreenexit"",""6"",""498345""
","
","
","""event"",""trial"",""time""
""fullscreenenter"",""5"",""496633""
","""event"",""trial"",""time""
""fullscreenexit"",""6"",""498345""
","","","","","true","","","","","","","","","","","","","","","","",""
"d3-instructions","6","508447","0.0-6.0","37","644","16","Male","true","false","true","false","""event"",""trial"",""time""
""fullscreenenter"",""5"",""496633""
""fullscreenexit"",""6"",""498345""
","
","
","""event"",""trial"",""time""
""fullscreenenter"",""5"",""496633""
","""event"",""trial"",""time""
""fullscreenexit"",""6"",""498345""
","","","","","","","","","","","","","","","","","","","","","",""
"d3-instructions","7","514015","0.0-7.0","37","644","16","Male","true","false","true","false","""event"",""trial"",""time""
""fullscreenenter"",""5"",""496633""
""fullscreenexit"",""6"",""498345""
","
","
","""event"",""trial"",""time""
""fullscreenenter"",""5"",""496633""
","""event"",""trial"",""time""
""fullscreenexit"",""6"",""498345""
","","","","","","","","","","","","","","","","","","","","","",""
"d3-instructions","8","517519","0.0-8.0","37","644","16","Male","true","false","true","false","""event"",""trial"",""time""
""fullscreenenter"",""5"",""496633""
""fullscreenexit"",""6"",""498345""
","
","
","""event"",""trial"",""time""
""fullscreenenter"",""5"",""496633""
","""event"",""trial"",""time""
""fullscreenexit"",""6"",""498345""
","","","","","","","","","","","","","","","","","","","","","",""
"d3-instructions","9","526686","0.0-9.0","37","644","16","Male","true","false","true","false","""event"",""trial"",""time""
""fullscreenenter"",""5"",""496633""
""fullscreenexit"",""6"",""498345""
","
","
","""event"",""trial"",""time""
""fullscreenenter"",""5"",""496633""
","""event"",""trial"",""time""
""fullscreenexit"",""6"",""498345""
","","","","","","","","","","","","","","","","","","","","","",""
"d3-instructions","10","541534","0.0-10.0","37","644","16","Male","true","false","true","false","""event"",""trial"",""time""
""fullscreenenter"",""5"",""496633""
""fullscreenexit"",""6"",""498345""
","
","
","""event"",""trial"",""time""
""fullscreenenter"",""5"",""496633""
","""event"",""trial"",""time""
""fullscreenexit"",""6"",""498345""
","","","","","","","","","","","","","","","","","","","","","",""
"d3-animate-choice","11","545473","0.0-11.0","37","644","16","Male","true","false","true","false","""event"",""trial"",""time""
""fullscreenenter"",""5"",""496633""
""fullscreenexit"",""6"",""498345""
","
","
","""event"",""trial"",""time""
""fullscreenenter"",""5"",""496633""
","""event"",""trial"",""time""
""fullscreenexit"",""6"",""498345""
","1933","","49","","","3000","1","","","images/tutgreenplanet.jpg","images/tutalien1","images/tutalien2","null","images/tutalien2","","NA","practice","null","","","",""
"d3-animate-choice","12","548785","0.0-12.0","37","644","16","Male","true","false","true","false","""event"",""trial"",""time""
""fullscreenenter"",""5"",""496633""
""fullscreenexit"",""6"",""498345""
","
","
","""event"",""trial"",""time""
""fullscreenenter"",""5"",""496633""
","""event"",""trial"",""time""
""fullscreenexit"",""6"",""498345""
","1308","","48","","","3000","1","","","images/tutgreenplanet.jpg","images/tutalien1","images/tutalien2","null","images/tutalien1","","NA","practice","null","","","",""
"d3-animate-choice","13","552688","0.0-13.0","37","644","16","Male","true","false","true","false","""event"",""trial"",""time""
""fullscreenenter"",""5"",""496633""
""fullscreenexit"",""6"",""498345""
","
","
","""event"",""trial"",""time""
""fullscreenenter"",""5"",""496633""
","""event"",""trial"",""time""
""fullscreenexit"",""6"",""498345""
","1899","","49","","","3000","1","","","images/tutgreenplanet.jpg","images/tutalien1","images/tutalien2","null","images/tutalien2","","NA","practice","null","","","",""
"d3-animate-choice","14","555631","0.0-14.0","37","644","16","Male","true","false","true","false","""event"",""trial"",""time""
""fullscreenenter"",""5"",""496633""
""fullscreenexit"",""6"",""498345""
","
","
","""event"",""trial"",""time""
""fullscreenenter"",""5"",""496633""
","""event"",""trial"",""time""
""fullscreenexit"",""6"",""498345""
","940","","48","","","3000","1","","","images/tutgreenplanet.jpg","images/tutalien1","images/tutalien2","null","images/tutalien1","","NA","practice","null","","","",""
"d3-instructions","15","561310","0.0-15.0","37","644","16","Male","true","false","true","false","""event"",""trial"",""time""
""fullscreenenter"",""5"",""496633""
""fullscreenexit"",""6"",""498345""
","
","
","""event"",""trial"",""time""
""fullscreenenter"",""5"",""496633""
","""event"",""trial"",""time""
""fullscreenexit"",""6"",""498345""
","","","","","","","","","","","","","","","","","","","","","",""
"d3-instructions","16","564558","0.0-16.0","37","644","16","Male","true","false","true","false","""event"",""trial"",""time""
""fullscreenenter"",""5"",""496633""
""fullscreenexit"",""6"",""498345""
","
","
","""event"",""trial"",""time""
""fullscreenenter"",""5"",""496633""
","""event"",""trial"",""time""
""fullscreenexit"",""6"",""498345""
","","","","","","","","","","","","","","","","","","","","","",""
"d3-instructions","17","570159","0.0-17.0","37","644","16","Male","true","false","true","false","""event"",""trial"",""time""
""fullscreenenter"",""5"",""496633""
""fullscreenexit"",""6"",""498345""
","
","
","""event"",""trial"",""time""
""fullscreenenter"",""5"",""496633""
","""event"",""trial"",""time""
""fullscreenexit"",""6"",""498345""
","","","","","","","","","","","","","","","","","","","","","",""
"d3-instructions","18","575438","0.0-18.0","37","644","16","Male","true","false","true","false","""event"",""trial"",""time""
""fullscreenenter"",""5"",""496633""
""fullscreenexit"",""6"",""498345""
","
","
","""event"",""trial"",""time""
""fullscreenenter"",""5"",""496633""
","""event"",""trial"",""time""
""fullscreenexit"",""6"",""498345""
","","","","","","","","","","","","","","","","","","","","","",""
"d3-instructions","19","583342","0.0-19.0","37","644","16","Male","true","false","true","false","""event"",""trial"",""time""
""fullscreenenter"",""5"",""496633""
""fullscreenexit"",""6"",""498345""
","
","
","""event"",""trial"",""time""
""fullscreenenter"",""5"",""496633""
","""event"",""trial"",""time""
""fullscreenexit"",""6"",""498345""
","","","","","","","","","","","","","","","","","","","","","",""
"d3-animate-choice","20","587552","0.0-20.0","37","644","16","Male","true","false","true","false","""event"",""trial"",""time""
""fullscreenenter"",""5"",""496633""
""fullscreenexit"",""6"",""498345""
","
","
","""event"",""trial"",""time""
""fullscreenenter"",""5"",""496633""
","""event"",""trial"",""time""
""fullscreenexit"",""6"",""498345""
","2206","","49","","","3000","1","","","images/tutyellowplanet.jpg","null","images/tutalien3","null","images/tutalien3","images/t.png","NA","practice","null","","","",""
"d3-animate-choice","21","590190","0.0-21.0","37","644","16","Male","true","false","true","false","""event"",""trial"",""time""
""fullscreenenter"",""5"",""496633""
""fullscreenexit"",""6"",""498345""
","
","
","""event"",""trial"",""time""
""fullscreenenter"",""5"",""496633""
","""event"",""trial"",""time""
""fullscreenexit"",""6"",""498345""
","635","","49","","","3000","1","","","images/tutyellowplanet.jpg","null","images/tutalien3","null","images/tutalien3","images/nothing.png","NA","practice","null","","","",""
"d3-animate-choice","22","592704","0.0-22.0","37","644","16","Male","true","false","true","false","""event"",""trial"",""time""
""fullscreenenter"",""5"",""496633""
""fullscreenexit"",""6"",""498345""
","
","
","""event"",""trial"",""time""
""fullscreenenter"",""5"",""496633""
","""event"",""trial"",""time""
""fullscreenexit"",""6"",""498345""
","509","","49","","","3000","1","","","images/tutyellowplanet.jpg","null","images/tutalien3","null","images/tutalien3","images/nothing.png","NA","practice","null","","","",""
"d3-animate-choice","23","595198","0.0-23.0","37","644","16","Male","true","false","true","false","""event"",""trial"",""time""
""fullscreenenter"",""5"",""496633""
""fullscreenexit"",""6"",""498345""
","
","
","""event"",""trial"",""time""
""fullscreenenter"",""5"",""496633""
","""event"",""trial"",""time""
""fullscreenexit"",""6"",""498345""
","492","","49","","","3000","1","","","images/tutyellowplanet.jpg","null","images/tutalien3","null","images/tutalien3","images/t.png","NA","practice","null","","","",""
"d3-animate-choice","24","597759","0.0-24.0","37","644","16","Male","true","false","true","false","""event"",""trial"",""time""
""fullscreenenter"",""5"",""496633""
""fullscreenexit"",""6"",""498345""
","
","
","""event"",""trial"",""time""
""fullscreenenter"",""5"",""496633""
","""event"",""trial"",""time""
""fullscreenexit"",""6"",""498345""
","558","","49","","","3000","1","","","images/tutyellowplanet.jpg","null","images/tutalien3","null","images/tutalien3","images/t.png","NA","practice","null","","","",""
"d3-animate-choice","25","600191","0.0-25.0","37","644","16","Male","true","false","true","false","""event"",""trial"",""time""
""fullscreenenter"",""5"",""496633""
""fullscreenexit"",""6"",""498345""
","
","
","""event"",""trial"",""time""
""fullscreenenter"",""5"",""496633""
","""event"",""trial"",""time""
""fullscreenexit"",""6"",""498345""
","428","","49","","","3000","1","","","images/tutyellowplanet.jpg","null","images/tutalien3","null","images/tutalien3","images/t.png","NA","practice","null","","","",""
"d3-animate-choice","26","602624","0.0-26.0","37","644","16","Male","true","false","true","false","""event"",""trial"",""time""
""fullscreenenter"",""5"",""496633""
""fullscreenexit"",""6"",""498345""
","
","
","""event"",""trial"",""time""
""fullscreenenter"",""5"",""496633""
","""event"",""trial"",""time""
""fullscreenexit"",""6"",""498345""
","429","","49","","","3000","1","","","images/tutyellowplanet.jpg","null","images/tutalien3","null","images/tutalien3","images/t.png","NA","practice","null","","","",""
"d3-animate-choice","27","605119","0.0-27.0","37","644","16","Male","true","false","true","false","""event"",""trial"",""time""
""fullscreenenter"",""5"",""496633""
""fullscreenexit"",""6"",""498345""
","
","
","""event"",""trial"",""time""
""fullscreenenter"",""5"",""496633""
","""event"",""trial"",""time""
""fullscreenexit"",""6"",""498345""
","493","","49","","","3000","1","","","images/tutyellowplanet.jpg","null","images/tutalien3","null","images/tutalien3","images/t.png","NA","practice","null","","","",""
"d3-animate-choice","28","607599","0.0-28.0","37","644","16","Male","true","false","true","false","""event"",""trial"",""time""
""fullscreenenter"",""5"",""496633""
""fullscreenexit"",""6"",""498345""
","
","
","""event"",""trial"",""time""
""fullscreenenter"",""5"",""496633""
","""event"",""trial"",""time""
""fullscreenexit"",""6"",""498345""
","476","","49","","","3000","1","","","images/tutyellowplanet.jpg","null","images/tutalien3","null","images/tutalien3","images/t.png","NA","practice","null","","","",""
"d3-animate-choice","29","610047","0.0-29.0","37","644","16","Male","true","false","true","false","""event"",""trial"",""time""
""fullscreenenter"",""5"",""496633""
""fullscreenexit"",""6"",""498345""
","
","
","""event"",""trial"",""time""
""fullscreenenter"",""5"",""496633""
","""event"",""trial"",""time""
""fullscreenexit"",""6"",""498345""
","445","","49","","","3000","1","","","images/tutyellowplanet.jpg","null","images/tutalien3","null","images/tutalien3","images/t.png","NA","practice","null","","","",""
"d3-instructions","30","613277","0.0-30.0","37","644","16","Male","true","false","true","false","""event"",""trial"",""time""
""fullscreenenter"",""5"",""496633""
""fullscreenexit"",""6"",""498345""
","
","
","""event"",""trial"",""time""
""fullscreenenter"",""5"",""496633""
","""event"",""trial"",""time""
""fullscreenexit"",""6"",""498345""
","","","","","","","","","","","","","","","","","","","","","",""
"d3-instructions","31","616349","0.0-31.0","37","644","16","Male","true","false","true","false","""event"",""trial"",""time""
""fullscreenenter"",""5"",""496633""
""fullscreenexit"",""6"",""498345""
","
","
","""event"",""trial"",""time""
""fullscreenenter"",""5"",""496633""
","""event"",""trial"",""time""
""fullscreenexit"",""6"",""498345""
","","","","","","","","","","","","","","","","","","","","","",""
"d3-instructions","32","620957","0.0-32.0","37","644","16","Male","true","false","true","false","""event"",""trial"",""time""
""fullscreenenter"",""5"",""496633""
""fullscreenexit"",""6"",""498345""
","
","
","""event"",""trial"",""time""
""fullscreenenter"",""5"",""496633""
","""event"",""trial"",""time""
""fullscreenexit"",""6"",""498345""
","","","","","","","","","","","","","","","","","","","","","",""
"d3-instructions","33","624702","0.0-33.0","37","644","16","Male","true","false","true","false","""event"",""trial"",""time""
""fullscreenenter"",""5"",""496633""
""fullscreenexit"",""6"",""498345""
","
","
","""event"",""trial"",""time""
""fullscreenenter"",""5"",""496633""
","""event"",""trial"",""time""
""fullscreenexit"",""6"",""498345""
","","","","","","","","","","","","","","","","","","","","","",""
"d3-animate-choice","34","627694","0.0-34.0","37","644","16","Male","true","false","true","false","""event"",""trial"",""time""
""fullscreenenter"",""5"",""496633""
""fullscreenexit"",""6"",""498345""
","
","
","""event"",""trial"",""time""
""fullscreenenter"",""5"",""496633""
","""event"",""trial"",""time""
""fullscreenexit"",""6"",""498345""
","990","","48","","","3000","1","","","images/tutgreenplanet.jpg","images/tutalien1","images/tutalien2","null","images/tutalien1","images/nothing.png","NA","practice","null","","","",""
"d3-animate-choice","35","630639","0.0-35.0","37","644","16","Male","true","false","true","false","""event"",""trial"",""time""
""fullscreenenter"",""5"",""496633""
""fullscreenexit"",""6"",""498345""
","
","
","""event"",""trial"",""time""
""fullscreenenter"",""5"",""496633""
","""event"",""trial"",""time""
""fullscreenexit"",""6"",""498345""
","941","","49","","","3000","1","","","images/tutgreenplanet.jpg","images/tutalien1","images/tutalien2","null","images/tutalien2","images/t.png","NA","practice","null","","","",""
"d3-animate-choice","36","633535","0.0-36.0","37","644","16","Male","true","false","true","false","""event"",""trial"",""time""
""fullscreenenter"",""5"",""496633""
""fullscreenexit"",""6"",""498345""
","
","
","""event"",""trial"",""time""
""fullscreenenter"",""5"",""496633""
","""event"",""trial"",""time""
""fullscreenexit"",""6"",""498345""
","892","","49","","","3000","1","","","images/tutgreenplanet.jpg","images/tutalien1","images/tutalien2","null","images/tutalien2","images/t.png","NA","practice","null","","","",""
"d3-animate-choice","37","636046","0.0-37.0","37","644","16","Male","true","false","true","false","""event"",""trial"",""time""
""fullscreenenter"",""5"",""496633""
""fullscreenexit"",""6"",""498345""
","
","
","""event"",""trial"",""time""
""fullscreenenter"",""5"",""496633""
","""event"",""trial"",""time""
""fullscreenexit"",""6"",""498345""
","508","","49","","","3000","1","","","images/tutgreenplanet.jpg","images/tutalien1","images/tutalien2","null","images/tutalien2","images/t.png","NA","practice","null","","","",""
"d3-animate-choice","38","638591","0.0-38.0","37","644","16","Male","true","false","true","false","""event"",""trial"",""time""
""fullscreenenter"",""5"",""496633""
""fullscreenexit"",""6"",""498345""
","
","
","""event"",""trial"",""time""
""fullscreenenter"",""5"",""496633""
","""event"",""trial"",""time""
""fullscreenexit"",""6"",""498345""
","542","","49","","","3000","1","","","images/tutgreenplanet.jpg","images/tutalien1","images/tutalien2","null","images/tutalien2","images/t.png","NA","practice","null","","","",""
"d3-animate-choice","39","641118","0.0-39.0","37","644","16","Male","true","false","true","false","""event"",""trial"",""time""
""fullscreenenter"",""5"",""496633""
""fullscreenexit"",""6"",""498345""
","
","
","""event"",""trial"",""time""
""fullscreenenter"",""5"",""496633""
","""event"",""trial"",""time""
""fullscreenexit"",""6"",""498345""
","525","","49","","","3000","1","","","images/tutgreenplanet.jpg","images/tutalien1","images/tutalien2","null","images/tutalien2","images/t.png","NA","practice","null","","","",""
"d3-animate-choice","40","643616","0.0-40.0","37","644","16","Male","true","false","true","false","""event"",""trial"",""time""
""fullscreenenter"",""5"",""496633""
""fullscreenexit"",""6"",""498345""
","
","
","""event"",""trial"",""time""
""fullscreenenter"",""5"",""496633""
","""event"",""trial"",""time""
""fullscreenexit"",""6"",""498345""
","493","","49","","","3000","1","","","images/tutgreenplanet.jpg","images/tutalien1","images/tutalien2","null","images/tutalien2","images/t.png","NA","practice","null","","","",""
"d3-animate-choice","41","646206","0.0-41.0","37","644","16","Male","true","false","true","false","""event"",""trial"",""time""
""fullscreenenter"",""5"",""496633""
""fullscreenexit"",""6"",""498345""
","
","
","""event"",""trial"",""time""
""fullscreenenter"",""5"",""496633""
","""event"",""trial"",""time""
""fullscreenexit"",""6"",""498345""
","588","","49","","","3000","1","","","images/tutgreenplanet.jpg","images/tutalien1","images/tutalien2","null","images/tutalien2","images/t.png","NA","practice","null","","","",""
"d3-animate-choice","42","648638","0.0-42.0","37","644","16","Male","true","false","true","false","""event"",""trial"",""time""
""fullscreenenter"",""5"",""496633""
""fullscreenexit"",""6"",""498345""
","
","
","""event"",""trial"",""time""
""fullscreenenter"",""5"",""496633""
","""event"",""trial"",""time""
""fullscreenexit"",""6"",""498345""
","430","","49","","","3000","1","","","images/tutgreenplanet.jpg","images/tutalien1","images/tutalien2","null","images/tutalien2","images/t.png","NA","practice","null","","","",""
"d3-animate-choice","43","651151","0.0-43.0","37","644","16","Male","true","false","true","false","""event"",""trial"",""time""
""fullscreenenter"",""5"",""496633""
""fullscreenexit"",""6"",""498345""
","
","
","""event"",""trial"",""time""
""fullscreenenter"",""5"",""496633""
","""event"",""trial"",""time""
""fullscreenexit"",""6"",""498345""
","509","","49","","","3000","1","","","images/tutgreenplanet.jpg","images/tutalien1","images/tutalien2","null","images/tutalien2","images/t.png","NA","practice","null","","","",""
"d3-instructions","44","658333","0.0-44.0","37","644","16","Male","true","false","true","false","""event"",""trial"",""time""
""fullscreenenter"",""5"",""496633""
""fullscreenexit"",""6"",""498345""
","
","
","""event"",""trial"",""time""
""fullscreenenter"",""5"",""496633""
","""event"",""trial"",""time""
""fullscreenexit"",""6"",""498345""
","","","","","","","","","","","","","","","","","","","","","",""
"d3-instructions","45","660908","0.0-45.0","37","644","16","Male","true","false","true","false","""event"",""trial"",""time""
""fullscreenenter"",""5"",""496633""
""fullscreenexit"",""6"",""498345""
","
","
","""event"",""trial"",""time""
""fullscreenenter"",""5"",""496633""
","""event"",""trial"",""time""
""fullscreenexit"",""6"",""498345""
","","","","","","","","","","","","","","","","","","","","","",""
"d3-instructions","46","663117","0.0-46.0","37","644","16","Male","true","false","true","false","""event"",""trial"",""time""
""fullscreenenter"",""5"",""496633""
""fullscreenexit"",""6"",""498345""
","
","
","""event"",""trial"",""time""
""fullscreenenter"",""5"",""496633""
","""event"",""trial"",""time""
""fullscreenexit"",""6"",""498345""
","","","","","","","","","","","","","","","","","","","","","",""
"d3-instructions","47","667421","0.0-47.0","37","644","16","Male","true","false","true","false","""event"",""trial"",""time""
""fullscreenenter"",""5"",""496633""
""fullscreenexit"",""6"",""498345""
","
","
","""event"",""trial"",""time""
""fullscreenenter"",""5"",""496633""
","""event"",""trial"",""time""
""fullscreenexit"",""6"",""498345""
","","","","","","","","","","","","","","","","","","","","","",""
"d3-instructions","48","670109","0.0-48.0","37","644","16","Male","true","false","true","false","""event"",""trial"",""time""
""fullscreenenter"",""5"",""496633""
""fullscreenexit"",""6"",""498345""
","
","
","""event"",""trial"",""time""
""fullscreenenter"",""5"",""496633""
","""event"",""trial"",""time""
""fullscreenexit"",""6"",""498345""
","","","","","","","","","","","","","","","","","","","","","",""
"d3-instructions","49","673518","0.0-49.0","37","644","16","Male","true","false","true","false","""event"",""trial"",""time""
""fullscreenenter"",""5"",""496633""
""fullscreenexit"",""6"",""498345""
","
","
","""event"",""trial"",""time""
""fullscreenenter"",""5"",""496633""
","""event"",""trial"",""time""
""fullscreenexit"",""6"",""498345""
","","","","","","","","","","","","","","","","","","","","","",""
"d3-instructions","50","676045","0.0-50.0","37","644","16","Male","true","false","true","false","""event"",""trial"",""time""
""fullscreenenter"",""5"",""496633""
""fullscreenexit"",""6"",""498345""
","
","
","""event"",""trial"",""time""
""fullscreenenter"",""5"",""496633""
","""event"",""trial"",""time""
""fullscreenexit"",""6"",""498345""
","","","","","","","","","","","","","","","","","","","","","",""
"d3-instructions","51","679069","0.0-51.0","37","644","16","Male","true","false","true","false","""event"",""trial"",""time""
""fullscreenenter"",""5"",""496633""
""fullscreenexit"",""6"",""498345""
","
","
","""event"",""trial"",""time""
""fullscreenenter"",""5"",""496633""
","""event"",""trial"",""time""
""fullscreenexit"",""6"",""498345""
","","","","","","","","","","","","","","","","","","","","","",""
"d3-instructions","52","680429","0.0-52.0","37","644","16","Male","true","false","true","false","""event"",""trial"",""time""
""fullscreenenter"",""5"",""496633""
""fullscreenexit"",""6"",""498345""
","
","
","""event"",""trial"",""time""
""fullscreenenter"",""5"",""496633""
","""event"",""trial"",""time""
""fullscreenexit"",""6"",""498345""
","","","","","","","","","","","","","","","","","","","","","",""
"d3-instructions","53","687325","0.0-53.0","37","644","16","Male","true","false","true","false","""event"",""trial"",""time""
""fullscreenenter"",""5"",""496633""
""fullscreenexit"",""6"",""498345""
","
","
","""event"",""trial"",""time""
""fullscreenenter"",""5"",""496633""
","""event"",""trial"",""time""
""fullscreenexit"",""6"",""498345""
","","","","","","","","","","","","","","","","","","","","","",""
"d3-instructions","54","690717","0.0-54.0","37","644","16","Male","true","false","true","false","""event"",""trial"",""time""
""fullscreenenter"",""5"",""496633""
""fullscreenexit"",""6"",""498345""
","
","
","""event"",""trial"",""time""
""fullscreenenter"",""5"",""496633""
","""event"",""trial"",""time""
""fullscreenexit"",""6"",""498345""
","","","","","","","","","","","","","","","","","","","","","",""
"d3-instructions","55","693549","0.0-55.0","37","644","16","Male","true","false","true","false","""event"",""trial"",""time""
""fullscreenenter"",""5"",""496633""
""fullscreenexit"",""6"",""498345""
","
","
","""event"",""trial"",""time""
""fullscreenenter"",""5"",""496633""
","""event"",""trial"",""time""
""fullscreenexit"",""6"",""498345""
","","","","","","","","","","","","","","","","","","","","","",""
"d3-instructions","56","696989","0.0-56.0","37","644","16","Male","true","false","true","false","""event"",""trial"",""time""
""fullscreenenter"",""5"",""496633""
""fullscreenexit"",""6"",""498345""
","
","
","""event"",""trial"",""time""
""fullscreenenter"",""5"",""496633""
","""event"",""trial"",""time""
""fullscreenexit"",""6"",""498345""
","","","","","","","","","","","","","","","","","","","","","",""
"d3-instructions","57","700605","0.0-57.0","37","644","16","Male","true","false","true","false","""event"",""trial"",""time""
""fullscreenenter"",""5"",""496633""
""fullscreenexit"",""6"",""498345""
","
","
","""event"",""trial"",""time""
""fullscreenenter"",""5"",""496633""
","""event"",""trial"",""time""
""fullscreenexit"",""6"",""498345""
","","","","","","","","","","","","","","","","","","","","","",""
"d3-instructions","58","707630","0.0-58.0","37","644","16","Male","true","false","true","false","""event"",""trial"",""time""
""fullscreenenter"",""5"",""496633""
""fullscreenexit"",""6"",""498345""
","
","
","""event"",""trial"",""time""
""fullscreenenter"",""5"",""496633""
","""event"",""trial"",""time""
""fullscreenexit"",""6"",""498345""
","","","","","","","","","","","","","","","","","","","","","",""
"d3-instructions","59","710637","0.0-59.0","37","644","16","Male","true","false","true","false","""event"",""trial"",""time""
""fullscreenenter"",""5"",""496633""
""fullscreenexit"",""6"",""498345""
","
","
","""event"",""trial"",""time""
""fullscreenenter"",""5"",""496633""
","""event"",""trial"",""time""
""fullscreenexit"",""6"",""498345""
","","","","","","","","","","","","","","","","","","","","","",""
"d3-instructions","60","716669","0.0-60.0","37","644","16","Male","true","false","true","false","""event"",""trial"",""time""
""fullscreenenter"",""5"",""496633""
""fullscreenexit"",""6"",""498345""
","
","
","""event"",""trial"",""time""
""fullscreenenter"",""5"",""496633""
","""event"",""trial"",""time""
""fullscreenexit"",""6"",""498345""
","","","","","","","","","","","","","","","","","","","","","",""
"d3-animate-choice","61","719310","0.0-61.0-0.0","37","644","16","Male","true","false","true","false","""event"",""trial"",""time""
""fullscreenenter"",""5"",""496633""
""fullscreenexit"",""6"",""498345""
","
","
","""event"",""trial"",""time""
""fullscreenenter"",""5"",""496633""
","""event"",""trial"",""time""
""fullscreenexit"",""6"",""498345""
","636","","49","","","3000","1","","","images/earth.jpg","images/tutrocket1","images/tutrocket2","null","images/tutrocket2","","1","practice","null","1","","",""
"d3-animate-choice","62","722350","0.0-61.0-1.0","37","644","16","Male","true","false","true","false","""event"",""trial"",""time""
""fullscreenenter"",""5"",""496633""
""fullscreenexit"",""6"",""498345""
","
","
","""event"",""trial"",""time""
""fullscreenenter"",""5"",""496633""
","""event"",""trial"",""time""
""fullscreenexit"",""6"",""498345""
","1035","","49","","","3000","1","","","images/tutyellowplanet.jpg","images/tutalien4","images/tutalien3","images/tutrocket2","images/tutalien3","images/nothing.png","2","practice","false","1","rare","0","2022-02-02 15:04:45.214"
"two-step-fixation","63","723351","0.0-61.0-2.0","37","644","16","Male","true","false","true","false","""event"",""trial"",""time""
""fullscreenenter"",""5"",""496633""
""fullscreenexit"",""6"",""498345""
","
","
","""event"",""trial"",""time""
""fullscreenenter"",""5"",""496633""
","""event"",""trial"",""time""
""fullscreenexit"",""6"",""498345""
","","images/earth.jpg","","","","","","","","","","","","","","fixation","","","","","",""
"d3-animate-choice","64","726463","0.0-61.0-0.1","37","644","16","Male","true","false","true","false","""event"",""trial"",""time""
""fullscreenenter"",""5"",""496633""
""fullscreenexit"",""6"",""498345""
","
","
","""event"",""trial"",""time""
""fullscreenenter"",""5"",""496633""
","""event"",""trial"",""time""
""fullscreenexit"",""6"",""498345""
","1107","","48","","","3000","1","","","images/earth.jpg","images/tutrocket1","images/tutrocket2","null","images/tutrocket1","","1","practice","null","2","","",""
"d3-animate-choice","65","729166","0.0-61.0-1.1","37","644","16","Male","true","false","true","false","""event"",""trial"",""time""
""fullscreenenter"",""5"",""496633""
""fullscreenexit"",""6"",""498345""
","
","
","""event"",""trial"",""time""
""fullscreenenter"",""5"",""496633""
","""event"",""trial"",""time""
""fullscreenexit"",""6"",""498345""
","700","","48","","","3000","1","","","images/tutyellowplanet.jpg","images/tutalien4","images/tutalien3","images/tutrocket1","images/tutalien4","images/nothing.png","2","practice","true","2","common","0","2022-02-02 15:04:52.030"
"two-step-fixation","66","730168","0.0-61.0-2.1","37","644","16","Male","true","false","true","false","""event"",""trial"",""time""
""fullscreenenter"",""5"",""496633""
""fullscreenexit"",""6"",""498345""
","
","
","""event"",""trial"",""time""
""fullscreenenter"",""5"",""496633""
","""event"",""trial"",""time""
""fullscreenexit"",""6"",""498345""
","","images/earth.jpg","","","","","","","","","","","","","","fixation","","","","","",""
"d3-animate-choice","67","732686","0.0-61.0-0.2","37","644","16","Male","true","false","true","false","""event"",""trial"",""time""
""fullscreenenter"",""5"",""496633""
""fullscreenexit"",""6"",""498345""
","
","
","""event"",""trial"",""time""
""fullscreenenter"",""5"",""496633""
","""event"",""trial"",""time""
""fullscreenexit"",""6"",""498345""
","513","","48","","","3000","1","","","images/earth.jpg","images/tutrocket1","images/tutrocket2","null","images/tutrocket1","","1","practice","null","2","","",""
"d3-animate-choice","68","735295","0.0-61.0-1.2","37","644","16","Male","true","false","true","false","""event"",""trial"",""time""
""fullscreenenter"",""5"",""496633""
""fullscreenexit"",""6"",""498345""
","
","
","""event"",""trial"",""time""
""fullscreenenter"",""5"",""496633""
","""event"",""trial"",""time""
""fullscreenexit"",""6"",""498345""
","604","","49","","","3000","1","","","images/tutyellowplanet.jpg","images/tutalien4","images/tutalien3","images/tutrocket1","images/tutalien3","images/nothing.png","2","practice","true","1","common","0","2022-02-02 15:04:58.159"
"two-step-fixation","69","736297","0.0-61.0-2.2","37","644","16","Male","true","false","true","false","""event"",""trial"",""time""
""fullscreenenter"",""5"",""496633""
""fullscreenexit"",""6"",""498345""
","
","
","""event"",""trial"",""time""
""fullscreenenter"",""5"",""496633""
","""event"",""trial"",""time""
""fullscreenexit"",""6"",""498345""
","","images/earth.jpg","","","","","","","","","","","","","","fixation","","","","","",""
"d3-animate-choice","70","738990","0.0-61.0-0.3","37","644","16","Male","true","false","true","false","""event"",""trial"",""time""
""fullscreenenter"",""5"",""496633""
""fullscreenexit"",""6"",""498345""
","
","
","""event"",""trial"",""time""
""fullscreenenter"",""5"",""496633""
","""event"",""trial"",""time""
""fullscreenexit"",""6"",""498345""
","690","","49","","","3000","1","","","images/earth.jpg","images/tutrocket1","images/tutrocket2","null","images/tutrocket2","","1","practice","null","1","","",""
"d3-animate-choice","71","741518","0.0-61.0-1.3","37","644","16","Male","true","false","true","false","""event"",""trial"",""time""
""fullscreenenter"",""5"",""496633""
""fullscreenexit"",""6"",""498345""
","
","
","""event"",""trial"",""time""
""fullscreenenter"",""5"",""496633""
","""event"",""trial"",""time""
""fullscreenexit"",""6"",""498345""
","524","","49","","","3000","1","","","images/tutgreenplanet.jpg","images/tutalien2","images/tutalien1","images/tutrocket2","images/tutalien1","images/t.png","2","practice","true","1","common","1","2022-02-02 15:05:04.382"
"two-step-fixation","72","742520","0.0-61.0-2.3","37","644","16","Male","true","false","true","false","""event"",""trial"",""time""
""fullscreenenter"",""5"",""496633""
""fullscreenexit"",""6"",""498345""
","
","
","""event"",""trial"",""time""
""fullscreenenter"",""5"",""496633""
","""event"",""trial"",""time""
""fullscreenexit"",""6"",""498345""
","","images/earth.jpg","","","","","","","","","","","","","","fixation","","","","","",""
"d3-animate-choice","73","745055","0.0-61.0-0.4","37","644","16","Male","true","false","true","false","""event"",""trial"",""time""
""fullscreenenter"",""5"",""496633""
""fullscreenexit"",""6"",""498345""
","
","
","""event"",""trial"",""time""
""fullscreenenter"",""5"",""496633""
","""event"",""trial"",""time""
""fullscreenexit"",""6"",""498345""
","531","","49","","","3000","1","","","images/earth.jpg","images/tutrocket1","images/tutrocket2","null","images/tutrocket2","","1","practice","null","1","","",""
"d3-animate-choice","74","747934","0.0-61.0-1.4","37","644","16","Male","true","false","true","false","""event"",""trial"",""time""
""fullscreenenter"",""5"",""496633""
""fullscreenexit"",""6"",""498345""
","
","
","""event"",""trial"",""time""
""fullscreenenter"",""5"",""496633""
","""event"",""trial"",""time""
""fullscreenexit"",""6"",""498345""
","874","","49","","","3000","1","","","images/tutyellowplanet.jpg","images/tutalien4","images/tutalien3","images/tutrocket2","images/tutalien3","images/t.png","2","practice","false","1","rare","1","2022-02-02 15:05:10.798"
"two-step-fixation","75","748935","0.0-61.0-2.4","37","644","16","Male","true","false","true","false","""event"",""trial"",""time""
""fullscreenenter"",""5"",""496633""
""fullscreenexit"",""6"",""498345""
","
","
","""event"",""trial"",""time""
""fullscreenenter"",""5"",""496633""
","""event"",""trial"",""time""
""fullscreenexit"",""6"",""498345""
","","images/earth.jpg","","","","","","","","","","","","","","fixation","","","","","",""
"d3-animate-choice","76","751277","0.0-61.0-0.5","37","644","16","Male","true","false","true","false","""event"",""trial"",""time""
""fullscreenenter"",""5"",""496633""
""fullscreenexit"",""6"",""498345""
","
","
","""event"",""trial"",""time""
""fullscreenenter"",""5"",""496633""
","""event"",""trial"",""time""
""fullscreenexit"",""6"",""498345""
","340","","49","","","3000","1","","","images/earth.jpg","images/tutrocket1","images/tutrocket2","null","images/tutrocket2","","1","practice","null","1","","",""
"d3-animate-choice","77","753790","0.0-61.0-1.5","37","644","16","Male","true","false","true","false","""event"",""trial"",""time""
""fullscreenenter"",""5"",""496633""
""fullscreenexit"",""6"",""498345""
","
","
","""event"",""trial"",""time""
""fullscreenenter"",""5"",""496633""
","""event"",""trial"",""time""
""fullscreenexit"",""6"",""498345""
","508","","49","","","3000","1","","","images/tutgreenplanet.jpg","images/tutalien2","images/tutalien1","images/tutrocket2","images/tutalien1","images/nothing.png","2","practice","true","1","common","0","2022-02-02 15:05:16.654"
"two-step-fixation","78","754791","0.0-61.0-2.5","37","644","16","Male","true","false","true","false","""event"",""trial"",""time""
""fullscreenenter"",""5"",""496633""
""fullscreenexit"",""6"",""498345""
","
","
","""event"",""trial"",""time""
""fullscreenenter"",""5"",""496633""
","""event"",""trial"",""time""
""fullscreenexit"",""6"",""498345""
","","images/earth.jpg","","","","","","","","","","","","","","fixation","","","","","",""
"d3-animate-choice","79","757005","0.0-61.0-0.6","37","644","16","Male","true","false","true","false","""event"",""trial"",""time""
""fullscreenenter"",""5"",""496633""
""fullscreenexit"",""6"",""498345""
","
","
","""event"",""trial"",""time""
""fullscreenenter"",""5"",""496633""
","""event"",""trial"",""time""
""fullscreenexit"",""6"",""498345""
","212","","49","","","3000","1","","","images/earth.jpg","images/tutrocket1","images/tutrocket2","null","images/tutrocket2","","1","practice","null","1","","",""
"d3-animate-choice","80","759438","0.0-61.0-1.6","37","644","16","Male","true","false","true","false","""event"",""trial"",""time""
""fullscreenenter"",""5"",""496633""
""fullscreenexit"",""6"",""498345""
","
","
","""event"",""trial"",""time""
""fullscreenenter"",""5"",""496633""
","""event"",""trial"",""time""
""fullscreenexit"",""6"",""498345""
","429","","49","","","3000","1","","","images/tutyellowplanet.jpg","images/tutalien4","images/tutalien3","images/tutrocket2","images/tutalien3","images/nothing.png","2","practice","false","1","rare","0","2022-02-02 15:05:22.302"
"two-step-fixation","81","760442","0.0-61.0-2.6","37","644","16","Male","true","false","true","false","""event"",""trial"",""time""
""fullscreenenter"",""5"",""496633""
""fullscreenexit"",""6"",""498345""
","
","
","""event"",""trial"",""time""
""fullscreenenter"",""5"",""496633""
","""event"",""trial"",""time""
""fullscreenexit"",""6"",""498345""
","","images/earth.jpg","","","","","","","","","","","","","","fixation","","","","","",""
"d3-animate-choice","82","763486","0.0-61.0-0.7","37","644","16","Male","true","false","true","false","""event"",""trial"",""time""
""fullscreenenter"",""5"",""496633""
""fullscreenexit"",""6"",""498345""
","
","
","""event"",""trial"",""time""
""fullscreenenter"",""5"",""496633""
","""event"",""trial"",""time""
""fullscreenexit"",""6"",""498345""
","1040","","48","","","3000","1","","","images/earth.jpg","images/tutrocket1","images/tutrocket2","null","images/tutrocket1","","1","practice","null","2","","",""
"d3-animate-choice","83","766174","0.0-61.0-1.7","37","644","16","Male","true","false","true","false","""event"",""trial"",""time""
""fullscreenenter"",""5"",""496633""
""fullscreenexit"",""6"",""498345""
","
","
","""event"",""trial"",""time""
""fullscreenenter"",""5"",""496633""
","""event"",""trial"",""time""
""fullscreenexit"",""6"",""498345""
","684","","49","","","3000","1","","","images/tutgreenplanet.jpg","images/tutalien2","images/tutalien1","images/tutrocket1","images/tutalien1","images/nothing.png","2","practice","false","1","rare","0","2022-02-02 15:05:29.038"
"two-step-fixation","84","767176","0.0-61.0-2.7","37","644","16","Male","true","false","true","false","""event"",""trial"",""time""
""fullscreenenter"",""5"",""496633""
""fullscreenexit"",""6"",""498345""
","
","
","""event"",""trial"",""time""
""fullscreenenter"",""5"",""496633""
","""event"",""trial"",""time""
""fullscreenexit"",""6"",""498345""
","","images/earth.jpg","","","","","","","","","","","","","","fixation","","","","","",""
"d3-animate-choice","85","770158","0.0-61.0-0.8","37","644","16","Male","true","false","true","false","""event"",""trial"",""time""
""fullscreenenter"",""5"",""496633""
""fullscreenexit"",""6"",""498345""
","
","
","""event"",""trial"",""time""
""fullscreenenter"",""5"",""496633""
","""event"",""trial"",""time""
""fullscreenexit"",""6"",""498345""
","978","","48","","","3000","1","","","images/earth.jpg","images/tutrocket1","images/tutrocket2","null","images/tutrocket1","","1","practice","null","2","","",""
"d3-animate-choice","86","772653","0.0-61.0-1.8","37","644","16","Male","true","false","true","false","""event"",""trial"",""time""
""fullscreenenter"",""5"",""496633""
""fullscreenexit"",""6"",""498345""
","
","
","""event"",""trial"",""time""
""fullscreenenter"",""5"",""496633""
","""event"",""trial"",""time""
""fullscreenexit"",""6"",""498345""
","491","","48","","","3000","1","","","images/tutyellowplanet.jpg","images/tutalien4","images/tutalien3","images/tutrocket1","images/tutalien4","images/t.png","2","practice","true","2","common","1","2022-02-02 15:05:35.517"
"two-step-fixation","87","773655","0.0-61.0-2.8","37","644","16","Male","true","false","true","false","""event"",""trial"",""time""
""fullscreenenter"",""5"",""496633""
""fullscreenexit"",""6"",""498345""
","
","
","""event"",""trial"",""time""
""fullscreenenter"",""5"",""496633""
","""event"",""trial"",""time""
""fullscreenexit"",""6"",""498345""
","","images/earth.jpg","","","","","","","","","","","","","","fixation","","","","","",""
"d3-animate-choice","88","776078","0.0-61.0-0.9","37","644","16","Male","true","false","true","false","""event"",""trial"",""time""
""fullscreenenter"",""5"",""496633""
""fullscreenexit"",""6"",""498345""
","
","
","""event"",""trial"",""time""
""fullscreenenter"",""5"",""496633""
","""event"",""trial"",""time""
""fullscreenexit"",""6"",""498345""
","419","","48","","","3000","1","","","images/earth.jpg","images/tutrocket1","images/tutrocket2","null","images/tutrocket1","","1","practice","null","2","","",""
"d3-animate-choice","89","778541","0.0-61.0-1.9","37","644","16","Male","true","false","true","false","""event"",""trial"",""time""
""fullscreenenter"",""5"",""496633""
""fullscreenexit"",""6"",""498345""
","
","
","""event"",""trial"",""time""
""fullscreenenter"",""5"",""496633""
","""event"",""trial"",""time""
""fullscreenexit"",""6"",""498345""
","459","","49","","","3000","1","","","images/tutyellowplanet.jpg","images/tutalien4","images/tutalien3","images/tutrocket1","images/tutalien3","images/t.png","2","practice","true","1","common","1","2022-02-02 15:05:41.406"
"two-step-fixation","90","779543","0.0-61.0-2.9","37","644","16","Male","true","false","true","false","""event"",""trial"",""time""
""fullscreenenter"",""5"",""496633""
""fullscreenexit"",""6"",""498345""
","
","
","""event"",""trial"",""time""
""fullscreenenter"",""5"",""496633""
","""event"",""trial"",""time""
""fullscreenexit"",""6"",""498345""
","","images/earth.jpg","","","","","","","","","","","","","","fixation","","","","","",""
"d3-animate-choice","91","781631","0.0-61.0-0.10","37","644","16","Male","true","false","true","false","""event"",""trial"",""time""
""fullscreenenter"",""5"",""496633""
""fullscreenexit"",""6"",""498345""
","
","
","""event"",""trial"",""time""
""fullscreenenter"",""5"",""496633""
","""event"",""trial"",""time""
""fullscreenexit"",""6"",""498345""
","83","","49","","","3000","1","","","images/earth.jpg","images/tutrocket1","images/tutrocket2","null","images/tutrocket2","","1","practice","null","1","","",""
"d3-animate-choice","92","784046","0.0-61.0-1.10","37","644","16","Male","true","false","true","false","""event"",""trial"",""time""
""fullscreenenter"",""5"",""496633""
""fullscreenexit"",""6"",""498345""
","
","
","""event"",""trial"",""time""
""fullscreenenter"",""5"",""496633""
","""event"",""trial"",""time""
""fullscreenexit"",""6"",""498345""
","411","","49","","","3000","1","","","images/tutgreenplanet.jpg","images/tutalien2","images/tutalien1","images/tutrocket2","images/tutalien1","images/nothing.png","2","practice","true","1","common","0","2022-02-02 15:05:46.910"
"two-step-fixation","93","785047","0.0-61.0-2.10","37","644","16","Male","true","false","true","false","""event"",""trial"",""time""
""fullscreenenter"",""5"",""496633""
""fullscreenexit"",""6"",""498345""
","
","
","""event"",""trial"",""time""
""fullscreenenter"",""5"",""496633""
","""event"",""trial"",""time""
""fullscreenexit"",""6"",""498345""
","","images/earth.jpg","","","","","","","","","","","","","","fixation","","","","","",""
"d3-animate-choice","94","787695","0.0-61.0-0.11","37","644","16","Male","true","false","true","false","""event"",""trial"",""time""
""fullscreenenter"",""5"",""496633""
""fullscreenexit"",""6"",""498345""
","
","
","""event"",""trial"",""time""
""fullscreenenter"",""5"",""496633""
","""event"",""trial"",""time""
""fullscreenexit"",""6"",""498345""
","643","","49","","","3000","1","","","images/earth.jpg","images/tutrocket1","images/tutrocket2","null","images/tutrocket2","","1","practice","null","1","","",""
"d3-animate-choice","95","790143","0.0-61.0-1.11","37","644","16","Male","true","false","true","false","""event"",""trial"",""time""
""fullscreenenter"",""5"",""496633""
""fullscreenexit"",""6"",""498345""
","
","
","""event"",""trial"",""time""
""fullscreenenter"",""5"",""496633""
","""event"",""trial"",""time""
""fullscreenexit"",""6"",""498345""
","444","","48","","","3000","1","","","images/tutgreenplanet.jpg","images/tutalien2","images/tutalien1","images/tutrocket2","images/tutalien2","images/nothing.png","2","practice","true","2","common","0","2022-02-02 15:05:53.007"
"two-step-fixation","96","791144","0.0-61.0-2.11","37","644","16","Male","true","false","true","false","""event"",""trial"",""time""
""fullscreenenter"",""5"",""496633""
""fullscreenexit"",""6"",""498345""
","
","
","""event"",""trial"",""time""
""fullscreenenter"",""5"",""496633""
","""event"",""trial"",""time""
""fullscreenexit"",""6"",""498345""
","","images/earth.jpg","","","","","","","","","","","","","","fixation","","","","","",""
"d3-animate-choice","97","793598","0.0-61.0-0.12","37","644","16","Male","true","false","true","false","""event"",""trial"",""time""
""fullscreenenter"",""5"",""496633""
""fullscreenexit"",""6"",""498345""
","
","
","""event"",""trial"",""time""
""fullscreenenter"",""5"",""496633""
","""event"",""trial"",""time""
""fullscreenexit"",""6"",""498345""
","450","","48","","","3000","1","","","images/earth.jpg","images/tutrocket1","images/tutrocket2","null","images/tutrocket1","","1","practice","null","2","","",""
"d3-animate-choice","98","796223","0.0-61.0-1.12","37","644","16","Male","true","false","true","false","""event"",""trial"",""time""
""fullscreenenter"",""5"",""496633""
""fullscreenexit"",""6"",""498345""
","
","
","""event"",""trial"",""time""
""fullscreenenter"",""5"",""496633""
","""event"",""trial"",""time""
""fullscreenexit"",""6"",""498345""
","619","","48","","","3000","1","","","images/tutgreenplanet.jpg","images/tutalien2","images/tutalien1","images/tutrocket1","images/tutalien2","images/nothing.png","2","practice","false","2","rare","0","2022-02-02 15:05:59.087"
"two-step-fixation","99","797224","0.0-61.0-2.12","37","644","16","Male","true","false","true","false","""event"",""trial"",""time""
""fullscreenenter"",""5"",""496633""
""fullscreenexit"",""6"",""498345""
","
","
","""event"",""trial"",""time""
""fullscreenenter"",""5"",""496633""
","""event"",""trial"",""time""
""fullscreenexit"",""6"",""498345""
","","images/earth.jpg","","","","","","","","","","","","","","fixation","","","","","",""
"d3-animate-choice","100","799692","0.0-61.0-0.13","37","644","16","Male","true","false","true","false","""event"",""trial"",""time""
""fullscreenenter"",""5"",""496633""
""fullscreenexit"",""6"",""498345""
","
","
","""event"",""trial"",""time""
""fullscreenenter"",""5"",""496633""
","""event"",""trial"",""time""
""fullscreenexit"",""6"",""498345""
","465","","48","","","3000","1","","","images/earth.jpg","images/tutrocket1","images/tutrocket2","null","images/tutrocket1","","1","practice","null","2","","",""
"d3-animate-choice","101","802094","0.0-61.0-1.13","37","644","16","Male","true","false","true","false","""event"",""trial"",""time""
""fullscreenenter"",""5"",""496633""
""fullscreenexit"",""6"",""498345""
","
","
","""event"",""trial"",""time""
""fullscreenenter"",""5"",""496633""
","""event"",""trial"",""time""
""fullscreenexit"",""6"",""498345""
","398","","49","","","3000","1","","","images/tutyellowplanet.jpg","images/tutalien4","images/tutalien3","images/tutrocket1","images/tutalien3","images/t.png","2","practice","true","1","common","1","2022-02-02 15:06:04.958"
"two-step-fixation","102","803094","0.0-61.0-2.13","37","644","16","Male","true","false","true","false","""event"",""trial"",""time""
""fullscreenenter"",""5"",""496633""
""fullscreenexit"",""6"",""498345""
","
","
","""event"",""trial"",""time""
""fullscreenenter"",""5"",""496633""
","""event"",""trial"",""time""
""fullscreenexit"",""6"",""498345""
","","images/earth.jpg","","","","","","","","","","","","","","fixation","","","","","",""
"d3-animate-choice","103","805597","0.0-61.0-0.14","37","644","16","Male","true","false","true","false","""event"",""trial"",""time""
""fullscreenenter"",""5"",""496633""
""fullscreenexit"",""6"",""498345""
","
","
","""event"",""trial"",""time""
""fullscreenenter"",""5"",""496633""
","""event"",""trial"",""time""
""fullscreenexit"",""6"",""498345""
","499","","49","","","3000","1","","","images/earth.jpg","images/tutrocket1","images/tutrocket2","null","images/tutrocket2","","1","practice","null","1","","",""
"d3-animate-choice","104","807981","0.0-61.0-1.14","37","644","16","Male","true","false","true","false","""event"",""trial"",""time""
""fullscreenenter"",""5"",""496633""
""fullscreenexit"",""6"",""498345""
","
","
","""event"",""trial"",""time""
""fullscreenenter"",""5"",""496633""
","""event"",""trial"",""time""
""fullscreenexit"",""6"",""498345""
","380","","49","","","3000","1","","","images/tutgreenplanet.jpg","images/tutalien2","images/tutalien1","images/tutrocket2","images/tutalien1","images/nothing.png","2","practice","true","1","common","0","2022-02-02 15:06:10.846"
"two-step-fixation","105","808985","0.0-61.0-2.14","37","644","16","Male","true","false","true","false","""event"",""trial"",""time""
""fullscreenenter"",""5"",""496633""
""fullscreenexit"",""6"",""498345""
","
","
","""event"",""trial"",""time""
""fullscreenenter"",""5"",""496633""
","""event"",""trial"",""time""
""fullscreenexit"",""6"",""498345""
","","images/earth.jpg","","","","","","","","","","","","","","fixation","","","","","",""
"d3-animate-choice","106","811454","0.0-61.0-0.15","37","644","16","Male","true","false","true","false","""event"",""trial"",""time""
""fullscreenenter"",""5"",""496633""
""fullscreenexit"",""6"",""498345""
","
","
","""event"",""trial"",""time""
""fullscreenenter"",""5"",""496633""
","""event"",""trial"",""time""
""fullscreenexit"",""6"",""498345""
","466","","49","","","3000","1","","","images/earth.jpg","images/tutrocket1","images/tutrocket2","null","images/tutrocket2","","1","practice","null","1","","",""
"d3-animate-choice","107","813853","0.0-61.0-1.15","37","644","16","Male","true","false","true","false","""event"",""trial"",""time""
""fullscreenenter"",""5"",""496633""
""fullscreenexit"",""6"",""498345""
","
","
","""event"",""trial"",""time""
""fullscreenenter"",""5"",""496633""
","""event"",""trial"",""time""
""fullscreenexit"",""6"",""498345""
","396","","49","","","3000","1","","","images/tutgreenplanet.jpg","images/tutalien2","images/tutalien1","images/tutrocket2","images/tutalien1","images/nothing.png","2","practice","true","1","common","0","2022-02-02 15:06:16.717"
"two-step-fixation","108","814855","0.0-61.0-2.15","37","644","16","Male","true","false","true","false","""event"",""trial"",""time""
""fullscreenenter"",""5"",""496633""
""fullscreenexit"",""6"",""498345""
","
","
","""event"",""trial"",""time""
""fullscreenenter"",""5"",""496633""
","""event"",""trial"",""time""
""fullscreenexit"",""6"",""498345""
","","images/earth.jpg","","","","","","","","","","","","","","fixation","","","","","",""
"d3-animate-choice","109","817485","0.0-61.0-0.16","37","644","16","Male","true","false","true","false","""event"",""trial"",""time""
""fullscreenenter"",""5"",""496633""
""fullscreenexit"",""6"",""498345""
","
","
","""event"",""trial"",""time""
""fullscreenenter"",""5"",""496633""
","""event"",""trial"",""time""
""fullscreenexit"",""6"",""498345""
","627","","49","","","3000","1","2259","48","images/earth.jpg","images/tutrocket1","images/tutrocket2","null","images/tutrocket2","","1","practice","null","1","","",""
"d3-animate-choice","110","819934","0.0-61.0-1.16","37","644","16","Male","true","false","true","false","""event"",""trial"",""time""
""fullscreenenter"",""5"",""496633""
""fullscreenexit"",""6"",""498345""
","
","
","""event"",""trial"",""time""
""fullscreenenter"",""5"",""496633""
","""event"",""trial"",""time""
""fullscreenexit"",""6"",""498345""
","444","","48","","","3000","1","","","images/tutyellowplanet.jpg","images/tutalien4","images/tutalien3","images/tutrocket2","images/tutalien4","images/t.png","2","practice","false","2","rare","1","2022-02-02 15:06:22.798"
"two-step-fixation","111","820937","0.0-61.0-2.16","37","644","16","Male","true","false","true","false","""event"",""trial"",""time""
""fullscreenenter"",""5"",""496633""
""fullscreenexit"",""6"",""498345""
","
","
","""event"",""trial"",""time""
""fullscreenenter"",""5"",""496633""
","""event"",""trial"",""time""
""fullscreenexit"",""6"",""498345""
","","images/earth.jpg","","","","","","","","","","","","","","fixation","","","","","",""
"d3-animate-choice","112","823342","0.0-61.0-0.17","37","644","16","Male","true","false","true","false","""event"",""trial"",""time""
""fullscreenenter"",""5"",""496633""
""fullscreenexit"",""6"",""498345""
","
","
","""event"",""trial"",""time""
""fullscreenenter"",""5"",""496633""
","""event"",""trial"",""time""
""fullscreenexit"",""6"",""498345""
","401","","48","","","3000","1","","","images/earth.jpg","images/tutrocket1","images/tutrocket2","null","images/tutrocket1","","1","practice","null","2","","",""
"d3-animate-choice","113","825790","0.0-61.0-1.17","37","644","16","Male","true","false","true","false","""event"",""trial"",""time""
""fullscreenenter"",""5"",""496633""
""fullscreenexit"",""6"",""498345""
","
","
","""event"",""trial"",""time""
""fullscreenenter"",""5"",""496633""
","""event"",""trial"",""time""
""fullscreenexit"",""6"",""498345""
","444","","48","","","3000","1","","","images/tutgreenplanet.jpg","images/tutalien2","images/tutalien1","images/tutrocket1","images/tutalien2","images/nothing.png","2","practice","false","2","rare","0","2022-02-02 15:06:28.654"
"two-step-fixation","114","826791","0.0-61.0-2.17","37","644","16","Male","true","false","true","false","""event"",""trial"",""time""
""fullscreenenter"",""5"",""496633""
""fullscreenexit"",""6"",""498345""
","
","
","""event"",""trial"",""time""
""fullscreenenter"",""5"",""496633""
","""event"",""trial"",""time""
""fullscreenexit"",""6"",""498345""
","","images/earth.jpg","","","","","","","","","","","","","","fixation","","","","","",""
"d3-animate-choice","115","829245","0.0-61.0-0.18","37","644","16","Male","true","false","true","false","""event"",""trial"",""time""
""fullscreenenter"",""5"",""496633""
""fullscreenexit"",""6"",""498345""
","
","
","""event"",""trial"",""time""
""fullscreenenter"",""5"",""496633""
","""event"",""trial"",""time""
""fullscreenexit"",""6"",""498345""
","451","","48","","","3000","1","","","images/earth.jpg","images/tutrocket1","images/tutrocket2","null","images/tutrocket1","","1","practice","null","2","","",""
"d3-animate-choice","116","831678","0.0-61.0-1.18","37","644","16","Male","true","false","true","false","""event"",""trial"",""time""
""fullscreenenter"",""5"",""496633""
""fullscreenexit"",""6"",""498345""
","
","
","""event"",""trial"",""time""
""fullscreenenter"",""5"",""496633""
","""event"",""trial"",""time""
""fullscreenexit"",""6"",""498345""
","427","","49","","","3000","1","","","images/tutyellowplanet.jpg","images/tutalien4","images/tutalien3","images/tutrocket1","images/tutalien3","images/nothing.png","2","practice","true","1","common","0","2022-02-02 15:06:34.542"
"two-step-fixation","117","832680","0.0-61.0-2.18","37","644","16","Male","true","false","true","false","""event"",""trial"",""time""
""fullscreenenter"",""5"",""496633""
""fullscreenexit"",""6"",""498345""
","
","
","""event"",""trial"",""time""
""fullscreenenter"",""5"",""496633""
","""event"",""trial"",""time""
""fullscreenexit"",""6"",""498345""
","","images/earth.jpg","","","","","","","","","","","","","","fixation","","","","","",""
"d3-animate-choice","118","835133","0.0-61.0-0.19","37","644","16","Male","true","false","true","false","""event"",""trial"",""time""
""fullscreenenter"",""5"",""496633""
""fullscreenexit"",""6"",""498345""
","
","
","""event"",""trial"",""time""
""fullscreenenter"",""5"",""496633""
","""event"",""trial"",""time""
""fullscreenexit"",""6"",""498345""
","450","","49","","","3000","1","","","images/earth.jpg","images/tutrocket1","images/tutrocket2","null","images/tutrocket2","","1","practice","null","1","","",""
"d3-animate-choice","119","837293","0.0-61.0-1.19","37","644","16","Male","true","false","true","false","""event"",""trial"",""time""
""fullscreenenter"",""5"",""496633""
""fullscreenexit"",""6"",""498345""
","
","
","""event"",""trial"",""time""
""fullscreenenter"",""5"",""496633""
","""event"",""trial"",""time""
""fullscreenexit"",""6"",""498345""
","156","","48","","","3000","1","","","images/tutgreenplanet.jpg","images/tutalien2","images/tutalien1","images/tutrocket2","images/tutalien2","images/nothing.png","2","practice","true","2","common","0","2022-02-02 15:06:40.157"
"two-step-fixation","120","838295","0.0-61.0-2.19","37","644","16","Male","true","false","true","false","""event"",""trial"",""time""
""fullscreenenter"",""5"",""496633""
""fullscreenexit"",""6"",""498345""
","
","
","""event"",""trial"",""time""
""fullscreenenter"",""5"",""496633""
","""event"",""trial"",""time""
""fullscreenexit"",""6"",""498345""
","","images/earth.jpg","","","","","","","","","","","","","","fixation","","","","","",""
"d3-instructions","121","840380","0.0-62.0","37","644","16","Male","true","false","true","false","""event"",""trial"",""time""
""fullscreenenter"",""5"",""496633""
""fullscreenexit"",""6"",""498345""
","
","
","""event"",""trial"",""time""
""fullscreenenter"",""5"",""496633""
","""event"",""trial"",""time""
""fullscreenexit"",""6"",""498345""
","","","","","","","","","","","","","","","","","","","","","",""
"audio-keyboard-response","122","843196","0.0-63.0","37","644","16","Male","true","false","true","false","""event"",""trial"",""time""
""fullscreenenter"",""5"",""496633""
""fullscreenexit"",""6"",""498345""
","
","
","""event"",""trial"",""time""
""fullscreenenter"",""5"",""496633""
","""event"",""trial"",""time""
""fullscreenexit"",""6"",""498345""
","2821","audio/instructions/treasure_feedback.wav","32","","","","","","","","","","","","","","","","","","",""
"d3-instructions","123","846876","0.0-64.0","37","644","16","Male","true","false","true","false","""event"",""trial"",""time""
""fullscreenenter"",""5"",""496633""
""fullscreenexit"",""6"",""498345""
","
","
","""event"",""trial"",""time""
""fullscreenenter"",""5"",""496633""
","""event"",""trial"",""time""
""fullscreenexit"",""6"",""498345""
","","","","","","","","","","","","","","","","","","","","","",""
"d3-instructions","124","849212","0.0-65.0","37","644","16","Male","true","false","true","false","""event"",""trial"",""time""
""fullscreenenter"",""5"",""496633""
""fullscreenexit"",""6"",""498345""
","
","
","""event"",""trial"",""time""
""fullscreenenter"",""5"",""496633""
","""event"",""trial"",""time""
""fullscreenexit"",""6"",""498345""
","","","","","","","","","","","","","","","","","","","","","",""
"d3-instructions","125","850524","0.0-66.0","37","644","16","Male","true","false","true","false","""event"",""trial"",""time""
""fullscreenenter"",""5"",""496633""
""fullscreenexit"",""6"",""498345""
","
","
","""event"",""trial"",""time""
""fullscreenenter"",""5"",""496633""
","""event"",""trial"",""time""
""fullscreenexit"",""6"",""498345""
","","","","","","","","","","","","","","","","","","","","","",""
"d3-instructions","126","851836","0.0-67.0","37","644","16","Male","true","false","true","false","""event"",""trial"",""time""
""fullscreenenter"",""5"",""496633""
""fullscreenexit"",""6"",""498345""
","
","
","""event"",""trial"",""time""
""fullscreenenter"",""5"",""496633""
","""event"",""trial"",""time""
""fullscreenexit"",""6"",""498345""
","","","","","","","","","","","","","","","","","","","","","",""
"d3-instructions","127","855404","0.0-68.0","37","644","16","Male","true","false","true","false","""event"",""trial"",""time""
""fullscreenenter"",""5"",""496633""
""fullscreenexit"",""6"",""498345""
","
","
","""event"",""trial"",""time""
""fullscreenenter"",""5"",""496633""
","""event"",""trial"",""time""
""fullscreenexit"",""6"",""498345""
","","","","","","","","","","","","","","","","","","","","","",""
"instructions-quiz","128","860387","0.0-69.0","37","644","16","Male","true","false","true","false","""event"",""trial"",""time""
""fullscreenenter"",""5"",""496633""
""fullscreenexit"",""6"",""498345""
","
","
","""event"",""trial"",""time""
""fullscreenenter"",""5"",""496633""
","""event"",""trial"",""time""
""fullscreenexit"",""6"",""498345""
","4982","audio/quiz/Q1_Prompt.wav","","1","","","","","","","","","","","","","","","","","",""
"audio-keyboard-response","129","862780","0.0-70.0","37","644","16","Male","true","false","true","false","""event"",""trial"",""time""
""fullscreenenter"",""5"",""496633""
""fullscreenexit"",""6"",""498345""
","
","
","""event"",""trial"",""time""
""fullscreenenter"",""5"",""496633""
","""event"",""trial"",""time""
""fullscreenexit"",""6"",""498345""
","2389","audio/quiz/Q1_Correct.wav","32","","","","","","","","","","","","","","","","","","",""
"instructions-quiz","130","869004","0.0-71.0","37","644","16","Male","true","false","true","false","""event"",""trial"",""time""
""fullscreenenter"",""5"",""496633""
""fullscreenexit"",""6"",""498345""
","
","
","""event"",""trial"",""time""
""fullscreenenter"",""5"",""496633""
","""event"",""trial"",""time""
""fullscreenexit"",""6"",""498345""
","6222","audio/quiz/Q2_Prompt.wav","","1","","","","","","","","","","","","","","","","","",""
"audio-keyboard-response","131","874075","0.0-72.0","37","644","16","Male","true","false","true","false","""event"",""trial"",""time""
""fullscreenenter"",""5"",""496633""
""fullscreenexit"",""6"",""498345""
","
","
","""event"",""trial"",""time""
""fullscreenenter"",""5"",""496633""
","""event"",""trial"",""time""
""fullscreenexit"",""6"",""498345""
","5069","audio/quiz/Q2_Incorrect.wav","32","","","","","","","","","","","","","","","","","","",""
"instructions-quiz","132","877668","0.0-73.0","37","644","16","Male","true","false","true","false","""event"",""trial"",""time""
""fullscreenenter"",""5"",""496633""
""fullscreenexit"",""6"",""498345""
","
","
","""event"",""trial"",""time""
""fullscreenenter"",""5"",""496633""
","""event"",""trial"",""time""
""fullscreenexit"",""6"",""498345""
","3591","audio/quiz/Q3_Prompt.wav","","1","","","","","","","","","","","","","","","","","",""
"audio-keyboard-response","133","878732","0.0-74.0","37","644","16","Male","true","false","true","false","""event"",""trial"",""time""
""fullscreenenter"",""5"",""496633""
""fullscreenexit"",""6"",""498345""
","
","
","""event"",""trial"",""time""
""fullscreenenter"",""5"",""496633""
","""event"",""trial"",""time""
""fullscreenexit"",""6"",""498345""
","1069","audio/quiz/Q3_Correct.wav","32","","","","","","","","","","","","","","","","","","",""
"d3-instructions","134","881388","0.0-75.0","37","644","16","Male","true","false","true","false","""event"",""trial"",""time""
""fullscreenenter"",""5"",""496633""
""fullscreenexit"",""6"",""498345""
","
","
","""event"",""trial"",""time""
""fullscreenenter"",""5"",""496633""
","""event"",""trial"",""time""
""fullscreenexit"",""6"",""498345""
","","","","","","","","","","","","","","","","","","","","","",""
"d3-animate-choice","135","884765","0.0-76.0-0.0","37","644","16","Male","true","false","true","false","""event"",""trial"",""time""
""fullscreenenter"",""5"",""496633""
""fullscreenexit"",""6"",""498345""
","
","
","""event"",""trial"",""time""
""fullscreenenter"",""5"",""496633""
","""event"",""trial"",""time""
""fullscreenexit"",""6"",""498345""
","1374","","49","","","3000","1","","","images/earth.jpg","images/rocket2","images/rocket1","null","images/rocket1","","1","real","null","1","","",""
"d3-animate-choice","136","887438","0.0-76.0-1.0","37","644","16","Male","true","false","true","false","""event"",""trial"",""time""
""fullscreenenter"",""5"",""496633""
""fullscreenexit"",""6"",""498345""
","
","
","""event"",""trial"",""time""
""fullscreenenter"",""5"",""496633""
","""event"",""trial"",""time""
""fullscreenexit"",""6"",""498345""
","668","","49","","","3000","1","","","images/purpleplanet.jpg","images/alien4","images/alien3","images/rocket1","images/alien3","images/t.png","2","real","true","1","common","1","2022-02-02 15:07:30.302"
"two-step-fixation","137","888439","0.0-76.0-2.0","37","644","16","Male","true","false","true","false","""event"",""trial"",""time""
""fullscreenenter"",""5"",""496633""
""fullscreenexit"",""6"",""498345""
","
","
","""event"",""trial"",""time""
""fullscreenenter"",""5"",""496633""
","""event"",""trial"",""time""
""fullscreenexit"",""6"",""498345""
","","images/earth.jpg","","","","","","","","","","","","","","fixation","","","","","",""
"d3-animate-choice","138","890909","0.0-76.0-0.1","37","644","16","Male","true","false","true","false","""event"",""trial"",""time""
""fullscreenenter"",""5"",""496633""
""fullscreenexit"",""6"",""498345""
","
","
","""event"",""trial"",""time""
""fullscreenenter"",""5"",""496633""
","""event"",""trial"",""time""
""fullscreenexit"",""6"",""498345""
","466","","49","","","3000","1","","","images/earth.jpg","images/rocket2","images/rocket1","null","images/rocket1","","1","real","null","1","","",""
"d3-animate-choice","139","893373","0.0-76.0-1.1","37","644","16","Male","true","false","true","false","""event"",""trial"",""time""
""fullscreenenter"",""5"",""496633""
""fullscreenexit"",""6"",""498345""
","
","
","""event"",""trial"",""time""
""fullscreenenter"",""5"",""496633""
","""event"",""trial"",""time""
""fullscreenexit"",""6"",""498345""
","460","","49","","","3000","1","","","images/purpleplanet.jpg","images/alien4","images/alien3","images/rocket1","images/alien3","images/t.png","2","real","true","1","common","1","2022-02-02 15:07:36.237"
"two-step-fixation","140","894375","0.0-76.0-2.1","37","644","16","Male","true","false","true","false","""event"",""trial"",""time""
""fullscreenenter"",""5"",""496633""
""fullscreenexit"",""6"",""498345""
","
","
","""event"",""trial"",""time""
""fullscreenenter"",""5"",""496633""
","""event"",""trial"",""time""
""fullscreenexit"",""6"",""498345""
","","images/earth.jpg","","","","","","","","","","","","","","fixation","","","","","",""
"d3-animate-choice","141","896925","0.0-76.0-0.2","37","644","16","Male","true","false","true","false","""event"",""trial"",""time""
""fullscreenenter"",""5"",""496633""
""fullscreenexit"",""6"",""498345""
","
","
","""event"",""trial"",""time""
""fullscreenenter"",""5"",""496633""
","""event"",""trial"",""time""
""fullscreenexit"",""6"",""498345""
","547","","49","","","3000","1","","","images/earth.jpg","images/rocket2","images/rocket1","null","images/rocket1","","1","real","null","1","","",""
"d3-animate-choice","142","899565","0.0-76.0-1.2","37","644","16","Male","true","false","true","false","""event"",""trial"",""time""
""fullscreenenter"",""5"",""496633""
""fullscreenexit"",""6"",""498345""
","
","
","""event"",""trial"",""time""
""fullscreenenter"",""5"",""496633""
","""event"",""trial"",""time""
""fullscreenexit"",""6"",""498345""
","635","","49","","","3000","1","","","images/purpleplanet.jpg","images/alien4","images/alien3","images/rocket1","images/alien3","images/nothing.png","2","real","true","1","common","0","2022-02-02 15:07:42.429"
"two-step-fixation","143","900566","0.0-76.0-2.2","37","644","16","Male","true","false","true","false","""event"",""trial"",""time""
""fullscreenenter"",""5"",""496633""
""fullscreenexit"",""6"",""498345""
","
","
","""event"",""trial"",""time""
""fullscreenenter"",""5"",""496633""
","""event"",""trial"",""time""
""fullscreenexit"",""6"",""498345""
","","images/earth.jpg","","","","","","","","","","","","","","fixation","","","","","",""
"d3-animate-choice","144","903086","0.0-76.0-0.3","37","644","16","Male","true","false","true","false","""event"",""trial"",""time""
""fullscreenenter"",""5"",""496633""
""fullscreenexit"",""6"",""498345""
","
","
","""event"",""trial"",""time""
""fullscreenenter"",""5"",""496633""
","""event"",""trial"",""time""
""fullscreenexit"",""6"",""498345""
","515","","48","","","3000","1","","","images/earth.jpg","images/rocket2","images/rocket1","null","images/rocket2","","1","real","null","2","","",""
"d3-animate-choice","145","905837","0.0-76.0-1.3","37","644","16","Male","true","false","true","false","""event"",""trial"",""time""
""fullscreenenter"",""5"",""496633""
""fullscreenexit"",""6"",""498345""
","
","
","""event"",""trial"",""time""
""fullscreenenter"",""5"",""496633""
","""event"",""trial"",""time""
""fullscreenexit"",""6"",""498345""
","746","","48","","","3000","1","","","images/redplanet1.jpg","images/alien2","images/alien1","images/rocket2","images/alien2","images/t.png","2","real","true","2","common","1","2022-02-02 15:07:48.701"
"two-step-fixation","146","906838","0.0-76.0-2.3","37","644","16","Male","true","false","true","false","""event"",""trial"",""time""
""fullscreenenter"",""5"",""496633""
""fullscreenexit"",""6"",""498345""
","
","
","""event"",""trial"",""time""
""fullscreenenter"",""5"",""496633""
","""event"",""trial"",""time""
""fullscreenexit"",""6"",""498345""
","","images/earth.jpg","","","","","","","","","","","","","","fixation","","","","","",""
"d3-animate-choice","147","909245","0.0-76.0-0.4","37","644","16","Male","true","false","true","false","""event"",""trial"",""time""
""fullscreenenter"",""5"",""496633""
""fullscreenexit"",""6"",""498345""
","
","
","""event"",""trial"",""time""
""fullscreenenter"",""5"",""496633""
","""event"",""trial"",""time""
""fullscreenexit"",""6"",""498345""
","403","","48","","","3000","1","","","images/earth.jpg","images/rocket2","images/rocket1","null","images/rocket2","","1","real","null","2","","",""
"d3-animate-choice","148","911725","0.0-76.0-1.4","37","644","16","Male","true","false","true","false","""event"",""trial"",""time""
""fullscreenenter"",""5"",""496633""
""fullscreenexit"",""6"",""498345""
","
","
","""event"",""trial"",""time""
""fullscreenenter"",""5"",""496633""
","""event"",""trial"",""time""
""fullscreenexit"",""6"",""498345""
","475","","48","","","3000","1","","","images/redplanet1.jpg","images/alien2","images/alien1","images/rocket2","images/alien2","images/t.png","2","real","true","2","common","1","2022-02-02 15:07:54.589"
"two-step-fixation","149","912727","0.0-76.0-2.4","37","644","16","Male","true","false","true","false","""event"",""trial"",""time""
""fullscreenenter"",""5"",""496633""
""fullscreenexit"",""6"",""498345""
","
","
","""event"",""trial"",""time""
""fullscreenenter"",""5"",""496633""
","""event"",""trial"",""time""
""fullscreenexit"",""6"",""498345""
","","images/earth.jpg","","","","","","","","","","","","","","fixation","","","","","",""
"d3-animate-choice","150","915246","0.0-76.0-0.5","37","644","16","Male","true","false","true","false","""event"",""trial"",""time""
""fullscreenenter"",""5"",""496633""
""fullscreenexit"",""6"",""498345""
","
","
","""event"",""trial"",""time""
""fullscreenenter"",""5"",""496633""
","""event"",""trial"",""time""
""fullscreenexit"",""6"",""498345""
","516","","48","","","3000","1","","","images/earth.jpg","images/rocket2","images/rocket1","null","images/rocket2","","1","real","null","2","","",""
"d3-animate-choice","151","917757","0.0-76.0-1.5","37","644","16","Male","true","false","true","false","""event"",""trial"",""time""
""fullscreenenter"",""5"",""496633""
""fullscreenexit"",""6"",""498345""
","
","
","""event"",""trial"",""time""
""fullscreenenter"",""5"",""496633""
","""event"",""trial"",""time""
""fullscreenexit"",""6"",""498345""
","507","","48","","","3000","1","","","images/redplanet1.jpg","images/alien2","images/alien1","images/rocket2","images/alien2","images/t.png","2","real","true","2","common","1","2022-02-02 15:08:00.621"
"two-step-fixation","152","918758","0.0-76.0-2.5","37","644","16","Male","true","false","true","false","""event"",""trial"",""time""
""fullscreenenter"",""5"",""496633""
""fullscreenexit"",""6"",""498345""
","
","
","""event"",""trial"",""time""
""fullscreenenter"",""5"",""496633""
","""event"",""trial"",""time""
""fullscreenexit"",""6"",""498345""
","","images/earth.jpg","","","","","","","","","","","","","","fixation","","","","","",""
"d3-animate-choice","153","921229","0.0-76.0-0.6","37","644","16","Male","true","false","true","false","""event"",""trial"",""time""
""fullscreenenter"",""5"",""496633""
""fullscreenexit"",""6"",""498345""
","
","
","""event"",""trial"",""time""
""fullscreenenter"",""5"",""496633""
","""event"",""trial"",""time""
""fullscreenexit"",""6"",""498345""
","467","","48","","","3000","1","","","images/earth.jpg","images/rocket2","images/rocket1","null","images/rocket2","","1","real","null","2","","",""
"d3-animate-choice","154","923676","0.0-76.0-1.6","37","644","16","Male","true","false","true","false","""event"",""trial"",""time""
""fullscreenenter"",""5"",""496633""
""fullscreenexit"",""6"",""498345""
","
","
","""event"",""trial"",""time""
""fullscreenenter"",""5"",""496633""
","""event"",""trial"",""time""
""fullscreenexit"",""6"",""498345""
","444","","48","","","3000","1","","","images/purpleplanet.jpg","images/alien4","images/alien3","images/rocket2","images/alien4","images/t.png","2","real","false","2","rare","1","2022-02-02 15:08:06.540"
"two-step-fixation","155","924678","0.0-76.0-2.6","37","644","16","Male","true","false","true","false","""event"",""trial"",""time""
""fullscreenenter"",""5"",""496633""
""fullscreenexit"",""6"",""498345""
","
","
","""event"",""trial"",""time""
""fullscreenenter"",""5"",""496633""
","""event"",""trial"",""time""
""fullscreenexit"",""6"",""498345""
","","images/earth.jpg","","","","","","","","","","","","","","fixation","","","","","",""
"d3-animate-choice","156","927118","0.0-76.0-0.7","37","644","16","Male","true","false","true","false","""event"",""trial"",""time""
""fullscreenenter"",""5"",""496633""
""fullscreenexit"",""6"",""498345""
","
","
","""event"",""trial"",""time""
""fullscreenenter"",""5"",""496633""
","""event"",""trial"",""time""
""fullscreenexit"",""6"",""498345""
","437","","48","","","3000","1","","","images/earth.jpg","images/rocket2","images/rocket1","null","images/rocket2","","1","real","null","2","","",""
"d3-animate-choice","157","929596","0.0-76.0-1.7","37","644","16","Male","true","false","true","false","""event"",""trial"",""time""
""fullscreenenter"",""5"",""496633""
""fullscreenexit"",""6"",""498345""
","
","
","""event"",""trial"",""time""
""fullscreenenter"",""5"",""496633""
","""event"",""trial"",""time""
""fullscreenexit"",""6"",""498345""
","476","","48","","","3000","1","","","images/redplanet1.jpg","images/alien2","images/alien1","images/rocket2","images/alien2","images/t.png","2","real","true","2","common","1","2022-02-02 15:08:12.460"
"two-step-fixation","158","930599","0.0-76.0-2.7","37","644","16","Male","true","false","true","false","""event"",""trial"",""time""
""fullscreenenter"",""5"",""496633""
""fullscreenexit"",""6"",""498345""
","
","
","""event"",""trial"",""time""
""fullscreenenter"",""5"",""496633""
","""event"",""trial"",""time""
""fullscreenexit"",""6"",""498345""
","","images/earth.jpg","","","","","","","","","","","","","","fixation","","","","","",""
"d3-animate-choice","159","932971","0.0-76.0-0.8","37","644","16","Male","true","false","true","false","""event"",""trial"",""time""
""fullscreenenter"",""5"",""496633""
""fullscreenexit"",""6"",""498345""
","
","
","""event"",""trial"",""time""
""fullscreenenter"",""5"",""496633""
","""event"",""trial"",""time""
""fullscreenexit"",""6"",""498345""
","370","","48","","","3000","1","","","images/earth.jpg","images/rocket2","images/rocket1","null","images/rocket2","","1","real","null","2","","",""
"d3-animate-choice","160","935437","0.0-76.0-1.8","37","644","16","Male","true","false","true","false","""event"",""trial"",""time""
""fullscreenenter"",""5"",""496633""
""fullscreenexit"",""6"",""498345""
","
","
","""event"",""trial"",""time""
""fullscreenenter"",""5"",""496633""
","""event"",""trial"",""time""
""fullscreenexit"",""6"",""498345""
","461","","48","","","3000","1","","","images/redplanet1.jpg","images/alien2","images/alien1","images/rocket2","images/alien2","images/t.png","2","real","true","2","common","1","2022-02-02 15:08:18.301"
"two-step-fixation","161","936438","0.0-76.0-2.8","37","644","16","Male","true","false","true","false","""event"",""trial"",""time""
""fullscreenenter"",""5"",""496633""
""fullscreenexit"",""6"",""498345""
","
","
","""event"",""trial"",""time""
""fullscreenenter"",""5"",""496633""
","""event"",""trial"",""time""
""fullscreenexit"",""6"",""498345""
","","images/earth.jpg","","","","","","","","","","","","","","fixation","","","","","",""
"d3-animate-choice","162","938589","0.0-76.0-0.9","37","644","16","Male","true","false","true","false","""event"",""trial"",""time""
""fullscreenenter"",""5"",""496633""
""fullscreenexit"",""6"",""498345""
","
","
","""event"",""trial"",""time""
""fullscreenenter"",""5"",""496633""
","""event"",""trial"",""time""
""fullscreenexit"",""6"",""498345""
","147","","48","","","3000","1","","","images/earth.jpg","images/rocket2","images/rocket1","null","images/rocket2","","1","real","null","2","","",""
"d3-animate-choice","163","941036","0.0-76.0-1.9","37","644","16","Male","true","false","true","false","""event"",""trial"",""time""
""fullscreenenter"",""5"",""496633""
""fullscreenexit"",""6"",""498345""
","
","
","""event"",""trial"",""time""
""fullscreenenter"",""5"",""496633""
","""event"",""trial"",""time""
""fullscreenexit"",""6"",""498345""
","443","","48","","","3000","1","","","images/redplanet1.jpg","images/alien2","images/alien1","images/rocket2","images/alien2","images/nothing.png","2","real","true","2","common","0","2022-02-02 15:08:23.900"
"two-step-fixation","164","942038","0.0-76.0-2.9","37","644","16","Male","true","false","true","false","""event"",""trial"",""time""
""fullscreenenter"",""5"",""496633""
""fullscreenexit"",""6"",""498345""
","
","
","""event"",""trial"",""time""
""fullscreenenter"",""5"",""496633""
","""event"",""trial"",""time""
""fullscreenexit"",""6"",""498345""
","","images/earth.jpg","","","","","","","","","","","","","","fixation","","","","","",""
"d3-animate-choice","165","944461","0.0-76.0-0.10","37","644","16","Male","true","false","true","false","""event"",""trial"",""time""
""fullscreenenter"",""5"",""496633""
""fullscreenexit"",""6"",""498345""
","
","
","""event"",""trial"",""time""
""fullscreenenter"",""5"",""496633""
","""event"",""trial"",""time""
""fullscreenexit"",""6"",""498345""
","419","","49","","","3000","1","","","images/earth.jpg","images/rocket2","images/rocket1","null","images/rocket1","","1","real","null","1","","",""
"d3-animate-choice","166","946942","0.0-76.0-1.10","37","644","16","Male","true","false","true","false","""event"",""trial"",""time""
""fullscreenenter"",""5"",""496633""
""fullscreenexit"",""6"",""498345""
","
","
","""event"",""trial"",""time""
""fullscreenenter"",""5"",""496633""
","""event"",""trial"",""time""
""fullscreenexit"",""6"",""498345""
","476","","49","","","3000","1","","","images/redplanet1.jpg","images/alien2","images/alien1","images/rocket1","images/alien1","images/t.png","2","real","false","1","rare","1","2022-02-02 15:08:29.806"
"two-step-fixation","167","947944","0.0-76.0-2.10","37","644","16","Male","true","false","true","false","""event"",""trial"",""time""
""fullscreenenter"",""5"",""496633""
""fullscreenexit"",""6"",""498345""
","
","
","""event"",""trial"",""time""
""fullscreenenter"",""5"",""496633""
","""event"",""trial"",""time""
""fullscreenexit"",""6"",""498345""
","","images/earth.jpg","","","","","","","","","","","","","","fixation","","","","","",""
"d3-animate-choice","168","950348","0.0-76.0-0.11","37","644","16","Male","true","false","true","false","""event"",""trial"",""time""
""fullscreenenter"",""5"",""496633""
""fullscreenexit"",""6"",""498345""
","
","
","""event"",""trial"",""time""
""fullscreenenter"",""5"",""496633""
","""event"",""trial"",""time""
""fullscreenexit"",""6"",""498345""
","400","","49","","","3000","1","","","images/earth.jpg","images/rocket2","images/rocket1","null","images/rocket1","","1","real","null","1","","",""
"d3-animate-choice","169","953036","0.0-76.0-1.11","37","644","16","Male","true","false","true","false","""event"",""trial"",""time""
""fullscreenenter"",""5"",""496633""
""fullscreenexit"",""6"",""498345""
","
","
","""event"",""trial"",""time""
""fullscreenenter"",""5"",""496633""
","""event"",""trial"",""time""
""fullscreenexit"",""6"",""498345""
","684","","49","","","3000","1","","","images/purpleplanet.jpg","images/alien4","images/alien3","images/rocket1","images/alien3","images/t.png","2","real","true","1","common","1","2022-02-02 15:08:35.900"
"two-step-fixation","170","954038","0.0-76.0-2.11","37","644","16","Male","true","false","true","false","""event"",""trial"",""time""
""fullscreenenter"",""5"",""496633""
""fullscreenexit"",""6"",""498345""
","
","
","""event"",""trial"",""time""
""fullscreenenter"",""5"",""496633""
","""event"",""trial"",""time""
""fullscreenexit"",""6"",""498345""
","","images/earth.jpg","","","","","","","","","","","","","","fixation","","","","","",""
"d3-animate-choice","171","956428","0.0-76.0-0.12","37","644","16","Male","true","false","true","false","""event"",""trial"",""time""
""fullscreenenter"",""5"",""496633""
""fullscreenexit"",""6"",""498345""
","
","
","""event"",""trial"",""time""
""fullscreenenter"",""5"",""496633""
","""event"",""trial"",""time""
""fullscreenexit"",""6"",""498345""
","386","","49","","","3000","1","","","images/earth.jpg","images/rocket2","images/rocket1","null","images/rocket1","","1","real","null","1","","",""
"d3-animate-choice","172","958972","0.0-76.0-1.12","37","644","16","Male","true","false","true","false","""event"",""trial"",""time""
""fullscreenenter"",""5"",""496633""
""fullscreenexit"",""6"",""498345""
","
","
","""event"",""trial"",""time""
""fullscreenenter"",""5"",""496633""
","""event"",""trial"",""time""
""fullscreenexit"",""6"",""498345""
","541","","49","","","3000","1","","","images/purpleplanet.jpg","images/alien4","images/alien3","images/rocket1","images/alien3","images/nothing.png","2","real","true","1","common","0","2022-02-02 15:08:41.836"
"two-step-fixation","173","959974","0.0-76.0-2.12","37","644","16","Male","true","false","true","false","""event"",""trial"",""time""
""fullscreenenter"",""5"",""496633""
""fullscreenexit"",""6"",""498345""
","
","
","""event"",""trial"",""time""
""fullscreenenter"",""5"",""496633""
","""event"",""trial"",""time""
""fullscreenexit"",""6"",""498345""
","","images/earth.jpg","","","","","","","","","","","","","","fixation","","","","","",""
"d3-animate-choice","174","962509","0.0-76.0-0.13","37","644","16","Male","true","false","true","false","""event"",""trial"",""time""
""fullscreenenter"",""5"",""496633""
""fullscreenexit"",""6"",""498345""
","
","
","""event"",""trial"",""time""
""fullscreenenter"",""5"",""496633""
","""event"",""trial"",""time""
""fullscreenexit"",""6"",""498345""
","531","","48","","","3000","1","","","images/earth.jpg","images/rocket2","images/rocket1","null","images/rocket2","","1","real","null","2","","",""
"d3-animate-choice","175","965037","0.0-76.0-1.13","37","644","16","Male","true","false","true","false","""event"",""trial"",""time""
""fullscreenenter"",""5"",""496633""
""fullscreenexit"",""6"",""498345""
","
","
","""event"",""trial"",""time""
""fullscreenenter"",""5"",""496633""
","""event"",""trial"",""time""
""fullscreenexit"",""6"",""498345""
","523","","48","","","3000","1","","","images/purpleplanet.jpg","images/alien4","images/alien3","images/rocket2","images/alien4","images/nothing.png","2","real","false","2","rare","0","2022-02-02 15:08:47.901"
"two-step-fixation","176","966038","0.0-76.0-2.13","37","644","16","Male","true","false","true","false","""event"",""trial"",""time""
""fullscreenenter"",""5"",""496633""
""fullscreenexit"",""6"",""498345""
","
","
","""event"",""trial"",""time""
""fullscreenenter"",""5"",""496633""
","""event"",""trial"",""time""
""fullscreenexit"",""6"",""498345""
","","images/earth.jpg","","","","","","","","","","","","","","fixation","","","","","",""
"d3-animate-choice","177","968460","0.0-76.0-0.14","37","644","16","Male","true","false","true","false","""event"",""trial"",""time""
""fullscreenenter"",""5"",""496633""
""fullscreenexit"",""6"",""498345""
","
","
","""event"",""trial"",""time""
""fullscreenenter"",""5"",""496633""
","""event"",""trial"",""time""
""fullscreenexit"",""6"",""498345""
","420","","49","","","3000","1","","","images/earth.jpg","images/rocket2","images/rocket1","null","images/rocket1","","1","real","null","1","","",""
"d3-animate-choice","178","970924","0.0-76.0-1.14","37","644","16","Male","true","false","true","false","""event"",""trial"",""time""
""fullscreenenter"",""5"",""496633""
""fullscreenexit"",""6"",""498345""
","
","
","""event"",""trial"",""time""
""fullscreenenter"",""5"",""496633""
","""event"",""trial"",""time""
""fullscreenexit"",""6"",""498345""
","461","","48","","","3000","1","","","images/purpleplanet.jpg","images/alien4","images/alien3","images/rocket1","images/alien4","images/nothing.png","2","real","true","2","common","0","2022-02-02 15:08:53.788"
"two-step-fixation","179","971926","0.0-76.0-2.14","37","644","16","Male","true","false","true","false","""event"",""trial"",""time""
""fullscreenenter"",""5"",""496633""
""fullscreenexit"",""6"",""498345""
","
","
","""event"",""trial"",""time""
""fullscreenenter"",""5"",""496633""
","""event"",""trial"",""time""
""fullscreenexit"",""6"",""498345""
","","images/earth.jpg","","","","","","","","","","","","","","fixation","","","","","",""
"d3-animate-choice","180","974332","0.0-76.0-0.15","37","644","16","Male","true","false","true","false","""event"",""trial"",""time""
""fullscreenenter"",""5"",""496633""
""fullscreenexit"",""6"",""498345""
","
","
","""event"",""trial"",""time""
""fullscreenenter"",""5"",""496633""
","""event"",""trial"",""time""
""fullscreenexit"",""6"",""498345""
","403","","48","","","3000","1","","","images/earth.jpg","images/rocket2","images/rocket1","null","images/rocket2","","1","real","null","2","","",""
"d3-animate-choice","181","976844","0.0-76.0-1.15","37","644","16","Male","true","false","true","false","""event"",""trial"",""time""
""fullscreenenter"",""5"",""496633""
""fullscreenexit"",""6"",""498345""
","
","
","""event"",""trial"",""time""
""fullscreenenter"",""5"",""496633""
","""event"",""trial"",""time""
""fullscreenexit"",""6"",""498345""
","508","","49","","","3000","1","","","images/redplanet1.jpg","images/alien2","images/alien1","images/rocket2","images/alien1","images/t.png","2","real","true","1","common","1","2022-02-02 15:08:59.708"
"two-step-fixation","182","977846","0.0-76.0-2.15","37","644","16","Male","true","false","true","false","""event"",""trial"",""time""
""fullscreenenter"",""5"",""496633""
""fullscreenexit"",""6"",""498345""
","
","
","""event"",""trial"",""time""
""fullscreenenter"",""5"",""496633""
","""event"",""trial"",""time""
""fullscreenexit"",""6"",""498345""
","","images/earth.jpg","","","","","","","","","","","","","","fixation","","","","","",""
"d3-animate-choice","183","980236","0.0-76.0-0.16","37","644","16","Male","true","false","true","false","""event"",""trial"",""time""
""fullscreenenter"",""5"",""496633""
""fullscreenexit"",""6"",""498345""
","
","
","""event"",""trial"",""time""
""fullscreenenter"",""5"",""496633""
","""event"",""trial"",""time""
""fullscreenexit"",""6"",""498345""
","385","","48","","","3000","1","","","images/earth.jpg","images/rocket2","images/rocket1","null","images/rocket2","","1","real","null","2","","",""
"d3-animate-choice","184","982764","0.0-76.0-1.16","37","644","16","Male","true","false","true","false","""event"",""trial"",""time""
""fullscreenenter"",""5"",""496633""
""fullscreenexit"",""6"",""498345""
","
","
","""event"",""trial"",""time""
""fullscreenenter"",""5"",""496633""
","""event"",""trial"",""time""
""fullscreenexit"",""6"",""498345""
","524","","49","","","3000","1","","","images/redplanet1.jpg","images/alien2","images/alien1","images/rocket2","images/alien1","images/nothing.png","2","real","true","1","common","0","2022-02-02 15:09:05.628"
"two-step-fixation","185","983766","0.0-76.0-2.16","37","644","16","Male","true","false","true","false","""event"",""trial"",""time""
""fullscreenenter"",""5"",""496633""
""fullscreenexit"",""6"",""498345""
","
","
","""event"",""trial"",""time""
""fullscreenenter"",""5"",""496633""
","""event"",""trial"",""time""
""fullscreenexit"",""6"",""498345""
","","images/earth.jpg","","","","","","","","","","","","","","fixation","","","","","",""
"d3-animate-choice","186","985948","0.0-76.0-0.17","37","644","16","Male","true","false","true","false","""event"",""trial"",""time""
""fullscreenenter"",""5"",""496633""
""fullscreenexit"",""6"",""498345""
","
","
","""event"",""trial"",""time""
""fullscreenenter"",""5"",""496633""
","""event"",""trial"",""time""
""fullscreenexit"",""6"",""498345""
","180","","49","","","3000","1","","","images/earth.jpg","images/rocket2","images/rocket1","null","images/rocket1","","1","real","null","1","","",""
"d3-animate-choice","187","988333","0.0-76.0-1.17","37","644","16","Male","true","false","true","false","""event"",""trial"",""time""
""fullscreenenter"",""5"",""496633""
""fullscreenexit"",""6"",""498345""
","
","
","""event"",""trial"",""time""
""fullscreenenter"",""5"",""496633""
","""event"",""trial"",""time""
""fullscreenexit"",""6"",""498345""
","381","","49","","","3000","1","","","images/redplanet1.jpg","images/alien2","images/alien1","images/rocket1","images/alien1","images/nothing.png","2","real","false","1","rare","0","2022-02-02 15:09:11.197"
"two-step-fixation","188","989335","0.0-76.0-2.17","37","644","16","Male","true","false","true","false","""event"",""trial"",""time""
""fullscreenenter"",""5"",""496633""
""fullscreenexit"",""6"",""498345""
","
","
","""event"",""trial"",""time""
""fullscreenenter"",""5"",""496633""
","""event"",""trial"",""time""
""fullscreenexit"",""6"",""498345""
","","images/earth.jpg","","","","","","","","","","","","","","fixation","","","","","",""
"d3-animate-choice","189","991390","0.0-76.0-0.18","37","644","16","Male","true","false","true","false","""event"",""trial"",""time""
""fullscreenenter"",""5"",""496633""
""fullscreenexit"",""6"",""498345""
","
","
","""event"",""trial"",""time""
""fullscreenenter"",""5"",""496633""
","""event"",""trial"",""time""
""fullscreenexit"",""6"",""498345""
","51","","49","","","3000","1","","","images/earth.jpg","images/rocket2","images/rocket1","null","images/rocket1","","1","real","null","1","","",""
"d3-animate-choice","190","993868","0.0-76.0-1.18","37","644","16","Male","true","false","true","false","""event"",""trial"",""time""
""fullscreenenter"",""5"",""496633""
""fullscreenexit"",""6"",""498345""
","
","
","""event"",""trial"",""time""
""fullscreenenter"",""5"",""496633""
","""event"",""trial"",""time""
""fullscreenexit"",""6"",""498345""
","477","","48","","","3000","1","","","images/redplanet1.jpg","images/alien2","images/alien1","images/rocket1","images/alien2","images/nothing.png","2","real","false","2","rare","0","2022-02-02 15:09:16.733"
"two-step-fixation","191","994871","0.0-76.0-2.18","37","644","16","Male","true","false","true","false","""event"",""trial"",""time""
""fullscreenenter"",""5"",""496633""
""fullscreenexit"",""6"",""498345""
","
","
","""event"",""trial"",""time""
""fullscreenenter"",""5"",""496633""
","""event"",""trial"",""time""
""fullscreenexit"",""6"",""498345""
","","images/earth.jpg","","","","","","","","","","","","","","fixation","","","","","",""
"d3-animate-choice","192","996924","0.0-76.0-0.19","37","644","16","Male","true","false","true","false","""event"",""trial"",""time""
""fullscreenenter"",""5"",""496633""
""fullscreenexit"",""6"",""498345""
","
","
","""event"",""trial"",""time""
""fullscreenenter"",""5"",""496633""
","""event"",""trial"",""time""
""fullscreenexit"",""6"",""498345""
","50","","49","","","3000","1","","","images/earth.jpg","images/rocket2","images/rocket1","null","images/rocket1","","1","real","null","1","","",""
"d3-animate-choice","193","999388","0.0-76.0-1.19","37","644","16","Male","true","false","true","false","""event"",""trial"",""time""
""fullscreenenter"",""5"",""496633""
""fullscreenexit"",""6"",""498345""
","
","
","""event"",""trial"",""time""
""fullscreenenter"",""5"",""496633""
","""event"",""trial"",""time""
""fullscreenexit"",""6"",""498345""
","460","","49","","","3000","1","","","images/purpleplanet.jpg","images/alien4","images/alien3","images/rocket1","images/alien3","images/nothing.png","2","real","true","1","common","0","2022-02-02 15:09:22.252"
"two-step-fixation","194","1000390","0.0-76.0-2.19","37","644","16","Male","true","false","true","false","""event"",""trial"",""time""
""fullscreenenter"",""5"",""496633""
""fullscreenexit"",""6"",""498345""
","
","
","""event"",""trial"",""time""
""fullscreenenter"",""5"",""496633""
","""event"",""trial"",""time""
""fullscreenexit"",""6"",""498345""
","","images/earth.jpg","","","","","","","","","","","","","","fixation","","","","","",""
"d3-animate-choice","195","1002524","0.0-76.0-0.20","37","644","16","Male","true","false","true","false","""event"",""trial"",""time""
""fullscreenenter"",""5"",""496633""
""fullscreenexit"",""6"",""498345""
","
","
","""event"",""trial"",""time""
""fullscreenenter"",""5"",""496633""
","""event"",""trial"",""time""
""fullscreenexit"",""6"",""498345""
","130","","49","","","3000","1","","","images/earth.jpg","images/rocket2","images/rocket1","null","images/rocket1","","1","real","null","1","","",""
"d3-animate-choice","196","1004877","0.0-76.0-1.20","37","644","16","Male","true","false","true","false","""event"",""trial"",""time""
""fullscreenenter"",""5"",""496633""
""fullscreenexit"",""6"",""498345""
","
","
","""event"",""trial"",""time""
""fullscreenenter"",""5"",""496633""
","""event"",""trial"",""time""
""fullscreenexit"",""6"",""498345""
","348","","49","","","3000","1","","","images/purpleplanet.jpg","images/alien4","images/alien3","images/rocket1","images/alien3","images/nothing.png","2","real","true","1","common","0","2022-02-02 15:09:27.741"
"two-step-fixation","197","1005878","0.0-76.0-2.20","37","644","16","Male","true","false","true","false","""event"",""trial"",""time""
""fullscreenenter"",""5"",""496633""
""fullscreenexit"",""6"",""498345""
","
","
","""event"",""trial"",""time""
""fullscreenenter"",""5"",""496633""
","""event"",""trial"",""time""
""fullscreenexit"",""6"",""498345""
","","images/earth.jpg","","","","","","","","","","","","","","fixation","","","","","",""
"d3-animate-choice","198","1008381","0.0-76.0-0.21","37","644","16","Male","true","false","true","false","""event"",""trial"",""time""
""fullscreenenter"",""5"",""496633""
""fullscreenexit"",""6"",""498345""
","
","
","""event"",""trial"",""time""
""fullscreenenter"",""5"",""496633""
","""event"",""trial"",""time""
""fullscreenexit"",""6"",""498345""
","498","","49","","","3000","1","","","images/earth.jpg","images/rocket2","images/rocket1","null","images/rocket1","","1","real","null","1","","",""
"d3-animate-choice","199","1010732","0.0-76.0-1.21","37","644","16","Male","true","false","true","false","""event"",""trial"",""time""
""fullscreenenter"",""5"",""496633""
""fullscreenexit"",""6"",""498345""
","
","
","""event"",""trial"",""time""
""fullscreenenter"",""5"",""496633""
","""event"",""trial"",""time""
""fullscreenexit"",""6"",""498345""
","347","","49","","","3000","1","","","images/redplanet1.jpg","images/alien2","images/alien1","images/rocket1","images/alien1","images/nothing.png","2","real","false","1","rare","0","2022-02-02 15:09:33.596"
"two-step-fixation","200","1011734","0.0-76.0-2.21","37","644","16","Male","true","false","true","false","""event"",""trial"",""time""
""fullscreenenter"",""5"",""496633""
""fullscreenexit"",""6"",""498345""
","
","
","""event"",""trial"",""time""
""fullscreenenter"",""5"",""496633""
","""event"",""trial"",""time""
""fullscreenexit"",""6"",""498345""
","","images/earth.jpg","","","","","","","","","","","","","","fixation","","","","","",""
"d3-animate-choice","201","1014141","0.0-76.0-0.22","37","644","16","Male","true","false","true","false","""event"",""trial"",""time""
""fullscreenenter"",""5"",""496633""
""fullscreenexit"",""6"",""498345""
","
","
","""event"",""trial"",""time""
""fullscreenenter"",""5"",""496633""
","""event"",""trial"",""time""
""fullscreenexit"",""6"",""498345""
","402","","48","","","3000","1","","","images/earth.jpg","images/rocket2","images/rocket1","null","images/rocket2","","1","real","null","2","","",""
"d3-animate-choice","202","1016621","0.0-76.0-1.22","37","644","16","Male","true","false","true","false","""event"",""trial"",""time""
""fullscreenenter"",""5"",""496633""
""fullscreenexit"",""6"",""498345""
","
","
