"trial_type","trial_index","time_elapsed","internal_node_id","participant_id","subject_id","age","gender","rocket_sides","red_planet_first_rocket","red_display_order","purple_display_order","interactions","blur_events","focus_events","fullscreenenter_events","fullscreenexit_events","rt","stimulus","key_press","button_pressed","success","duration","valid_pressed","rts","keys","planet_text","right_text","left_text","center_text","chosen_text","reward_text","trial_stage","practice_trial","transition_type","choice","transition","reward","timestamp"
"pavlovia","0","5","0.0-0.0","293","690","19","Female","false","true","false","true","
","
","
","
","
","","","","","","","","","","","","","","","","","","","","","",""
"html-keyboard-response","1","796","0.0-1.0","293","690","19","Female","false","true","false","true","
","
","
","
","
","790.2000000029802","Welcome! Press the space bar to begin.","66","","","","","","","","","","","","","","","","","","",""
"audio-keyboard-response","2","3266","0.0-2.0","293","690","19","Female","false","true","false","true","
","
","
","
","
","2411","audio/beep_loop.wav","32","","","","","","","","","","","","","","","","","","",""
"audio-button-response","3","7379","0.0-3.0","293","690","19","Female","false","true","false","true","
","
","
","
","
","NaN","audio/fish.mp3","","1","","","","","","","","","","","","","","","","","",""
"audio-button-response","4","10141","0.0-4.0","293","690","19","Female","false","true","false","true","""event"",""trial"",""time""
""fullscreenenter"",""5"",""16311""
","
","
","""event"",""trial"",""time""
""fullscreenenter"",""5"",""16311""
","
","NaN","audio/tiger.mp3","","4","","","","","","","","","","","","","","","","","",""
"fullscreen","5","17302","0.0-5.0","293","690","19","Female","false","true","false","true","""event"",""trial"",""time""
""fullscreenenter"",""5"",""16311""
","
","
","""event"",""trial"",""time""
""fullscreenenter"",""5"",""16311""
","
","","","","","true","","","","","","","","","","","","","","","","",""
"d3-instructions","6","28905","0.0-6.0","293","690","19","Female","false","true","false","true","""event"",""trial"",""time""
""fullscreenenter"",""5"",""16311""
","
","
","""event"",""trial"",""time""
""fullscreenenter"",""5"",""16311""
","
","","","","","","","","","","","","","","","","","","","","","",""
"d3-instructions","7","36980","0.0-7.0","293","690","19","Female","false","true","false","true","""event"",""trial"",""time""
""fullscreenenter"",""5"",""16311""
","
","
","""event"",""trial"",""time""
""fullscreenenter"",""5"",""16311""
","
","","","","","","","","","","","","","","","","","","","","","",""
"d3-instructions","8","44037","0.0-8.0","293","690","19","Female","false","true","false","true","""event"",""trial"",""time""
""fullscreenenter"",""5"",""16311""
","
","
","""event"",""trial"",""time""
""fullscreenenter"",""5"",""16311""
","
","","","","","","","","","","","","","","","","","","","","","",""
"d3-instructions","9","53564","0.0-9.0","293","690","19","Female","false","true","false","true","""event"",""trial"",""time""
""fullscreenenter"",""5"",""16311""
","
","
","""event"",""trial"",""time""
""fullscreenenter"",""5"",""16311""
","
","","","","","","","","","","","","","","","","","","","","","",""
"d3-instructions","10","65966","0.0-10.0","293","690","19","Female","false","true","false","true","""event"",""trial"",""time""
""fullscreenenter"",""5"",""16311""
","
","
","""event"",""trial"",""time""
""fullscreenenter"",""5"",""16311""
","
","","","","","","","","","","","","","","","","","","","","","",""
"d3-animate-choice","11","71587","0.0-11.0","293","690","19","Female","false","true","false","true","""event"",""trial"",""time""
""fullscreenenter"",""5"",""16311""
","
","
","""event"",""trial"",""time""
""fullscreenenter"",""5"",""16311""
","
","3603.300000011921","","49","","","3000","1","","","images/tutgreenplanet.jpg","images/tutalien1","images/tutalien2","null","images/tutalien2","","NA","practice","null","","","",""
"d3-animate-choice","12","75036","0.0-12.0","293","690","19","Female","false","true","false","true","""event"",""trial"",""time""
""fullscreenenter"",""5"",""16311""
","
","
","""event"",""trial"",""time""
""fullscreenenter"",""5"",""16311""
","
","1443.7999999970198","","48","","","3000","1","","","images/tutgreenplanet.jpg","images/tutalien1","images/tutalien2","null","images/tutalien1","","NA","practice","null","","","",""
"d3-animate-choice","13","78311","0.0-13.0","293","690","19","Female","false","true","false","true","""event"",""trial"",""time""
""fullscreenenter"",""5"",""16311""
","
","
","""event"",""trial"",""time""
""fullscreenenter"",""5"",""16311""
","
","1269.5","","49","","","3000","1","","","images/tutgreenplanet.jpg","images/tutalien1","images/tutalien2","null","images/tutalien2","","NA","practice","null","","","",""
"d3-animate-choice","14","80765","0.0-14.0","293","690","19","Female","false","true","false","true","""event"",""trial"",""time""
""fullscreenenter"",""5"",""16311""
","
","
","""event"",""trial"",""time""
""fullscreenenter"",""5"",""16311""
","
","444.79999999701977","","48","","","3000","1","","","images/tutgreenplanet.jpg","images/tutalien1","images/tutalien2","null","images/tutalien1","","NA","practice","null","","","",""
"d3-instructions","15","87730","0.0-15.0","293","690","19","Female","false","true","false","true","""event"",""trial"",""time""
""fullscreenenter"",""5"",""16311""
","
","
","""event"",""trial"",""time""
""fullscreenenter"",""5"",""16311""
","
","","","","","","","","","","","","","","","","","","","","","",""
"d3-instructions","16","93747","0.0-16.0","293","690","19","Female","false","true","false","true","""event"",""trial"",""time""
""fullscreenenter"",""5"",""16311""
","
","
","""event"",""trial"",""time""
""fullscreenenter"",""5"",""16311""
","
","","","","","","","","","","","","","","","","","","","","","",""
"d3-instructions","17","100864","0.0-17.0","293","690","19","Female","false","true","false","true","""event"",""trial"",""time""
""fullscreenenter"",""5"",""16311""
","
","
","""event"",""trial"",""time""
""fullscreenenter"",""5"",""16311""
","
","","","","","","","","","","","","","","","","","","","","","",""
"d3-instructions","18","108769","0.0-18.0","293","690","19","Female","false","true","false","true","""event"",""trial"",""time""
""fullscreenenter"",""5"",""16311""
","
","
","""event"",""trial"",""time""
""fullscreenenter"",""5"",""16311""
","
","","","","","","","","","","","","","","","","","","","","","",""
"d3-instructions","19","117578","0.0-19.0","293","690","19","Female","false","true","false","true","""event"",""trial"",""time""
""fullscreenenter"",""5"",""16311""
","
","
","""event"",""trial"",""time""
""fullscreenenter"",""5"",""16311""
","
","","","","","","","","","","","","","","","","","","","","","",""
"d3-animate-choice","20","120111","0.0-20.0","293","690","19","Female","false","true","false","true","""event"",""trial"",""time""
""fullscreenenter"",""5"",""16311""
","
","
","""event"",""trial"",""time""
""fullscreenenter"",""5"",""16311""
","
","526.9000000059605","","49","","","3000","1","","","images/tutyellowplanet.jpg","null","images/tutalien3","null","images/tutalien3","images/t.png","NA","practice","null","","","",""
"d3-animate-choice","21","122403","0.0-21.0","293","690","19","Female","false","true","false","true","""event"",""trial"",""time""
""fullscreenenter"",""5"",""16311""
","
","
","""event"",""trial"",""time""
""fullscreenenter"",""5"",""16311""
","
","286.90000000596046","","49","","","3000","1","","","images/tutyellowplanet.jpg","null","images/tutalien3","null","images/tutalien3","images/t.png","NA","practice","null","","","",""
"d3-animate-choice","22","124655","0.0-22.0","293","690","19","Female","false","true","false","true","""event"",""trial"",""time""
""fullscreenenter"",""5"",""16311""
","
","
","""event"",""trial"",""time""
""fullscreenenter"",""5"",""16311""
","
","243.90000000596046","","49","","","3000","1","","","images/tutyellowplanet.jpg","null","images/tutalien3","null","images/tutalien3","images/t.png","NA","practice","null","","","",""
"d3-animate-choice","23","126820","0.0-23.0","293","690","19","Female","false","true","false","true","""event"",""trial"",""time""
""fullscreenenter"",""5"",""16311""
","
","
","""event"",""trial"",""time""
""fullscreenenter"",""5"",""16311""
","
","157.59999999403954","","49","","","3000","1","","","images/tutyellowplanet.jpg","null","images/tutalien3","null","images/tutalien3","images/t.png","NA","practice","null","","","",""
"d3-animate-choice","24","128919","0.0-24.0","293","690","19","Female","false","true","false","true","""event"",""trial"",""time""
""fullscreenenter"",""5"",""16311""
","
","
","""event"",""trial"",""time""
""fullscreenenter"",""5"",""16311""
","
","93.79999999701977","","49","","","3000","1","","","images/tutyellowplanet.jpg","null","images/tutalien3","null","images/tutalien3","images/t.png","NA","practice","null","","","",""
"d3-animate-choice","25","130937","0.0-25.0","293","690","19","Female","false","true","false","true","""event"",""trial"",""time""
""fullscreenenter"",""5"",""16311""
","
","
","""event"",""trial"",""time""
""fullscreenenter"",""5"",""16311""
","
","12.799999997019768","","49","","","3000","1","","","images/tutyellowplanet.jpg","null","images/tutalien3","null","images/tutalien3","images/t.png","NA","practice","null","","","",""
"d3-animate-choice","26","132995","0.0-26.0","293","690","19","Female","false","true","false","true","""event"",""trial"",""time""
""fullscreenenter"",""5"",""16311""
","
","
","""event"",""trial"",""time""
""fullscreenenter"",""5"",""16311""
","
","52.400000005960464","","49","","","3000","1","","","images/tutyellowplanet.jpg","null","images/tutalien3","null","images/tutalien3","images/nothing.png","NA","practice","null","","","",""
"d3-animate-choice","27","135283","0.0-27.0","293","690","19","Female","false","true","false","true","""event"",""trial"",""time""
""fullscreenenter"",""5"",""16311""
","
","
","""event"",""trial"",""time""
""fullscreenenter"",""5"",""16311""
","
","282.59999999403954","","49","","","3000","1","","","images/tutyellowplanet.jpg","null","images/tutalien3","null","images/tutalien3","images/t.png","NA","practice","null","","","",""
"d3-animate-choice","28","137543","0.0-28.0","293","690","19","Female","false","true","false","true","""event"",""trial"",""time""
""fullscreenenter"",""5"",""16311""
","
","
","""event"",""trial"",""time""
""fullscreenenter"",""5"",""16311""
","
","254.5","","49","","","3000","1","","","images/tutyellowplanet.jpg","null","images/tutalien3","null","images/tutalien3","images/nothing.png","NA","practice","null","","","",""
"d3-animate-choice","29","139688","0.0-29.0","293","690","19","Female","false","true","false","true","""event"",""trial"",""time""
""fullscreenenter"",""5"",""16311""
","
","
","""event"",""trial"",""time""
""fullscreenenter"",""5"",""16311""
","
","139","","49","","","3000","1","","","images/tutyellowplanet.jpg","null","images/tutalien3","null","images/tutalien3","images/t.png","NA","practice","null","","","",""
"d3-instructions","30","142084","0.0-30.0","293","690","19","Female","false","true","false","true","""event"",""trial"",""time""
""fullscreenenter"",""5"",""16311""
","
","
","""event"",""trial"",""time""
""fullscreenenter"",""5"",""16311""
","
","","","","","","","","","","","","","","","","","","","","","",""
"d3-instructions","31","152316","0.0-31.0","293","690","19","Female","false","true","false","true","""event"",""trial"",""time""
""fullscreenenter"",""5"",""16311""
","
","
","""event"",""trial"",""time""
""fullscreenenter"",""5"",""16311""
","
","","","","","","","","","","","","","","","","","","","","","",""
"d3-instructions","32","156857","0.0-32.0","293","690","19","Female","false","true","false","true","""event"",""trial"",""time""
""fullscreenenter"",""5"",""16311""
","
","
","""event"",""trial"",""time""
""fullscreenenter"",""5"",""16311""
","
","","","","","","","","","","","","","","","","","","","","","",""
"d3-instructions","33","159082","0.0-33.0","293","690","19","Female","false","true","false","true","""event"",""trial"",""time""
""fullscreenenter"",""5"",""16311""
","
","
","""event"",""trial"",""time""
""fullscreenenter"",""5"",""16311""
","
","","","","","","","","","","","","","","","","","","","","","",""
"d3-animate-choice","34","161757","0.0-34.0","293","690","19","Female","false","true","false","true","""event"",""trial"",""time""
""fullscreenenter"",""5"",""16311""
","
","
","""event"",""trial"",""time""
""fullscreenenter"",""5"",""16311""
","
","666.2999999970198","","49","","","3000","1","","","images/tutgreenplanet.jpg","images/tutalien1","images/tutalien2","null","images/tutalien2","images/t.png","NA","practice","null","","","",""
"d3-animate-choice","35","164398","0.0-35.0","293","690","19","Female","false","true","false","true","""event"",""trial"",""time""
""fullscreenenter"",""5"",""16311""
","
","
","""event"",""trial"",""time""
""fullscreenenter"",""5"",""16311""
","
","632.2999999970198","","49","","","3000","1","","","images/tutgreenplanet.jpg","images/tutalien1","images/tutalien2","null","images/tutalien2","images/nothing.png","NA","practice","null","","","",""
"d3-animate-choice","36","166670","0.0-36.0","293","690","19","Female","false","true","false","true","""event"",""trial"",""time""
""fullscreenenter"",""5"",""16311""
","
","
","""event"",""trial"",""time""
""fullscreenenter"",""5"",""16311""
","
","265","","48","","","3000","1","","","images/tutgreenplanet.jpg","images/tutalien1","images/tutalien2","null","images/tutalien1","images/nothing.png","NA","practice","null","","","",""
"d3-animate-choice","37","168928","0.0-37.0","293","690","19","Female","false","true","false","true","""event"",""trial"",""time""
""fullscreenenter"",""5"",""16311""
","
","
","""event"",""trial"",""time""
""fullscreenenter"",""5"",""16311""
","
","253.40000000596046","","48","","","3000","1","","","images/tutgreenplanet.jpg","images/tutalien1","images/tutalien2","null","images/tutalien1","images/nothing.png","NA","practice","null","","","",""
"d3-animate-choice","38","171041","0.0-38.0","293","690","19","Female","false","true","false","true","""event"",""trial"",""time""
""fullscreenenter"",""5"",""16311""
","
","
","""event"",""trial"",""time""
""fullscreenenter"",""5"",""16311""
","
","105.79999999701977","","49","","","3000","1","","","images/tutgreenplanet.jpg","images/tutalien1","images/tutalien2","null","images/tutalien2","images/t.png","NA","practice","null","","","",""
"d3-animate-choice","39","173243","0.0-39.0","293","690","19","Female","false","true","false","true","""event"",""trial"",""time""
""fullscreenenter"",""5"",""16311""
","
","
","""event"",""trial"",""time""
""fullscreenenter"",""5"",""16311""
","
","196.20000000298023","","49","","","3000","1","","","images/tutgreenplanet.jpg","images/tutalien1","images/tutalien2","null","images/tutalien2","images/t.png","NA","practice","null","","","",""
"d3-animate-choice","40","175498","0.0-40.0","293","690","19","Female","false","true","false","true","""event"",""trial"",""time""
""fullscreenenter"",""5"",""16311""
","
","
","""event"",""trial"",""time""
""fullscreenenter"",""5"",""16311""
","
","245.59999999403954","","48","","","3000","1","","","images/tutgreenplanet.jpg","images/tutalien1","images/tutalien2","null","images/tutalien1","images/nothing.png","NA","practice","null","","","",""
"d3-animate-choice","41","177677","0.0-41.0","293","690","19","Female","false","true","false","true","""event"",""trial"",""time""
""fullscreenenter"",""5"",""16311""
","
","
","""event"",""trial"",""time""
""fullscreenenter"",""5"",""16311""
","
","172","","49","","","3000","1","","","images/tutgreenplanet.jpg","images/tutalien1","images/tutalien2","null","images/tutalien2","images/t.png","NA","practice","null","","","",""
"d3-animate-choice","42","179774","0.0-42.0","293","690","19","Female","false","true","false","true","""event"",""trial"",""time""
""fullscreenenter"",""5"",""16311""
","
","
","""event"",""trial"",""time""
""fullscreenenter"",""5"",""16311""
","
","91.90000000596046","","49","","","3000","1","","","images/tutgreenplanet.jpg","images/tutalien1","images/tutalien2","null","images/tutalien2","images/t.png","NA","practice","null","","","",""
"d3-animate-choice","43","182269","0.0-43.0","293","690","19","Female","false","true","false","true","""event"",""trial"",""time""
""fullscreenenter"",""5"",""16311""
","
","
","""event"",""trial"",""time""
""fullscreenenter"",""5"",""16311""
","
","485.20000000298023","","49","","","3000","1","","","images/tutgreenplanet.jpg","images/tutalien1","images/tutalien2","null","images/tutalien2","images/nothing.png","NA","practice","null","","","",""
"d3-instructions","44","196775","0.0-44.0","293","690","19","Female","false","true","false","true","""event"",""trial"",""time""
""fullscreenenter"",""5"",""16311""
","
","
","""event"",""trial"",""time""
""fullscreenenter"",""5"",""16311""
","
","","","","","","","","","","","","","","","","","","","","","",""
"d3-instructions","45","203485","0.0-45.0","293","690","19","Female","false","true","false","true","""event"",""trial"",""time""
""fullscreenenter"",""5"",""16311""
","
","
","""event"",""trial"",""time""
""fullscreenenter"",""5"",""16311""
","
","","","","","","","","","","","","","","","","","","","","","",""
"d3-instructions","46","206525","0.0-46.0","293","690","19","Female","false","true","false","true","""event"",""trial"",""time""
""fullscreenenter"",""5"",""16311""
","
","
","""event"",""trial"",""time""
""fullscreenenter"",""5"",""16311""
","
","","","","","","","","","","","","","","","","","","","","","",""
"d3-instructions","47","216038","0.0-47.0","293","690","19","Female","false","true","false","true","""event"",""trial"",""time""
""fullscreenenter"",""5"",""16311""
","
","
","""event"",""trial"",""time""
""fullscreenenter"",""5"",""16311""
","
","","","","","","","","","","","","","","","","","","","","","",""
"d3-instructions","48","220404","0.0-48.0","293","690","19","Female","false","true","false","true","""event"",""trial"",""time""
""fullscreenenter"",""5"",""16311""
","
","
","""event"",""trial"",""time""
""fullscreenenter"",""5"",""16311""
","
","","","","","","","","","","","","","","","","","","","","","",""
"d3-instructions","49","230491","0.0-49.0","293","690","19","Female","false","true","false","true","""event"",""trial"",""time""
""fullscreenenter"",""5"",""16311""
","
","
","""event"",""trial"",""time""
""fullscreenenter"",""5"",""16311""
","
","","","","","","","","","","","","","","","","","","","","","",""
"d3-instructions","50","239081","0.0-50.0","293","690","19","Female","false","true","false","true","""event"",""trial"",""time""
""fullscreenenter"",""5"",""16311""
","
","
","""event"",""trial"",""time""
""fullscreenenter"",""5"",""16311""
","
","","","","","","","","","","","","","","","","","","","","","",""
"d3-instructions","51","241693","0.0-51.0","293","690","19","Female","false","true","false","true","""event"",""trial"",""time""
""fullscreenenter"",""5"",""16311""
","
","
","""event"",""trial"",""time""
""fullscreenenter"",""5"",""16311""
","
","","","","","","","","","","","","","","","","","","","","","",""
"d3-instructions","52","243912","0.0-52.0","293","690","19","Female","false","true","false","true","""event"",""trial"",""time""
""fullscreenenter"",""5"",""16311""
","
","
","""event"",""trial"",""time""
""fullscreenenter"",""5"",""16311""
","
","","","","","","","","","","","","","","","","","","","","","",""
"d3-instructions","53","255654","0.0-53.0","293","690","19","Female","false","true","false","true","""event"",""trial"",""time""
""fullscreenenter"",""5"",""16311""
","
","
","""event"",""trial"",""time""
""fullscreenenter"",""5"",""16311""
","
","","","","","","","","","","","","","","","","","","","","","",""
"d3-instructions","54","267087","0.0-54.0","293","690","19","Female","false","true","false","true","""event"",""trial"",""time""
""fullscreenenter"",""5"",""16311""
","
","
","""event"",""trial"",""time""
""fullscreenenter"",""5"",""16311""
","
","","","","","","","","","","","","","","","","","","","","","",""
"d3-instructions","55","270023","0.0-55.0","293","690","19","Female","false","true","false","true","""event"",""trial"",""time""
""fullscreenenter"",""5"",""16311""
","
","
","""event"",""trial"",""time""
""fullscreenenter"",""5"",""16311""
","
","","","","","","","","","","","","","","","","","","","","","",""
"d3-instructions","56","278277","0.0-56.0","293","690","19","Female","false","true","false","true","""event"",""trial"",""time""
""fullscreenenter"",""5"",""16311""
","
","
","""event"",""trial"",""time""
""fullscreenenter"",""5"",""16311""
","
","","","","","","","","","","","","","","","","","","","","","",""
"d3-instructions","57","290060","0.0-57.0","293","690","19","Female","false","true","false","true","""event"",""trial"",""time""
""fullscreenenter"",""5"",""16311""
","
","
","""event"",""trial"",""time""
""fullscreenenter"",""5"",""16311""
","
","","","","","","","","","","","","","","","","","","","","","",""
"d3-instructions","58","300346","0.0-58.0","293","690","19","Female","false","true","false","true","""event"",""trial"",""time""
""fullscreenenter"",""5"",""16311""
","
","
","""event"",""trial"",""time""
""fullscreenenter"",""5"",""16311""
","
","","","","","","","","","","","","","","","","","","","","","",""
"d3-instructions","59","305460","0.0-59.0","293","690","19","Female","false","true","false","true","""event"",""trial"",""time""
""fullscreenenter"",""5"",""16311""
","
","
","""event"",""trial"",""time""
""fullscreenenter"",""5"",""16311""
","
","","","","","","","","","","","","","","","","","","","","","",""
"d3-instructions","60","311434","0.0-60.0","293","690","19","Female","false","true","false","true","""event"",""trial"",""time""
""fullscreenenter"",""5"",""16311""
","
","
","""event"",""trial"",""time""
""fullscreenenter"",""5"",""16311""
","
","","","","","","","","","","","","","","","","","","","","","",""
"d3-animate-choice","61","314219","0.0-61.0-0.0","293","690","19","Female","false","true","false","true","""event"",""trial"",""time""
""fullscreenenter"",""5"",""16311""
","
","
","""event"",""trial"",""time""
""fullscreenenter"",""5"",""16311""
","
","765.5","","49","","","3000","1","","","images/earth.jpg","images/tutrocket1","images/tutrocket2","null","images/tutrocket2","","1","practice","null","1","","",""
"d3-animate-choice","62","317211","0.0-61.0-1.0","293","690","19","Female","false","true","false","true","""event"",""trial"",""time""
""fullscreenenter"",""5"",""16311""
","
","
","""event"",""trial"",""time""
""fullscreenenter"",""5"",""16311""
","
","959.1000000089407","","49","","","3000","1","","","images/tutgreenplanet.jpg","images/tutalien2","images/tutalien1","images/tutrocket2","images/tutalien1","images/nothing.png","2","practice","false","1","rare","0","2022-02-09 00:00:50.582"
"two-step-fixation","63","318227","0.0-61.0-2.0","293","690","19","Female","false","true","false","true","""event"",""trial"",""time""
""fullscreenenter"",""5"",""16311""
","
","
","""event"",""trial"",""time""
""fullscreenenter"",""5"",""16311""
","
","","images/earth.jpg","","","","","","","","","","","","","","fixation","","","","","",""
"d3-animate-choice","64","320967","0.0-61.0-0.1","293","690","19","Female","false","true","false","true","""event"",""trial"",""time""
""fullscreenenter"",""5"",""16311""
","
","
","""event"",""trial"",""time""
""fullscreenenter"",""5"",""16311""
","
","730.2999999970198","","49","","","3000","1","","","images/earth.jpg","images/tutrocket1","images/tutrocket2","null","images/tutrocket2","","1","practice","null","1","","",""
"d3-animate-choice","65","323479","0.0-61.0-1.1","293","690","19","Female","false","true","false","true","""event"",""trial"",""time""
""fullscreenenter"",""5"",""16311""
","
","
","""event"",""trial"",""time""
""fullscreenenter"",""5"",""16311""
","
","505.40000000596046","","48","","","3000","1","","","images/tutyellowplanet.jpg","images/tutalien4","images/tutalien3","images/tutrocket2","images/tutalien4","images/nothing.png","2","practice","true","2","common","0","2022-02-09 00:00:56.849"
"two-step-fixation","66","324484","0.0-61.0-2.1","293","690","19","Female","false","true","false","true","""event"",""trial"",""time""
""fullscreenenter"",""5"",""16311""
","
","
","""event"",""trial"",""time""
""fullscreenenter"",""5"",""16311""
","
","","images/earth.jpg","","","","","","","","","","","","","","fixation","","","","","",""
"d3-animate-choice","67","326795","0.0-61.0-0.2","293","690","19","Female","false","true","false","true","""event"",""trial"",""time""
""fullscreenenter"",""5"",""16311""
","
","
","""event"",""trial"",""time""
""fullscreenenter"",""5"",""16311""
","
","301.5","","48","","","3000","1","","","images/earth.jpg","images/tutrocket1","images/tutrocket2","null","images/tutrocket1","","1","practice","null","2","","",""
"d3-animate-choice","68","329761","0.0-61.0-1.2","293","690","19","Female","false","true","false","true","""event"",""trial"",""time""
""fullscreenenter"",""5"",""16311""
","
","
","""event"",""trial"",""time""
""fullscreenenter"",""5"",""16311""
","
","959.5","","49","","","3000","1","","","images/tutgreenplanet.jpg","images/tutalien2","images/tutalien1","images/tutrocket1","images/tutalien1","images/nothing.png","2","practice","true","1","common","0","2022-02-09 00:01:03.131"
"two-step-fixation","69","330766","0.0-61.0-2.2","293","690","19","Female","false","true","false","true","""event"",""trial"",""time""
""fullscreenenter"",""5"",""16311""
","
","
","""event"",""trial"",""time""
""fullscreenenter"",""5"",""16311""
","
","","images/earth.jpg","","","","","","","","","","","","","","fixation","","","","","",""
"d3-animate-choice","70","333115","0.0-61.0-0.3","293","690","19","Female","false","true","false","true","""event"",""trial"",""time""
""fullscreenenter"",""5"",""16311""
","
","
","""event"",""trial"",""time""
""fullscreenenter"",""5"",""16311""
","
","340.20000000298023","","49","","","3000","1","","","images/earth.jpg","images/tutrocket1","images/tutrocket2","null","images/tutrocket2","","1","practice","null","1","","",""
"d3-animate-choice","71","335339","0.0-61.0-1.3","293","690","19","Female","false","true","false","true","""event"",""trial"",""time""
""fullscreenenter"",""5"",""16311""
","
","
","""event"",""trial"",""time""
""fullscreenenter"",""5"",""16311""
","
","218","","49","","","3000","1","","","images/tutyellowplanet.jpg","images/tutalien4","images/tutalien3","images/tutrocket2","images/tutalien3","images/nothing.png","2","practice","true","1","common","0","2022-02-09 00:01:08.709"
"two-step-fixation","72","336347","0.0-61.0-2.3","293","690","19","Female","false","true","false","true","""event"",""trial"",""time""
""fullscreenenter"",""5"",""16311""
","
","
","""event"",""trial"",""time""
""fullscreenenter"",""5"",""16311""
","
","","images/earth.jpg","","","","","","","","","","","","","","fixation","","","","","",""
"d3-animate-choice","73","338737","0.0-61.0-0.4","293","690","19","Female","false","true","false","true","""event"",""trial"",""time""
""fullscreenenter"",""5"",""16311""
","
","
","""event"",""trial"",""time""
""fullscreenenter"",""5"",""16311""
","
","381.20000000298023","","49","","","3000","1","","","images/earth.jpg","images/tutrocket1","images/tutrocket2","null","images/tutrocket2","","1","practice","null","1","","",""
"d3-animate-choice","74","340797","0.0-61.0-1.4","293","690","19","Female","false","true","false","true","""event"",""trial"",""time""
""fullscreenenter"",""5"",""16311""
","
","
","""event"",""trial"",""time""
""fullscreenenter"",""5"",""16311""
","
","53.70000000298023","","48","","","3000","1","","","images/tutgreenplanet.jpg","images/tutalien2","images/tutalien1","images/tutrocket2","images/tutalien2","images/nothing.png","2","practice","false","2","rare","0","2022-02-09 00:01:14.167"
"two-step-fixation","75","341804","0.0-61.0-2.4","293","690","19","Female","false","true","false","true","""event"",""trial"",""time""
""fullscreenenter"",""5"",""16311""
","
","
","""event"",""trial"",""time""
""fullscreenenter"",""5"",""16311""
","
","","images/earth.jpg","","","","","","","","","","","","","","fixation","","","","","",""
"d3-animate-choice","76","344108","0.0-61.0-0.5","293","690","19","Female","false","true","false","true","""event"",""trial"",""time""
""fullscreenenter"",""5"",""16311""
","
","
","""event"",""trial"",""time""
""fullscreenenter"",""5"",""16311""
","
","296.79999999701977","","48","","","3000","1","","","images/earth.jpg","images/tutrocket1","images/tutrocket2","null","images/tutrocket1","","1","practice","null","2","","",""
"d3-animate-choice","77","346673","0.0-61.0-1.5","293","690","19","Female","false","true","false","true","""event"",""trial"",""time""
""fullscreenenter"",""5"",""16311""
","
","
","""event"",""trial"",""time""
""fullscreenenter"",""5"",""16311""
","
","559.4000000059605","","49","","","3000","1","","","images/tutgreenplanet.jpg","images/tutalien2","images/tutalien1","images/tutrocket1","images/tutalien1","images/t.png","2","practice","true","1","common","1","2022-02-09 00:01:20.044"
"two-step-fixation","78","347681","0.0-61.0-2.5","293","690","19","Female","false","true","false","true","""event"",""trial"",""time""
""fullscreenenter"",""5"",""16311""
","
","
","""event"",""trial"",""time""
""fullscreenenter"",""5"",""16311""
","
","","images/earth.jpg","","","","","","","","","","","","","","fixation","","","","","",""
"d3-animate-choice","79","350052","0.0-61.0-0.6","293","690","19","Female","false","true","false","true","""event"",""trial"",""time""
""fullscreenenter"",""5"",""16311""
","
","
","""event"",""trial"",""time""
""fullscreenenter"",""5"",""16311""
","
","363","","48","","","3000","1","","","images/earth.jpg","images/tutrocket1","images/tutrocket2","null","images/tutrocket1","","1","practice","null","2","","",""
"d3-animate-choice","80","352481","0.0-61.0-1.6","293","690","19","Female","false","true","false","true","""event"",""trial"",""time""
""fullscreenenter"",""5"",""16311""
","
","
","""event"",""trial"",""time""
""fullscreenenter"",""5"",""16311""
","
","422.09999999403954","","48","","","3000","1","","","images/tutgreenplanet.jpg","images/tutalien2","images/tutalien1","images/tutrocket1","images/tutalien2","images/nothing.png","2","practice","true","2","common","0","2022-02-09 00:01:25.851"
"two-step-fixation","81","353486","0.0-61.0-2.6","293","690","19","Female","false","true","false","true","""event"",""trial"",""time""
""fullscreenenter"",""5"",""16311""
","
","
","""event"",""trial"",""time""
""fullscreenenter"",""5"",""16311""
","
","","images/earth.jpg","","","","","","","","","","","","","","fixation","","","","","",""
"d3-animate-choice","82","355775","0.0-61.0-0.7","293","690","19","Female","false","true","false","true","""event"",""trial"",""time""
""fullscreenenter"",""5"",""16311""
","
","
","""event"",""trial"",""time""
""fullscreenenter"",""5"",""16311""
","
","282.5","","48","","","3000","1","2177.7000000029802","49","images/earth.jpg","images/tutrocket1","images/tutrocket2","null","images/tutrocket1","","1","practice","null","2","","",""
"d3-animate-choice","83","358129","0.0-61.0-1.7","293","690","19","Female","false","true","false","true","""event"",""trial"",""time""
""fullscreenenter"",""5"",""16311""
","
","
","""event"",""trial"",""time""
""fullscreenenter"",""5"",""16311""
","
","344.19999998807907","","49","","","3000","1","","","images/tutgreenplanet.jpg","images/tutalien2","images/tutalien1","images/tutrocket1","images/tutalien1","images/t.png","2","practice","true","1","common","1","2022-02-09 00:01:31.499"
"two-step-fixation","84","359134","0.0-61.0-2.7","293","690","19","Female","false","true","false","true","""event"",""trial"",""time""
""fullscreenenter"",""5"",""16311""
","
","
","""event"",""trial"",""time""
""fullscreenenter"",""5"",""16311""
","
","","images/earth.jpg","","","","","","","","","","","","","","fixation","","","","","",""
"d3-animate-choice","85","361560","0.0-61.0-0.8","293","690","19","Female","false","true","false","true","""event"",""trial"",""time""
""fullscreenenter"",""5"",""16311""
","
","
","""event"",""trial"",""time""
""fullscreenenter"",""5"",""16311""
","
","417.5","","48","","","3000","1","","","images/earth.jpg","images/tutrocket1","images/tutrocket2","null","images/tutrocket1","","1","practice","null","2","","",""
"d3-animate-choice","86","364019","0.0-61.0-1.8","293","690","19","Female","false","true","false","true","""event"",""trial"",""time""
""fullscreenenter"",""5"",""16311""
","
","
","""event"",""trial"",""time""
""fullscreenenter"",""5"",""16311""
","
","451.6000000089407","","49","","","3000","1","","","images/tutgreenplanet.jpg","images/tutalien2","images/tutalien1","images/tutrocket1","images/tutalien1","images/nothing.png","2","practice","true","1","common","0","2022-02-09 00:01:37.389"
"two-step-fixation","87","365025","0.0-61.0-2.8","293","690","19","Female","false","true","false","true","""event"",""trial"",""time""
""fullscreenenter"",""5"",""16311""
","
","
","""event"",""trial"",""time""
""fullscreenenter"",""5"",""16311""
","
","","images/earth.jpg","","","","","","","","","","","","","","fixation","","","","","",""
"d3-animate-choice","88","367341","0.0-61.0-0.9","293","690","19","Female","false","true","false","true","""event"",""trial"",""time""
""fullscreenenter"",""5"",""16311""
","
","
","""event"",""trial"",""time""
""fullscreenenter"",""5"",""16311""
","
","309.5","","49","","","3000","1","","","images/earth.jpg","images/tutrocket1","images/tutrocket2","null","images/tutrocket2","","1","practice","null","1","","",""
"d3-animate-choice","89","369791","0.0-61.0-1.9","293","690","19","Female","false","true","false","true","""event"",""trial"",""time""
""fullscreenenter"",""5"",""16311""
","
","
","""event"",""trial"",""time""
""fullscreenenter"",""5"",""16311""
","
","441.09999999403954","","48","","","3000","1","","","images/tutyellowplanet.jpg","images/tutalien4","images/tutalien3","images/tutrocket2","images/tutalien4","images/t.png","2","practice","true","2","common","1","2022-02-09 00:01:43.161"
"two-step-fixation","90","370797","0.0-61.0-2.9","293","690","19","Female","false","true","false","true","""event"",""trial"",""time""
""fullscreenenter"",""5"",""16311""
","
","
","""event"",""trial"",""time""
""fullscreenenter"",""5"",""16311""
","
","","images/earth.jpg","","","","","","","","","","","","","","fixation","","","","","",""
"d3-animate-choice","91","373157","0.0-61.0-0.10","293","690","19","Female","false","true","false","true","""event"",""trial"",""time""
""fullscreenenter"",""5"",""16311""
","
","
","""event"",""trial"",""time""
""fullscreenenter"",""5"",""16311""
","
","354.5","","48","","","3000","1","","","images/earth.jpg","images/tutrocket1","images/tutrocket2","null","images/tutrocket1","","1","practice","null","2","","",""
"d3-animate-choice","92","376391","0.0-61.0-1.10","293","690","19","Female","false","true","false","true","""event"",""trial"",""time""
""fullscreenenter"",""5"",""16311""
","
","
","""event"",""trial"",""time""
""fullscreenenter"",""5"",""16311""
","
","1227.5999999940395","","49","","","3000","1","","","images/tutgreenplanet.jpg","images/tutalien2","images/tutalien1","images/tutrocket1","images/tutalien1","images/nothing.png","2","practice","true","1","common","0","2022-02-09 00:01:49.762"
"two-step-fixation","93","377397","0.0-61.0-2.10","293","690","19","Female","false","true","false","true","""event"",""trial"",""time""
""fullscreenenter"",""5"",""16311""
","
","
","""event"",""trial"",""time""
""fullscreenenter"",""5"",""16311""
","
","","images/earth.jpg","","","","","","","","","","","","","","fixation","","","","","",""
"d3-animate-choice","94","379691","0.0-61.0-0.11","293","690","19","Female","false","true","false","true","""event"",""trial"",""time""
""fullscreenenter"",""5"",""16311""
","
","
","""event"",""trial"",""time""
""fullscreenenter"",""5"",""16311""
","
","285.90000000596046","","49","","","3000","1","","","images/earth.jpg","images/tutrocket1","images/tutrocket2","null","images/tutrocket2","","1","practice","null","1","","",""
"d3-animate-choice","95","381899","0.0-61.0-1.11","293","690","19","Female","false","true","false","true","""event"",""trial"",""time""
""fullscreenenter"",""5"",""16311""
","
","
","""event"",""trial"",""time""
""fullscreenenter"",""5"",""16311""
","
","203","","48","","","3000","1","","","images/tutyellowplanet.jpg","images/tutalien4","images/tutalien3","images/tutrocket2","images/tutalien4","images/t.png","2","practice","true","2","common","1","2022-02-09 00:01:55.270"
"two-step-fixation","96","382906","0.0-61.0-2.11","293","690","19","Female","false","true","false","true","""event"",""trial"",""time""
""fullscreenenter"",""5"",""16311""
","
","
","""event"",""trial"",""time""
""fullscreenenter"",""5"",""16311""
","
","","images/earth.jpg","","","","","","","","","","","","","","fixation","","","","","",""
"d3-animate-choice","97","385285","0.0-61.0-0.12","293","690","19","Female","false","true","false","true","""event"",""trial"",""time""
""fullscreenenter"",""5"",""16311""
","
","
","""event"",""trial"",""time""
""fullscreenenter"",""5"",""16311""
","
","370.59999999403954","","49","","","3000","1","","","images/earth.jpg","images/tutrocket1","images/tutrocket2","null","images/tutrocket2","","1","practice","null","1","","",""
"d3-animate-choice","98","387570","0.0-61.0-1.12","293","690","19","Female","false","true","false","true","""event"",""trial"",""time""
""fullscreenenter"",""5"",""16311""
","
","
","""event"",""trial"",""time""
""fullscreenenter"",""5"",""16311""
","
","278.1000000089407","","48","","","3000","1","","","images/tutyellowplanet.jpg","images/tutalien4","images/tutalien3","images/tutrocket2","images/tutalien4","images/t.png","2","practice","true","2","common","1","2022-02-09 00:02:00.940"
"two-step-fixation","99","388575","0.0-61.0-2.12","293","690","19","Female","false","true","false","true","""event"",""trial"",""time""
""fullscreenenter"",""5"",""16311""
","
","
","""event"",""trial"",""time""
""fullscreenenter"",""5"",""16311""
","
","","images/earth.jpg","","","","","","","","","","","","","","fixation","","","","","",""
"d3-animate-choice","100","391125","0.0-61.0-0.13","293","690","19","Female","false","true","false","true","""event"",""trial"",""time""
""fullscreenenter"",""5"",""16311""
","
","
","""event"",""trial"",""time""
""fullscreenenter"",""5"",""16311""
","
","542.8999999910593","","48","","","3000","1","","","images/earth.jpg","images/tutrocket1","images/tutrocket2","null","images/tutrocket1","","1","practice","null","2","","",""
"d3-animate-choice","101","393375","0.0-61.0-1.13","293","690","19","Female","false","true","false","true","""event"",""trial"",""time""
""fullscreenenter"",""5"",""16311""
","
","
","""event"",""trial"",""time""
""fullscreenenter"",""5"",""16311""
","
","244.20000000298023","","49","","","3000","1","","","images/tutgreenplanet.jpg","images/tutalien2","images/tutalien1","images/tutrocket1","images/tutalien1","images/nothing.png","2","practice","true","1","common","0","2022-02-09 00:02:06.745"
"two-step-fixation","102","394380","0.0-61.0-2.13","293","690","19","Female","false","true","false","true","""event"",""trial"",""time""
""fullscreenenter"",""5"",""16311""
","
","
","""event"",""trial"",""time""
""fullscreenenter"",""5"",""16311""
","
","","images/earth.jpg","","","","","","","","","","","","","","fixation","","","","","",""
"d3-animate-choice","103","396881","0.0-61.0-0.14","293","690","19","Female","false","true","false","true","""event"",""trial"",""time""
""fullscreenenter"",""5"",""16311""
","
","
","""event"",""trial"",""time""
""fullscreenenter"",""5"",""16311""
","
","493.70000000298023","","49","","","3000","1","","","images/earth.jpg","images/tutrocket1","images/tutrocket2","null","images/tutrocket2","","1","practice","null","1","","",""
"d3-animate-choice","104","399318","0.0-61.0-1.14","293","690","19","Female","false","true","false","true","""event"",""trial"",""time""
""fullscreenenter"",""5"",""16311""
","
","
","""event"",""trial"",""time""
""fullscreenenter"",""5"",""16311""
","
","426.5","","48","","","3000","1","","","images/tutyellowplanet.jpg","images/tutalien4","images/tutalien3","images/tutrocket2","images/tutalien4","images/nothing.png","2","practice","true","2","common","0","2022-02-09 00:02:12.688"
"two-step-fixation","105","400326","0.0-61.0-2.14","293","690","19","Female","false","true","false","true","""event"",""trial"",""time""
""fullscreenenter"",""5"",""16311""
","
","
","""event"",""trial"",""time""
""fullscreenenter"",""5"",""16311""
","
","","images/earth.jpg","","","","","","","","","","","","","","fixation","","","","","",""
"d3-animate-choice","106","402363","0.0-61.0-0.15","293","690","19","Female","false","true","false","true","""event"",""trial"",""time""
""fullscreenenter"",""5"",""16311""
","
","
","""event"",""trial"",""time""
""fullscreenenter"",""5"",""16311""
","
","24.299999997019768","","49","","","3000","1","","","images/earth.jpg","images/tutrocket1","images/tutrocket2","null","images/tutrocket2","","1","practice","null","1","","",""
"d3-animate-choice","107","404611","0.0-61.0-1.15","293","690","19","Female","false","true","false","true","""event"",""trial"",""time""
""fullscreenenter"",""5"",""16311""
","
","
","""event"",""trial"",""time""
""fullscreenenter"",""5"",""16311""
","
","238.29999999701977","","49","","","3000","1","","","images/tutgreenplanet.jpg","images/tutalien2","images/tutalien1","images/tutrocket2","images/tutalien1","images/t.png","2","practice","false","1","rare","1","2022-02-09 00:02:17.982"
"two-step-fixation","108","405620","0.0-61.0-2.15","293","690","19","Female","false","true","false","true","""event"",""trial"",""time""
""fullscreenenter"",""5"",""16311""
","
","
","""event"",""trial"",""time""
""fullscreenenter"",""5"",""16311""
","
","","images/earth.jpg","","","","","","","","","","","","","","fixation","","","","","",""
"d3-animate-choice","109","408078","0.0-61.0-0.16","293","690","19","Female","false","true","false","true","""event"",""trial"",""time""
""fullscreenenter"",""5"",""16311""
","
","
","""event"",""trial"",""time""
""fullscreenenter"",""5"",""16311""
","
","449.5","","48","","","3000","1","2297.5","49","images/earth.jpg","images/tutrocket1","images/tutrocket2","null","images/tutrocket1","","1","practice","null","2","","",""
"d3-animate-choice","110","410430","0.0-61.0-1.16","293","690","19","Female","false","true","false","true","""event"",""trial"",""time""
""fullscreenenter"",""5"",""16311""
","
","
","""event"",""trial"",""time""
""fullscreenenter"",""5"",""16311""
","
","343","","49","","","3000","1","","","images/tutyellowplanet.jpg","images/tutalien4","images/tutalien3","images/tutrocket1","images/tutalien3","images/t.png","2","practice","false","1","rare","1","2022-02-09 00:02:23.800"
"two-step-fixation","111","411438","0.0-61.0-2.16","293","690","19","Female","false","true","false","true","""event"",""trial"",""time""
""fullscreenenter"",""5"",""16311""
","
","
","""event"",""trial"",""time""
""fullscreenenter"",""5"",""16311""
","
","","images/earth.jpg","","","","","","","","","","","","","","fixation","","","","","",""
"d3-animate-choice","112","413799","0.0-61.0-0.17","293","690","19","Female","false","true","false","true","""event"",""trial"",""time""
""fullscreenenter"",""5"",""16311""
","
","
","""event"",""trial"",""time""
""fullscreenenter"",""5"",""16311""
","
","353.09999999403954","","48","","","3000","1","","","images/earth.jpg","images/tutrocket1","images/tutrocket2","null","images/tutrocket1","","1","practice","null","2","","",""
"d3-animate-choice","113","416153","0.0-61.0-1.17","293","690","19","Female","false","true","false","true","""event"",""trial"",""time""
""fullscreenenter"",""5"",""16311""
","
","
","""event"",""trial"",""time""
""fullscreenenter"",""5"",""16311""
","
","344.40000000596046","","48","","","3000","1","","","images/tutyellowplanet.jpg","images/tutalien4","images/tutalien3","images/tutrocket1","images/tutalien4","images/t.png","2","practice","false","2","rare","1","2022-02-09 00:02:29.523"
"two-step-fixation","114","417159","0.0-61.0-2.17","293","690","19","Female","false","true","false","true","""event"",""trial"",""time""
""fullscreenenter"",""5"",""16311""
","
","
","""event"",""trial"",""time""
""fullscreenenter"",""5"",""16311""
","
","","images/earth.jpg","","","","","","","","","","","","","","fixation","","","","","",""
"d3-animate-choice","115","419320","0.0-61.0-0.18","293","690","19","Female","false","true","false","true","""event"",""trial"",""time""
""fullscreenenter"",""5"",""16311""
","
","
","""event"",""trial"",""time""
""fullscreenenter"",""5"",""16311""
","
","152.20000000298023","","49","","","3000","1","","","images/earth.jpg","images/tutrocket1","images/tutrocket2","null","images/tutrocket2","","1","practice","null","1","","",""
"d3-animate-choice","116","421651","0.0-61.0-1.18","293","690","19","Female","false","true","false","true","""event"",""trial"",""time""
""fullscreenenter"",""5"",""16311""
","
","
","""event"",""trial"",""time""
""fullscreenenter"",""5"",""16311""
","
","323.29999999701977","","48","","","3000","1","","","images/tutyellowplanet.jpg","images/tutalien4","images/tutalien3","images/tutrocket2","images/tutalien4","images/nothing.png","2","practice","true","2","common","0","2022-02-09 00:02:35.021"
"two-step-fixation","117","422659","0.0-61.0-2.18","293","690","19","Female","false","true","false","true","""event"",""trial"",""time""
""fullscreenenter"",""5"",""16311""
","
","
","""event"",""trial"",""time""
""fullscreenenter"",""5"",""16311""
","
","","images/earth.jpg","","","","","","","","","","","","","","fixation","","","","","",""
"d3-animate-choice","118","424819","0.0-61.0-0.19","293","690","19","Female","false","true","false","true","""event"",""trial"",""time""
""fullscreenenter"",""5"",""16311""
","
","
","""event"",""trial"",""time""
""fullscreenenter"",""5"",""16311""
","
","154.40000000596046","","48","","","3000","1","","","images/earth.jpg","images/tutrocket1","images/tutrocket2","null","images/tutrocket1","","1","practice","null","2","","",""
"d3-animate-choice","119","427117","0.0-61.0-1.19","293","690","19","Female","false","true","false","true","""event"",""trial"",""time""
""fullscreenenter"",""5"",""16311""
","
","
","""event"",""trial"",""time""
""fullscreenenter"",""5"",""16311""
","
","291.59999999403954","","49","","","3000","1","","","images/tutyellowplanet.jpg","images/tutalien4","images/tutalien3","images/tutrocket1","images/tutalien3","images/t.png","2","practice","false","1","rare","1","2022-02-09 00:02:40.487"
"two-step-fixation","120","428125","0.0-61.0-2.19","293","690","19","Female","false","true","false","true","""event"",""trial"",""time""
""fullscreenenter"",""5"",""16311""
","
","
","""event"",""trial"",""time""
""fullscreenenter"",""5"",""16311""
","
","","images/earth.jpg","","","","","","","","","","","","","","fixation","","","","","",""
"d3-instructions","121","431826","0.0-62.0","293","690","19","Female","false","true","false","true","""event"",""trial"",""time""
""fullscreenenter"",""5"",""16311""
","
","
","""event"",""trial"",""time""
""fullscreenenter"",""5"",""16311""
","
","","","","","","","","","","","","","","","","","","","","","",""
"audio-keyboard-response","122","433900","0.0-63.0","293","690","19","Female","false","true","false","true","""event"",""trial"",""time""
""fullscreenenter"",""5"",""16311""
","
","
","""event"",""trial"",""time""
""fullscreenenter"",""5"",""16311""
","
","2069","audio/instructions/treasure_feedback.wav","32","","","","","","","","","","","","","","","","","","",""
"d3-instructions","123","447696","0.0-64.0","293","690","19","Female","false","true","false","true","""event"",""trial"",""time""
""fullscreenenter"",""5"",""16311""
","
","
","""event"",""trial"",""time""
""fullscreenenter"",""5"",""16311""
","
","","","","","","","","","","","","","","","","","","","","","",""
"d3-instructions","124","460697","0.0-65.0","293","690","19","Female","false","true","false","true","""event"",""trial"",""time""
""fullscreenenter"",""5"",""16311""
","
","
","""event"",""trial"",""time""
""fullscreenenter"",""5"",""16311""
","
","","","","","","","","","","","","","","","","","","","","","",""
"d3-instructions","125","472683","0.0-66.0","293","690","19","Female","false","true","false","true","""event"",""trial"",""time""
""fullscreenenter"",""5"",""16311""
","
","
","""event"",""trial"",""time""
""fullscreenenter"",""5"",""16311""
","
","","","","","","","","","","","","","","","","","","","","","",""
"d3-instructions","126","486461","0.0-67.0","293","690","19","Female","false","true","false","true","""event"",""trial"",""time""
""fullscreenenter"",""5"",""16311""
","
","
","""event"",""trial"",""time""
""fullscreenenter"",""5"",""16311""
","
","","","","","","","","","","","","","","","","","","","","","",""
"d3-instructions","127","490947","0.0-68.0","293","690","19","Female","false","true","false","true","""event"",""trial"",""time""
""fullscreenenter"",""5"",""16311""
","
","
","""event"",""trial"",""time""
""fullscreenenter"",""5"",""16311""
","
","","","","","","","","","","","","","","","","","","","","","",""
"instructions-quiz","128","494321","0.0-69.0","293","690","19","Female","false","true","false","true","""event"",""trial"",""time""
""fullscreenenter"",""5"",""16311""
","
","
","""event"",""trial"",""time""
""fullscreenenter"",""5"",""16311""
","
","3370.7000000029802","audio/quiz/Q1_Prompt.wav","","1","","","","","","","","","","","","","","","","","",""
"audio-keyboard-response","129","502256","0.0-70.0","293","690","19","Female","false","true","false","true","""event"",""trial"",""time""
""fullscreenenter"",""5"",""16311""
","
","
","""event"",""trial"",""time""
""fullscreenenter"",""5"",""16311""
","
","7925","audio/quiz/Q1_Correct.wav","32","","","","","","","","","","","","","","","","","","",""
"instructions-quiz","130","508148","0.0-71.0","293","690","19","Female","false","true","false","true","""event"",""trial"",""time""
""fullscreenenter"",""5"",""16311""
","
","
","""event"",""trial"",""time""
""fullscreenenter"",""5"",""16311""
","
","5890.4000000059605","audio/quiz/Q2_Prompt.wav","","0","","","","","","","","","","","","","","","","","",""
"audio-keyboard-response","131","519993","0.0-72.0","293","690","19","Female","false","true","false","true","""event"",""trial"",""time""
""fullscreenenter"",""5"",""16311""
","
","
","""event"",""trial"",""time""
""fullscreenenter"",""5"",""16311""
","
","11840","audio/quiz/Q2_Correct.wav","32","","","","","","","","","","","","","","","","","","",""
"instructions-quiz","132","524173","0.0-73.0","293","690","19","Female","false","true","false","true","""event"",""trial"",""time""
""fullscreenenter"",""5"",""16311""
","
","
","""event"",""trial"",""time""
""fullscreenenter"",""5"",""16311""
","
","4176.100000008941","audio/quiz/Q3_Prompt.wav","","1","","","","","","","","","","","","","","","","","",""
"audio-keyboard-response","133","528757","0.0-74.0","293","690","19","Female","false","true","false","true","""event"",""trial"",""time""
""fullscreenenter"",""5"",""16311""
","
","
","""event"",""trial"",""time""
""fullscreenenter"",""5"",""16311""
","
","4581","audio/quiz/Q3_Correct.wav","32","","","","","","","","","","","","","","","","","","",""
"d3-instructions","134","532479","0.0-75.0","293","690","19","Female","false","true","false","true","""event"",""trial"",""time""
""fullscreenenter"",""5"",""16311""
","
","
","""event"",""trial"",""time""
""fullscreenenter"",""5"",""16311""
","
","","","","","","","","","","","","","","","","","","","","","",""
"d3-animate-choice","135","535751","0.0-76.0-0.0","293","690","19","Female","false","true","false","true","""event"",""trial"",""time""
""fullscreenenter"",""5"",""16311""
","
","
","""event"",""trial"",""time""
""fullscreenenter"",""5"",""16311""
","
","1262.7999999970198","","49","","","3000","1","","","images/earth.jpg","images/rocket1","images/rocket2","null","images/rocket2","","1","real","null","1","","",""
"d3-animate-choice","136","538100","0.0-76.0-1.0","293","690","19","Female","false","true","false","true","""event"",""trial"",""time""
""fullscreenenter"",""5"",""16311""
","
","
","""event"",""trial"",""time""
""fullscreenenter"",""5"",""16311""
","
","342.8999999910593","","48","","","3000","1","","","images/purpleplanet.jpg","images/alien4","images/alien3","images/rocket2","images/alien4","images/t.png","2","real","true","2","common","1","2022-02-09 00:04:31.470"
"two-step-fixation","137","539108","0.0-76.0-2.0","293","690","19","Female","false","true","false","true","""event"",""trial"",""time""
""fullscreenenter"",""5"",""16311""
","
","
","""event"",""trial"",""time""
""fullscreenenter"",""5"",""16311""
","
","","images/earth.jpg","","","","","","","","","","","","","","fixation","","","","","",""
"d3-animate-choice","138","541946","0.0-76.0-0.1","293","690","19","Female","false","true","false","true","""event"",""trial"",""time""
""fullscreenenter"",""5"",""16311""
","
","
","""event"",""trial"",""time""
""fullscreenenter"",""5"",""16311""
","
","831.2999999970198","","48","","","3000","1","","","images/earth.jpg","images/rocket1","images/rocket2","null","images/rocket1","","1","real","null","2","","",""
"d3-animate-choice","139","544713","0.0-76.0-1.1","293","690","19","Female","false","true","false","true","""event"",""trial"",""time""
""fullscreenenter"",""5"",""16311""
","
","
","""event"",""trial"",""time""
""fullscreenenter"",""5"",""16311""
","
","760.2000000029802","","49","","","3000","1","","","images/redplanet1.jpg","images/alien2","images/alien1","images/rocket1","images/alien1","images/nothing.png","2","real","true","1","common","0","2022-02-09 00:04:38.083"
"two-step-fixation","140","545721","0.0-76.0-2.1","293","690","19","Female","false","true","false","true","""event"",""trial"",""time""
""fullscreenenter"",""5"",""16311""
","
","
","""event"",""trial"",""time""
""fullscreenenter"",""5"",""16311""
","
","","images/earth.jpg","","","","","","","","","","","","","","fixation","","","","","",""
"d3-animate-choice","141","548122","0.0-76.0-0.2","293","690","19","Female","false","true","false","true","""event"",""trial"",""time""
""fullscreenenter"",""5"",""16311""
","
","
","""event"",""trial"",""time""
""fullscreenenter"",""5"",""16311""
","
","395.20000000298023","","48","","","3000","1","","","images/earth.jpg","images/rocket1","images/rocket2","null","images/rocket1","","1","real","null","2","","",""
"d3-animate-choice","142","550480","0.0-76.0-1.2","293","690","19","Female","false","true","false","true","""event"",""trial"",""time""
""fullscreenenter"",""5"",""16311""
","
","
","""event"",""trial"",""time""
""fullscreenenter"",""5"",""16311""
","
","351.79999999701977","","48","","","3000","1","","","images/redplanet1.jpg","images/alien2","images/alien1","images/rocket1","images/alien2","images/t.png","2","real","true","2","common","1","2022-02-09 00:04:43.850"
"two-step-fixation","143","551486","0.0-76.0-2.2","293","690","19","Female","false","true","false","true","""event"",""trial"",""time""
""fullscreenenter"",""5"",""16311""
","
","
","""event"",""trial"",""time""
""fullscreenenter"",""5"",""16311""
","
","","images/earth.jpg","","","","","","","","","","","","","","fixation","","","","","",""
"d3-animate-choice","144","553692","0.0-76.0-0.3","293","690","19","Female","false","true","false","true","""event"",""trial"",""time""
""fullscreenenter"",""5"",""16311""
","
","
","""event"",""trial"",""time""
""fullscreenenter"",""5"",""16311""
","
","199","","49","","","3000","1","","","images/earth.jpg","images/rocket1","images/rocket2","null","images/rocket2","","1","real","null","1","","",""
"d3-animate-choice","145","555992","0.0-76.0-1.3","293","690","19","Female","false","true","false","true","""event"",""trial"",""time""
""fullscreenenter"",""5"",""16311""
","
","
","""event"",""trial"",""time""
""fullscreenenter"",""5"",""16311""
","
","291.3999999910593","","48","","","3000","1","","","images/purpleplanet.jpg","images/alien4","images/alien3","images/rocket2","images/alien4","images/t.png","2","real","true","2","common","1","2022-02-09 00:04:49.362"
"two-step-fixation","146","556997","0.0-76.0-2.3","293","690","19","Female","false","true","false","true","""event"",""trial"",""time""
""fullscreenenter"",""5"",""16311""
","
","
","""event"",""trial"",""time""
""fullscreenenter"",""5"",""16311""
","
","","images/earth.jpg","","","","","","","","","","","","","","fixation","","","","","",""
"d3-animate-choice","147","559266","0.0-76.0-0.4","293","690","19","Female","false","true","false","true","""event"",""trial"",""time""
""fullscreenenter"",""5"",""16311""
","
","
","""event"",""trial"",""time""
""fullscreenenter"",""5"",""16311""
","
","261.70000000298023","","49","","","3000","1","","","images/earth.jpg","images/rocket1","images/rocket2","null","images/rocket2","","1","real","null","1","","",""
"d3-animate-choice","148","561542","0.0-76.0-1.4","293","690","19","Female","false","true","false","true","""event"",""trial"",""time""
""fullscreenenter"",""5"",""16311""
","
","
","""event"",""trial"",""time""
""fullscreenenter"",""5"",""16311""
","
","268.40000000596046","","48","","","3000","1","","","images/purpleplanet.jpg","images/alien4","images/alien3","images/rocket2","images/alien4","images/t.png","2","real","true","2","common","1","2022-02-09 00:04:54.912"
"two-step-fixation","149","562550","0.0-76.0-2.4","293","690","19","Female","false","true","false","true","""event"",""trial"",""time""
""fullscreenenter"",""5"",""16311""
","
","
","""event"",""trial"",""time""
""fullscreenenter"",""5"",""16311""
","
","","images/earth.jpg","","","","","","","","","","","","","","fixation","","","","","",""
"d3-animate-choice","150","564892","0.0-76.0-0.5","293","690","19","Female","false","true","false","true","""event"",""trial"",""time""
""fullscreenenter"",""5"",""16311""
","
","
","""event"",""trial"",""time""
""fullscreenenter"",""5"",""16311""
","
","336.09999999403954","","49","","","3000","1","","","images/earth.jpg","images/rocket1","images/rocket2","null","images/rocket2","","1","real","null","1","","",""
"d3-animate-choice","151","567522","0.0-76.0-1.5","293","690","19","Female","false","true","false","true","""event"",""trial"",""time""
""fullscreenenter"",""5"",""16311""
","
","
","""event"",""trial"",""time""
""fullscreenenter"",""5"",""16311""
","
","620.5","","48","","","3000","1","","","images/purpleplanet.jpg","images/alien4","images/alien3","images/rocket2","images/alien4","images/t.png","2","real","true","2","common","1","2022-02-09 00:05:00.892"
"two-step-fixation","152","568531","0.0-76.0-2.5","293","690","19","Female","false","true","false","true","""event"",""trial"",""time""
""fullscreenenter"",""5"",""16311""
","
","
","""event"",""trial"",""time""
""fullscreenenter"",""5"",""16311""
","
","","images/earth.jpg","","","","","","","","","","","","","","fixation","","","","","",""
"d3-animate-choice","153","570780","0.0-76.0-0.6","293","690","19","Female","false","true","false","true","""event"",""trial"",""time""
""fullscreenenter"",""5"",""16311""
","
","
","""event"",""trial"",""time""
""fullscreenenter"",""5"",""16311""
","
","241.29999999701977","","49","","","3000","1","","","images/earth.jpg","images/rocket1","images/rocket2","null","images/rocket2","","1","real","null","1","","",""
"d3-animate-choice","154","572990","0.0-76.0-1.6","293","690","19","Female","false","true","false","true","""event"",""trial"",""time""
""fullscreenenter"",""5"",""16311""
","
","
","""event"",""trial"",""time""
""fullscreenenter"",""5"",""16311""
","
","203.29999999701977","","48","","","3000","1","","","images/purpleplanet.jpg","images/alien4","images/alien3","images/rocket2","images/alien4","images/t.png","2","real","true","2","common","1","2022-02-09 00:05:06.360"
"two-step-fixation","155","573996","0.0-76.0-2.6","293","690","19","Female","false","true","false","true","""event"",""trial"",""time""
""fullscreenenter"",""5"",""16311""
","
","
","""event"",""trial"",""time""
""fullscreenenter"",""5"",""16311""
","
","","images/earth.jpg","","","","","","","","","","","","","","fixation","","","","","",""
"d3-animate-choice","156","576279","0.0-76.0-0.7","293","690","19","Female","false","true","false","true","""event"",""trial"",""time""
""fullscreenenter"",""5"",""16311""
","
","
","""event"",""trial"",""time""
""fullscreenenter"",""5"",""16311""
","
","278.70000000298023","","49","","","3000","1","","","images/earth.jpg","images/rocket1","images/rocket2","null","images/rocket2","","1","real","null","1","","",""
"d3-animate-choice","157","578323","0.0-76.0-1.7","293","690","19","Female","false","true","false","true","""event"",""trial"",""time""
""fullscreenenter"",""5"",""16311""
","
","
","""event"",""trial"",""time""
""fullscreenenter"",""5"",""16311""
","
","34.400000005960464","","48","","","3000","1","","","images/purpleplanet.jpg","images/alien4","images/alien3","images/rocket2","images/alien4","images/t.png","2","real","true","2","common","1","2022-02-09 00:05:11.693"
"two-step-fixation","158","579329","0.0-76.0-2.7","293","690","19","Female","false","true","false","true","""event"",""trial"",""time""
""fullscreenenter"",""5"",""16311""
","
","
","""event"",""trial"",""time""
""fullscreenenter"",""5"",""16311""
","
","","images/earth.jpg","","","","","","","","","","","","","","fixation","","","","","",""
"d3-animate-choice","159","581645","0.0-76.0-0.8","293","690","19","Female","false","true","false","true","""event"",""trial"",""time""
""fullscreenenter"",""5"",""16311""
","
","
","""event"",""trial"",""time""
""fullscreenenter"",""5"",""16311""
","
","307.90000000596046","","49","","","3000","1","","","images/earth.jpg","images/rocket1","images/rocket2","null","images/rocket2","","1","real","null","1","","",""
"d3-animate-choice","160","583730","0.0-76.0-1.8","293","690","19","Female","false","true","false","true","""event"",""trial"",""time""
""fullscreenenter"",""5"",""16311""
","
","
","""event"",""trial"",""time""
""fullscreenenter"",""5"",""16311""
","
","77","","48","","","3000","1","","","images/purpleplanet.jpg","images/alien4","images/alien3","images/rocket2","images/alien4","images/t.png","2","real","true","2","common","1","2022-02-09 00:05:17.100"
"two-step-fixation","161","584738","0.0-76.0-2.8","293","690","19","Female","false","true","false","true","""event"",""trial"",""time""
""fullscreenenter"",""5"",""16311""
","
","
","""event"",""trial"",""time""
""fullscreenenter"",""5"",""16311""
","
","","images/earth.jpg","","","","","","","","","","","","","","fixation","","","","","",""
"d3-animate-choice","162","586828","0.0-76.0-0.9","293","690","19","Female","false","true","false","true","""event"",""trial"",""time""
""fullscreenenter"",""5"",""16311""
","
","
","""event"",""trial"",""time""
""fullscreenenter"",""5"",""16311""
","
","82.6000000089407","","49","","","3000","1","2046","48","images/earth.jpg","images/rocket1","images/rocket2","null","images/rocket2","","1","real","null","1","","",""
"d3-animate-choice","163","589328","0.0-76.0-1.9","293","690","19","Female","false","true","false","true","""event"",""trial"",""time""
""fullscreenenter"",""5"",""16311""
","
","
","""event"",""trial"",""time""
""fullscreenenter"",""5"",""16311""
","
","494","","48","","","3000","1","","","images/purpleplanet.jpg","images/alien4","images/alien3","images/rocket2","images/alien4","images/nothing.png","2","real","true","2","common","0","2022-02-09 00:05:22.698"
"two-step-fixation","164","590334","0.0-76.0-2.9","293","690","19","Female","false","true","false","true","""event"",""trial"",""time""
""fullscreenenter"",""5"",""16311""
","
","
","""event"",""trial"",""time""
""fullscreenenter"",""5"",""16311""
","
","","images/earth.jpg","","","","","","","","","","","","","","fixation","","","","","",""
"d3-animate-choice","165","592349","0.0-76.0-0.10","293","690","19","Female","false","true","false","true","""event"",""trial"",""time""
""fullscreenenter"",""5"",""16311""
","
","
","""event"",""trial"",""time""
""fullscreenenter"",""5"",""16311""
","
","8.399999991059303","","48","","","3000","1","","","images/earth.jpg","images/rocket1","images/rocket2","null","images/rocket1","","1","real","null","2","","",""
"d3-animate-choice","166","594599","0.0-76.0-1.10","293","690","19","Female","false","true","false","true","""event"",""trial"",""time""
""fullscreenenter"",""5"",""16311""
","
","
","""event"",""trial"",""time""
""fullscreenenter"",""5"",""16311""
","
","243.80000001192093","","48","","","3000","1","","","images/redplanet1.jpg","images/alien2","images/alien1","images/rocket1","images/alien2","images/t.png","2","real","true","2","common","1","2022-02-09 00:05:27.969"
"two-step-fixation","167","595607","0.0-76.0-2.10","293","690","19","Female","false","true","false","true","""event"",""trial"",""time""
""fullscreenenter"",""5"",""16311""
","
","
","""event"",""trial"",""time""
""fullscreenenter"",""5"",""16311""
","
","","images/earth.jpg","","","","","","","","","","","","","","fixation","","","","","",""
"d3-animate-choice","168","598021","0.0-76.0-0.11","293","690","19","Female","false","true","false","true","""event"",""trial"",""time""
""fullscreenenter"",""5"",""16311""
","
","
","""event"",""trial"",""time""
""fullscreenenter"",""5"",""16311""
","
","406.59999999403954","","48","","","3000","1","","","images/earth.jpg","images/rocket1","images/rocket2","null","images/rocket1","","1","real","null","2","","",""
"d3-animate-choice","169","600337","0.0-76.0-1.11","293","690","19","Female","false","true","false","true","""event"",""trial"",""time""
""fullscreenenter"",""5"",""16311""
","
","
","""event"",""trial"",""time""
""fullscreenenter"",""5"",""16311""
","
","308.59999999403954","","49","","","3000","1","","","images/redplanet1.jpg","images/alien2","images/alien1","images/rocket1","images/alien1","images/t.png","2","real","true","1","common","1","2022-02-09 00:05:33.708"
"two-step-fixation","170","601347","0.0-76.0-2.11","293","690","19","Female","false","true","false","true","""event"",""trial"",""time""
""fullscreenenter"",""5"",""16311""
","
","
","""event"",""trial"",""time""
""fullscreenenter"",""5"",""16311""
","
","","images/earth.jpg","","","","","","","","","","","","","","fixation","","","","","",""
"d3-animate-choice","171","603775","0.0-76.0-0.12","293","690","19","Female","false","true","false","true","""event"",""trial"",""time""
""fullscreenenter"",""5"",""16311""
","
","
","""event"",""trial"",""time""
""fullscreenenter"",""5"",""16311""
","
","418.3999999910593","","49","","","3000","1","","","images/earth.jpg","images/rocket1","images/rocket2","null","images/rocket2","","1","real","null","1","","",""
"d3-animate-choice","172","605916","0.0-76.0-1.12","293","690","19","Female","false","true","false","true","""event"",""trial"",""time""
""fullscreenenter"",""5"",""16311""
","
","
","""event"",""trial"",""time""
""fullscreenenter"",""5"",""16311""
","
","133.40000000596046","","48","","","3000","1","","","images/purpleplanet.jpg","images/alien4","images/alien3","images/rocket2","images/alien4","images/t.png","2","real","true","2","common","1","2022-02-09 00:05:39.286"
"two-step-fixation","173","606924","0.0-76.0-2.12","293","690","19","Female","false","true","false","true","""event"",""trial"",""time""
""fullscreenenter"",""5"",""16311""
","
","
","""event"",""trial"",""time""
""fullscreenenter"",""5"",""16311""
","
","","images/earth.jpg","","","","","","","","","","","","","","fixation","","","","","",""
"d3-animate-choice","174","609200","0.0-76.0-0.13","293","690","19","Female","false","true","false","true","""event"",""trial"",""time""
""fullscreenenter"",""5"",""16311""
","
","
","""event"",""trial"",""time""
""fullscreenenter"",""5"",""16311""
","
","267.6000000089407","","49","","","3000","1","","","images/earth.jpg","images/rocket1","images/rocket2","null","images/rocket2","","1","real","null","1","","",""
"d3-animate-choice","175","611665","0.0-76.0-1.13","293","690","19","Female","false","true","false","true","""event"",""trial"",""time""
""fullscreenenter"",""5"",""16311""
","
","
","""event"",""trial"",""time""
""fullscreenenter"",""5"",""16311""
","
","457.70000000298023","","49","","","3000","1","","","images/redplanet1.jpg","images/alien2","images/alien1","images/rocket2","images/alien1","images/t.png","2","real","false","1","rare","1","2022-02-09 00:05:45.035"
"two-step-fixation","176","612673","0.0-76.0-2.13","293","690","19","Female","false","true","false","true","""event"",""trial"",""time""
""fullscreenenter"",""5"",""16311""
","
","
","""event"",""trial"",""time""
""fullscreenenter"",""5"",""16311""
","
","","images/earth.jpg","","","","","","","","","","","","","","fixation","","","","","",""
"d3-animate-choice","177","614708","0.0-76.0-0.14","293","690","19","Female","false","true","false","true","""event"",""trial"",""time""
""fullscreenenter"",""5"",""16311""
","
","
","""event"",""trial"",""time""
""fullscreenenter"",""5"",""16311""
","
","26.200000002980232","","48","","","3000","1","","","images/earth.jpg","images/rocket1","images/rocket2","null","images/rocket1","","1","real","null","2","","",""
"d3-animate-choice","178","617351","0.0-76.0-1.14","293","690","19","Female","false","true","false","true","""event"",""trial"",""time""
""fullscreenenter"",""5"",""16311""
","
","
","""event"",""trial"",""time""
""fullscreenenter"",""5"",""16311""
","
","636.3999999910593","","48","","","3000","1","","","images/redplanet1.jpg","images/alien2","images/alien1","images/rocket1","images/alien2","images/nothing.png","2","real","true","2","common","0","2022-02-09 00:05:50.721"
"two-step-fixation","179","618358","0.0-76.0-2.14","293","690","19","Female","false","true","false","true","""event"",""trial"",""time""
""fullscreenenter"",""5"",""16311""
","
","
","""event"",""trial"",""time""
""fullscreenenter"",""5"",""16311""
","
","","images/earth.jpg","","","","","","","","","","","","","","fixation","","","","","",""
"d3-animate-choice","180","620582","0.0-76.0-0.15","293","690","19","Female","false","true","false","true","""event"",""trial"",""time""
""fullscreenenter"",""5"",""16311""
","
","
","""event"",""trial"",""time""
""fullscreenenter"",""5"",""16311""
","
","218.40000000596046","","49","","","3000","1","1737.0999999940395","48","images/earth.jpg","images/rocket1","images/rocket2","null","images/rocket2","","1","real","null","1","","",""
"d3-animate-choice","181","622852","0.0-76.0-1.15","293","690","19","Female","false","true","false","true","""event"",""trial"",""time""
""fullscreenenter"",""5"",""16311""
","
","
","""event"",""trial"",""time""
""fullscreenenter"",""5"",""16311""
","
","262.29999999701977","","48","","","3000","1","","","images/purpleplanet.jpg","images/alien4","images/alien3","images/rocket2","images/alien4","images/t.png","2","real","true","2","common","1","2022-02-09 00:05:56.222"
"two-step-fixation","182","623858","0.0-76.0-2.15","293","690","19","Female","false","true","false","true","""event"",""trial"",""time""
""fullscreenenter"",""5"",""16311""
","
","
","""event"",""trial"",""time""
""fullscreenenter"",""5"",""16311""
","
","","images/earth.jpg","","","","","","","","","","","","","","fixation","","","","","",""
"d3-animate-choice","183","626142","0.0-76.0-0.16","293","690","19","Female","false","true","false","true","""event"",""trial"",""time""
""fullscreenenter"",""5"",""16311""
","
","
","""event"",""trial"",""time""
""fullscreenenter"",""5"",""16311""
","
","276.70000000298023","","48","","","3000","1","","","images/earth.jpg","images/rocket1","images/rocket2","null","images/rocket1","","1","real","null","2","","",""
"d3-animate-choice","184","628597","0.0-76.0-1.16","293","690","19","Female","false","true","false","true","""event"",""trial"",""time""
""fullscreenenter"",""5"",""16311""
","
","
","""event"",""trial"",""time""
""fullscreenenter"",""5"",""16311""
","
","446.20000000298023","","49","","","3000","1","","","images/redplanet1.jpg","images/alien2","images/alien1","images/rocket1","images/alien1","images/nothing.png","2","real","true","1","common","0","2022-02-09 00:06:01.967"
"two-step-fixation","185","629602","0.0-76.0-2.16","293","690","19","Female","false","true","false","true","""event"",""trial"",""time""
""fullscreenenter"",""5"",""16311""
","
","
","""event"",""trial"",""time""
""fullscreenenter"",""5"",""16311""
","
","","images/earth.jpg","","","","","","","","","","","","","","fixation","","","","","",""
"d3-animate-choice","186","632145","0.0-76.0-0.17","293","690","19","Female","false","true","false","true","""event"",""trial"",""time""
""fullscreenenter"",""5"",""16311""
","
","
","""event"",""trial"",""time""
""fullscreenenter"",""5"",""16311""
","
","537.9000000059605","","49","","","3000","1","","","images/earth.jpg","images/rocket1","images/rocket2","null","images/rocket2","","1","real","null","1","","",""
"d3-animate-choice","187","634495","0.0-76.0-1.17","293","690","19","Female","false","true","false","true","""event"",""trial"",""time""
""fullscreenenter"",""5"",""16311""
","
","
","""event"",""trial"",""time""
""fullscreenenter"",""5"",""16311""
","
","344.5","","48","","","3000","1","","","images/purpleplanet.jpg","images/alien4","images/alien3","images/rocket2","images/alien4","images/t.png","2","real","true","2","common","1","2022-02-09 00:06:07.865"
"two-step-fixation","188","635501","0.0-76.0-2.17","293","690","19","Female","false","true","false","true","""event"",""trial"",""time""
""fullscreenenter"",""5"",""16311""
","
","
","""event"",""trial"",""time""
""fullscreenenter"",""5"",""16311""
","
","","images/earth.jpg","","","","","","","","","","","","","","fixation","","","","","",""
"d3-animate-choice","189","637863","0.0-76.0-0.18","293","690","19","Female","false","true","false","true","""event"",""trial"",""time""
""fullscreenenter"",""5"",""16311""
","
","
","""event"",""trial"",""time""
""fullscreenenter"",""5"",""16311""
","
","356.3999999910593","","49","","","3000","1","","","images/earth.jpg","images/rocket1","images/rocket2","null","images/rocket2","","1","real","null","1","","",""
"d3-animate-choice","190","640095","0.0-76.0-1.18","293","690","19","Female","false","true","false","true","""event"",""trial"",""time""
""fullscreenenter"",""5"",""16311""
","
","
","""event"",""trial"",""time""
""fullscreenenter"",""5"",""16311""
","
","227.09999999403954","","48","","","3000","1","","","images/purpleplanet.jpg","images/alien4","images/alien3","images/rocket2","images/alien4","images/t.png","2","real","true","2","common","1","2022-02-09 00:06:13.465"
"two-step-fixation","191","641101","0.0-76.0-2.18","293","690","19","Female","false","true","false","true","""event"",""trial"",""time""
""fullscreenenter"",""5"",""16311""
","
","
","""event"",""trial"",""time""
""fullscreenenter"",""5"",""16311""
","
","","images/earth.jpg","","","","","","","","","","","","","","fixation","","","","","",""
"d3-animate-choice","192","643407","0.0-76.0-0.19","293","690","19","Female","false","true","false","true","""event"",""trial"",""time""
""fullscreenenter"",""5"",""16311""
","
","
","""event"",""trial"",""time""
""fullscreenenter"",""5"",""16311""
","
","299.69999998807907","","48","","","3000","1","","","images/earth.jpg","images/rocket1","images/rocket2","null","images/rocket1","","1","real","null","2","","",""
"d3-animate-choice","193","645679","0.0-76.0-1.19","293","690","19","Female","false","true","false","true","""event"",""trial"",""time""
""fullscreenenter"",""5"",""16311""
","
","
","""event"",""trial"",""time""
""fullscreenenter"",""5"",""16311""
","
","266.19999998807907","","49","","","3000","1","","","images/redplanet1.jpg","images/alien2","images/alien1","images/rocket1","images/alien1","images/t.png","2","real","true","1","common","1","2022-02-09 00:06:19.049"
"two-step-fixation","194","646686","0.0-76.0-2.19","293","690","19","Female","false","true","false","true","""event"",""trial"",""time""
""fullscreenenter"",""5"",""16311""
","
","
","""event"",""trial"",""time""
""fullscreenenter"",""5"",""16311""
","
","","images/earth.jpg","","","","","","","","","","","","","","fixation","","","","","",""
"d3-animate-choice","195","648841","0.0-76.0-0.20","293","690","19","Female","false","true","false","true","""event"",""trial"",""time""
""fullscreenenter"",""5"",""16311""
","
","
","""event"",""trial"",""time""
""fullscreenenter"",""5"",""16311""
","
","149","","48","","","3000","1","","","images/earth.jpg","images/rocket1","images/rocket2","null","images/rocket1","","1","real","null","2","","",""
"d3-animate-choice","196","651133","0.0-76.0-1.20","293","690","19","Female","false","true","false","true","""event"",""trial"",""time""
""fullscreenenter"",""5"",""16311""
","
","
","""event"",""trial"",""time""
""fullscreenenter"",""5"",""16311""
","
","284.20000000298023","","48","","","3000","1","","","images/purpleplanet.jpg","images/alien4","images/alien3","images/rocket1","images/alien4","images/t.png","2","real","false","2","rare","1","2022-02-09 00:06:24.503"
"two-step-fixation","197","652138","0.0-76.0-2.20","293","690","19","Female","false","true","false","true","""event"",""trial"",""time""
""fullscreenenter"",""5"",""16311""
","
","
","""event"",""trial"",""time""
""fullscreenenter"",""5"",""16311""
","
","","images/earth.jpg","","","","","","","","","","","","","","fixation","","","","","",""
"d3-animate-choice","198","654513","0.0-76.0-0.21","293","690","19","Female","false","true","false","true","""event"",""trial"",""time""
""fullscreenenter"",""5"",""16311""
","
","
","""event"",""trial"",""time""
""fullscreenenter"",""5"",""16311""
","
","369.90000000596046","","49","","","3000","1","","","images/earth.jpg","images/rocket1","images/rocket2","null","images/rocket2","","1","real","null","1","","",""
"d3-animate-choice","199","656876","0.0-76.0-1.21","293","690","19","Female","false","true","false","true","""event"",""trial"",""time""
""fullscreenenter"",""5"",""16311""
","
","
","""event"",""trial"",""time""
""fullscreenenter"",""5"",""16311""
","
","356.70000000298023","","48","","","3000","1","","","images/redplanet1.jpg","images/alien2","images/alien1","images/rocket2","images/alien2","images/nothing.png","2","real","false","2","rare","0","2022-02-09 00:06:30.246"
"two-step-fixation","200","657881","0.0-76.0-2.21","293","690","19","Female","false","true","false","true","""event"",""trial"",""time""
""fullscreenenter"",""5"",""16311""
","
","
","""event"",""trial"",""time""
""fullscreenenter"",""5"",""16311""
","
","","images/earth.jpg","","","","","","","","","","","","","","fixation","","","","","",""
"d3-animate-choice","201","660195","0.0-76.0-0.22","293","690","19","Female","false","true","false","true","""event"",""trial"",""time""
""fullscreenenter"",""5"",""16311""
","
","
","""event"",""trial"",""time""
""fullscreenenter"",""5"",""16311""
","
","307.1000000089407","","49","","","3000","1","","","images/earth.jpg","images/rocket1","images/rocket2","null","images/rocket2","","1","real","null","1","","",""
"d3-animate-choice","202","662582","0.0-76.0-1.22","293","690","19","Female","false","true","false","true","""event"",""trial"",""time""
""fullscreenenter"",""5"",""16311""
","
","
","""event"",""trial"",""time""
""fullscreenenter"",""5"",""16311""
","
","380.70000000298023","","48","","","3000","1","","","images/purpleplanet.jpg","images/alien4","images/alien3","images/rocket2","images/alien4","images/nothing.png","2","real","true","2","common","0","2022-02-09 00:06:35.952"
"two-step-fixation","203","663590","0.0-76.0-2.22","293","690","19","Female","false","true","false","true","""event"",""trial"",""time""
""fullscreenenter"",""5"",""16311""
","
","
","""event"",""trial"",""time""
""fullscreenenter"",""5"",""16311""
","
","","images/earth.jpg","","","","","","","","","","","","","","fixation","","","","","",""
"d3-animate-choice","204","665875","0.0-76.0-0.23","293","690","19","Female","false","true","false","true","""event"",""trial"",""time""
""fullscreenenter"",""5"",""16311""
","
","
","""event"",""trial"",""time""
""fullscreenenter"",""5"",""16311""
","
","276.90000000596046","","48","","","3000","1","","","images/earth.jpg","images/rocket1","images/rocket2","null","images/rocket1","","1","real","null","2","","",""
"d3-animate-choice","205","668200","0.0-76.0-1.23","293","690","19","Female","false","true","false","true","""event"",""trial"",""time""
""fullscreenenter"",""5"",""16311""
","
","
","""event"",""trial"",""time""
""fullscreenenter"",""5"",""16311""
","
","318.79999999701977","","49","","","3000","1","","","images/redplanet1.jpg","images/alien2","images/alien1","images/rocket1","images/alien1","images/t.png","2","real","true","1","common","1","2022-02-09 00:06:41.570"
"two-step-fixation","206","669210","0.0-76.0-2.23","293","690","19","Female","false","true","false","true","""event"",""trial"",""time""
""fullscreenenter"",""5"",""16311""
","
","
","""event"",""trial"",""time""
""fullscreenenter"",""5"",""16311""
","
","","images/earth.jpg","","","","","","","","","","","","","","fixation","","","","","",""
"d3-animate-choice","207","671651","0.0-76.0-0.24","293","690","19","Female","false","true","false","true","""event"",""trial"",""time""
""fullscreenenter"",""5"",""16311""
","
","
","""event"",""trial"",""time""
""fullscreenenter"",""5"",""16311""
","
","431.90000000596046","","48","","","3000","1","","","images/earth.jpg","images/rocket1","images/rocket2","null","images/rocket1","","1","real","null","2","","",""
"d3-animate-choice","208","673944","0.0-76.0-1.24","293","690","19","Female","false","true","false","true","""event"",""trial"",""time""
""fullscreenenter"",""5"",""16311""
","
","
","""event"",""trial"",""time""
""fullscreenenter"",""5"",""16311""
","
","284.29999999701977","","49","","","3000","1","","","images/redplanet1.jpg","images/alien2","images/alien1","images/rocket1","images/alien1","images/t.png","2","real","true","1","common","1","2022-02-09 00:06:47.314"
"two-step-fixation","209","674952","0.0-76.0-2.24","293","690","19","Female","false","true","false","true","""event"",""trial"",""time""
""fullscreenenter"",""5"",""16311""
","
","
","""event"",""trial"",""time""
""fullscreenenter"",""5"",""16311""
","
","","images/earth.jpg","","","","","","","","","","","","","","fixation","","","","","",""
"d3-animate-choice","210","677058","0.0-76.0-0.25","293","690","19","Female","false","true","false","true","""event"",""trial"",""time""
""fullscreenenter"",""5"",""16311""
","
","
","""event"",""trial"",""time""
""fullscreenenter"",""5"",""16311""
","
","98.20000000298023","","48","","","3000","1","","","images/earth.jpg","images/rocket1","images/rocket2","null","images/rocket1","","1","real","null","2","","",""
"d3-animate-choice","211","679934","0.0-76.0-1.25","293","690","19","Female","false","true","false","true","""event"",""trial"",""time""
""fullscreenenter"",""5"",""16311""
","
","
","""event"",""trial"",""time""
""fullscreenenter"",""5"",""16311""
","
","871.2999999970198","","48","","","3000","1","","","images/purpleplanet.jpg","images/alien4","images/alien3","images/rocket1","images/alien4","images/nothing.png","2","real","false","2","rare","0","2022-02-09 00:06:53.304"
"two-step-fixation","212","680943","0.0-76.0-2.25","293","690","19","Female","false","true","false","true","""event"",""trial"",""time""
""fullscreenenter"",""5"",""16311""
","
","
","""event"",""trial"",""time""
""fullscreenenter"",""5"",""16311""
","
","","images/earth.jpg","","","","","","","","","","","","","","fixation","","","","","",""
"d3-animate-choice","213","683161","0.0-76.0-0.26","293","690","19","Female","false","true","false","true","""event"",""trial"",""time""
""fullscreenenter"",""5"",""16311""
","
","
","""event"",""trial"",""time""
""fullscreenenter"",""5"",""16311""
","
","211.09999999403954","","49","","","3000","1","","","images/earth.jpg","images/rocket1","images/rocket2","null","images/rocket2","","1","real","null","1","","",""
"d3-animate-choice","214","685597","0.0-76.0-1.26","293","690","19","Female","false","true","false","true","""event"",""trial"",""time""
""fullscreenenter"",""5"",""16311""
","
","
","""event"",""trial"",""time""
""fullscreenenter"",""5"",""16311""
","
","427.70000000298023","","48","","","3000","1","","","images/purpleplanet.jpg","images/alien4","images/alien3","images/rocket2","images/alien4","images/nothing.png","2","real","true","2","common","0","2022-02-09 00:06:58.967"
"two-step-fixation","215","686602","0.0-76.0-2.26","293","690","19","Female","false","true","false","true","""event"",""trial"",""time""
""fullscreenenter"",""5"",""16311""
","
","
","""event"",""trial"",""time""
""fullscreenenter"",""5"",""16311""
","
","","images/earth.jpg","","","","","","","","","","","","","","fixation","","","","","",""
"d3-animate-choice","216","688919","0.0-76.0-0.27","293","690","19","Female","false","true","false","true","""event"",""trial"",""time""
""fullscreenenter"",""5"",""16311""
","
","
","""event"",""trial"",""time""
""fullscreenenter"",""5"",""16311""
","
","311.09999999403954","","49","","","3000","1","","","images/earth.jpg","images/rocket1","images/rocket2","null","images/rocket2","","1","real","null","1","","",""
"d3-animate-choice","217","691318","0.0-76.0-1.27","293","690","19","Female","false","true","false","true","""event"",""trial"",""time""
""fullscreenenter"",""5"",""16311""
","
","
","""event"",""trial"",""time""
""fullscreenenter"",""5"",""16311""
","
","390.70000000298023","","48","","","3000","1","","","images/purpleplanet.jpg","images/alien4","images/alien3","images/rocket2","images/alien4","images/t.png","2","real","true","2","common","1","2022-02-09 00:07:04.688"
"two-step-fixation","218","692324","0.0-76.0-2.27","293","690","19","Female","false","true","false","true","""event"",""trial"",""time""
""fullscreenenter"",""5"",""16311""
","
","
","""event"",""trial"",""time""
""fullscreenenter"",""5"",""16311""
","
","","images/earth.jpg","","","","","","","","","","","","","","fixation","","","","","",""
"d3-animate-choice","219","694394","0.0-76.0-0.28","293","690","19","Female","false","true","false","true","""event"",""trial"",""time""
""fullscreenenter"",""5"",""16311""
","
","
","""event"",""trial"",""time""
""fullscreenenter"",""5"",""16311""
","
","63.70000000298023","","49","","","3000","1","","","images/earth.jpg","images/rocket1","images/rocket2","null","images/rocket2","","1","real","null","1","","",""
"d3-animate-choice","220","696752","0.0-76.0-1.28","293","690","19","Female","false","true","false","true","""event"",""trial"",""time""
""fullscreenenter"",""5"",""16311""
","
","
","""event"",""trial"",""time""
""fullscreenenter"",""5"",""16311""
","
","352.29999999701977","","48","","","3000","1","","","images/purpleplanet.jpg","images/alien4","images/alien3","images/rocket2","images/alien4","images/t.png","2","real","true","2","common","1","2022-02-09 00:07:10.122"
"two-step-fixation","221","697758","0.0-76.0-2.28","293","690","19","Female","false","true","false","true","""event"",""trial"",""time""
""fullscreenenter"",""5"",""16311""
","
","
","""event"",""trial"",""time""
""fullscreenenter"",""5"",""16311""
","
","","images/earth.jpg","","","","","","","","","","","","","","fixation","","","","","",""
"d3-animate-choice","222","700055","0.0-76.0-0.29","293","690","19","Female","false","true","false","true","""event"",""trial"",""time""
""fullscreenenter"",""5"",""16311""
","
","
","""event"",""trial"",""time""
""fullscreenenter"",""5"",""16311""
","
","289.29999999701977","","48","","","3000","1","","","images/earth.jpg","images/rocket1","images/rocket2","null","images/rocket1","","1","real","null","2","","",""
"d3-animate-choice","223","702313","0.0-76.0-1.29","293","690","19","Female","false","true","false","true","""event"",""trial"",""time""
""fullscreenenter"",""5"",""16311""
","
","
","""event"",""trial"",""time""
""fullscreenenter"",""5"",""16311""
","
","250","","49","","","3000","1","","","images/redplanet1.jpg","images/alien2","images/alien1","images/rocket1","images/alien1","images/t.png","2","real","true","1","common","1","2022-02-09 00:07:15.683"
"two-step-fixation","224","703318","0.0-76.0-2.29","293","690","19","Female","false","true","false","true","""event"",""trial"",""time""
""fullscreenenter"",""5"",""16311""
","
","
","""event"",""trial"",""time""
""fullscreenenter"",""5"",""16311""
","
","","images/earth.jpg","","","","","","","","","","","","","","fixation","","","","","",""
"d3-animate-choice","225","705573","0.0-76.0-0.30","293","690","19","Female","false","true","false","true","""event"",""trial"",""time""
""fullscreenenter"",""5"",""16311""
","
","
","""event"",""trial"",""time""
""fullscreenenter"",""5"",""16311""
","
","249.09999999403954","","48","","","3000","1","","","images/earth.jpg","images/rocket1","images/rocket2","null","images/rocket1","","1","real","null","2","","",""
"d3-animate-choice","226","708074","0.0-76.0-1.30","293","690","19","Female","false","true","false","true","""event"",""trial"",""time""
""fullscreenenter"",""5"",""16311""
","
","
","""event"",""trial"",""time""
""fullscreenenter"",""5"",""16311""
","
","493.8999999910593","","49","","","3000","1","","","images/redplanet1.jpg","images/alien2","images/alien1","images/rocket1","images/alien1","images/t.png","2","real","true","1","common","1","2022-02-09 00:07:21.444"
"two-step-fixation","227","709080","0.0-76.0-2.30","293","690","19","Female","false","true","false","true","""event"",""trial"",""time""
""fullscreenenter"",""5"",""16311""
","
","
","""event"",""trial"",""time""
""fullscreenenter"",""5"",""16311""
","
","","images/earth.jpg","","","","","","","","","","","","","","fixation","","","","","",""
"d3-animate-choice","228","711257","0.0-76.0-0.31","293","690","19","Female","false","true","false","true","""event"",""trial"",""time""
""fullscreenenter"",""5"",""16311""
","
","
","""event"",""trial"",""time""
""fullscreenenter"",""5"",""16311""
","
","169.79999999701977","","48","","","3000","1","","","images/earth.jpg","images/rocket1","images/rocket2","null","images/rocket1","","1","real","null","2","","",""
"d3-animate-choice","229","713734","0.0-76.0-1.31","293","690","19","Female","false","true","false","true","""event"",""trial"",""time""
""fullscreenenter"",""5"",""16311""
","
","
","""event"",""trial"",""time""
""fullscreenenter"",""5"",""16311""
","
","470.20000000298023","","49","","","3000","1","","","images/purpleplanet.jpg","images/alien4","images/alien3","images/rocket1","images/alien3","images/nothing.png","2","real","false","1","rare","0","2022-02-09 00:07:27.104"
"two-step-fixation","230","714742","0.0-76.0-2.31","293","690","19","Female","false","true","false","true","""event"",""trial"",""time""
""fullscreenenter"",""5"",""16311""
","
","
","""event"",""trial"",""time""
""fullscreenenter"",""5"",""16311""
","
","","images/earth.jpg","","","","","","","","","","","","","","fixation","","","","","",""
"d3-animate-choice","231","717082","0.0-76.0-0.32","293","690","19","Female","false","true","false","true","""event"",""trial"",""time""
""fullscreenenter"",""5"",""16311""
","
","
","""event"",""trial"",""time""
""fullscreenenter"",""5"",""16311""
","
","333.6000000089407","","49","","","3000","1","","","images/earth.jpg","images/rocket1","images/rocket2","null","images/rocket2","","1","real","null","1","","",""
"d3-animate-choice","232","719337","0.0-76.0-1.32","293","690","19","Female","false","true","false","true","""event"",""trial"",""time""
""fullscreenenter"",""5"",""16311""
","
","
","""event"",""trial"",""time""
""fullscreenenter"",""5"",""16311""
","
","249.70000000298023","","48","","","3000","1","","","images/redplanet1.jpg","images/alien2","images/alien1","images/rocket2","images/alien2","images/nothing.png","2","real","false","2","rare","0","2022-02-09 00:07:32.707"
"two-step-fixation","233","720347","0.0-76.0-2.32","293","690","19","Female","false","true","false","true","""event"",""trial"",""time""
""fullscreenenter"",""5"",""16311""
","
","
","""event"",""trial"",""time""
""fullscreenenter"",""5"",""16311""
","
","","images/earth.jpg","","","","","","","","","","","","","","fixation","","","","","",""
"d3-animate-choice","234","722582","0.0-76.0-0.33","293","690","19","Female","false","true","false","true","""event"",""trial"",""time""
""fullscreenenter"",""5"",""16311""
","
","
","""event"",""trial"",""time""
""fullscreenenter"",""5"",""16311""
","
","227.1000000089407","","48","","","3000","1","","","images/earth.jpg","images/rocket1","images/rocket2","null","images/rocket1","","1","real","null","2","","",""
"d3-animate-choice","235","725188","0.0-76.0-1.33","293","690","19","Female","false","true","false","true","""event"",""trial"",""time""
""fullscreenenter"",""5"",""16311""
","
","
","""event"",""trial"",""time""
""fullscreenenter"",""5"",""16311""
","
","599.4000000059605","","49","","","3000","1","","","images/purpleplanet.jpg","images/alien4","images/alien3","images/rocket1","images/alien3","images/nothing.png","2","real","false","1","rare","0","2022-02-09 00:07:38.558"
"two-step-fixation","236","726197","0.0-76.0-2.33","293","690","19","Female","false","true","false","true","""event"",""trial"",""time""
""fullscreenenter"",""5"",""16311""
","
","
","""event"",""trial"",""time""
""fullscreenenter"",""5"",""16311""
","
","","images/earth.jpg","","","","","","","","","","","","","","fixation","","","","","",""
"d3-animate-choice","237","728482","0.0-76.0-0.34","293","690","19","Female","false","true","false","true","""event"",""trial"",""time""
""fullscreenenter"",""5"",""16311""
","
","
","""event"",""trial"",""time""
""fullscreenenter"",""5"",""16311""
","
","276.90000000596046","","49","","","3000","1","","","images/earth.jpg","images/rocket1","images/rocket2","null","images/rocket2","","1","real","null","1","","",""
"d3-animate-choice","238","731214","0.0-76.0-1.34","293","690","19","Female","false","true","false","true","""event"",""trial"",""time""
""fullscreenenter"",""5"",""16311""
","
","
","""event"",""trial"",""time""
""fullscreenenter"",""5"",""16311""
","
","725","","48","","","3000","1","","","images/purpleplanet.jpg","images/alien4","images/alien3","images/rocket2","images/alien4","images/t.png","2","real","true","2","common","1","2022-02-09 00:07:44.584"
"two-step-fixation","239","732220","0.0-76.0-2.34","293","690","19","Female","false","true","false","true","""event"",""trial"",""time""
""fullscreenenter"",""5"",""16311""
","
","
","""event"",""trial"",""time""
""fullscreenenter"",""5"",""16311""
","
","","images/earth.jpg","","","","","","","","","","","","","","fixation","","","","","",""
"d3-animate-choice","240","734323","0.0-76.0-0.35","293","690","19","Female","false","true","false","true","""event"",""trial"",""time""
""fullscreenenter"",""5"",""16311""
","
","
","""event"",""trial"",""time""
""fullscreenenter"",""5"",""16311""
","
","95.79999999701977","","48","","","3000","1","","","images/earth.jpg","images/rocket1","images/rocket2","null","images/rocket1","","1","real","null","2","","",""
"d3-animate-choice","241","736744","0.0-76.0-1.35","293","690","19","Female","false","true","false","true","""event"",""trial"",""time""
""fullscreenenter"",""5"",""16311""
","
","
","""event"",""trial"",""time""
""fullscreenenter"",""5"",""16311""
","
","413.40000000596046","","49","","","3000","1","","","images/purpleplanet.jpg","images/alien4","images/alien3","images/rocket1","images/alien3","images/nothing.png","2","real","false","1","rare","0","2022-02-09 00:07:50.115"
"two-step-fixation","242","737750","0.0-76.0-2.35","293","690","19","Female","false","true","false","true","""event"",""trial"",""time""
""fullscreenenter"",""5"",""16311""
","
","
","""event"",""trial"",""time""
""fullscreenenter"",""5"",""16311""
","
","","images/earth.jpg","","","","","","","","","","","","","","fixation","","","","","",""
"d3-animate-choice","243","739947","0.0-76.0-0.36","293","690","19","Female","false","true","false","true","""event"",""trial"",""time""
""fullscreenenter"",""5"",""16311""
","
","
","""event"",""trial"",""time""
""fullscreenenter"",""5"",""16311""
","
","190.59999999403954","","49","","","3000","1","","","images/earth.jpg","images/rocket1","images/rocket2","null","images/rocket2","","1","real","null","1","","",""
"d3-animate-choice","244","742385","0.0-76.0-1.36","293","690","19","Female","false","true","false","true","""event"",""trial"",""time""
""fullscreenenter"",""5"",""16311""
","
","
","""event"",""trial"",""time""
""fullscreenenter"",""5"",""16311""
","
","430.69999998807907","","49","","","3000","1","","","images/redplanet1.jpg","images/alien2","images/alien1","images/rocket2","images/alien1","images/nothing.png","2","real","false","1","rare","0","2022-02-09 00:07:55.755"
"two-step-fixation","245","743391","0.0-76.0-2.36","293","690","19","Female","false","true","false","true","""event"",""trial"",""time""
""fullscreenenter"",""5"",""16311""
","
","
","""event"",""trial"",""time""
""fullscreenenter"",""5"",""16311""
","
","","images/earth.jpg","","","","","","","","","","","","","","fixation","","","","","",""
"d3-animate-choice","246","745691","0.0-76.0-0.37","293","690","19","Female","false","true","false","true","""event"",""trial"",""time""
""fullscreenenter"",""5"",""16311""
","
","
","""event"",""trial"",""time""
""fullscreenenter"",""5"",""16311""
","
